time,seconds_elapsed,z,y,x
1761469248159915000,0.1139150390625,0.4600929614633322,0.31269071554020045,0.1622737979710102
1761469248169898000,0.12389794921875,0.16966916891932488,0.2631323193840682,0.2193552831083536
1761469248179881000,0.133880859375,0.15122574973404407,0.2265267821729183,0.26124972050786016
1761469248189865000,0.143864990234375,0.3843827637016773,0.15482991170585156,0.22324819889366626
1761469248199848000,0.153847900390625,0.5875608189910649,0.07742489272505045,0.10579144777059554
1761469248209831000,0.163830810546875,0.583081043228507,-0.016941928581148385,0.003926233533024788
1761469248219814100,0.173814208984375,0.39831192033290863,-0.11487930185049772,-0.014497896429896354
1761469248229798100,0.183798095703125,0.10249240622520446,-0.21759967161267996,0.04592296226322651
1761469248239780900,0.19378076171875,-0.09194178611636161,-0.27306699955165387,0.19996903011500836
1761469248249763800,0.203763916015625,-0.19562135629951952,-0.29577582109645006,0.3698696697026491
1761469248259748000,0.213748046875,-0.3377385014265776,-0.3019942572198808,0.4523386940747499
1761469248269731000,0.22373095703125,-0.34704467443227766,-0.27645445003286,0.4301555038392543
1761469248279713800,0.2337138671875,-0.3204559427142143,-0.2655548703558743,0.3054641252875328
1761469248289697000,0.243697021484375,-0.22458909210860728,-0.2907669068932533,0.1389338389158249
1761469248299681000,0.253680908203125,-0.10572247418761253,-0.2736819165796041,-0.018313070803880692
1761469248309664000,0.2636640625,0.009726444244384765,-0.27522943828254937,-0.1079547632843256
1761469248319647000,0.27364697265625,-0.02731295433938503,-0.30262028016373516,-0.14885083729624748
1761469248329630000,0.2836298828125,-0.09619126025438308,-0.33338834339305756,-0.25868834558725357
1761469248339614000,0.293614013671875,-0.07137830603718757,-0.3617591362223029,-0.418455129173398
1761469248349597000,0.303596923828125,-0.034551088899374006,-0.34212942986190314,-0.4712210891991853
1761469248359580200,0.313580078125,-0.056335635206103324,-0.22644319554269313,-0.39044600926339623
1761469248369563000,0.32356298828125,-0.04514262554049492,-0.13473112652897834,-0.25988369285166263
1761469248379547000,0.333546875,-0.012558452799916266,-0.1292228845015168,-0.17370763065516948
1761469248389529900,0.34352978515625,0.044747488743066784,-0.15170827255398034,-0.07179799275398253
1761469248399513000,0.35351318359375,0.02707154679894447,-0.20673487098813056,0.06860358062684535
1761469248409497000,0.3634970703125,-0.04456161078214645,-0.2896270892083645,0.13682196132838725
1761469248419479800,0.373479736328125,-0.05613397515416145,-0.3764087160825729,0.11128127735853195
1761469248429462800,0.383462890625,-0.09365385073125362,-0.4713545063205063,0.03155541421473026
1761469248439446000,0.393446044921875,-0.19363339735269544,-0.6040015200518072,-0.07734335192143917
1761469248449430000,0.403429931640625,-0.23325579816699027,-0.7084247482091188,-0.21057225719392297
1761469248459413000,0.4134130859375,-0.23939503157436845,-0.8023578542731702,-0.24908172833025455
1761469248469396000,0.42339599609375,-0.2843874349892139,-0.8421640872217714,-0.2811825014680624
1761469248479379000,0.43337890625,-0.22733926759958265,-0.79054320557788,-0.26001579479873177
1761469248489363000,0.443363037109375,-0.10731120468378066,-0.7650354009643197,-0.19226444708704948
1761469248499346000,0.453345947265625,-0.1211778174728155,-0.6788255826286971,-0.04989128137230873
1761469248509329200,0.4633291015625,-0.2982470335155725,-0.3614635142765939,0.22680852172374724
1761469248519312000,0.473311767578125,-0.4375631497472524,0.17032456408813595,0.6475789421021938
1761469248529296000,0.4832958984375,-0.3348065396279096,0.7501064196407794,1.0553086791217325
1761469248539279000,0.493279052734375,-0.019460487273335457,1.3490988793589174,1.2409241897135972
1761469248549262000,0.503261962890625,0.19390461550951002,1.840467999704182,1.186315232169628
1761469248559244800,0.513244873046875,0.38704233829975127,2.04065242613554,1.0959282742798329
1761469248569228800,0.523228759765625,0.4638081825941801,2.0191092873692513,0.9902186595737934
1761469248579212000,0.5332119140625,0.5797188733190298,1.8158359550118446,0.8344178570091724
1761469248589195000,0.543195068359375,0.7541384516358375,1.47966294933632,0.6282575710386037
1761469248599179000,0.553178955078125,0.775430245989561,1.0501794995397329,0.44337446637451644
1761469248609161700,0.56316162109375,1.0089017327338456,0.7364452662959694,0.23085458224415778
1761469248619145000,0.57314501953125,1.1048813960641621,0.7006576213389635,-0.03958323784768581
1761469248629128000,0.5831279296875,1.0811673429995774,0.9305741920806467,-0.3962830448538065
1761469248639112000,0.59311181640625,1.3371394153654574,1.1303992836803196,-0.7096119121670722
1761469248649095200,0.60309521484375,1.4507950206398963,1.276341247792542,-0.864010446718335
1761469248659078000,0.613077880859375,1.5485130520701407,1.4112443698875605,-0.7823743660390376
1761469248669060900,0.623060791015625,1.5060370153903961,1.6378924403525887,-0.45109015531837937
1761469248679044900,0.633044921875,1.3510837695658207,1.820774726588279,0.05615267985463142
1761469248689028000,0.643028076171875,1.5124153182506561,1.849057110481709,0.25100246725976466
1761469248699010800,0.6530107421875,1.7032640533208847,1.8633556849472224,0.5418371786922216
1761469248708993800,0.662993896484375,1.6756266893327236,1.6774565351083874,0.7930255239129066
1761469248718978000,0.67297802734375,1.7345839052140712,1.4145321593865752,0.8249234679549932
1761469248728961000,0.6829609375,1.816772943601012,1.1637257992208003,0.7712251955151558
1761469248738943500,0.692943603515625,1.8152526021659374,0.9376600586883723,0.6835568489342928
1761469248748927500,0.702927490234375,1.6812275780797004,0.7586874932423233,0.5543938779264688
1761469248758910700,0.71291064453125,1.4341981061041353,0.6119809744983911,0.382231138625741
1761469248768893400,0.7228935546875,1.1258253998935221,0.5571794169917702,0.23769348835349083
1761469248778876400,0.73287646484375,0.7596312038332224,0.613154402191937,0.09415010981559753
1761469248788860700,0.742860595703125,0.46214463329613203,0.7047437216088175,-0.0311702142894268
1761469248798843600,0.75284375,0.14633856221437452,0.8372077799886465,-0.08982289426624775
1761469248808826600,0.76282666015625,-0.1353612411260605,0.9721373516991734,-0.09859832139611244
1761469248818809600,0.7728095703125,-0.4459586376488209,1.080084516198933,-0.03418868532776832
1761469248828793600,0.782793701171875,-0.6476537609040737,1.182315056617558,0.10309387924969196
1761469248838776600,0.792776611328125,-0.6245826819181441,1.1959715337872505,0.21382102985680101
1761469248848759600,0.802759521484375,-0.48768531726598735,1.1824489121302961,0.3481307161033153
1761469248858742500,0.812742431640625,-0.25353403156399723,1.0800579204529523,0.4401467364996671
1761469248868726500,0.8227265625,-0.14188392089307308,0.869952403987944,0.4030640832960605
1761469248878709500,0.83270947265625,-0.2506827337861061,0.6318740079700946,0.2399853986829519
1761469248888692700,0.842692626953125,-0.29066169295310973,0.394029128447175,0.10299860218167305
1761469248898676700,0.8526767578125,-0.26572949627041814,0.23755729475319384,-0.048286184263229365
1761469248908659700,0.86265966796875,-0.2166319956243038,0.09795973123162985,-0.23707389515042304
1761469248918642400,0.872642333984375,-0.20544015500247478,-0.06414134052097797,-0.4422182820767164
1761469248928625700,0.882625732421875,-0.2863818236768246,-0.22263941934555767,-0.6561842733621597
1761469248938609700,0.892609619140625,-0.29454116473495956,-0.3556812776133418,-0.8100830416977405
1761469248948592600,0.902592529296875,-0.3017956659078598,-0.4368547092169523,-0.9575643442064523
1761469248958575400,0.912575439453125,-0.3128261784881353,-0.5155395388752222,-1.0875830552607775
1761469248968558600,0.92255859375,-0.17573066091537476,-0.47803866025954483,-1.1607558434993028
1761469248978542600,0.93254248046875,-0.08728314665555953,-0.42597471102327106,-1.1299988861858845
1761469248988525600,0.942525634765625,-0.011745967373251915,-0.30120559106022116,-1.109144898727536
1761469248998508800,0.9525087890625,0.040275896286964416,-0.10085136101990938,-1.0463888750851154
1761469249008491500,0.962491455078125,0.015599720191955565,0.123129536062479,-1.011489411139488
1761469249018475500,0.9724755859375,-0.2163181073695421,0.25002485439926386,-1.0565794297099114
1761469249028458500,0.98245849609375,-0.5139361953318119,0.38723727634996175,-1.047695281508565
1761469249038441700,0.992441650390625,-0.6414665967017412,0.5233195252269506,-0.9789671977192163
1761469249048424400,1.002424560546875,-0.6119967565894127,0.5610135883271694,-0.9386392789840697
1761469249058408400,1.012408447265625,-0.6097849257588386,0.5912167111501098,-0.9493564878314733
1761469249068391700,1.0223916015625,-0.5778922424137592,0.615798779220879,-0.9758131176024675
1761469249078374700,1.032374755859375,-0.432414680942893,0.6160223588436842,-1.0039303740620613
1761469249088358700,1.042358642578125,-0.3154454210758209,0.6229451438441872,-1.0429606542021035
1761469249098341600,1.052341552734375,-0.3780412857204675,0.6106181617125869,-1.1325275278806686
1761469249108324600,1.06232470703125,-0.4288800770759582,0.5997054302930832,-1.277670742830634
1761469249118307600,1.0723076171875,-0.5050292507767677,0.6265706408649683,-1.3668658605873585
1761469249128291600,1.08229150390625,-0.6541162349164485,0.7092141450211406,-1.3784054917335509
1761469249138274600,1.092274658203125,-0.7632920644283294,0.7775535217538475,-1.3605577003538607
1761469249148257500,1.102257568359375,-0.7380179224401712,0.8350368656903505,-1.4155857600927353
1761469249158240500,1.112240478515625,-0.6840215438365936,0.9160168205484748,-1.4382178631395102
1761469249168224500,1.122224609375,-0.6426876629292965,1.0179957242935895,-1.3848112671226263
1761469249178207700,1.132207763671875,-0.5032078805685043,1.1087947701156138,-1.364824125626683
1761469249188190700,1.142190673828125,-0.48483401948809624,1.157754908117652,-1.3792629853457212
1761469249198173400,1.15217333984375,-0.5034048644453287,1.171518645054102,-1.4189116896450518
1761469249208157400,1.162157470703125,-0.5979249766170979,1.1565028622299431,-1.467953660711646
1761469249218140700,1.172140625,-0.7553337989002465,1.0907029408469795,-1.5397177511960267
1761469249228123600,1.18212353515625,-0.918728125333786,0.9629434068962931,-1.5353092871040106
1761469249238106400,1.1921064453125,-0.9399117831379175,0.7064844277963042,-1.5019985536545515
1761469249248090600,1.202090576171875,-1.1077841317683457,0.5544198891505598,-1.3372773625314236
1761469249258073600,1.212073486328125,-1.0853273852884768,0.4310647276386618,-1.0819634618133307
1761469249268056600,1.222056640625,-0.9156658151537179,0.24975392850339412,-0.9442010047644376
1761469249278039800,1.232039794921875,-0.9008253888964652,-0.04854162032902241,-0.9239280320644379
1761469249288023600,1.2420234375,-0.8644459155261516,-0.33437720829993484,-0.9436720124542712
1761469249298006500,1.252006591796875,-0.9445002799719572,-0.6002887831389904,-0.9283142843246459
1761469249307989500,1.261989501953125,-0.9936007032275199,-0.6561980096265674,-0.7352659933835267
1761469249317973500,1.271973388671875,-0.955873322379589,-0.6534554329201578,-0.40051381429135796
1761469249327956700,1.281956787109375,-1.355712013888359,-0.7462912452667951,-0.10865794311761856
1761469249337939500,1.291939453125,-1.4767986459463833,-0.49827276225388045,0.5247849216043948
1761469249347922700,1.301922607421875,-1.2564940992891789,0.02111176161170006,1.2351584657937287
1761469249357906700,1.31190673828125,-1.120842350783944,0.3584533726751804,1.6732079377532005
1761469249367889700,1.3218896484375,-1.1441226886063813,0.3895715645164251,1.8612170654833315
1761469249377872600,1.33187255859375,-0.9291098186165094,0.38668373412042856,1.8115373810350894
1761469249387855600,1.341855712890625,-0.7094955923110247,0.2840501658588648,1.409787887468934
1761469249397839600,1.351839599609375,-0.7208148587048053,0.09892331556677818,0.7195242343723773
1761469249407822600,1.361822509765625,-0.6484148084044457,-0.1922322983831167,-0.135748194617033
1761469249417805600,1.3718056640625,-0.5445563745230436,-0.40211511200815436,-0.9378004900723695
1761469249427788500,1.38178857421875,-0.5613935275554657,-0.3160708594977856,-1.3767851970553397
1761469249437772500,1.3917724609375,-0.5173240842044353,-0.14370529110133648,-1.5934563556462524
1761469249447755500,1.401755615234375,-0.3095511023402214,-0.1328548112630844,-1.7020523394435643
1761469249457738800,1.41173876953125,-0.1591974592655897,0.009698679454624652,-1.6968015793085098
1761469249467721700,1.4217216796875,0.12628127809166909,0.2326701072335243,-1.6064736581295729
1761469249477705500,1.43170556640625,0.5453133303701877,0.44245910509526726,-1.3600322151750326
1761469249487688400,1.4416884765625,1.0686018759369849,0.6684530955657363,-1.0168296031236648
1761469249497671700,1.451671630859375,1.4539561150193214,0.8098623846843839,-0.7879267394691706
1761469249507654700,1.461654541015625,1.6665180847257375,0.7808785745233296,-0.5413420886516571
1761469249517638700,1.471638671875,1.7766735729247332,0.6655006755009293,-0.24788345845639703
1761469249527621600,1.48162158203125,1.6366075151085853,0.5855459720373153,0.013976502904295921
1761469249537604600,1.4916044921875,1.3704326131582258,0.5934136366724968,0.2945505170851946
1761469249547588600,1.501588623046875,1.1366443155497312,0.6724564859881996,0.7082727725178003
1761469249557571600,1.511571533203125,1.1518337013751268,0.626858517895639,0.9752513920664787
1761469249567554600,1.521554443359375,1.144455281561613,0.6319982188716531,1.1850497422784567
1761469249577537500,1.53153759765625,1.1926876898109913,0.7101645776137709,1.304980190038681
1761469249587521500,1.541521484375,1.2940782722741364,0.36277357396185395,1.538819925573468
1761469249597504500,1.55150439453125,1.2105880881607531,0.22156126872003076,1.740339692261815
1761469249607487700,1.56148779296875,1.0203858343005179,0.0628305501833558,1.862018444994092
1761469249617470500,1.571470458984375,0.7434849556744099,-0.21387363682687283,1.787632189312577
1761469249627454500,1.581454345703125,0.27248364670574665,-0.2492211368009448,1.620718456581235
1761469249637437700,1.591437744140625,0.10679507185518741,-0.1687593605980277,1.3763544044226408
1761469249647420700,1.601420654296875,0.19916297442913053,-0.17824790443331,1.1565244895398616
1761469249657403600,1.611403564453125,0.26727964832186696,-0.1769832913249731,0.9300731106907129
1761469249667387400,1.621387451171875,0.28900515791773795,-0.1514952143251896,0.6975123090505599
1761469249677370600,1.63137060546875,0.33161680367588997,-0.1495315130367875,0.462514051130414
1761469249687353600,1.641353515625,0.46662499358057974,-0.1318199152573943,0.19631810639202593
1761469249697336600,1.651336669921875,0.4795663082182407,-0.14017974732369184,-0.060548868986964224
1761469249707320600,1.661320556640625,0.5298702620446681,-0.22887626790851354,-0.28116555033326146
1761469249717303600,1.671303466796875,0.583245293879509,-0.3501768349781632,-0.5073252527594566
1761469249727286500,1.68128662109375,0.5907943940848112,-0.39086072754412887,-0.6323685134887695
1761469249737269800,1.691269775390625,0.6737550013661384,-0.4359402247205376,-0.6642752253592014
1761469249747257600,1.701257568359375,0.7249129416733979,-0.44973640262186526,-0.6250298411637544
1761469249757240800,1.71124072265625,0.6763491095125674,-0.4817234862521291,-0.508404280167818
1761469249767223600,1.7212236328125,0.6604238106280564,-0.5347168252930045,-0.3773194011867046
1761469249777206800,1.731206787109375,0.5880757827758789,-0.6341954366549849,-0.28889585232436654
1761469249787190800,1.741190673828125,0.42417818299531934,-0.7106665357865393,-0.27120237472355363
1761469249797173800,1.751173828125,0.2322264551192522,-0.7232339025452733,-0.2747036608427763
1761469249807156700,1.76115673828125,0.03745148651599884,-0.7002933180712163,-0.26032968305349347
1761469249817140700,1.771140625,-0.06464110673666,-0.6574575081683695,-0.2410094810336828
1761469249827123700,1.781123779296875,-0.14708967284262178,-0.6544080574698746,-0.19703589927256107
1761469249837106700,1.791106689453125,-0.24425650013089178,-0.6953390566647052,-0.15275076734423637
1761469249847089700,1.801089599609375,-0.29006431158185003,-0.744113024444878,-0.11450082392692565
1761469249857073000,1.811072998046875,-0.3420399980127811,-0.7952325324378907,-0.1421837806224823
1761469249867056600,1.821056640625,-0.3673667469710111,-0.8553330731354654,-0.23185294563174247
1761469249877039600,1.83103955078125,-0.43182899000942704,-0.9580866145148873,-0.4207429478496313
1761469249887022800,1.84102294921875,-0.5553425569534302,-1.059261070009321,-0.5046785376429558
1761469249897006800,1.8510068359375,-0.6463298188239336,-1.1048318578340113,-0.5414847119927406
1761469249906989800,1.86098974609375,-0.698159374782443,-1.1484449357196689,-0.6415694725543261
1761469249916972500,1.87097265625,-0.8001181125223636,-1.2011315468989312,-0.6904910321116448
1761469249926955800,1.880955810546875,-0.8298802135795355,-1.2340808996900916,-0.647768911716342
1761469249936939800,1.890939697265625,-0.869327842348814,-1.226902532493323,-0.5891396126151085
1761469249946922800,1.9009228515625,-0.9110527684003115,-1.200530512265861,-0.5483721334189177
1761469249956905700,1.91090576171875,-0.8250269283294678,-1.1741240052469073,-0.5635895762950182
1761469249966888700,1.920888671875,-0.7147761630624532,-1.0621301957048475,-0.6471130781561136
1761469249976872700,1.930872802734375,-0.6206599555164575,-0.9081849578790366,-0.7149690552860498
1761469249986855700,1.940855712890625,-0.559828177934885,-0.8698859146229923,-0.8594722187668085
1761469249996839000,1.9508388671875,-0.6125216572463512,-0.920748963636905,-0.9695160632848739
1761469250006821600,1.960821533203125,-0.7522878553330898,-1.0465116246819495,-1.0301812521278857
1761469250016805600,1.9708056640625,-0.6081979488283396,-1.0656721060954033,-1.0413152250826359
1761469250026788600,1.98078857421875,-0.2735457229793072,-1.069373006439954,-0.927200770124793
1761469250036771800,1.990771728515625,-0.15754150875210762,-1.1298594777151942,-0.7032651734888553
1761469250046754600,2.000754638671875,-0.34052199466526506,-1.2076001583911478,-0.5058744694292545
1761469250056738600,2.010738525390625,-0.64202832223773,-1.2857694397427142,-0.24248130715191363
1761469250066721800,2.0207216796875,-0.8117688028275967,-1.3186426585577427,0.0036994390398263927
1761469250076704800,2.030704833984375,-0.8920891247332096,-1.1252157435625791,0.22611878589391707
1761469250086687700,2.040687744140625,-0.8331804241687059,-0.7516096638105809,0.6485270366072654
1761469250096671700,2.050671630859375,-0.8518219962745904,-0.44676337816044687,1.0308213035970926
1761469250106654700,2.06065478515625,-1.068521796438098,-0.1663059760965407,1.3782184447288512
1761469250116637700,2.0706376953125,-1.3102081538200379,0.26838059530109165,1.8090525784820317
1761469250126620700,2.08062060546875,-1.4548679691672324,0.7059184644766151,2.1538369067668914
1761469250136604700,2.090604736328125,-1.5284680429071187,0.9776254277214408,2.3205536556214095
1761469250146587600,2.100587646484375,-1.2994085273861884,1.0528843745842575,2.277538105237484
1761469250156570600,2.110570556640625,-1.1518144121527671,1.108502947562188,1.951316438603401
1761469250166553900,2.120553955078125,-1.0488958894699811,1.052611402861774,1.5755518656432628
1761469250176537900,2.130537841796875,-0.6694926677465438,0.8816326126486063,1.2526882772654295
1761469250186520800,2.140520751953125,-0.4427677326530218,0.8116898923724889,0.939839886945486
1761469250196503600,2.150503662109375,-0.19325930334329605,0.5606864021994173,0.5993892039507627
1761469250206486800,2.16048681640625,0.36565059070289135,0.37437487216740845,0.3418020976036787
1761469250216470800,2.170470703125,1.1579863787859677,0.312851020668447,0.07405190916061401
1761469250226453800,2.180453857421875,1.8165210146665571,0.35439503719508647,-0.1870698010534048
1761469250236436500,2.1904365234375,2.2435902429282666,0.421683443570137,-0.36992344571650027
1761469250246419700,2.200419677734375,2.540097154778242,0.48584158909544345,-0.551267854860425
1761469250256403700,2.21040380859375,2.5002555582553145,0.4300149263247847,-0.748393185982108
1761469250266386700,2.22038671875,2.203049558225274,0.4734489943817258,-0.866951760867238
1761469250276370000,2.230369873046875,1.7034376563221216,0.6594434212885797,-0.9986655854016542
1761469250286354000,2.24035400390625,1.2085679805099963,0.8327071075685322,-1.09127080386281
1761469250296336600,2.250336669921875,0.7199842530995607,0.8732762877136468,-1.070138583984971
1761469250306319600,2.260319580078125,0.1513338862836361,1.088381073770672,-1.055572883015871
1761469250316302800,2.270302734375,-0.30484745469391344,1.2763351103127003,-0.9292506883919238
1761469250326286800,2.280286865234375,-0.5694435630202294,1.446422943035513,-0.8026677970051765
1761469250336269600,2.29026953125,-0.804919959846139,1.561991688454896,-0.5669102451503276
1761469250346252800,2.300252685546875,-0.944584451124072,1.5410630283251403,-0.199509011387825
1761469250356235800,2.31023583984375,-0.9716343706130981,1.3858208825565874,0.1813882482856512
1761469250366219800,2.3202197265625,-0.907607011860609,1.2057193130806088,0.4642395597487688
1761469250376202800,2.33020263671875,-0.6645651482164859,1.0422963450744747,0.6752578071445227
1761469250386185700,2.340185791015625,-0.3966688293009996,0.8594850782483816,0.7292693833172321
1761469250396168700,2.350168701171875,-0.0672463207989931,0.6808966898143292,0.6381131946206092
1761469250406152700,2.360152587890625,0.25809213325977326,0.5664765299081802,0.5109428587347269
1761469250416135700,2.3701357421875,0.6219996796876192,0.4859954644829034,0.3200157977312803
1761469250426118700,2.38011865234375,0.9344272142469883,0.46959144217073917,-0.006793313401937485
1761469250436101600,2.3901015625,1.0365946263015269,0.4354924809530377,-0.35779870815873144
1761469250446085600,2.400085693359375,0.9218775292754173,0.3770832543432712,-0.6782698484420776
1761469250456068900,2.41006884765625,0.7028431486845016,0.27562720542848107,-0.9648287822514772
1761469250466051800,2.4200517578125,0.4177490267306566,0.1260182432413101,-1.1680804872989654
1761469250476034600,2.43003466796875,0.21020926910042761,-0.012814473387598991,-1.2604933980584143
1761469250486018600,2.4400185546875,0.019512509721517562,-0.0848842688202858,-1.3247276775598524
1761469250496001800,2.450001708984375,-0.17285890487134456,-0.12551292406767606,-1.3882798200160265
1761469250505984800,2.45998486328125,-0.34487960535287854,-0.15598054304569958,-1.4148632910370826
1761469250515967500,2.469967529296875,-0.33941549472808835,-0.17468641255944967,-1.3505840033501386
1761469250525951700,2.47995166015625,-0.296715001642704,0.008168693408370018,-1.1498632780849933
1761469250535934700,2.489934814453125,-0.32839784162938596,0.1645037489801645,-1.0138502950519324
1761469250545917700,2.499917724609375,-0.41987610188722607,0.16999708569943903,-1.1093979967057703
1761469250555901000,2.50990087890625,-0.6887742913216353,0.04421002086549997,-1.2556430354177952
1761469250565885000,2.519885009765625,-0.8358119417160749,-0.10883797585964203,-1.2889385712981223
1761469250575867600,2.52986767578125,-0.8784288481712341,-0.30910394309461114,-1.1962749006479978
1761469250585850600,2.5398505859375,-1.0568331122100352,-0.4066892880558967,-1.069262385672331
1761469250595833900,2.549833740234375,-1.044951535758376,-0.508331507192552,-0.8947557135939598
1761469250605817900,2.55981787109375,-1.059495024895668,-0.7089201305106282,-0.9489730414718389
1761469250615800600,2.569800537109375,-1.214354162696004,-0.8717311040982604,-1.0843810443490742
1761469250625783800,2.57978369140625,-1.233796529790759,-1.060168101851642,-1.2939251275390387
1761469250635766800,2.589766845703125,-1.2477964135706423,-1.1450775051131843,-1.5077216074764728
1761469250645750800,2.599750732421875,-1.2528396684348582,-1.2050108725503086,-1.6040630898565054
1761469250655733800,2.609733642578125,-1.164110414624214,-1.1959060673356054,-1.6315198365807533
1761469250665716700,2.619716796875,-0.9530670327872037,-1.064170907752216,-1.6275059247642754
1761469250675699700,2.62969970703125,-0.8619587748855352,-0.9514897004678845,-1.590574078208208
1761469250685683700,2.63968359375,-0.9042413348197936,-0.6911644013285636,-1.467060511264205
1761469250695666700,2.649666748046875,-0.8612181856513023,-0.3853258897706866,-1.367623985478282
1761469250705649700,2.659649658203125,-0.7342910108715295,-0.062141398875415324,-1.335116385105252
1761469250715632600,2.669632568359375,-0.7531336585074663,0.16139233896136282,-1.303113227123022
1761469250725616600,2.67961669921875,-0.5684288330197333,0.2791626860782504,-1.3116092527896166
1761469250735599900,2.689599853515625,-0.48106034616827964,0.3768716574192047,-1.2234955005288124
1761469250745575700,2.69957568359375,-0.7198498130649328,0.5104667656555771,-0.8926075956493615
1761469250755558700,2.70955859375,-1.0598153428912163,0.5665551481023431,-0.5027712427169084
1761469250765542700,2.719542724609375,-1.5271493615239857,0.4092062393128872,-0.33147827198803426
1761469250775526000,2.72952587890625,-1.6243156042903661,0.20942221037596462,-0.3385597546815872
1761469250785508600,2.739508544921875,-1.5546972936630248,-0.08077771028429269,-0.47789574465751644
1761469250795491600,2.74949169921875,-1.6429501621335745,-0.28091274461597204,-0.5890390748500823
1761469250805475600,2.7594755859375,-1.9301573307186364,-0.34980654036104675,-0.538503650355339
1761469250815458800,2.769458740234375,-2.2226666973650455,-0.23858283840864897,-0.20428397070467472
1761469250825441500,2.779441650390625,-2.116383082163334,-0.23327508738934993,0.4241846127361059
1761469250835424800,2.7894248046875,-1.9511212082922458,-0.33393910914361474,1.2377759548157452
1761469250845408800,2.79940869140625,-1.5203589707314966,-0.2823661582946777,2.11948630887568
1761469250855391700,2.809391845703125,-1.1130535966038704,-0.14595073194056749,2.882811106529832
1761469250865374700,2.819374755859375,-1.03625326551795,0.1535652985975146,3.333178208270669
1761469250875357700,2.829357666015625,-1.189459959936142,0.24047435124367475,3.4231624305784702
1761469250885341700,2.839341796875,-1.0757938332676886,0.1150911910355091,3.1433138080626724
1761469250895324700,2.84932470703125,-0.8878571862518787,0.1473813492655754,2.6074206324666735
1761469250905307600,2.8593076171875,-0.5209656555771828,0.29303806669563054,1.7715490695178508
1761469250915291000,2.869290771484375,-0.33037586370408534,0.516136627985537,0.9299491920500993
1761469250925274600,2.879274658203125,0.027509353694319724,0.6496452269822359,0.17889350886046884
1761469250935257600,2.889257568359375,0.6946978361517191,0.8182140334442257,-0.38748657493591304
1761469250945240800,2.89924072265625,1.134947448503971,0.991079075795412,-0.7288543727755546
1761469250955223800,2.909223876953125,1.4283236611127852,1.049233450861275,-0.9479267472892999
1761469250965207800,2.919207763671875,1.6526614088088274,0.9388526294738053,-1.0765344225019216
1761469250975190500,2.9291904296875,1.7026672564715146,0.9174147046476602,-1.0966174255877732
1761469250985173800,2.939173828125,1.8166326583474874,0.8014981687039137,-1.091897411328554
1761469250995156700,2.94915673828125,2.0256676229715347,0.5466489628881216,-1.1806535531461237
1761469251005140700,2.959140625,2.259094686052203,0.40707478024214505,-1.2755378224551677
1761469251015123700,2.969123779296875,2.454625441458821,-0.07266220836788416,-1.2803081055969
1761469251025106700,2.979106689453125,2.5909248402178284,0.008678104235231876,-0.917096140217781
1761469251035090700,2.989090576171875,2.4591928955048323,0.22512305285483597,-0.48508594842255115
1761469251045073700,2.99907373046875,1.33195003002882,0.19203005380928515,-0.17660218305289743
1761469251055057000,3.009056884765625,-1.3803946197241543,0.4663084749773144,-0.7253010642081499
1761469251065039600,3.01903955078125,0.040946927416324615,-0.013795008857548237,0.40663083586692805
1761469251075022600,3.029022705078125,2.0702993763804436,-0.13814970280081032,1.0751052664816378
1761469251085006600,3.039006591796875,2.4172218857377765,-0.16715250992327926,1.2760785052031278
1761469251094989800,3.04898974609375,2.8081366815567015,0.07096446453928947,1.553656260177493
1761469251104972500,3.05897265625,2.073679081946611,0.14896335776001213,1.8929776468813417
1761469251114956500,3.06895654296875,0.8158844214528799,0.11790654071718454,1.9579519310951232
1761469251124939800,3.078939697265625,-0.32365561553835864,-0.015446867717802524,1.6720874092906712
1761469251134922800,3.0889228515625,-0.4958090024888515,-0.12159516610205173,1.3867051180452108
1761469251144905700,3.09890576171875,-0.11142799235284327,-0.14608897136747837,0.9789508311063051
1761469251154888700,3.108888671875,0.5211036027431488,-0.23380232613384722,0.6480377917855977
1761469251164872700,3.118872802734375,0.9924018488317727,0.038199382273852826,0.5747784943073988
1761469251174855700,3.128855712890625,0.5976648643761873,0.6068687460511922,0.563625232130289
1761469251184838700,3.138838623046875,0.385321505856514,0.643214317151904,0.5750275006324053
1761469251194823000,3.148822998046875,0.281142169457674,0.5391437018245459,0.5239280125141144
1761469251204805600,3.1588056640625,0.38028409621119497,0.1852916854649782,0.3517757946074009
1761469251214788600,3.16878857421875,0.615058482247591,-0.38230712647140025,-0.051882747450470924
1761469251224771800,3.178771728515625,0.8635288006812334,-0.9325959071666001,-0.4890595282286405
1761469251234755800,3.188755859375,0.9132780432343482,-1.2836775820299982,-0.807457953891158
1761469251244738800,3.19873876953125,0.7244353872895241,-1.3230720193073153,-0.8257616723448038
1761469251254721500,3.208721435546875,0.6606313158988952,-1.149050500397384,-0.8273948265045881
1761469251264704800,3.218704833984375,0.5321721092462539,-0.9192264302447438,-0.8182073114424944
1761469251274688800,3.228688720703125,0.36496494652628897,-0.7398463069111109,-0.6842594442456961
1761469251284671700,3.238671630859375,0.6875111395180225,-0.8391419629216194,-0.6636620618969201
1761469251294654700,3.24865478515625,0.654482730141282,-1.0392319890677928,-0.7859335198253393
1761469251304637700,3.2586376953125,-0.00994797804057598,-1.2476432688355445,-0.8441051382869481
1761469251314621700,3.26862158203125,-0.3683919983655214,-1.4057190305948257,-0.7771715366989373
1761469251324604700,3.278604736328125,-0.34737142216861244,-1.4293801844283938,-0.504442975321412
1761469251334588000,3.288587890625,-0.16099135694503783,-1.2720789141729474,-0.21177637228667734
1761469251344570600,3.298570556640625,-0.178486681625247,-1.1902958262383938,-0.021455460482835767
1761469251354554600,3.3085546875,-0.2131032369762659,-1.2029206222727895,-0.036442601734399796
1761469251364537600,3.31853759765625,-0.20724866572916506,-1.070273024019599,-0.2953571572929621
1761469251374520800,3.328520751953125,-0.22463643838167188,-1.0526631330490113,-0.4287801238328218
1761469251384503600,3.338503662109375,-0.3587164075255394,-1.0190031477704644,-0.4315566028088331
1761469251394487600,3.348487548828125,-0.5876952590256929,-0.944222632074356,-0.5483610275030136
1761469251404470800,3.358470703125,-0.7289630938470363,-0.9473194290459156,-0.6048714347541332
1761469251414453800,3.368453857421875,-0.8483470136404037,-0.9497814352452755,-0.676933631402254
1761469251424436700,3.378436767578125,-0.8246610176265239,-0.9414926225885748,-0.657886401104927
1761469251434420700,3.388420654296875,-0.6565121901422739,-0.905471461136639,-0.5581722274214029
1761469251444403700,3.39840380859375,-0.44296179392039775,-0.9257578778401017,-0.5174105934441089
1761469251454386700,3.40838671875,-0.25817922702133655,-0.8826543569117784,-0.39079730691909786
1761469251464369700,3.41836962890625,-0.16806933250725267,-0.7622174209341407,-0.20177637179791927
1761469251474353700,3.428353759765625,-0.1292564945101738,-0.6283870426371694,-0.1464741712927818
1761469251484336600,3.438336669921875,-0.2815139253795147,-0.5476297906190156,-0.11269114415645598
1761469251494319600,3.448319580078125,-0.3517342935532331,-0.5180541520446539,0.018917466437816617
1761469251504302800,3.458302734375,-0.4661667284190654,-0.38742227752804753,0.13922726890444756
1761469251514286800,3.468286865234375,-0.5134872825205326,-0.4636354563757777,0.1388286249756813
1761469251524269800,3.478269775390625,-0.4964519765675068,-0.468687186807394,-0.03964695073366165
1761469251534252500,3.48825244140625,-0.5906576159626246,-0.5606055920481682,-0.08904431110918522
1761469251544235800,3.49823583984375,-0.79561144875288,-0.6217270002260804,-0.09281681538522243
1761469251554219800,3.5082197265625,-1.084174708122015,-0.6592413228452205,0.00402677129805088
1761469251564202800,3.51820263671875,-1.550543681114912,-0.6979200130686164,0.197944246289134
1761469251574185700,3.528185791015625,-1.7190104885071515,-0.5563596250414848,0.5178460622519254
1761469251584168700,3.538168701171875,-1.6464613851249217,-0.41384515115991233,0.794015119472146
1761469251594152700,3.548152587890625,-1.6989368377715348,-0.5134932738699018,0.9060153587549924
1761469251604135700,3.5581357421875,-1.470816064405441,-0.24099559863880277,1.1561439657896757
1761469251614119000,3.568118896484375,-1.3387035959422589,0.09627499301508069,1.6517957318902015
1761469251624101600,3.5781015625,-1.243746261397004,0.3034576077707112,2.0060878932327033
1761469251634085600,3.588085693359375,-1.1299614767849444,0.39821240548118947,2.3302350916802883
1761469251644068600,3.598068603515625,-0.8345879528790712,0.49104091130420563,2.4012667762368918
1761469251654051800,3.6080517578125,-0.3550590540617704,0.7415002115979791,2.5061814411729575
1761469251664034600,3.61803466796875,0.37010230941474437,1.0058119500249623,2.503869657099247
1761469251674018600,3.6280185546875,1.023910501295328,1.188197100393474,2.2982126444756985
1761469251684001800,3.638001708984375,1.6954899121880531,1.2836287744522095,1.6727245381504297
1761469251693984800,3.64798486328125,2.017322988474369,1.299345983543992,0.7949445092767476
1761469251703967700,3.6579677734375,2.068551071408391,1.1296218695670366,0.028632220244407654
1761469251713951700,3.66795166015625,2.078525352934003,1.0589074342660605,-0.46596682193279265
1761469251723934700,3.677934814453125,2.213875488144159,0.9300259105481207,-0.6993880397945642
1761469251733917700,3.687917724609375,2.4321271939247846,0.7106218198619783,-0.9274304872274398
1761469251743900400,3.697900390625,2.5955823106348515,0.5553976481415331,-1.0870780283480883
1761469251753884700,3.707884765625,2.7078859167784453,0.5153320336043834,-0.8583908532708883
1761469251763867400,3.717867431640625,2.5895862850904465,0.667651716054976,-0.43699557899236674
1761469251773850400,3.727850341796875,2.0286206275582312,0.8963117108643054,-0.21484745029509067
1761469251783833600,3.73783349609375,1.2018968321830032,1.0110282233685255,-0.05767068320214748
1761469251793817600,3.747817626953125,0.3767430626034736,0.8950285391859709,0.05754150386452674
1761469251803800600,3.757800537109375,-0.2218745724529028,0.7937368870526552,0.10953647951781749
1761469251813783300,3.767783203125,-0.5545411774426698,0.7152611701004207,0.049289223825931545
1761469251823766500,3.7777666015625,-0.7947966252386569,0.6401306719228624,0.03162438779771328
1761469251833750500,3.78775048828125,-0.6856886002659798,0.6103957511335611,0.02866144633889198
1761469251843733500,3.7977333984375,-0.39325112981200216,0.5520299252741039,0.0847317086070776
1761469251853716500,3.807716552734375,-0.0681833093881607,0.5009460731163621,0.17602642899155616
1761469251863699500,3.817699462890625,0.47542029445469375,0.689820877765119,0.01123158811032772
1761469251873683500,3.827683349609375,0.46132104195356366,0.6008149989701808,-0.006374211207032203
1761469251883666400,3.83766650390625,0.4558364730626344,0.6049066521979868,-0.006285363879799843
1761469251893649700,3.847649658203125,0.2959919480651617,0.4089851439081132,-0.1468932734876871
1761469251903632400,3.85763232421875,0.07277239074409007,0.14601649065315722,-0.4300584732055664
1761469251913616400,3.867616455078125,-0.040537762093544004,0.07067585685625671,-0.7806547026395797
1761469251923599400,3.877599365234375,0.17197335420846938,0.14271540328115223,-0.97737496009171
1761469251933582600,3.88758251953125,0.6925076326310634,0.15369506245702505,-1.1248048246741293
1761469251943565300,3.8975654296875,0.8367483457833528,-0.02510945294573903,-1.0158774169653653
1761469251953549300,3.90754931640625,0.26557167536020276,-0.13861249800696968,-0.9833744927674531
1761469251963532500,3.917532470703125,-0.21893150473833084,-0.19801044339314103,-0.9706307465285062
1761469251973515500,3.927515625,-0.5711591347664594,-0.3264297564268112,-0.9066326138705014
1761469251983498500,3.93749853515625,-0.5429577071547508,-0.26334713117852804,-0.9105734604507684
1761469251993482200,3.947482177734375,-0.17423954557478427,-0.1818649258866906,-0.9222539613723755
1761469252003465500,3.957465576171875,0.05935469076633453,0.3665745736800134,-0.7672720739752054
1761469252013448400,3.967448486328125,-0.1270861647337675,0.5210125634588301,-0.6542004060685634
1761469252023431400,3.977431396484375,-0.26021394771933554,0.09190832223817706,-0.7751233719974756
1761469252033415700,3.987415771484375,-0.5022679693698883,0.30614567781090735,-1.1022136381596326
1761469252043398400,3.9973984375,-0.9026035044848918,0.28245705144852395,-1.3689111026793717
1761469252053378600,4.007378662109375,-1.5969208168864248,0.2696913856387138,-1.545122240588069
1761469252063362300,4.0173623046875,-1.632851961967349,-0.07537263637036085,-1.835676966035366
1761469252073345500,4.027345458984375,-1.3413883049815893,0.01603431221693754,-2.11577459487617
1761469252083328500,4.03732861328125,-1.0775602584183215,-0.2037849351413548,-2.2033844892680645
1761469252093311500,4.0473115234375,-0.8064069835335016,-0.3961996043540537,-2.003727009320259
1761469252103295500,4.05729541015625,-0.5026239432007074,-0.21047975660488008,-1.9308254392385482
1761469252113278500,4.067278564453125,-0.41363983784615993,-0.2647584592811763,-1.933558079072833
1761469252123261400,4.077261474609375,-0.45985739914178847,-0.23991277183815835,-1.9443091901898384
1761469252133244400,4.087244384765625,-0.1337403619259596,-0.0012539455838501453,-1.9145359832167623
1761469252143228400,4.097228515625,-0.012453823381662368,-0.014584844060987234,-1.6371745013415813
1761469252153211400,4.10721142578125,0.02179740578830242,-0.2707381182126701,-1.195382920244336
1761469252163194400,4.1171943359375,-0.00045651159584522244,-0.4603432829625904,-0.6210463244855403
1761469252173177600,4.127177490234375,-0.16542086382508278,-0.5553060243353247,0.05456453388035297
1761469252183161600,4.13716162109375,-0.20637772811353206,-0.4721854041866958,0.7712269490808248
1761469252193144600,4.14714453125,-0.13032967669963835,-0.2965682866483927,1.1582172649323939
1761469252203127300,4.157127197265625,-0.29408056148588657,-0.16492124373987316,1.2006196518540382
1761469252213110500,4.167110595703125,-0.5897784950405359,0.03257116712853312,0.9047147975504398
1761469252223094500,4.177094482421875,-0.868947318598628,0.1952593911193311,0.3385165000617504
1761469252233077500,4.187077392578125,-1.1936813770234584,0.4626709952577948,-0.3393874376773834
1761469252243060200,4.197060302734375,-1.4226713344395159,0.7150576103523373,-0.971229881465435
1761469252253043500,4.20704345703125,-1.557609966239333,0.7150241464741528,-1.6030641419470308
1761469252263027500,4.21702734375,-1.8272019831568003,0.6879562529370188,-2.080994373396039
1761469252273010400,4.227010498046875,-2.085647752159834,0.5323546262063086,-2.0921721854925153
1761469252282993700,4.23699365234375,-1.9160206688165664,0.3104287619575858,-1.542867155137658
1761469252292976400,4.246976318359375,-1.7020260359585284,0.042944238713383674,-0.6336071153730154
1761469252302960400,4.25696044921875,-1.674212146359682,-0.2380504850976169,0.3228442991554737
1761469252312943400,4.266943359375,-1.2685451870888471,-0.26496231129020453,1.1145552333384752
1761469252322926600,4.276926513671875,-0.6825403653681278,-0.16432137815058231,1.703819349116087
1761469252332909300,4.286909423828125,-0.701415746229887,-0.345056861615926,1.9903502258747814
1761469252342893300,4.296893310546875,-0.8159978186994791,-0.6500697360046207,2.019873842000961
1761469252352876500,4.30687646484375,-0.7540379138708114,-0.6643072279326617,1.7887556403845548
1761469252362859500,4.316859619140625,-0.5034907891631126,-0.37463439988642927,1.5001970571905374
1761469252372842500,4.326842529296875,-0.3618915304303169,-0.12278715236559509,1.239324353301525
1761469252382826500,4.336826416015625,-0.23644962577223777,0.26241496489495036,0.849442992183566
1761469252392809500,4.3468095703125,0.035225627160072326,0.727726099397987,0.2847983538776636
1761469252402792400,4.35679248046875,0.17504560126066207,1.0144288255922496,-0.16936463301479815
1761469252412775400,4.366775390625,0.40584173131585116,1.2633742141917348,-0.4405716839134693
1761469252422759400,4.376759521484375,0.5878641858518123,1.5312300549663602,-0.6071750355213881
1761469252432742400,4.386742431640625,0.7855062343239784,1.685830249569565,-0.7113403433948755
1761469252442725400,4.396725341796875,0.9808230547189712,1.8151402278326452,-0.8329916235983371
1761469252452708600,4.40670849609375,1.214575696492195,1.7960190555162727,-0.9095289198338985
1761469252462692600,4.416692626953125,1.550893809726834,1.6677362283438444,-0.7781915273964405
1761469252472675600,4.426675537109375,1.8556869038850068,1.315750590378046,-0.35727906819880006
1761469252482658300,4.436658203125,2.0660300284981727,0.8056780847370624,0.30862463514506816
1761469252492641500,4.4466416015625,2.1970938646912574,0.42335678360983725,0.9368611633956432
1761469252502625500,4.45662548828125,2.3159856170535087,0.05369637274369597,1.4039198722183703
1761469252512608500,4.4666083984375,2.3200462906211614,-0.17383374125286935,1.6659674651056526
1761469252522591200,4.47659130859375,2.221285472139716,-0.3359004723444581,1.704380490130186
1761469252532574500,4.486574462890625,1.92515265429914,-0.4769138940133154,1.548438233268261
1761469252542558500,4.496558349609375,1.7087199806392193,-0.5859405243128538,1.176041090914607
1761469252552541400,4.50654150390625,1.4682657954007385,-0.4656768990755081,0.6721341221660375
1761469252562524700,4.516524658203125,1.2276987974375486,-0.21994170469418167,0.24457974073588848
1761469252572507400,4.52650732421875,1.014751627805829,-0.058131724842637775,0.1065296989172697
1761469252582491400,4.536491455078125,0.7184884615838527,-0.015243015708774328,0.1638023227125406
1761469252592474400,4.546474365234375,0.3642752106964588,0.019012889636307952,0.19120529342293738
1761469252602457600,4.55645751953125,0.10371405697464943,-0.06589300649389625,0.13460837693214417
1761469252612440300,4.5664404296875,-0.006607435441017151,0.01635302277728915,0.015531331130862235
1761469252622424300,4.57642431640625,-0.007550269249081611,0.09468407056182622,-0.1792138268560171
1761469252632407600,4.586407470703125,0.07808744828701018,0.21330226667970417,-0.34514147115945815
1761469252642390500,4.596390625,0.1600917777568102,0.3588558159962296,-0.3680903850704431
1761469252652373500,4.60637353515625,0.28402035524249075,0.4923476099886,-0.33625206226110455
1761469252662357500,4.616357421875,0.40156770725846286,0.5560382841326296,-0.28186288494765754
1761469252672340500,4.626340576171875,0.499314380261302,0.425267001145333,-0.23278233543634413
1761469252682323500,4.636323486328125,0.5610960059136152,0.25412819806486364,-0.1850222208738327
1761469252692306400,4.646306396484375,0.6796364606201648,0.19343407538831234,-0.20974398967623709
1761469252702289700,4.65628955078125,0.7374374922037125,-0.03340308790802955,-0.2889373533785343
1761469252712273400,4.6662734375,0.675081866055727,-0.2417426176138222,-0.36395021652579307
1761469252722256400,4.67625634765625,0.5643441940546036,-0.30645357471629975,-0.45567572954297064
1761469252732239400,4.6862392578125,0.3515186049759388,-0.40698973230719565,-0.45374505374133584
1761469252742222600,4.69622265625,0.3043161242961883,-0.45196679202243684,-0.3906692966252565
1761469252752206300,4.706206298828125,0.20928747808039186,-0.5331788020707666,-0.2822019076436758
1761469252762189300,4.716189208984375,0.08610942670106887,-0.6478481144323944,-0.14345803834199905
1761469252772172500,4.726172607421875,0.08116086438298224,-0.718793874271214,-0.0027507600128650663
1761469252782155300,4.7361552734375,0.12533318358659742,-0.7806285452850162,0.18186521814763545
1761469252792139300,4.74613916015625,0.06709025345444679,-0.8233106259308755,0.3402706502526998
1761469252802122200,4.756122314453125,-0.015029811349511146,-0.8922967761345207,0.30340134753882886
1761469252812105500,4.76610546875,-0.06396773751974105,-0.9261433700263499,0.09405892440080642
1761469252822088200,4.776088134765625,-0.06285597688555718,-0.8134683002218603,-0.12049334233999251
1761469252832072200,4.786072265625,-0.12139935126900672,-0.7123876604907214,-0.3226601747602224
1761469252842055400,4.796055419921875,-0.1822869506910443,-0.6785526109062134,-0.4551543360173702
1761469252852038400,4.806038330078125,-0.17863631922900675,-0.5995879413932561,-0.4927238959550857
1761469252862021400,4.816021484375,-0.2168365782856941,-0.6742385470993817,-0.4434627291798591
1761469252872005000,4.826005126953125,-0.30795974149554967,-0.7113308449141681,-0.4065554325431585
1761469252881988400,4.83598828125,-0.35025369960665703,-0.7070233569785952,-0.3901940803289413
1761469252891971300,4.845971435546875,-0.40609132216274735,-0.8084924115054309,-0.3344008814364671
1761469252901954300,4.855954345703125,-0.41529023540168997,-0.8430528527550398,-0.2590694538593292
1761469252911938300,4.865938232421875,-0.4549851169303059,-0.8077041837371886,-0.2632359258890152
1761469252921921300,4.87592138671875,-0.5316600680708885,-0.7102696454234421,-0.35027006621956824
1761469252931904300,4.885904296875,-0.5357742253914475,-0.6534007801234721,-0.41026188584566115
1761469252941887500,4.895887451171875,-0.47521980344653125,-0.5862877303153277,-0.37795769909024235
1761469252951871500,4.90587158203125,-0.26590163796693084,-0.6474580922015011,-0.3259083629012108
1761469252961854500,4.9158544921875,-0.02055997294783592,-0.6525466475121676,-0.27622458679974077
1761469252971837200,4.925837158203125,0.1581388901233673,-0.6043877428904175,-0.28777123220860956
1761469252981820400,4.9358203125,0.18826602510064838,-0.5837757474943995,-0.29664193640649317
1761469252991804400,4.945804443359375,0.08323708613514899,-0.5084411050468683,-0.3294219239801168
1761469253001787400,4.955787353515625,-0.046076691520214076,-0.35606355492919683,-0.34054946719408036
1761469253011770400,4.965770263671875,-0.39347529395669695,-0.34049700635448094,-0.37097441607415677
1761469253021753300,4.97575341796875,-0.7265332363516092,-0.26514000594466924,-0.4036374992698431
1761469253031737300,4.9857373046875,-0.9824348738297819,-0.18730711694061755,-0.36975101175904274
1761469253041720300,4.99572021484375,-1.1021408651843667,-0.19556904159039257,-0.30034663614332674
1761469253051703600,5.00570361328125,-0.898587839102745,-0.15941855467036364,-0.19345570269823073
1761469253061686300,5.015686279296875,-0.6648094783663749,0.07759966477006673,-0.1327110188782215
1761469253071670300,5.025670166015625,-0.5674450826793909,0.24225743526816368,-0.06741641666889191
1761469253081653200,5.0356533203125,-0.7158107668071985,0.20262436692938207,-0.05349252073466777
1761469253091636500,5.045636474609375,-1.0816524961680174,0.06245017256364226,-0.14143617712557316
1761469253101619200,5.055619140625,-1.411345053783059,-0.10375468124598264,-0.23585867414176462
1761469253111603200,5.065603271484375,-1.5033546444386243,-0.2721371713556349,-0.34487434465587136
1761469253121586400,5.07558642578125,-1.4789584543287753,-0.46586292316690087,-0.443380896115303
1761469253131569400,5.0855693359375,-1.3518819342061876,-0.6220172153443098,-0.5183586879491806
1761469253141552400,5.095552490234375,-1.1411147389620542,-0.8282859301254153,-0.6054945350885391
1761469253151536000,5.1055361328125,-0.9711901339769363,-1.0406010854639112,-0.7280576694399118
1761469253161519400,5.115519287109375,-0.8183715620934963,-1.136286880414188,-0.9293716844230889
1761469253171502300,5.12550244140625,-0.7695610616952181,-1.1645545051299035,-1.101746605169773
1761469253181485300,5.1354853515625,-0.8442705579817295,-1.2468024340972303,-1.041462524598837
1761469253191469300,5.14546923828125,-1.0137637858122586,-1.4577496620833872,-0.6663327424108981
1761469253201452300,5.155452392578125,-1.3790940585196017,-3.3891137382432817,0.19497838222086428
1761469253211435300,5.165435302734375,-1.2979933998912572,0.22021292285099625,0.3822299695819616
1761469253221418500,5.17541845703125,-0.06499065082669257,1.075777320524305,1.243914019179344
1761469253231401500,5.1854013671875,0.14626958863139153,-1.10288510768041,2.4739164173841477
1761469253241385200,5.19538525390625,0.40098903058767316,0.43155499537363645,2.8687469253420828
1761469253251368200,5.2053681640625,0.9700725281238556,0.8721481604665517,3.02354761095345
1761469253261351400,5.215351318359375,1.659361198708415,0.9078323450490832,2.9047920521914956
1761469253271334400,5.22533447265625,2.593537068542838,1.251068274848163,2.5719752250760792
1761469253281318400,5.235318359375,2.893185785549879,1.3540022873610258,2.096704568225145
1761469253291301400,5.24530126953125,2.8538386945456264,1.3483736338242889,1.547790583014488
1761469253301284400,5.255284423828125,2.549536014252901,1.546400736091286,0.8444552668988704
1761469253311267300,5.265267333984375,1.9560393754720686,1.7757121805466711,0.020122750574350357
1761469253321251300,5.275251220703125,1.1322001956224441,2.1033359690636395,-0.7072977900058031
1761469253331234600,5.285234619140625,0.16455080299228428,2.174358301270008,-1.10063309096992
1761469253341217300,5.29521728515625,-0.4718810144126415,1.9503994698889553,-1.0974988845974207
1761469253351200300,5.3052001953125,-0.787058724462986,1.7491629040561616,-0.7968471280276775
1761469253361184300,5.315184326171875,-0.8573188401252031,1.5115191000632942,-0.39950025333464145
1761469253371167500,5.32516748046875,-0.7768076718226075,1.1032717689104377,0.004366963037848472
1761469253381150200,5.335150146484375,-0.5460056965485215,0.5719454628385603,0.3584031037926674
1761469253391133200,5.34513330078125,-0.16528233213722704,0.2751952437520027,0.5533510908752679
1761469253401117400,5.355117431640625,0.07404255681037902,-0.022307401137053966,0.6744435681521892
1761469253411100400,5.365100341796875,0.296304667276144,-0.42925899339094753,0.7274287238866091
1761469253421083400,5.37508349609375,0.5917448266774415,-0.7595663219034672,0.6800871269971132
1761469253431066400,5.38506640625,0.9154080410003661,-0.8683003989972173,0.5274193617612123
1761469253441050400,5.39505029296875,1.2621528557032347,-0.6897095263451337,0.3390250341057777
1761469253451033300,5.405033447265625,1.3260557112932205,-0.5960577214404941,0.20822189467549324
1761469253461016300,5.415016357421875,1.2260521992743014,-0.7034186104848981,0.06563128681778907
1761469253470999300,5.424999267578125,1.0831342591583728,-0.5528793817102908,-0.2226315283000469
1761469253480983300,5.4349833984375,0.9325918155133723,-0.21052286509424448,-0.6704331634670495
1761469253490966300,5.44496630859375,0.6391477983653545,0.21852657719925045,-1.0838386080354452
1761469253500949500,5.454949462890625,0.15420096615254877,0.46746071375235915,-1.3010551255494356
1761469253510932500,5.464932373046875,-0.40627427751421924,0.31708281301930547,-1.330678110396862
1761469253520916200,5.474916259765625,-0.7080839719474316,0.1360109372064471,-1.35891811645329
1761469253530899200,5.484899169921875,-0.8058844209641217,0.016778408582508564,-1.3277227677226067
1761469253540882400,5.49488232421875,-0.7134177341908216,-0.19824571345373987,-1.2069155371278524
1761469253550865400,5.504865478515625,-0.33428046992719174,-0.33724589560404417,-1.027899863192439
1761469253560848100,5.51484814453125,0.06752806034982205,-0.35337680006325245,-0.8706278190314769
1761469253570832100,5.52483203125,0.4118061926782131,-0.4581593630522489,-0.7069856553167104
1761469253580815400,5.5348154296875,0.6543868685513734,-0.511078760074079,-0.5315554386526345
1761469253590798300,5.54479833984375,0.6265080970227718,-0.5303897558741271,-0.38750469511449337
1761469253600781600,5.554781494140625,0.38069793770909305,-0.6100941378384829,-0.2744067237228155
1761469253610765600,5.564765625,0.04161152880489826,-0.6334839273847639,-0.12646540248692034
1761469253620748300,5.574748291015625,-0.25121581774950025,-0.6929451472654938,-0.14861118332147596
1761469253630731300,5.584731201171875,-0.5981342354536057,-0.7260735098853707,-0.40667993570566174
1761469253640714500,5.594714599609375,-0.9349526994258165,-0.636091917926073,-0.8226695515483617
1761469253650698500,5.604698486328125,-0.9795347684741019,-0.44416751644834873,-1.2565040361613034
1761469253660681200,5.61468115234375,-0.965478186070919,-0.271767753521353,-1.617944900214672
1761469253670664200,5.624664306640625,-1.0712608660131693,-0.24871786345392463,-1.8467858045488594
1761469253680647400,5.6346474609375,-1.1199813500404356,-0.1915172819815576,-1.8879443288892506
1761469253690631400,5.64463134765625,-1.050602693387866,-0.11729761503860353,-1.8481337120264767
1761469253700614400,5.654614501953125,-0.8742541928350925,-0.09623919104933738,-1.6659329783141612
1761469253710597400,5.664597412109375,-0.6811661544054747,-0.16540040555894372,-1.3967670778542756
1761469253720580400,5.674580322265625,-0.6349602835476398,-0.3653067457012832,-1.0625117423683403
1761469253730564400,5.684564453125,-0.6351245341986418,-0.46975759251788257,-0.6617910073280334
1761469253740547300,5.69454736328125,-0.4411135357052087,-0.5360284924134612,-0.30920097372829913
1761469253750531000,5.704531005859375,-0.2698749255120754,-0.43806598470285535,0.019424831438064574
1761469253760513800,5.714513671875,-0.2709042685598135,-0.5337481263913214,0.24774726485610007
1761469253770497800,5.724497802734375,-0.402626860922575,-0.557358865211904,0.39251989292800427
1761469253780480800,5.734480712890625,-0.6157341895520687,-0.49962286168858405,0.5549783998161554
1761469253790464000,5.744464111328125,-0.9659458035826682,-0.36224355873838066,0.572722730821371
1761469253800447000,5.754447021484375,-1.1885919449299573,-0.06729395933300256,0.3930360257565975
1761469253810430700,5.7644306640625,-1.2617892830878494,0.20674232364222406,-0.03196107240617275
1761469253820414000,5.7744140625,-1.3519102835178374,0.3924244697295129,-0.5759843629658222
1761469253830397000,5.78439697265625,-1.736976937830448,0.3040646337531507,-1.061682890328765
1761469253840380000,5.7943798828125,-2.2978502409040926,0.09305413127243518,-1.2677139969617128
1761469253850363000,5.80436279296875,-2.3211405155986546,0.08310805292800068,-1.2532242838382721
1761469253860347000,5.814346923828125,-2.001254481726885,-0.21484394316375255,-0.8978840747475624
1761469253870329900,5.824329833984375,-1.753372192314267,-0.49368324250653384,-0.23254268146157264
1761469253880312800,5.834312744140625,-1.4689637145370245,-0.609285305673629,0.5377578004240989
1761469253890296000,5.844296142578125,-0.9779898771196603,-0.6525427019894122,1.2768939132392405
1761469253900280000,5.854280029296875,-0.4614753557324409,-0.5586921596422791,1.8835189136624335
1761469253910262800,5.8642626953125,-0.18529285450875757,-0.57573199563995,2.300299972143769
1761469253920245800,5.874245849609375,-0.12197335176467895,-0.6021596915774047,2.5025199960559603
1761469253930229000,5.88422900390625,-0.00556874004304409,-0.389214567772299,2.504372345924377
1761469253940213000,5.894212890625,0.0971925462514162,-0.12424188121855258,2.382925648382306
1761469253950195700,5.90419580078125,0.18230360956490038,0.13504574543610215,2.189649393904209
1761469253960179000,5.914178955078125,0.3310708602309227,0.3041276159867644,1.7428227412492037
1761469253970162000,5.924161865234375,0.5477116236835717,0.5587196321710944,1.0630623619884252
1761469253980146000,5.93414599609375,0.733113199263811,0.9175584970325231,0.3020703911960125
1761469253990129000,5.94412890625,0.9168260911047458,1.17498646729514,-0.34469665000140665
1761469254000111900,5.95411181640625,0.981618004488945,1.4777236518368124,-0.8750859674841165
1761469254010094800,5.9640947265625,1.0224842678844928,1.6120045503802596,-1.2461387094914913
1761469254020078800,5.974078857421875,1.223140111219883,1.7369138094663619,-1.414150174331665
1761469254030062000,5.98406201171875,1.5921663158357142,1.6888517893478274,-1.4509563486814498
1761469254040044800,5.994044921875,1.8213322143405675,1.2294399420164526,-1.2658400197833777
1761469254050027800,6.00402783203125,1.9275538702219723,0.6496009494490921,-0.805900787577033
1761469254060011800,6.01401171875,2.180664123415947,0.2717974180072546,-0.31496494408249853
1761469254069995000,6.0239951171875,2.4600176558911797,-0.1455025497816503,0.2081499984830618
1761469254079978000,6.03397802734375,2.783378087875247,-0.46971579920276996,0.6855342864871025
1761469254089960700,6.043960693359375,2.799329105722904,-0.6903367183327674,1.0197656565755606
1761469254099944000,6.05394384765625,2.5535990259081123,-0.9086749333530664,1.3473726400882005
1761469254109928000,6.063927978515625,2.4587819766163825,-1.1077968451194464,1.6258523123383521
1761469254119911000,6.073910888671875,2.340457210487127,-1.0399920136548577,1.7186802336394786
1761469254129894000,6.083893798828125,2.1020096888959405,-0.7327196699015796,1.6791858431190252
1761469254139876900,6.093876953125,1.6296856068909167,-0.3829506850719452,1.4233727607071398
1761469254149860900,6.10386083984375,0.9316098187386989,-0.004334960464388132,1.0885960316956043
1761469254159843800,6.11384375,0.28083120381236076,0.2811845472946763,0.7895213151842355
1761469254169827000,6.1238271484375,-0.18112988961040974,0.5136240606427193,0.5120704014599323
1761469254179809800,6.133809814453125,-0.5668915404498577,0.5796705041326582,0.21494915710389612
1761469254189793800,6.143793701171875,-0.706316962274909,0.44056993034780023,-0.0065665189087390895
1761469254199776800,6.15377685546875,-0.6031593701392411,0.2370641044087708,-0.16389643073678015
1761469254209760000,6.163760009765625,-0.3534510343432426,0.0350492476798594,-0.2456464931845665
1761469254219742700,6.17374267578125,-0.029382746350765227,-0.15433672136142848,-0.19475801746845245
1761469254229726700,6.183726806640625,0.35815643555521964,-0.375750252173841,-0.09763444480001926
1761469254239710000,6.1937099609375,0.6773416276812553,-0.560960104574263,-0.028034254351258277
1761469254249693000,6.20369287109375,0.8819862483918667,-0.6108249363310635,-0.06584171469807625
1761469254259676000,6.213676025390625,1.09529932872653,-0.7461245103977621,-0.1455862825423479
1761469254269660000,6.223659912109375,1.2061544896274805,-0.8916765984095633,-0.20536708976626394
1761469254279643000,6.233642822265625,1.0719897648096084,-0.9874828048691153,-0.2980570639014244
1761469254289625900,6.2436259765625,0.971114146131277,-1.0720281971238552,-0.4194821341335773
1761469254299608800,6.25360888671875,0.7309832014977932,-1.2233232127018272,-0.47461482329070565
1761469254309591800,6.263591796875,0.4468763370156288,-1.453852654644847,-0.43479543859958647
1761469254319575800,6.273575927734375,0.3086351565390825,-1.6101704668208956,-0.29092648136913773
1761469254329558800,6.283558837890625,0.2585772864282131,-1.5730258542969822,-0.06188391698300838
1761469254339542000,6.2935419921875,0.09380056572556496,-1.5846579860322176,0.13634791407585142
1761469254349525000,6.30352490234375,-0.07572422628700733,-1.682073819645494,0.21031799017190933
1761469254359509000,6.313509033203125,-0.055690323039889335,-1.6295478058554231,0.17166589569449422
1761469254369491700,6.32349169921875,-0.0003647416591644287,-1.488660933175683,0.10859423023164272
1761469254379475000,6.333474853515625,-0.001342062258720398,-1.4607964824333786,-0.040941082197427744
1761469254389458000,6.3434580078125,0.18629764763712883,-1.2844168560899794,-0.08738660703003406
1761469254399442000,6.35344189453125,0.6086205581545829,-1.1051327404767275,-0.3457219013959169
1761469254409425000,6.3634248046875,0.6885989347547292,-1.1541770496308803,-0.5206973600298166
1761469254419408000,6.373407958984375,0.21461714867055415,-1.1083337284751236,-0.3860381296932697
1761469254429390800,6.383390869140625,-0.16119301699697972,-0.9748775903180241,-0.3442570895403623
1761469254439374800,6.393374755859375,-0.49794659903943533,-1.1972802782982588,-0.3370966963917017
1761469254449358000,6.403358154296875,-0.7232967386484146,-1.4160995548337698,-0.2539928812474012
1761469254459340800,6.4133408203125,-1.0362591107368468,-1.5192948486313222,-0.034359365719556806
1761469254469323800,6.42332373046875,-1.2386650126099585,-1.4301666586309671,0.1759381661862135
1761469254479307800,6.433307861328125,-0.9835586171627044,-1.423331551913917,0.08262392267286776
1761469254489291000,6.443291015625,-0.6478735411345958,-1.5335063293352722,0.14722995809614658
1761469254499273700,6.453273681640625,-0.5001601834356785,-1.5273694340154527,0.24902093805372713
1761469254509257000,6.463257080078125,-0.045723640298843383,-1.5049845837280154,0.44272623159885405
1761469254519240000,6.473239990234375,0.4722720595568418,-1.4426543842822313,0.6083534316509962
1761469254529224000,6.483223876953125,0.8835591967970132,-1.2861965791136025,0.6731523592978715
1761469254539207000,6.49320703125,1.0014245287209749,-1.158293545038998,0.5506090986907481
1761469254549190000,6.50318994140625,0.5917331362396479,-1.018779860408604,-0.14209434877336025
1761469254559172900,6.5131728515625,0.3552250582784414,-1.037883497068286,-0.4127344134390354
1761469254569156900,6.523156982421875,0.006794482445716858,-1.0762646656498311,-0.21631635380387304
1761469254579139800,6.533139892578125,-0.5417565146714448,-1.0539292074620723,0.11454992376565933
1761469254589122800,6.543122802734375,-0.8779284974336624,-0.9251578661203383,0.3545072653979063
1761469254599105800,6.553105712890625,-0.9412468311339616,-0.8001885474100708,0.4292693686544895
1761469254609089800,6.56308984375,-1.0152098929673432,-0.48053164611905813,0.03772621180415153
1761469254619073000,6.573072998046875,-0.8869862486362456,-0.7289046416580677,1.0566478187710047
1761469254629056000,6.583055908203125,-1.0409037216722965,-0.15617343526929617,1.733465130317211
1761469254639038700,6.593038818359375,-1.0169032528817652,0.18105770115703343,2.2491420318365094
1761469254649022700,6.603022705078125,-1.111461358976364,0.17241525275707245,2.578945648610592
1761469254659006000,6.613005859375,-1.2024182257086038,0.17452508451789617,2.4501076717734334
1761469254668989000,6.622989013671875,-1.0559797102510928,0.3659267772957682,2.239441306555271
1761469254678971600,6.6329716796875,-0.5736006826996803,0.39959932979494334,2.081584155982733
1761469254688956000,6.642955810546875,0.2065069074511528,0.3958019833385944,1.9080518818944692
1761469254698939000,6.65293896484375,0.9690905313491821,0.47681145655214785,1.4681091435343026
1761469254708921900,6.662921875,1.6182967823922634,0.5381359860867262,0.8700152400910853
1761469254718905000,6.672905029296875,2.125391149005294,0.5067018601641059,0.28622108015716075
1761469254728887800,6.6828876953125,2.4296371306747195,0.48268444023877377,-0.23865970303714273
1761469254738871800,6.692871826171875,2.3894448210179804,0.3535331596687436,-0.541232198536396
1761469254748854300,6.702854248046875,2.0779121894717214,0.2990720861628651,-0.698914577063918
1761469254758837500,6.71283740234375,1.831325785088539,0.1513569748982787,-0.8381991291135549
1761469254768820200,6.7228203125,1.3135364214599132,0.1905351390764117,-0.8512474112570285
1761469254778804200,6.73280419921875,1.1419342386513949,0.5369406388223171,-0.8023568313598632
1761469254788787500,6.742787353515625,1.1245452969551086,0.8635492589473723,-0.6643810238212347
1761469254798770400,6.7527705078125,0.8834674268603324,1.0256573449626565,-0.3906389014869928
1761469254808753400,6.76275341796875,0.48857905123531814,0.983923066560924,-0.1668617102831602
1761469254818737200,6.772737060546875,-0.026151509344577786,0.9881216872945427,-0.11369184563159943
1761469254828720400,6.782720458984375,-0.536343841972947,1.009885775335133,-0.043915129572153086
1761469254838703400,6.792703369140625,-0.8767559465229511,0.9444301373451948,0.08543664200603962
1761469254848686300,6.802686279296875,-0.7920026106059551,0.7955003895938396,0.22300445326566695
1761469254858670600,6.812670654296875,-0.5695055223405361,0.6216691325590014,0.37123160570561886
1761469254868653300,6.8226533203125,-0.3857183962196111,0.46720571607798334,0.5466828651577234
1761469254878636300,6.83263623046875,-0.0867874720931053,0.4219397564187646,0.5615688841223716
1761469254888619500,6.84261962890625,0.17157821741104126,0.2519984925597906,0.5195388376444577
1761469254898602500,6.8526025390625,0.48985213991105553,0.16013240202814338,0.5890227082371712
1761469254908586200,6.862586181640625,0.7288157943308353,0.12249766789972781,0.5344926611483096
1761469254918569200,6.8725693359375,0.7239496495991945,0.3163540603533387,0.32760406090319155
1761469254928552400,6.882552490234375,0.6452180581897496,0.3417947910800576,0.25174890171289444
1761469254938535400,6.892535400390625,0.4839981531858444,0.3648591480642557,0.2118354089975357
1761469254948519400,6.90251953125,0.2681879953384399,0.27671733875274657,0.05320025978982448
1761469254958502400,6.91250244140625,-0.16733049683868884,0.585587765352428,-0.713918669450283
1761469254968485400,6.9224853515625,0.2113905878394842,-0.09125760324448347,-1.0936047997683287
1761469254978468400,6.93246826171875,-0.4029232135206461,-0.3586868891701102,-1.2404179937571287
1761469254988452400,6.942452392578125,-0.49406537369191644,0.3161643830001354,-1.389582134786248
1761469254998435600,6.952435546875,-0.2738409065335989,0.1917237643390894,-1.1217033515274524
1761469255008418300,6.962418212890625,-0.11085106924772262,0.016254969230294226,-1.0773825637638568
1761469255018401300,6.9724013671875,-0.03814414495527744,0.08480945001840591,-1.1085375804841517
1761469255028385300,6.98238525390625,0.017380758389830588,-0.07976414932757615,-1.1474644002497196
1761469255038368500,6.992368408203125,0.12502806316018103,-0.45768823840916156,-1.1410165392845868
1761469255048351200,7.002351318359375,-0.12950666987895965,-0.4708008179605007,-1.0163853664875029
1761469255058334500,7.01233447265625,-0.4206155220776796,-0.30045243460536003,-0.9187515062093734
1761469255068317400,7.0223173828125,-0.7097738247305154,-0.3527405479863286,-0.7815238866895436
1761469255078301400,7.032301513671875,-0.5203858098626136,-0.4925464935615658,-0.8121072410017252
1761469255088284400,7.042284423828125,-0.21410276940762996,-0.47678310724049805,-0.926264366057515
1761469255098267400,7.052267333984375,-0.1623649833858013,-0.4085094892203808,-0.9397048623889684
1761469255108250400,7.06225048828125,-0.4790507599115371,-0.37960897342860694,-1.1088193200349807
1761469255118234400,7.072234375,-0.4432464560806751,-0.5339633765771985,-1.1825076565802097
1761469255128217300,7.08221728515625,-0.41677521326243877,-0.2782391414925456,-1.2878268106639383
1761469255138200300,7.092200439453125,-0.22461247298419473,-0.6316995281860232,-1.100892618688941
1761469255148183300,7.102183349609375,-0.0396925434410572,-0.6664718586206436,-1.206110650485754
1761469255158167300,7.112167236328125,0.10561609120368957,-0.5667214445799589,-1.1232786380201578
1761469255168150500,7.122150634765625,0.313845000141859,-0.5389908493503928,-0.8955313741415738
1761469255178133500,7.132133544921875,0.2077086844563484,-0.3780807409480214,-0.6758318076401949
1761469255188116200,7.1421162109375,-0.007018938851356506,-0.21626082422435283,-0.622199586173892
1761469255198099500,7.152099365234375,0.08585691324472428,-0.19229191961586475,-0.601792757961154
1761469255208083500,7.16208349609375,0.26326632102727887,0.0018029577687382697,-0.5040098446011543
1761469255218066400,7.17206640625,0.573953733921051,0.23532822052687405,-0.5190191976845264
1761469255228049200,7.182049072265625,1.702748505014181,-0.0372919120401144,-0.6877893719375133
1761469255238032400,7.192032470703125,1.571194839477539,0.0015244330883026121,-0.3885036430239677
1761469255248016400,7.202016357421875,-0.5464695146679878,0.46422670026719565,-0.07344459091722964
1761469255257999400,7.211999267578125,-1.4174199897825717,0.4223366467818618,0.002177344039082527
1761469255267982600,7.221982666015625,-0.6963613854497671,0.6107005792990327,0.34072774637043474
1761469255277965300,7.23196533203125,-0.8870990613609552,0.43224984577000136,0.5401882424414157
1761469255287949300,7.24194921875,-1.8238783916920422,0.3335679377436638,0.5265414098829031
1761469255297932300,7.251932373046875,-2.0036627119123933,0.15929302859455347,0.5342191049039363
1761469255307915500,7.26191552734375,-2.204412663272023,-0.0207394211679697,0.5322562803983688
1761469255317898200,7.271898193359375,-2.31672912889719,-0.08716887262612581,0.8106307387083769
1761469255327881200,7.281881103515625,-1.7710522259116173,-0.005214227516949176,1.35164432605803
1761469255337865500,7.291865478515625,-1.166592879089713,-0.008470891225337982,1.6401543939352035
1761469255347848400,7.301848388671875,-1.053894136148691,-0.2233499057024717,1.518109145978093
1761469255357831400,7.31183154296875,-1.2686059773653744,-0.5576347595438361,1.2351163802176712
1761469255367814400,7.321814453125,-1.4570517429471015,-0.8499287298738956,0.9884481427699326
1761469255377798400,7.33179833984375,-1.279533614093065,-0.9118395348638295,0.8306003445476293
1761469255387781400,7.341781494140625,-0.7953589352965355,-0.8819313033342361,0.6907558205276727
1761469255397764400,7.351764404296875,-0.28961773685812947,-0.6005600012958049,0.4355471337497234
1761469255407747300,7.361747314453125,0.3828752817481756,-0.23518647396862505,0.17386135991215704
1761469255417731300,7.3717314453125,1.1118360375076533,0.19503946475833653,-0.17293489271700382
1761469255427714300,7.38171435546875,1.4934364770144224,0.45126638866811986,-0.44690030241310597
1761469255437697500,7.391697509765625,1.767531650570035,0.5257572737678885,-0.6946195102185011
1761469255447680500,7.401680419921875,1.9129583586364984,0.5865531032532453,-0.8324006719678639
1761469255457664500,7.41166455078125,1.8479314674526452,0.660478755685687,-0.7033902611732482
1761469255467647200,7.421647216796875,1.7409534402459859,0.6031731064036489,-0.4508709596097469
1761469255477630500,7.43163037109375,1.8336112656772137,0.6104694008916616,-0.16410452052950858
1761469255487613400,7.441613525390625,1.9168167876303195,0.6001940905928611,0.2785322792202234
1761469255497596200,7.45159619140625,1.9167209260404108,0.4934846511945128,0.697827366349101
1761469255507580200,7.461580078125,1.8933716146349906,0.33594021983295674,0.9720838679462671
1761469255517563400,7.4715634765625,1.7878613218933344,0.2916466123372316,1.2299001068741082
1761469255527546400,7.48154638671875,1.575980320188403,0.23159341791272162,1.4016998580813407
1761469255537529300,7.491529296875,1.3749720101535319,0.14113514835238455,1.429407949218154
1761469255547513600,7.501513671875,1.0542121160566806,0.0940446036145091,1.2921277227282524
1761469255557496300,7.511496337890625,0.6085451548308134,-0.019537059640884397,1.0679448733329773
1761469255567479300,7.521479248046875,0.339003991317749,-0.06115910983979702,0.8756096990972757
1761469255577462500,7.531462646484375,0.25754794338047504,-0.02979600332677364,0.7344500008255243
1761469255587446500,7.541446533203125,0.2683288651138544,0.0042269700452685355,0.64322191593647
1761469255597429200,7.55142919921875,0.30404958231449125,0.02941840218603611,0.5534849463880062
1761469255607412200,7.561412109375,0.3554734800815582,-0.06107143155634403,0.4713748184561729
1761469255617395500,7.5713955078125,0.4123766860425472,-0.1239475744470954,0.3767658589571714
1761469255627378400,7.58137841796875,0.5326935027718543,-0.27714520877599713,0.354352951619029
1761469255637362400,7.591362548828125,0.623922756704688,-0.42166795374006033,0.26498306181728837
1761469255647345400,7.601345458984375,0.6178934134125709,-0.6626368105024099,0.11745616660118102
1761469255657328400,7.611328369140625,0.5778671079725026,-0.9148428083330392,0.04568213924467563
1761469255667311400,7.621311279296875,0.6428700337588786,-1.1366457768544553,-0.014825228688120841
1761469255677295400,7.63129541015625,0.6664104838222265,-1.2808891203552484,-0.15651625735759733
1761469255687278300,7.6412783203125,0.5760597662895918,-1.3409087047711015,-0.20699673679471015
1761469255697261300,7.65126123046875,0.5778688615381717,-1.3033867833673953,-0.22023674211800098
1761469255707244300,7.661244384765625,0.6495195547759532,-1.294403558705747,-0.2231499992161989
1761469255717227500,7.6712275390625,0.5032248317033052,-1.3206298868522046,-0.25400398716330524
1761469255727211500,7.68121142578125,0.39543022741675377,-1.3084846910282968,-0.26067162835896013
1761469255737194200,7.6911943359375,0.38706805726289745,-1.3081588200747967,-0.19842238519489763
1761469255747177500,7.701177490234375,0.378984119528532,-1.2243386733546853,-0.07387538354992866
1761469255757163300,7.711163330078125,0.3319330300182104,-1.1563193223565815,0.026869302225112912
1761469255767147300,7.721147216796875,0.22606793248951434,-1.1621025819331408,0.043106735798716544
1761469255777130200,7.731130126953125,0.1520131007194519,-1.1920958613976835,0.03864215760529041
1761469255787113500,7.741113525390625,0.13981880505681038,-1.2205389888107776,0.003483165940642357
1761469255797096200,7.75109619140625,0.2537310154408216,-1.2617387219443916,0.07058452531099318
1761469255807080200,7.761080078125,0.40018882012069223,-1.2838678439050912,0.0953062941133976
1761469255817063400,7.7710634765625,0.594895984184742,-1.390632520622015,0.007795768442749976
1761469255827046400,7.78104638671875,0.7197790859162807,-1.399161279514432,-0.08413140462636948
1761469255837029400,7.791029296875,0.5944213524103165,-1.3312661394178866,-0.08842354886233807
1761469255847012400,7.801012451171875,0.3045791591465473,-1.2119906484350562,-0.07457622529566288
1761469255856996400,7.810996337890625,0.1236748949855566,-1.0633885252028703,-0.05546352854669094
1761469255866979300,7.820979248046875,0.011788637471199036,-0.8438003101214766,0.0237502934217453
1761469255876962300,7.83096240234375,-0.09101590344309807,-0.5849453757956624,0.05509177262485027
1761469255886945300,7.8409453125,0.4645534480035305,-0.5944032322317362,-0.0758732793688774
1761469255896929300,7.85092919921875,-0.6974865900874138,-0.31497926486879585,-0.04416822755038738
1761469255906912300,7.860912353515625,-1.5655220545381308,-0.13774404460936784,-0.05021861363053322
1761469255916895500,7.8708955078125,-0.31932430833578107,-0.4485099295668304,-0.09197802647352218
1761469255926878500,7.88087841796875,0.35096214013695715,-0.4210248335309326,0.1991694041699171
1761469255936862200,7.8908623046875,0.019732289952039718,-0.3517255257248878,0.6188894387125968
1761469255946845200,7.90084521484375,-0.19305179807245731,-0.25274521927386523,0.9354039503246545
1761469255956828400,7.910828369140625,-0.15848141995072365,-0.2569118374340236,1.1891928334325552
1761469255966811400,7.920811279296875,-0.23008125978410243,-0.35792525714784856,1.1649755070209502
