time,seconds_elapsed,z,y,x
1761469080128033500,0.115033447265625,0.7877595662087201,-0.4617410209313035,-0.16990414671897888
1761469080138016500,0.1250166015625,0.7460130128473043,-0.6153650639787316,-0.1991781719982624
1761469080147999500,0.13499951171875,0.6651233666211366,-0.7187868600085378,-0.24804069484472274
1761469080157982500,0.144982421875,0.5867541787832975,-0.8394874153584241,-0.27429098838865756
1761469080167965700,0.154965576171875,0.530161353945732,-0.9032526160433888,-0.18597265346646308
1761469080177948400,0.164948486328125,0.45694005039036273,-0.8806909478843211,0.014866145220398901
1761469080187931600,0.174931640625,0.38648821154832835,-0.9168307672798633,0.15149638336896895
1761469080197914600,0.18491455078125,0.20528058052659034,-0.8970236585259437,0.18363281234204767
1761469080207897600,0.194897705078125,0.09997487044632435,-0.8036345962107181,0.23093583078682423
1761469080217879600,0.204879638671875,0.07649521065950393,-0.6676379797905683,0.20428221713900566
1761469080227862500,0.214862548828125,0.0003109656453132629,-0.5519494073837995,0.1400572899878025
1761469080237845800,0.224845703125,-0.041461306679248806,-0.4844748307868838,0.0605021072357893
1761469080247828500,0.234828369140625,0.012946575334668158,-0.4518567557767033,-0.053422962629795075
1761469080257811500,0.2448115234375,0.08556172969043255,-0.455391651904583,-0.1661725589752197
1761469080267794700,0.254794677734375,0.12118424721360206,-0.5082204480335116,-0.2526695236891508
1761469080277777700,0.264777587890625,0.07263269001245498,-0.4429249690413475,-0.31322189980745313
1761469080287760400,0.274760498046875,-0.06560965950787068,-0.33397739532738924,-0.29375732088088985
1761469080297743600,0.28474365234375,-0.20598434488177297,-0.27128771491944786,-0.17031097395420072
1761469080307726600,0.2947265625,-0.36397827357649803,-0.1825812574625015,-0.09821487503647804
1761469080317708500,0.30470849609375,-0.4548100526243448,-0.2803448816001415,-0.045890813559293746
1761469080327691500,0.31469140625,-0.4338187025219202,-0.41409225778877734,-0.1130699143409729
1761469080337674500,0.324674560546875,-0.3985533278733492,-0.4831646249711513,-0.3408651090145111
1761469080347657700,0.33465771484375,-0.38366730890870093,-0.5803796753153204,-0.49921442701816554
1761469080357640400,0.344640380859375,-0.38472938518226146,-0.5484662414431571,-0.6202221486210823
1761469080367623700,0.354623779296875,-0.37982407748401165,-0.5409025281906128,-0.6977092929273844
1761469080377606700,0.364606689453125,-0.30051907010078427,-0.5271601263031364,-0.6840361568838358
1761469080387589400,0.37458935546875,-0.1617038891285658,-0.6019526246979833,-0.5058750539511442
1761469080397572600,0.384572509765625,0.1120499236434698,-0.5724035818696022,-0.3104214554339647
1761469080407555600,0.3945556640625,0.28713118073940275,-0.5058198166325688,-0.134388596701622
1761469080417538600,0.40453857421875,0.1287894615203142,-0.45130116772055623,0.057499418288469314
1761469080427520500,0.4145205078125,-0.14278642269074915,-0.3885711553022265,0.17559388279318808
1761469080437503500,0.42450341796875,-0.344921690928936,-0.41625352747589345,0.1500871010929346
1761469080447486700,0.43448681640625,-0.49593935087025165,-0.48325522586405273,0.09916589215099811
1761469080457469400,0.444469482421875,-0.6525292579859495,-0.4874418638989329,0.07936053696274757
1761469080467452400,0.454452392578125,-0.8004355079084634,-0.5659238644614816,0.08215279802978039
1761469080477435600,0.464435546875,-0.8465729897052049,-0.6745400142639875,0.04360591749250889
1761469080487418600,0.474418701171875,-0.9201239636063575,-0.6883101809412241,-0.148142981287837
1761469080497401600,0.484401611328125,-0.9415940371364354,-0.8470242406040429,-0.1586737276524305
1761469080507384600,0.494384521484375,-1.0216735360234974,-0.8759089743047952,-0.1620125166863203
1761469080517367600,0.504367431640625,-1.1219921053409576,-0.958114963826537,-0.2774719565123319
1761469080527350800,0.514350830078125,-1.170119884172082,-1.0986261350616813,-0.29795009639561176
1761469080537332500,0.52433251953125,-1.069765659019351,-1.2295718978330492,-0.1147603516459465
1761469080547315700,0.534315673828125,-1.095771037891507,-1.1184390890344977,-0.2207137119799852
1761469080557298700,0.544298583984375,-1.039638231781125,-1.2451345008850097,-0.27532968378663064
1761469080567281400,0.554281494140625,-0.9635071782588959,-1.235866614063084,-0.059440030962228774
1761469080577266700,0.5642666015625,-0.9528186109840869,-1.0775208031907677,0.27254326793849465
1761469080587249700,0.574249755859375,-0.8861153110206127,-0.7683417490333319,0.8094207783967257
1761469080597232600,0.584232666015625,-0.9651379943311214,-0.20638035846203565,1.2566191869735717
1761469080607215600,0.594215576171875,-0.9250275177389383,0.30362784977108237,1.4942267506092786
1761469080617198600,0.604198486328125,-0.9708148709237575,0.7342781513899564,1.7333803746432066
1761469080627181800,0.614181884765625,-0.6270715761244297,1.1204384461581707,1.7768384080976247
1761469080637164500,0.62416455078125,0.12474047839045524,1.3512412982150912,1.8497902470618486
1761469080647146800,0.634146728515625,0.9358651380956172,1.6049781588748095,1.9328128136634826
1761469080657129700,0.644129638671875,1.567379080581665,1.5299381154596805,1.9453695128977297
1761469080667112700,0.65411279296875,1.8817378754645584,1.4316007830873132,1.78443777718544
1761469080677095700,0.664095703125,2.144810719746351,1.1377516922697424,1.4446592943638563
1761469080687078700,0.67407861328125,2.4855478184670208,0.7376070035517215,0.921409911763668
1761469080697062000,0.684061767578125,2.824878557521105,0.4631570252090692,0.36912323524951934
1761469080707044600,0.694044677734375,2.9456401954084632,0.18697978468239307,-0.18813421541452408
1761469080717027600,0.704027587890625,2.710500483191013,0.04760463173985481,-0.7997656458228826
1761469080727010800,0.7140107421875,1.9920786571025848,0.08982377104908228,-1.2129361125916243
1761469080736993800,0.723993896484375,1.1492407622724772,0.29477380444705487,-1.2561772884249687
1761469080746976500,0.7339765625,0.4734457795113325,0.5052563375309109,-1.0980173555135726
1761469080756959700,0.743959716796875,-0.09036123892664909,0.7608192445740103,-0.8232721936166286
1761469080766941700,0.753941650390625,-0.7088415123164653,1.02399993314445,-0.40276656165421004
1761469080776924700,0.763924560546875,-1.0068284335911273,1.192498012457788,0.02773205653429031
1761469080786907600,0.77390771484375,-0.8260095096260309,1.2142357970133424,0.3359545406192541
1761469080796890600,0.783890625,-0.540969163686037,1.1298626925855875,0.519493829458952
1761469080806873900,0.793873779296875,-0.2809206356614828,0.8874547429308295,0.7236106269031762
1761469080816856600,0.803856689453125,-0.06758885062634945,0.6155602942898869,0.7628595182299613
1761469080826839800,0.81383984375,0.11754033775329589,0.4541837374195456,0.6068091248184442
1761469080836822800,0.82382275390625,0.32784371487796304,0.2590297063708305,0.4322112673252821
1761469080846805800,0.8338056640625,0.5199830742806196,0.13306786949187516,0.30273733067214487
1761469080856788700,0.843788818359375,0.6461825193077325,0.11380699644386767,0.13336568339467048
1761469080866771700,0.853771728515625,0.6396826358944178,0.07370587220191956,-0.027886954835057258
1761469080876754000,0.86375390625,0.5279810872972012,0.02691606397628784,-0.2657365105330944
1761469080886736600,0.873736572265625,0.40911096224486826,-0.04211187954246998,-0.5551923348277807
1761469080896719600,0.8837197265625,0.3239946382343769,-0.13789251316934822,-0.7795248218268156
1761469080906702800,0.893702880859375,0.19597703786939383,-0.20299714576452968,-0.8071902428656816
1761469080916685600,0.903685546875,0.1702297254115343,-0.3339212812259793,-0.8845932160198688
1761469080926668500,0.91366845703125,0.1727066369190812,-0.43686610739380116,-1.0277613315045833
1761469080936651800,0.92365185546875,0.06810732154250144,-0.491544623042643,-1.145956918296218
1761469080946634800,0.933634765625,0.07218669981062412,-0.553240908499062,-1.1821142733484507
1761469080956617500,0.943617431640625,0.03864654151946306,-0.5354959929719567,-1.1874965509086846
1761469080966600700,0.9536005859375,0.009852116450667381,-0.5688976195752621,-1.1323422344416378
1761469080976583700,0.963583740234375,-0.002555529701709747,-0.5720628056079149,-1.0417518629342317
1761469080986566700,0.973566650390625,-0.0426291814148426,-0.5192889545366167,-0.8655646904230118
1761469080996549600,0.983549560546875,-0.046398470820486544,-0.5086787131950259,-0.767817432898283
1761469081006531800,0.99353173828125,-0.1295166067510843,-0.4858820672363042,-0.6290531053304672
1761469081016514800,1.003514892578125,-0.3777183373764157,-0.5403861031010747,-0.643456893736124
1761469081026497500,1.01349755859375,-0.6132324358642101,-0.6613695670455694,-0.7681909423857927
1761469081036480800,1.023480712890625,-0.6089601653724909,-0.8363187221944332,-0.7984154002577066
1761469081046463700,1.033463623046875,-0.48454526567459105,-0.973025824971497,-0.8243143961459398
1761469081056446700,1.04344677734375,-0.4179387040838599,-1.0710092293396591,-1.1164800639212131
1761469081066429700,1.0534296875,-0.4935799282625317,-1.1019561562672258,-1.3097820373624562
1761469081076412700,1.06341259765625,-0.5390209522277116,-0.9771291686370969,-1.3973942698419093
1761469081086395600,1.073395751953125,-0.5711249402359128,-0.8326549389898776,-1.3533926310300826
1761469081096379000,1.08337890625,-0.7474775324419141,-0.6723024644702672,-1.1990636545836926
1761469081106361600,1.093361572265625,-0.9142249686956405,-0.5104448460847139,-1.0283704033136367
1761469081116344600,1.103344482421875,-1.0025310286581515,-0.3188186969012022,-0.8572031047910451
1761469081126326800,1.113326904296875,-0.9204477887332438,-0.09595043723583221,-0.629379853066802
1761469081136309500,1.1233095703125,-0.7314268536120653,0.16770751345753668,-0.3826736216962337
1761469081146292700,1.133292724609375,-0.6912000571638345,0.3455626191809773,-0.11111118148863315
1761469081156275700,1.143275634765625,-0.7354711605668067,0.45603842537552114,0.13088847962617872
1761469081166258700,1.1532587890625,-0.7001558092966675,0.500698235835135,0.3195972800582647
1761469081176241700,1.16324169921875,-0.7085378531947731,0.48953211417645215,0.5055944834440946
1761469081186224600,1.173224609375,-0.781066206049919,0.4423641202881932,0.5350239915460347
1761469081196207900,1.183207763671875,-0.8954279137670993,0.36144963188171386,0.4221352789908647
1761469081206190600,1.193190673828125,-0.9478636189252138,0.28114304624050857,0.2584890236228704
1761469081216173600,1.203173583984375,-1.0810384559229016,0.2337432894229889,0.2134165407091379
1761469081226156800,1.21315673828125,-1.2919430138111114,0.20706775620430706,0.36916122917234895
1761469081236139800,1.223139892578125,-1.3593249436885118,0.21393267353773116,0.6548585777163505
1761469081246121700,1.233121826171875,-1.2702341630890965,0.23957389527261255,0.9841501533150673
1761469081256104700,1.243104736328125,-1.0971844118207692,0.28147593145668504,1.2204688461840152
1761469081266087700,1.253087646484375,-1.029841060388088,0.3310717370137572,1.3127180908143519
1761469081276070700,1.263070556640625,-0.8963198941707611,0.4209650661677122,1.5313275239914654
1761469081286053600,1.2730537109375,-0.6789911484539508,0.2723024449199438,1.5753215640187264
1761469081296036600,1.28303662109375,-0.301097746771574,0.03675502868443727,1.4764865112572907
1761469081306019800,1.293019775390625,0.028437574455142018,0.009182838886976241,1.4460598088115453
1761469081316002600,1.30300244140625,0.3209147923976183,0.035707565458118914,1.5296914472222327
1761469081325985800,1.31298583984375,0.6011690731048583,0.07882862204313278,1.3706032935500143
1761469081335968800,1.32296875,0.8017775701671839,0.2519526075914502,0.9522194760471582
1761469081345951700,1.33295166015625,0.9953940163850784,0.3745931910932064,0.6889724442422389
1761469081355934700,1.342934814453125,1.35440443842113,0.44706776793450115,0.44866438947618004
1761469081365917700,1.352917724609375,1.7173586296468972,0.40907238380014893,0.1503185717612505
1761469081375900700,1.362900634765625,2.035527338206768,0.27566432256847617,-0.16393208657205105
1761469081385882600,1.372882568359375,2.396280219995975,0.06701485013067722,-0.3982604824066162
1761469081395865600,1.382865478515625,2.6725205888867376,-0.15675211194008587,-0.47381695091128345
1761469081405848800,1.392848876953125,2.800522699421644,-0.30604777039438485,-0.45845630017220973
1761469081415831800,1.402831787109375,2.758029711607098,-0.45028585319817066,-0.3393395068824291
1761469081425814500,1.412814453125,2.607182147535682,-0.45370735207945107,-0.11620353619158268
1761469081435797800,1.4227978515625,2.451091422113776,-0.5950020749077201,0.16490180838704108
1761469081445780700,1.43278076171875,2.208530619984865,-0.5320677720889448,0.4992559280723333
1761469081455763500,1.442763427734375,1.7271633998245,-0.3459083638787269,0.8555757958501576
1761469081465746700,1.45274658203125,1.2262184957519173,-0.12882570187747477,0.9197919551730155
1761469081475729700,1.462729736328125,0.9629635729014873,-0.07500204949229955,0.9343617477953433
1761469081485712600,1.472712646484375,0.7676742250353098,-0.022534780152142046,0.8901964428544044
1761469081495695600,1.482695556640625,0.6464426315486431,-0.06042758069485426,0.77649524487257
1761469081505678600,1.4926787109375,0.5476806440234184,-0.15016922641843555,0.6758510968625545
1761469081515660800,1.502660888671875,0.497046435329318,-0.22498773603737354,0.6103524965137243
1761469081525643500,1.5126435546875,0.5971838028609753,-0.3285907338529825,0.5731850876361131
1761469081535626800,1.522626708984375,0.6891016235798597,-0.4134638967573642,0.5770026000976562
1761469081545609700,1.532609619140625,0.7082184119820595,-0.4618710770517587,0.6189145731538533
1761469081555592700,1.5425927734375,0.7210171032786369,-0.5175587697431445,0.6557306843757629
1761469081565575700,1.55257568359375,0.8076011617541313,-0.5729980406314135,0.6106780752062797
1761469081575552300,1.56255224609375,0.8920590218558907,-0.6281076411738992,0.5546855543494225
1761469081585535200,1.57253515625,0.9171019854366779,-0.7176774374619126,0.4965419929385185
1761469081595518500,1.5825185546875,0.834134948414564,-0.8216904773831367,0.4004401645332575
1761469081605501200,1.592501220703125,0.7001853276520967,-0.9902189518347382,0.23376140960156916
1761469081615484200,1.602484130859375,0.6759259156644344,-1.1873586037427186,0.09032441404759883
1761469081625467400,1.61246728515625,0.6973176632612943,-1.3392808113083243,0.0010667524486780166
1761469081635450400,1.622450439453125,0.699185210698843,-1.391130241011083,-0.03666822718381881
1761469081645433000,1.63243310546875,0.5921884787917137,-1.4072145298495888,-0.011033435189723969
1761469081655415300,1.642415283203125,0.4137929825812578,-1.3954977885708213,0.07723579989373683
1761469081665398300,1.652398193359375,0.2986971153706312,-1.4051470759257674,0.21595804188549517
1761469081675381200,1.66238134765625,0.2886807482689619,-1.4008046628072857,0.2654097627967596
1761469081685364200,1.6723642578125,0.31661212676763534,-1.3579589160323142,0.24564006344377992
1761469081695347200,1.68234716796875,0.3663397420108318,-1.2885726605951786,0.222291921082139
1761469081705330400,1.692330322265625,0.3519482285648584,-1.2088298463165759,0.23087854764163493
1761469081715313200,1.702313232421875,0.24386194785535334,-1.1758332933828235,0.2541290748476982
1761469081725296400,1.71229638671875,0.1392389593422413,-1.1562219994619487,0.2350491113245487
1761469081735279400,1.722279296875,-0.040599721413850785,-1.1855071306571363,0.18199732009470462
1761469081745262300,1.732262451171875,-0.18884616307616234,-1.2868956672936678,0.0943342342108488
1761469081755245300,1.742245361328125,-0.2558113288462162,-1.435481716173887,0.017070961788296698
1761469081765228300,1.752228271484375,-0.21631693832576274,-1.5752680802658199,-0.05853869820833206
1761469081775211300,1.762211181640625,-0.032625381533801553,-1.6839447280839084,-0.19724924976229666
1761469081785194200,1.7721943359375,0.11929945638030767,-1.715919244493544,-0.3490425702512264
1761469081795177200,1.78217724609375,0.15818448283076286,-1.638248852574825,-0.3684410982042551
1761469081805159400,1.792159423828125,0.1874579235881567,-1.5420342114448546,-0.2809679819345474
1761469081815142400,1.802142333984375,0.16157529431283474,-1.443473883971572,-0.1035100588351488
1761469081825125000,1.812125,0.15013678545355796,-1.3310989661574364,0.0941290670275688
1761469081835108400,1.8221083984375,0.15118249511420725,-1.2571294745832682,0.3231038268744945
1761469081845091300,1.83209130859375,0.06685556791573763,-1.1757689959749578,0.5098971490740776
1761469081855074000,1.842073974609375,0.027620412853360175,-1.0804036651507019,0.6585837357193232
1761469081865057300,1.852057373046875,-0.1831055735975504,-0.9135513072177768,0.7830898208320141
1761469081875040300,1.862040283203125,-0.496673510363698,-0.8031196324259042,0.8550824593752622
1761469081885023200,1.872023193359375,-0.7941817082107067,-0.6933329775393009,0.9497177223592996
1761469081895006200,1.882006103515625,-0.9791323251530527,-0.5619613905712961,1.0015817651093006
1761469081904989200,1.8919892578125,-0.9700745739504695,-0.3314110519707203,1.0178788199156523
1761469081914972400,1.901972412109375,-0.9648574238240718,0.04139613248854875,1.1322288371950386
1761469081924955400,1.911955322265625,-0.8469353932768106,0.46508273257464167,1.41654671407938
1761469081934938000,1.921938232421875,-0.6494213550984859,1.0153715132698415,1.7899883970499038
1761469081944921300,1.93192138671875,-0.575813098052144,1.5898209217533468,2.2001257797330616
1761469081954903300,1.9419033203125,-0.6209785199463367,1.9403698049142954,2.450490533611178
1761469081964886300,1.95188623046875,-0.655409781858325,2.1178838421151043,2.4268565600454806
1761469081974869200,1.961869140625,-0.34382571238577364,2.0429078038468957,2.3030542392879725
1761469081984852200,1.971852294921875,0.06015490123331546,1.7618866304203866,2.1194588363468645
1761469081994835500,1.98183544921875,0.45561669283211226,1.3623486754238605,1.7662655761569737
1761469082004818200,1.991818115234375,0.9541752862900496,0.8121829365864396,1.3138602465867995
1761469082014801200,2.00180126953125,1.3358750945180653,0.34307167914807796,0.8362842354029416
1761469082024784400,2.011784423828125,1.665252594834566,-0.05091565598398447,0.2351969953626394
1761469082034767400,2.021767333984375,1.9978315215408802,-0.3852136615678668,-0.481561281427741
1761469082044750300,2.031750244140625,2.3444985948324204,-0.5419537908092141,-1.0815817690193652
1761469082054733300,2.0417333984375,2.703420754063129,-0.6059072075426578,-1.4787573787987232
1761469082064716300,2.05171630859375,2.7852023806929584,-0.48981122337877747,-1.6560031204521655
1761469082074699300,2.06169921875,2.7160429197490212,-0.0759697254806757,-1.3926198950469493
1761469082084682200,2.07168212890625,2.365366026294231,0.43082858079522846,-0.9577911386996507
1761469082094665200,2.081665283203125,1.6943161922335623,0.7221230186939239,-0.7298381231158971
1761469082104648400,2.0916484375,0.7906985422700643,1.031816159853339,-0.48139060103595255
1761469082114630100,2.101630126953125,-0.02414718378484249,1.391867030853033,-0.21317045699357987
1761469082124613400,2.11161328125,-0.5420283173501491,1.798595189614594,0.057490065938234323
1761469082134596400,2.121596435546875,-0.7921043174147605,1.9265242349132894,0.45592532038986683
1761469082144579000,2.1315791015625,-0.7478665317595005,1.9094357374683022,0.7332932320058345
1761469082154562300,2.141562255859375,-0.4999976863503456,1.500473828305304,0.9057172525912522
1761469082164545300,2.151545166015625,-0.2911713960409164,1.1910919450521469,0.9392062652170657
1761469082174528300,2.1615283203125,-0.14498773212730884,0.7873410485357045,0.83947630944252
1761469082184511200,2.17151123046875,0.05122282223701477,0.45640608964413404,0.677802815452218
1761469082194494200,2.181494140625,0.2600163793206215,0.25183190382122994,0.5195101960718631
1761469082204477200,2.191477294921875,0.5274053332358598,0.06973083109110594,0.2984025163382292
1761469082214460400,2.20146044921875,0.9169412419170141,-0.08829495404660702,0.05545300715267658
1761469082224443100,2.211443115234375,1.1618740338742732,-0.0225695592045784,-0.2144879693329334
1761469082234426400,2.22142626953125,1.296205347430706,-0.04695405887663364,-0.400573435524106
1761469082244409300,2.231409423828125,1.297421152961254,-0.04330839585065841,-0.5073234991937875
1761469082254392300,2.241392333984375,1.1560299840211867,-0.01749620146304369,-0.6802998929649591
1761469082264375300,2.251375244140625,0.8822668188989162,-0.17878157291859387,-0.8049860108196735
1761469082274358300,2.261358154296875,0.6683779845029115,-0.2889391069442034,-0.958365139195323
1761469082284340500,2.271340576171875,0.490569348269701,-0.34040772063583136,-1.0673358015239238
1761469082294323200,2.2813232421875,0.3175584677070379,-0.313257555642724,-1.1487322282284498
1761469082304306200,2.29130615234375,0.09324410088658332,-0.2873509609699249,-1.2087351537704467
1761469082314289400,2.301289306640625,-0.059442369049787516,-0.2319996606260538,-1.200014087176323
1761469082324272400,2.3112724609375,-0.13741349748075007,-0.1908037268847227,-1.1497340987473725
1761469082334255000,2.321255126953125,-0.10607961706221103,-0.20906769784986973,-1.1681944690674542
1761469082344238300,2.33123828125,-0.10847381872236728,-0.2776715707376599,-1.2566104191452263
1761469082354221300,2.34122119140625,-0.22174480859339235,-0.3215907919630408,-1.2721253836631774
1761469082364204300,2.351204345703125,-0.38712475588619705,-0.30573329761773343,-1.2159598443269728
1761469082374187300,2.361187255859375,-0.5981804126828909,-0.34989831029772755,-1.1963310147494077
1761469082384170200,2.371170166015625,-0.8857780418902635,-0.4047542283400893,-1.1940993101745843
1761469082394153500,2.381153564453125,-1.0419383254170418,-0.4712155362412333,-1.1700070714473723
1761469082404136200,2.39113623046875,-1.044077091011405,-0.6008879180759191,-1.1510422587364912
1761469082414119200,2.401119140625,-1.028280386942625,-0.7680547487854957,-1.147036530226469
1761469082424102400,2.411102294921875,-1.040102342161536,-0.8556269415155052,-1.163565640223026
1761469082434085400,2.42108544921875,-0.972248118597269,-1.018000400468707,-1.0898621061086653
1761469082444068000,2.431068115234375,-0.8467588676661253,-1.1580448309749365,-1.0210141953319312
1761469082454051300,2.44105126953125,-0.6655120736777782,-1.2407505867123603,-0.9629255789786577
1761469082464034300,2.451034423828125,-0.5494464846521616,-1.2505530188024043,-0.9004092093110084
1761469082474016300,2.461016357421875,-0.42668285929262634,-1.218277765880525,-0.8159078023284673
1761469082483999200,2.470999267578125,-0.29149288308024407,-1.1195403282746672,-0.6804588829189538
1761469082493982200,2.480982177734375,-0.20906243715286255,-0.9434665530100464,-0.5234831913560628
1761469082503965400,2.49096533203125,-0.17169044561386107,-0.5593643598154187,-0.4119365410596132
1761469082513948200,2.5009482421875,-0.19879180302917956,-0.06537935788333415,-0.25833997054100033
1761469082523931400,2.510931396484375,-0.1799550006121397,0.3315130510404706,-0.05813830071389675
1761469082533914400,2.520914306640625,-0.2228717667967081,0.7081412550926208,0.0627583617299795
1761469082543897300,2.5308974609375,-0.46751346685290335,0.9309019627302885,0.18236498436331747
1761469082553880300,2.54088037109375,-0.8351829961627721,1.16158177292943,0.297830269408226
1761469082563863300,2.55086328125,-1.0922025317549704,1.338221949905157,0.5163824194401502
1761469082573846300,2.56084619140625,-1.240290567985177,1.4142439900949597,0.7480699453771114
1761469082583829000,2.5708291015625,-1.4553414318978786,1.322878542561829,1.0040998854100704
1761469082593812000,2.58081201171875,-1.4118757996588944,1.2186150350108742,1.3844605539888142
1761469082603794700,2.590794677734375,-1.2897329365462065,1.0979986508131026,1.7505588884592056
1761469082613778000,2.60077783203125,-1.3663906442910432,0.9194012022897601,1.9637123943179844
1761469082623761000,2.610760986328125,-1.5062451051831245,0.5994011866495013,2.092137698701024
1761469082633744100,2.620744140625,-1.4485656541526317,0.2552911043643951,2.1068296563982964
1761469082643726800,2.630726806640625,-1.039468135911226,-0.16167700112164018,1.8879589419364928
1761469082653709800,2.640709716796875,-0.6110603525221348,-0.5005567815378308,1.3998843330919741
1761469082663692000,2.650692138671875,-0.1069780272066593,-0.6325710503235459,0.798888278466463
1761469082673674800,2.6606748046875,0.4650888700544834,-0.33081834677457805,0.11646657104194164
1761469082683658000,2.670657958984375,0.8237105850338935,0.08969254588484764,-0.2867845592588186
1761469082693641000,2.680640869140625,0.9717793320417404,0.5510647335037588,-0.4996826290518045
1761469082703624000,2.6906240234375,1.1084230141937732,0.8014446849510073,-0.6606698943436146
1761469082713607000,2.70060693359375,1.3697989914298057,0.8852771066308021,-0.7075333523273467
1761469082723590000,2.71058984375,1.761966417658329,0.8282228017613291,-0.6298948168516159
1761469082733572900,2.72057275390625,2.3289859684020278,0.6324708048194646,-0.5017763864606618
1761469082743555800,2.730555908203125,2.923542345368862,0.40020723256021734,-0.3955044616967439
1761469082753538800,2.740538818359375,3.2601790230333805,0.18490940814912318,-0.23008067526221274
1761469082763521800,2.750521728515625,3.2764597112268206,-0.0014414309799671173,0.018811667975783347
1761469082773505000,2.760505126953125,2.9954356151908637,-0.08082651786208152,0.30986615963876246
1761469082783487700,2.77048779296875,2.576757198655605,-0.12603665568083525,0.5312666848391294
1761469082793471000,2.780470947265625,2.2049159366190434,-0.31193595165014265,0.7681956185609102
1761469082803454000,2.790453857421875,1.7054717924982308,-0.36749446500390764,1.052391330370307
1761469082813437000,2.80043701171875,1.1985247254014015,-0.4343994250193238,1.439797825807333
1761469082823420000,2.810419921875,0.81455989485085,-0.44708822620064015,1.7160352720886467
1761469082833403000,2.82040283203125,0.3890332198560238,-0.36376989152282474,1.8877678032785652
1761469082843385900,2.8303857421875,0.1605839451879263,-0.19806115066707133,1.6821394322276115
1761469082853369000,2.840369140625,0.18457038545310497,-0.18521569761931894,1.1889572711110115
1761469082863351800,2.850351806640625,0.25960779851973054,-0.11950550034642218,0.7439478970110416
1761469082873334800,2.860334716796875,0.33738369663953777,-0.06628770489990711,0.42354514578878877
1761469082883318000,2.870318115234375,0.4060241021454334,-0.11491583446860312,0.18565642712414263
1761469082893299700,2.8802998046875,0.4939502228796482,-0.1462047067016363,0.03645604573786258
1761469082903283000,2.890282958984375,0.6349988619923591,-0.19273790981769562,0.04336275638639927
1761469082913266000,2.900265869140625,0.7931424282908439,-0.24147037654370068,0.13600304616093634
1761469082923249000,2.910248779296875,0.7807821284115314,-0.33377222814410923,0.2639981424331665
1761469082933231900,2.92023193359375,0.6480220096945762,-0.43872137987166643,0.2876724480092525
1761469082943214800,2.93021484375,0.6576876636624336,-0.5959165594041347,0.174613055062294
1761469082953198000,2.940197998046875,0.6483195313364267,-0.7896113315552472,0.004116203147172927
1761469082963181000,2.95018115234375,0.5959609830677509,-0.9541440143689512,-0.16110884584486485
1761469082973163800,2.960163818359375,0.5616834504127503,-1.0356462395355104,-0.2780225761324167
1761469082983147000,2.97014697265625,0.48130350727438925,-1.1171101785182953,-0.3549988483071327
1761469082993130000,2.9801298828125,0.4081476701706648,-1.2019400868028403,-0.3542220187157392
1761469083003112700,2.99011279296875,0.3587070551753044,-1.265777475941181,-0.29506080469489093
1761469083013096000,3.000095947265625,0.33674539873600007,-1.2859171776503324,-0.23334756810367105
1761469083023079000,3.010078857421875,0.3160240977466106,-1.3086489416792988,-0.19432196413874625
1761469083033062000,3.020061767578125,0.222858907315135,-1.2835504485189915,-0.13714870906472204
1761469083043044900,3.030044921875,0.11521043350100517,-1.259502048933506,-0.06625029549896716
1761469083053027800,3.04002783203125,0.15149930597841738,-1.2374845706537365,-0.032686464071273805
1761469083063010800,3.0500107421875,0.1727127743989229,-1.215487842901051,-0.0014753332495689392
1761469083072994000,3.059994140625,0.11641104146242141,-1.1159084015130996,0.04320727356374263
1761469083082976800,3.069976806640625,-0.004411386701464653,-1.0055094599470495,0.04868775080144405
1761469083092960000,3.0799599609375,-0.11906769345104694,-0.9505918748453259,0.022217677026987074
1761469083102943000,3.08994287109375,-0.15240589942932128,-0.9017612084418535,-0.05029167886674404
1761469083112926000,3.099926025390625,-0.1614455304533243,-0.8698290698692202,-0.07782149082720279
1761469083122909000,3.109908935546875,-0.2290589309990406,-0.728706196476519,-0.13492577231824399
1761469083132892000,3.119891845703125,-0.2263257066428661,-0.7944231157511472,-0.16191957770586013
1761469083142874000,3.1298740234375,-0.41526305513381956,-0.8002215728968382,-0.22817571842372417
1761469083152856800,3.13985693359375,-0.7243079615175724,-0.9118284289479255,-0.22901684542298315
1761469083162839800,3.14983984375,-0.8051029151976108,-0.9387667047560214,-0.14725976871252058
1761469083172823000,3.159822998046875,-0.7987164290308952,-0.9487696278542279,-0.19077216270267963
1761469083182806000,3.169805908203125,-0.5657984845161438,-1.0735594983443617,-0.263025498008728
1761469083192788700,3.179788818359375,-0.222165079832077,-1.1695493908077477,-0.16007833375334737
1761469083202772000,3.18977197265625,-0.04900573070943355,-1.1761258465886115,0.021666472885012625
1761469083212755000,3.1997548828125,-0.12467150480747222,-1.231381285342574,0.18102175306081772
1761469083222737700,3.209737548828125,-0.3124848177045583,-1.2989923478007315,0.346702729126811
1761469083232721000,3.219720947265625,-0.3660048109680414,-1.3452353357985616,0.47677229358553885
1761469083242704000,3.229703857421875,-0.30769641438424583,-1.3496949455559253,0.6678302874922752
1761469083252687000,3.23968701171875,-0.2401385434180498,-1.327802262699604,0.8089788798481226
1761469083262669800,3.249669921875,-0.3141735014438629,-1.3090771039634943,0.9087076665788888
1761469083272652800,3.25965283203125,-0.3642231882482767,-1.351916420997679,0.9135422471284865
1761469083282636000,3.269635986328125,-0.39531098495125766,-1.2960732454836368,0.9053513418883085
1761469083292619000,3.279618896484375,-0.44902971565723415,-1.207309504881501,0.9293985724300146
1761469083302601700,3.289601806640625,-0.6153963358998298,-1.0015221438765525,0.8724392523676157
1761469083312585000,3.2995849609375,-0.9059241733402014,-0.6110594757393002,1.0536655880898236
1761469083322568000,3.30956787109375,-0.9897183088362216,0.09005056554228066,1.5848516089081763
1761469083332551000,3.319551025390625,-0.921096608030796,0.879879923762381,1.8700503602802752
1761469083342534000,3.329533935546875,-0.8391337796151638,1.5577359307065606,1.8756477418959139
1761469083352516900,3.339516845703125,-0.5779483565151691,2.071726778835058,1.8991554587334394
1761469083362499800,3.349499755859375,-0.002802197939157486,2.457431146529317,2.084220349705219
1761469083372483000,3.359483154296875,0.5501368050038814,2.779705829103291,2.154919441306591
1761469083382465800,3.3694658203125,0.9438473690211773,2.404983166411519,2.2195441814303396
1761469083392449000,3.379448974609375,1.1515262428611517,1.7112819400817154,1.9966531254112718
1761469083402432000,3.389431884765625,1.378925716215372,1.0212941813170908,1.4566530990183353
1761469083412414000,3.3994140625,1.8173767547130584,0.5798670496180653,0.8714134164512157
1761469083422397000,3.40939697265625,2.3146973308086394,0.1748877803504467,0.1814700813502073
1761469083432380000,3.4193798828125,2.6246809793472288,-0.17727146061658858,-0.5200321741193533
1761469083442363000,3.42936279296875,2.7211206614047287,-0.36731034060865636,-1.2311772872030735
1761469083452345900,3.439345947265625,2.539041508245468,-0.39597032564282414,-1.7626164059996603
1761469083462328800,3.449328857421875,2.0822037491858003,-0.26233430087417364,-1.9110615851044654
1761469083472312000,3.45931201171875,1.584514924299717,-0.07595394338965415,-1.7563818955242634
1761469083482294800,3.469294677734375,1.241269642150402,0.17275836710631845,-1.4481301853448152
1761469083492277800,3.47927783203125,0.8654419408261775,0.4609811424747109,-1.0554115549743175
1761469083502261000,3.489260986328125,0.4195212971001863,0.7830532882139086,-0.6407967346161604
1761469083512244000,3.499243896484375,-0.053387891316413874,1.0043415852114557,-0.1238099195420742
1761469083522226700,3.509226806640625,-0.48057051682472224,1.0779913433119654,0.32522330324649806
1761469083532210000,3.5192099609375,-0.706749508473277,1.0570584453985095,0.6404781701862812
1761469083542193000,3.52919287109375,-0.6308370661377907,1.0339897045001387,0.8203466615587472
1761469083552175900,3.53917578125,-0.3953320277392864,0.9567176642492413,0.9216811299204826
1761469083562158800,3.549158935546875,-0.1921586486250162,0.8462778061509132,0.9313011911809443
1761469083572141800,3.559141845703125,-0.030233810222148893,0.7069055758178233,0.9181161309152841
1761469083582129000,3.56912890625,0.2094517287313938,0.6069342125028372,0.7838719111204147
1761469083592111900,3.57911181640625,0.5851192710578441,0.5220440984636545,0.5907493858993053
1761469083602094800,3.5890947265625,0.904057794946432,0.4370011319503188,0.37357904561460015
1761469083612077800,3.599077880859375,0.9747440270662308,0.35338498336970803,0.0996720881074667
1761469083622061000,3.60906103515625,0.9301029213070869,0.3417158806249499,-0.1451280173808336
1761469083632043800,3.619043701171875,0.8364695288419723,0.27824323314577337,-0.37296471310853957
1761469083642027000,3.629027099609375,0.762341631835699,0.1517255159497261,-0.5818535472601651
1761469083652010000,3.639010009765625,0.6767559367477893,0.05433189416825771,-0.7704039422601461
1761469083661992700,3.64899267578125,0.5543558840036392,-0.010023089103400707,-0.9172457778215408
1761469083671976000,3.658975830078125,0.33405133734643455,-0.12893354616612196,-1.0230933396935462
1761469083681959000,3.668958984375,0.14594927063584326,-0.1806748393192887,-1.0577373675733803
1761469083691942000,3.67894189453125,-0.021035189244151115,-0.1835851738080382,-0.9921697936415672
1761469083701924900,3.6889248046875,-0.13639467582702636,-0.21602000120580195,-0.9222241507560014
1761469083711907800,3.698907958984375,-0.2269251338407397,-0.29105332261919975,-0.8862930056750774
1761469083721890800,3.708890869140625,-0.2947106760829687,-0.3551797578319907,-0.7911340110778808
1761469083731872800,3.718872802734375,-0.31199615740478037,-0.4180570697665214,-0.7237292848467827
1761469083741855700,3.728855712890625,-0.252227040618658,-0.5263529015734791,-0.6023761108070611
1761469083751839000,3.7388388671875,-0.5009501647695899,-0.536116462957859,-0.7131675588220358
1761469083761822000,3.748822021484375,-0.6276940919369459,-0.6994543830290436,-0.686036975312233
1761469083771805000,3.758804931640625,-0.7138505726501345,-0.6601607757776975,-0.5778583401441574
1761469083781788000,3.768787841796875,-0.8552601540297269,-0.7547934084132313,-0.673966598290205
1761469083791771000,3.77877099609375,-0.9971125107407569,-0.8549804603055119,-0.909220292276144
1761469083801754000,3.788754150390625,-1.046563062608242,-0.9705819389507174,-1.1463918025821447
1761469083811736800,3.79873681640625,-1.0098758384630084,-1.0884557464420794,-1.2838567379891872
1761469083821719800,3.8087197265625,-0.9072627284675836,-1.1990633623227476,-1.3810241497993467
1761469083831703000,3.818703125,-0.8867270131781697,-1.2654583269894122,-1.3649527204424141
1761469083841686000,3.82868603515625,-0.8360837443947792,-1.2852023073792458,-1.3289917647451162
1761469083851668700,3.838668701171875,-0.7720704141676425,-1.3047621633738278,-1.30688397783339
1761469083861652000,3.84865185546875,-0.6389683501452207,-1.3070119881272315,-1.2982295467346905
1761469083871635000,3.858635009765625,-0.5668471167862414,-1.1547139329865574,-1.256159752768278
1761469083881617700,3.86861767578125,-0.3468611345589161,-0.9061945147141813,-1.147773027807474
1761469083891601000,3.878600830078125,-0.05107902985215187,-0.5475532182514667,-0.9976286435693502
1761469083901584000,3.888583984375,-0.04573649978041649,-0.12476239796131848,-0.819175864213705
1761469083911566800,3.89856689453125,-0.16769348493218422,0.3088186964124441,-0.5832628295361996
1761469083921549800,3.9085498046875,-0.3069412121027708,0.6290060513183474,-0.14321020106077192
1761469083931532800,3.91853271484375,-0.5597504365235567,0.8842913104638457,0.3371358593583107
1761469083941516000,3.92851611328125,-0.8157575802028179,1.0031377623796462,0.6492652877539395
1761469083951499000,3.9384990234375,-0.9296925869405269,0.930063466079533,0.7872533702522516
1761469083961481700,3.948481689453125,-0.6433703844964503,0.7705436429917812,0.7214683541774749
1761469083971465000,3.95846484375,-0.25505904917418953,0.5111228914767504,0.5159720850735903
1761469083981448000,3.968447998046875,-0.48095805483758447,0.23388912763446568,0.2703729381620884
1761469083991431000,3.978430908203125,-1.217282032841444,0.033005613023042675,0.15141104317307472
1761469084001414000,3.988413818359375,-1.6977660404264925,-0.09597206454575061,0.3730968150556087
1761469084011396900,3.99839697265625,-1.643378032156825,-0.16585633263289928,1.0650666875481605
1761469084021379800,4.0083798828125,-1.1496212860226631,0.08190086909532547,1.9283388831198214
1761469084031361800,4.01836181640625,-0.4499731339871883,0.37733985945284365,2.4255682738006112
1761469084041344800,4.0283447265625,-0.16130407615602016,0.5962310321807861,2.5327836168944833
1761469084051328000,4.038327880859375,-0.3455757709234953,0.8857581681460142,2.374818914294243
1761469084061311000,4.04831103515625,-0.3909393457382917,0.8181921138733625,2.4443764346450565
1761469084071294000,4.0582939453125,-0.27925007210075853,1.0853703476473688,2.515356096753478
1761469084081277000,4.06827685546875,-0.0778688371002674,1.3532505922108888,2.3706249697357413
1761469084091260000,4.078260009765625,0.36111762344837184,1.5529174245089292,1.723187481930852
1761469084101243100,4.0882431640625,0.8342460075736046,1.5464800849378109,0.6054810910850763
1761469084111225900,4.098225830078125,1.6261445732831954,1.2398901704907417,-0.2854968575358391
1761469084121208800,4.108208740234375,2.43353472263515,1.0037626162797213,-0.9710112702786922
1761469084131191000,4.11819091796875,2.730674671691656,0.708006522797048,-1.4137649744063614
1761469084141173800,4.128173828125,2.511743751475215,0.46128246350884433,-1.640947590139508
1761469084151157000,4.138156982421875,2.246522204726934,0.11228840857446193,-1.5392635776877401
1761469084161140000,4.148139892578125,2.1767115863978863,-0.17064064429998396,-1.1262275509536266
1761469084171122700,4.158122802734375,2.3625158975601197,-0.20678689343631265,-0.6398059700131415
1761469084181106000,4.16810595703125,2.447245852601528,-0.22661738306581972,-0.2010217540383339
1761469084191089000,4.1780888671875,2.2833739717841146,-0.3044651773780584,0.21500819381475447
1761469084201071900,4.18807177734375,2.011546743160486,-0.2793450569078326,0.6385118385493755
1761469084211054800,4.198054931640625,1.6491326501607895,-0.21148206551522014,0.8986147271096706
1761469084221037800,4.208037841796875,1.2501578820049761,-0.019708032293617724,0.9774696526378392
1761469084231020800,4.218020751953125,1.030745900273323,-0.02876432219147682,1.2107722125560045
1761469084241004000,4.228004150390625,0.8570634040594101,0.12693068191111087,1.378097448697686
1761469084250986800,4.23798681640625,0.678368048119545,0.43920448721349237,1.4311878183722495
1761469084260970000,4.247969970703125,0.5532102210998535,0.6113891460850834,1.282961834976077
1761469084270953000,4.257952880859375,0.630164865964651,0.5267006920978426,0.9223124135613441
1761469084280936000,4.26793603515625,0.7437117501676083,0.5406809943944215,0.6343728390485048
1761469084290919000,4.2779189453125,0.8061515474677086,0.4475818549364805,0.5427911184161901
1761469084300902000,4.28790185546875,0.8244120113015174,0.317160992822051,0.5652367589801549
1761469084310884900,4.297884765625,0.8631833482444285,0.16109890897274015,0.47411038089990615
1761469084320868000,4.3078681640625,0.9406465271532535,-0.03435089015215635,0.28706805237531663
1761469084330850800,4.317850830078125,0.9758592948317527,-0.07953063283264636,0.05180734412670135
1761469084340833800,4.327833740234375,1.067896942538023,-0.21274755540639162,-0.15337386767864225
1761469084350817000,4.337817138671875,1.080802601340413,-0.33867139836251736,-0.3143716543644666
1761469084360799700,4.3477998046875,0.8307564118921756,-0.4783095861554146,-0.4218371728271246
1761469084370783000,4.357782958984375,0.5888946979433298,-0.5678481105223298,-0.5131196182519198
1761469084380766000,4.367765869140625,0.5233750548064708,-0.7994248695611953,-0.5065595290839672
1761469084390749000,4.3777490234375,0.5699573577612638,-1.0018909771889448,-0.463493125295639
1761469084400732000,4.38773193359375,0.5542851568549871,-1.0934478556409477,-0.4271171590566635
1761469084410715000,4.39771484375,0.539943327769637,-1.1563070473968982,-0.3764057934731245
1761469084420697900,4.40769775390625,0.5102344182044267,-1.14623281262815,-0.27467034309506416
1761469084430681000,4.41768115234375,0.37424949222207066,-1.1411495180144906,-0.15399170731604098
1761469084440663800,4.427663818359375,0.26130525008738037,-1.1346166091144085,0.023839725270867345
1761469084450646800,4.437646728515625,0.22343115424513815,-1.1233736228272317,0.22095161238908767
1761469084460630000,4.447630126953125,0.1413508369296789,-1.089115087133646,0.4034323320865631
1761469084470611700,4.45761181640625,0.10366145000457763,-1.0758780044198035,0.5320616346091032
1761469084480595000,4.467594970703125,-0.006015899288654327,-1.0443430484712124,0.5645832635074853
1761469084490578000,4.477577880859375,-0.17305121257305145,-1.0643284364014864,0.5185153398156166
1761469084500561000,4.487560791015625,-0.31683892126083374,-1.0780340134099125,0.4193512012302875
1761469084510544000,4.4975439453125,-0.5032108031779527,-1.103531442759931,0.35683424704074856
1761469084520526800,4.50752685546875,-0.615765169212222,-1.1012860019207,0.2514092944949865
1761469084530509800,4.517509765625,-0.709867932754755,-1.126407875956595,0.06347147843539715
1761469084540493000,4.5274931640625,-0.6866857946097851,-1.128011804021895,-0.11798398986756801
1761469084550475800,4.537475830078125,-0.5360094954520463,-1.0764674947455524,-0.2694844648897648
1761469084560459000,4.547458984375,-0.33780864405333993,-1.0200970804870129,-0.372234645268321
1761469084570442000,4.55744189453125,-0.1776058071374893,-0.9757099494889377,-0.42536417790949343
1761469084580424400,4.567424560546875,-0.06496200925409794,-0.968143313626945,-0.3692915775537491
1761469084590407700,4.57740771484375,0.03490940081775188,-0.9403712173432112,-0.2794043858796358
1761469084600390700,4.587390625,0.10751987899839878,-0.9411141446650028,-0.1580044500887394
1761469084610374700,4.597374755859375,0.1492939048886299,-0.9036392772734164,-0.054476271075010296
1761469084620357600,4.607357666015625,0.18663667033314704,-0.8431360009938478,0.010849310794472693
1761469084630340600,4.617340576171875,0.1878407854259014,-0.7808926030486821,0.01940846482515335
1761469084640323600,4.627323486328125,0.1366851832062006,-0.7373588740095496,0.044752749440073965
1761469084650306800,4.637306884765625,0.06365326474308967,-0.7111009816810488,0.15258125599622727
1761469084660289800,4.647289794921875,-0.10519874257445334,-0.6670169252827763,0.2998077069610357
1761469084670272500,4.6572724609375,-0.33167759395241736,-0.6142644092604518,0.4313315618813038
1761469084680255700,4.667255859375,-0.45575639356374736,-0.6592603198066354,0.602999211141467
1761469084690238700,4.67723876953125,-0.4947931034445762,-0.6525482549473642,0.7008370695590973
1761469084700221400,4.687221435546875,-0.5170937825798988,-0.7448819629907607,0.6681482674002647
1761469084710204700,4.69720458984375,-0.47937283147275445,-0.7888803869321942,0.6097165366977453
1761469084720187600,4.707187744140625,-0.39331718078553674,-0.7746426027432084,0.4524310485333204
1761469084730170600,4.717170654296875,-0.4164735999673605,-0.8088096607610583,0.2740723772019148
1761469084740153600,4.727153564453125,-0.5073948108643294,-0.85113284496665,0.1262801090478897
1761469084750136600,4.737136474609375,-0.6240051742911339,-0.7146347087651491,0.16467267580628395
1761469084760118800,4.747118896484375,-0.7286936292558908,-0.3286901025742292,0.4156798192411661
1761469084770101500,4.7571015625,-0.7731763295829296,-0.02262567330598831,0.7092489240735769
1761469084780084700,4.767084716796875,-0.8647183027267455,0.21565730537325142,0.8960434153169393
1761469084790067700,4.777067626953125,-0.8608008370220661,0.4509972163379192,1.0198556729465722
1761469084800050700,4.78705078125,-0.6663952862530946,0.5329930702403187,1.1272644927859305
1761469084810033700,4.79703369140625,-0.3029156098484993,0.40696781273633237,1.5620646075606346
1761469084820016600,4.8070166015625,0.19249474871158598,0.42988253211677074,2.046029442998767
1761469084829999600,4.81699951171875,0.5225163921505213,0.4290086718916893,2.2989432968378067
1761469084839982800,4.82698291015625,0.7269114220142364,0.433509490442276,2.274798451140523
1761469084849965600,4.836965576171875,1.014253615155816,0.4924328040540218,2.069494489738345
1761469084859948500,4.846948486328125,1.53266198746562,0.35357290715724227,1.7485229987174271
1761469084869931800,4.856931884765625,2.158493208140135,0.3521332297429442,1.4025018221139907
1761469084879914800,4.866914794921875,2.539811323574185,0.33318361460119483,0.8866150772362947
1761469084889897500,4.8768974609375,2.696453253138065,0.2803311453357339,0.28487375720143315
1761469084899880700,4.886880615234375,2.6664649421095845,0.37667087415009737,-0.18637772713601589
1761469084909863700,4.89686376953125,2.426135844555497,0.4655030038133263,-0.5661211405992508
1761469084919846700,4.9068466796875,2.09915722207427,0.6204346223279833,-0.784438312831521
1761469084929829600,4.91682958984375,1.7331401361465453,0.8339072771385312,-0.8326648758620023
1761469084939812600,4.9268125,1.1608937906652688,1.015974739859998,-0.7677952210664749
1761469084949795800,4.9367958984375,0.5346767855435609,1.319415250365436,-0.7263000121176243
1761469084959778600,4.946778564453125,0.08036357652544975,1.4011618056818842,-0.5226075775653124
1761469084969761500,4.956761474609375,-0.180403913423419,1.351267601700127,-0.2796791111677885
1761469084979744800,4.966744873046875,-0.16617840419411659,1.188646597726643,-0.0010965630650520324
1761469084989727700,4.976727783203125,0.02217792953848839,1.0016606755644082,0.1692448060274124
1761469084999710500,4.98671044921875,0.11913082181513308,0.819908854663372,0.3285913183748722
1761469085009693700,4.996693603515625,0.14084288740754128,0.6479392998471856,0.4410106598526239
1761469085019676700,5.0066767578125,0.15250176101922988,0.5761477368339896,0.523212557721138
1761469085029659600,5.01665966796875,0.08639467338323592,0.5186155853196979,0.6075123046517372
1761469085039642600,5.026642578125,0.101833065533638,0.49067310090512034,0.6039437985152005
1761469085049625600,5.03662548828125,0.27005262016654014,0.4115738452270627,0.49476621543765065
1761469085059608600,5.046608642578125,0.367128262040019,0.3324070772707462,0.3913666312396526
1761469085069591800,5.056591796875,0.40685879940390585,0.2851487747505307,0.33506197569370266
1761469085079574500,5.066574462890625,0.4670592933446169,0.19876812989264725,0.19257658177614212
1761469085089557800,5.076557861328125,0.5322662172704935,0.10936316877752542,0.02018880154788494
1761469085099539700,5.086539794921875,0.5773866309791803,0.03963847516626119,-0.11949848608374596
1761469085109522700,5.096522705078125,0.6800994019567966,-0.10366904878914356,-0.2840928359568119
1761469085119505700,5.106505615234375,0.785318602797389,-0.17954641981124878,-0.4244546618491411
1761469085129488600,5.116488525390625,0.7842524348706007,-0.2861228804796934,-0.583207884478569
1761469085139472000,5.126471923828125,0.7197849311351776,-0.39566432843357324,-0.7712859857916832
1761469085149454600,5.13645458984375,0.5483271252334118,-0.42535570234209297,-0.8703636151373386
1761469085159437600,5.1464375,0.43734921473562716,-0.43934623377174137,-0.9066139091700315
1761469085169420800,5.1564208984375,0.3392775475621223,-0.5063511470302939,-0.95782971714437
1761469085179403500,5.166403564453125,0.23537761262655257,-0.5725973508760333,-0.9715759184241294
1761469085189386500,5.176386474609375,0.14355039280056953,-0.5893009406566619,-0.9311492154896259
1761469085199369700,5.18636962890625,0.13100421496033668,-0.5875044126287102,-0.8374544482260942
1761469085209352700,5.196352783203125,0.07873743662834166,-0.5825441598728299,-0.6973714392751454
1761469085219335700,5.206335693359375,0.011385901889204979,-0.5404737813845276,-0.5938315698236226
1761469085229318700,5.216318603515625,-0.04519873964190483,-0.49117812781780956,-0.5905307747125625
1761469085239301600,5.226301513671875,-0.21677344992160796,-0.4649143902704119,-0.521670004454255
1761469085249284900,5.236284912109375,-0.4264133947014808,-0.41189357870072124,-0.3604670505851507
1761469085259267600,5.246267578125,-0.49341889248192305,-0.37365854059159753,-0.2671317642837763
1761469085269250600,5.25625048828125,-0.3301192585945129,-0.3977615929737687,-0.22297405812740326
1761469085279233800,5.26623388671875,-0.03499532553553581,-0.4307093383297324,-0.15950199517011643
1761469085289216800,5.276216796875,0.24763971282839772,-0.4822118542909622,-0.10555354736149311
1761469085299199500,5.286199462890625,0.2723714185029268,-0.5141220732927322,-0.2014350110143423
1761469085309182700,5.2961826171875,0.14273907641768455,-0.5823994907051324,-0.32971652301251886
1761469085319165700,5.306165771484375,0.10140051933526992,-0.6945134194955229,-0.39040567725300784
1761469085329148700,5.316148681640625,0.1506324600160122,-0.7445522926449776,-0.4114285915374756
1761469085339131600,5.326131591796875,0.11486322749853134,-0.7231140755578875,-0.33915070631206035
1761469085349114600,5.336114501953125,-0.03477905243635177,-0.6738163761645555,-0.30459903289079665
1761469085359097600,5.34609765625,-0.28311668440103527,-0.6602519611924886,-0.32044542132019993
1761469085369080600,5.35608056640625,-0.6291682561427354,-0.6076975980907678,-0.30429683507382865
1761469085379063600,5.3660634765625,-0.735908967462182,-0.5490224140211939,-0.24466624997556208
1761469085389046800,5.376046875,-0.4482628229379654,-0.4291536333203316,-0.14659750541150568
1761469085399029800,5.38602978515625,-0.2904290532410145,-0.3652715282574296,-0.12346855875849723
1761469085409012500,5.396012451171875,-0.43589726236164567,-0.39858226170688865,-0.24019699560701846
1761469085418994700,5.40599462890625,-0.508081624084711,-0.5364958176642656,-0.2890466589719057
1761469085428977700,5.415977783203125,-0.47037587054669855,-0.7946849815577268,-0.20987784518897531
1761469085438960600,5.425960693359375,-0.49316170285046096,-1.0054764344602822,-0.0696077892333269
1761469085448943600,5.435943603515625,-0.5008516728311777,-1.1438295508787035,0.09393266767263411
1761469085458926600,5.445926513671875,-0.3971393694221973,-1.2723559775486588,0.17017127322256564
1761469085468909800,5.455909912109375,-0.5101262816548348,-1.3516060398742555,0.21125907041430472
1761469085478892500,5.465892578125,-0.781730222916603,-1.4830787491291761,0.25122926175296306
1761469085488875500,5.47587548828125,-1.0252151541531085,-1.6354092452347277,0.3408417281389236
1761469085498858800,5.485858642578125,-1.2074006902962922,-1.7664768808200955,0.3892769654840231
1761469085508841700,5.495841796875,-1.2913012087762354,-1.785032528208196,0.3593991290926933
1761469085518824700,5.50582470703125,-1.2484545852184294,-1.7155623938798903,0.41277766805887217
1761469085528807700,5.5158076171875,-1.0080763878256083,-1.4847145336374639,0.5941489652097225
1761469085538790700,5.525790771484375,-0.8902817830502986,-1.221271394738555,0.9038029434025288
1761469085548774000,5.53577392578125,-0.7079431021720171,-0.7185685410827398,1.2822189076542854
1761469085558756600,5.545756591796875,-0.6026631110548972,-0.21654928577691315,1.6340338652282953
1761469085568739600,5.555739501953125,-0.7000649161428213,1.0441881501704453,2.1005290949493647
1761469085578719500,5.565719482421875,-0.1247030689895153,2.5583029658153653,2.999924158781767
1761469085588702500,5.575702392578125,0.20156886652708053,2.465916358540952,3.3263211819827556
1761469085598685400,5.585685546875,0.2319131513863802,3.0731659206032753,2.956846064555645
1761469085608668400,5.59566845703125,0.5578770438671111,3.238698428109288,2.4307418770462275
1761469085618651400,5.6056513671875,1.4234838198661803,2.958270252139866,1.8736229580700396
1761469085628634400,5.61563427734375,2.3165490961551667,2.773407898002863,1.0850246029496193
1761469085638617600,5.62561767578125,3.0295448055416343,2.314174475978315,-0.04975859490334987
1761469085648600300,5.635600341796875,3.2109640334874388,1.5028826430127025,-1.6000573613464832
1761469085658583300,5.645583251953125,3.2308833704441784,0.7642641243308782,-2.556171506744623
1761469085668566500,5.65556640625,3.100689887344837,0.5836448145911097,-2.8794150343507527
1761469085678549200,5.66554931640625,2.5803970164626837,0.5109595176085829,-2.8012586124807592
1761469085688532500,5.675532470703125,1.7150205420881508,0.35967619246840477,-2.5150690965056417
1761469085698515500,5.685515380859375,1.1997317631036042,0.4016340504929423,-2.0187883848518133
1761469085708497400,5.695497314453125,1.1877876428097487,0.7064125316038727,-1.0971762285143136
1761469085718480400,5.70548046875,1.1784054819583891,1.0620645831227302,-0.16384382376670836
1761469085728463400,5.71546337890625,0.9859989960521459,1.4104557037279009,0.36453415389358995
1761469085738446600,5.725446533203125,0.6162614282965659,1.8109703948020934,0.6561427723079919
1761469085748429300,5.73542919921875,0.27856618148982526,2.15511671744436,0.7271271105915308
1761469085758412300,5.745412353515625,0.20424597678184508,2.335168748690188,0.6771218474507331
1761469085768395500,5.7553955078125,0.41767713053822514,2.2059391421869394,0.6048895549327135
1761469085778378500,5.76537841796875,0.7313654788136482,2.054641203999519,0.5599655405789613
1761469085788361200,5.775361328125,0.98043376314044,1.861398851791024,0.6139262633472681
1761469085798344400,5.785344482421875,1.1565063693612814,1.5977552218839526,0.7766881370961666
1761469085808327400,5.795327392578125,1.276729078066349,1.1724649859935043,0.9095663292348384
1761469085818310400,5.805310302734375,1.3532885861337185,0.8325839195802808,1.0345949769169092
1761469085828293400,5.81529345703125,1.367120127609372,0.5510436907157301,1.0638654950648545
1761469085838276400,5.8252763671875,1.37115215960443,0.26375001289099453,0.8457464757531881
1761469085848259300,5.83525927734375,1.4235714981496332,0.006070844346284866,0.46642333352863785
1761469085858242600,5.84524267578125,1.4918588524341583,-0.3151704035267234,0.12249065363705157
1761469085868225300,5.855225341796875,1.593196243405342,-0.5265960626795888,-0.2236258000344038
1761469085878208500,5.86520849609375,1.5135329241037367,-0.6299678820878267,-0.6087456458389758
1761469085888191500,5.87519140625,1.2831775235533713,-0.7665215478688479,-0.9511521390765905
1761469085898174200,5.88517431640625,1.1361807896912097,-0.7387795544624328,-1.145348431009054
1761469085908157400,5.895157470703125,1.1983797639727591,-0.6149021226420999,-0.9430448204666375
1761469085918140400,5.905140380859375,1.3058318384319543,-0.5288476409986614,-0.5976151800155639
1761469085928123400,5.915123291015625,1.2701263188004492,-0.3905447934627533,-0.2765063263505697
1761469085938106400,5.9251064453125,1.0203495939433573,-0.2836579516708851,0.011655366480350494
1761469085948089300,5.93508935546875,0.9008078532397746,-0.2598918761581182,0.14741232892572878
1761469085958072300,5.945072265625,0.9508259758621453,-0.26372195584028957,0.24365035093128679
1761469085968055600,5.9550556640625,0.959718891891837,-0.264804782640934,0.3484755840182304
1761469085978037200,5.965037353515625,0.8081208017140626,-0.17777765657305716,0.45897710917592044
1761469085988020500,5.9750205078125,0.5490326431542635,-0.040107261721789834,0.5406903467446565
1761469085998003500,5.98500341796875,0.28888825353980063,0.13048019108623266,0.6220949567556381
1761469086007986400,5.994986328125,0.06838672300577163,0.2664884979441762,0.7045481990367174
1761469086017969400,6.004969482421875,-0.009305588483810424,0.4078817127108574,0.7957149091273545
1761469086027952400,6.014952392578125,0.11610942816734313,0.6390116047650575,0.894870864406228
1761469086037935600,6.024935546875,0.17988251989781856,0.6406871367618441,0.8404162206411361
1761469086047918300,6.03491845703125,0.19814590634107587,0.6370148779898882,0.6495481963485479
1761469086057901300,6.0449013671875,0.2562549809604883,0.5306029602333903,0.3579343172371387
1761469086067884500,6.054884521484375,0.39910336297154425,0.3723249539002776,0.09279226546585559
1761469086077867500,6.064867431640625,0.5463233841955661,0.31074557282179593,-0.014761515802145003
1761469086087850200,6.074850341796875,0.7269599373310804,0.27316256888061763,0.022970541220903397
1761469086097833500,6.08483349609375,0.9209498930364847,0.2989022825539112,0.16886895845234393
1761469086107816400,6.09481640625,0.9586778584063053,0.3154629567325115,0.3596417056769132
1761469086117799400,6.10479931640625,0.9087304629325866,0.31228491121828555,0.4538479295939207
1761469086127782400,6.114782470703125,0.8145008581399917,0.21085838065892457,0.46414954337775705
1761469086137765400,6.124765380859375,0.7582102311193942,0.10483487769812345,0.5158744699180126
1761469086147748400,6.134748291015625,0.6801239518761635,-0.04997340669780969,0.5530541537553072
1761469086157731300,6.1447314453125,0.5493921241164207,-0.19885522365421054,0.5326227756232023
1761469086167714300,6.15471435546875,0.4211684797853231,-0.3403533601000905,0.560270076483488
1761469086177697500,6.164697509765625,0.37960079012215137,-0.41498160784393545,0.555378212788701
1761469086187680500,6.174680419921875,0.4658277057230472,-0.4872106854915619,0.45458968787193293
1761469086197663200,6.184663330078125,0.5730220060288905,-0.4060895685970783,0.323351079633832
1761469086207646500,6.194646484375,0.6393973892122506,-0.29989304715692994,0.21763094353377818
1761469086217629400,6.20462939453125,0.529503182297945,-0.24704116241335866,0.14953881956040857
1761469086227612400,6.2146123046875,0.41511049492061136,-0.1740893234491348,0.20267887359559536
1761469086237594400,6.224594482421875,0.3816419405609369,-0.009325462228059769,0.3292494900226593
1761469086247577300,6.234577392578125,0.5025736743181943,0.14627806419879197,0.44515608909428117
1761469086257560600,6.244560546875,0.6337450625389814,0.38769524925053117,0.5465583619952201
1761469086267543300,6.254543212890625,0.7132517299741507,0.6253519127249717,0.5757797803044319
1761469086277526300,6.2645263671875,0.789104551076889,0.8021984259277581,0.5559633192002773
1761469086287509500,6.274509521484375,0.9508452650845051,0.8325839195802808,0.4888064302504062
1761469086297492500,6.284492431640625,1.0569839188575745,0.6704314099013805,0.39067514184415336
1761469086307475500,6.294475341796875,1.0861761110723018,0.5497995358735323,0.29899522153437136
1761469086317458400,6.30445849609375,1.2092372580736874,0.3586398351579904,0.3401899862319231
1761469086327441400,6.31444140625,1.3415163152754306,-0.5203200511500239,0.08169628643393516
1761469086337424600,6.324424560546875,1.5946750837862491,0.5383136807411909,0.045294016709923744
1761469086347407400,6.334407470703125,2.000731919157505,0.4155044626742601,0.5684411079794168
1761469086357390300,6.344390380859375,1.7525000856548547,0.37926790490597484,0.3461012561023235
1761469086367373600,6.35437353515625,1.4226391857355831,0.3132750912994146,0.10723404779434204
1761469086377356300,6.364356201171875,1.1460142014414072,0.22419600113779306,-0.0931143370270729
1761469086387339300,6.37433935546875,1.002127708554268,0.2914429064586758,-0.32046237245500087
1761469086397322500,6.384322509765625,0.9147913704067469,0.5666138925522566,-0.3346516413271427
1761469086407305500,6.394305419921875,0.8930383882820606,0.7161129646241664,-0.3523047869175672
1761469086417288200,6.4042880859375,0.8694365634202956,0.7979752552747726,-0.42489772944152354
1761469086427271400,6.414271484375,0.7915805858016014,0.9302510976061225,-0.39616672499775885
1761469086437254400,6.42425439453125,0.7559276731401682,1.1136071388334035,-0.375393986082077
1761469086447237400,6.4342373046875,0.7418073778510094,1.2398331796064972,-0.3369166636496782
1761469086457220400,6.444220458984375,0.7931330759406089,1.2718337072402237,-0.29632980171740053
1761469086467203300,6.454203369140625,0.8222136244744062,1.306628834028542,-0.20190204400420186
1761469086477186600,6.4641865234375,0.7307073071658611,1.3350190622106193,-0.09871113412082194
1761469086487169500,6.47416943359375,0.762037680453062,1.2910942880272864,0.01729834080338478
1761469086497151500,6.4841513671875,0.9054881200104952,1.2258695361837744,0.10901450147032737
1761469086507134500,6.494134521484375,0.9640636430978774,1.1110434258252382,0.20507482882142067
1761469086517117400,6.504117431640625,0.8263625608474016,0.983253496736288,0.20601181741058824
1761469086527100400,6.514100341796875,0.7331622991025447,0.8493082598879933,0.14146715678572655
1761469086537083400,6.52408349609375,0.6613111148566008,0.8607859317138791,0.07515139483511447
1761469086547066400,6.53406640625,0.7369283736377954,0.7658888029232621,0.0064507835745811455
1761469086557049600,6.544049560546875,0.7700690112173557,0.695296678827703,-0.09563362637162208
1761469086567032300,6.5540322265625,0.6970493677139282,0.6002367606908082,-0.14627718741595744
1761469086577015300,6.564015380859375,0.5311036032319069,0.5038207517698406,-0.16810674190819264
1761469086586998500,6.57399853515625,0.4407920486658811,0.27032003893107176,-0.2165712053477764
1761469086596981200,6.583981201171875,0.3841653215587139,0.019409049347043038,-0.29115561394989486
1761469086606964200,6.593964111328125,0.3075742493093014,-0.20822715537250042,-0.3377045991569757
1761469086616947500,6.603947509765625,0.14937924508452416,-0.30866905880868434,-0.4048100501805544
1761469086626930400,6.613930419921875,-0.06188683959245681,-0.2949593901470303,-0.4396604142874479
1761469086636913400,6.623913330078125,-0.20050503668785094,-0.23056144451647995,-0.41458793235123154
1761469086646896400,6.633896484375,-0.26179566395282744,-0.16920447401702404,-0.3453589133024215
1761469086656879400,6.64387939453125,-0.13385960439145564,-0.11941139232218265,-0.25537878264784813
1761469086666862600,6.653862548828125,-0.08240648052990436,-0.056530280995368956,-0.150588036352396
1761469086676845300,6.66384521484375,-0.17101473830938338,-0.010951894386112689,-0.05482990681827068
1761469086686828300,6.673828369140625,-0.32839199641048905,0.0032271453529596327,0.05254793336093425
1761469086696811500,6.6838115234375,-0.48603112031817436,-0.010103753124177455,0.23110534213483333
1761469086706794500,6.69379443359375,-0.4830389527648687,0.0008306056052446365,0.3466466150254011
1761469086716777200,6.703777099609375,-0.3824778068631887,-0.060628071703016755,0.3361234674453735
1761469086726760400,6.713760498046875,-0.35297464900314807,-0.09513093754649161,0.2688181099355221
1761469086736742400,6.723742431640625,-0.3937497269839048,-0.1710357810974121,0.21422961065769194
1761469086746725400,6.733725341796875,-0.39074703803658484,-0.26958091100156306,0.10592296519577503
1761469086756708400,6.743708251953125,-0.42432080633640284,-0.4238146103799343,-0.1176835456162691
1761469086766691300,6.75369140625,-0.5906675528347491,-0.43113808513581753,-0.314656316524744
1761469086776674600,6.763674560546875,-0.70709846804142,-0.5142144277513027,-0.4243061932891607
1761469086786657300,6.7736572265625,-0.8073784589141607,-0.5449424512311816,-0.5282885458111762
1761469086796640500,6.783640625,-0.9036299249231815,-0.5887126193746924,-0.6238561212092638
1761469086806623500,6.79362353515625,-1.0267740740329026,-0.6364224650546908,-0.643339404836297
1761469086816606200,6.803606201171875,-1.0959341194987295,-0.6139081431686878,-0.6302069515407085
1761469086826589400,6.81358935546875,-1.057777115061879,-0.5579582924097776,-0.7328846512049436
1761469086836572400,6.823572509765625,-1.001987423300743,-0.5533905461028218,-0.8347656475335359
1761469086846555400,6.833555419921875,-0.9240344150483608,-0.4050418131098151,-0.9349357482910156
1761469086856538400,6.843538330078125,-0.9111801941722631,-0.2376864740908146,-0.9581120412170886
1761469086866521300,6.853521240234375,-0.9244973563849925,-0.07038783369511366,-0.9408084397166967
1761469086876504300,6.86350439453125,-0.9201052589058876,0.028353987824916837,-0.909641732558608
1761469086886487600,6.873487548828125,-0.916305282101035,0.1454734698176384,-0.998727544721961
1761469086896470300,6.88347021484375,-0.9162900845319032,0.16035072095394134,-1.1053379076600074
1761469086906453200,6.893453369140625,-0.874553468042612,0.15957389136254788,-1.1691378873974083
1761469086916436500,6.9034365234375,-0.7517734760701655,0.2256882855221629,-1.2433774280846117
1761469086926419500,6.91341943359375,-0.591591097420454,0.3716077455416322,-1.371023564788699
1761469086936402400,6.92340234375,-0.44902094782888885,0.47163083904385567,-1.5033908847957849
1761469086946385400,6.933385498046875,-0.4130038780301809,0.6231801216438412,-1.6424369519144295
1761469086956368400,6.943368408203125,-0.41486265763938424,0.6797165401190519,-1.7736054175257683
1761469086966350300,6.953350341796875,-0.3517050674587488,0.7210229484975338,-1.9203800330698488
1761469086976333300,6.963333251953125,-0.4812485622167587,0.7547346639633178,-1.96166890579164
1761469086986316500,6.973316650390625,-0.74512570861876,0.7708832502096891,-1.8522499151736498
1761469086996299500,6.983299560546875,-0.7953916685223579,0.7964812173247336,-1.6620669505357741
1761469087006282200,6.9932822265625,-0.7909855425179004,0.7560065835952758,-1.4004898977696896
1761469087016265500,7.003265380859375,-0.8034680074721574,0.7174526887953281,-1.0994885971099138
1761469087026248400,7.01324853515625,-0.8438917877972125,0.7195610592514277,-0.7560708810031413
1761469087036231400,7.0232314453125,-0.795432585054636,0.7215297289758921,-0.4068137912184
1761469087046214400,7.03321435546875,-0.6145189685434103,0.6981061832904816,-0.0581271947979927
1761469087056197400,7.043197265625,-0.3916337577432394,0.5953539570853114,0.2023375128120184
1761469087066180400,7.053180419921875,-0.20250059441924095,0.4288651717677712,0.310439575612545
1761469087076163300,7.063163330078125,-0.05737666869163513,0.2766130015954375,0.3338713046044111
1761469087086146300,7.073146240234375,-0.05129647199511528,0.1029679147824645,0.32284722176492214
1761469087096129500,7.083129638671875,0.011857611054182052,-0.13040712585002184,0.30588381200432774
1761469087106112500,7.093112548828125,0.11307049886286258,-0.23669191009551285,0.22589374496638773
1761469087116095200,7.10309521484375,0.2830424501210451,-0.20352643033564088,-0.010637129348516464
1761469087126078500,7.113078369140625,0.33305823465585704,-0.0505763410270214,-0.32370705346465106
1761469087136061400,7.1230615234375,0.31203298228383064,0.061335635450482366,-0.5909498769074678
1761469087146044400,7.13304443359375,0.2888952678024769,0.13990560655742884,-0.7554016034394502
1761469087156027400,7.14302734375,0.15395137530565262,0.24059184014350174,-0.7690221325129271
1761469087166010400,7.15301025390625,0.13765022884607314,0.2493319036990404,-0.7911965549200772
1761469087175993300,7.162993408203125,0.30677228527665135,0.22227584673017262,-0.8167524364590645
1761469087185976600,7.1729765625,0.5559352621495723,0.21809680747985838,-0.8035843273282051
1761469087195959300,7.182959228515625,0.7836731736779212,0.2111792831763625,-0.7189309446543455
1761469087205941500,7.19294140625,0.9250351165235042,0.2608686122357845,-0.5545633892744779
1761469087215924500,7.202924560546875,0.9305109175860882,0.29745588313788174,-0.36039632343649863
1761469087225907200,7.2129072265625,0.8106856837660074,0.2874468225598335,-0.16553893724679947
1761469087235890400,7.222890380859375,0.6768979755669832,0.21937544911354778,-0.007951835787296295
1761469087245873400,7.232873291015625,0.4435644359886646,0.1636214131876826,0.132031219920516
1761469087255856600,7.242856689453125,0.34050445900857446,0.1579842840835452,0.3446592406004667
1761469087265839400,7.25283935546875,0.32379882340133187,0.15298896001428364,0.5926245321214199
1761469087275822300,7.262822265625,0.2630453717529774,0.14172259285151959,0.8801450044393538
1761469087285805600,7.2728056640625,0.2667822201937437,0.11913374442458152,1.1156453666627406
1761469087295788300,7.282788330078125,0.2228501394867897,0.06859744314700365,1.3313824592739343
1761469087305771300,7.292771240234375,0.21635493224859237,0.013194120354950427,1.5379513260453939
1761469087315754500,7.30275439453125,0.24880583399832248,-0.06891425401121377,1.6614672310769556
1761469087325737500,7.312737548828125,0.3484001806944608,-0.12327683557868004,1.6589076097220181
1761469087335720200,7.32272021484375,0.46278117763400073,-0.17198387560248374,1.5485931315690278
1761469087345703400,7.332703369140625,0.5061088627070188,-0.21273118879348038,1.3539584482192992
1761469087355686400,7.342686279296875,0.47139410767853257,-0.2283393845528364,1.1098977629214524
1761469087365669400,7.35266943359375,0.45905601963102816,-0.23938567922413348,0.8684703487366437
1761469087375652400,7.36265234375,0.47151744179725646,-0.2555000709399581,0.6094850660294294
1761469087385635300,7.37263525390625,0.45181437793970103,-0.30574937196969987,0.35261809065043925
1761469087395618600,7.38261865234375,0.4596949020564556,-0.35851240938603873,0.12517886980772017
1761469087405601500,7.3926015625,0.5902770922124385,-0.40846769590526816,-0.08572890295088291
1761469087415583500,7.40258349609375,0.7095476147592067,-0.49571694029122587,-0.25598726993501186
1761469087425566500,7.41256640625,0.739577426841855,-0.5904746606111526,-0.2937257566988468
1761469087435549400,7.422549560546875,0.6820277396708726,-0.6143322137996554,-0.33675475108623504
1761469087445532400,7.432532470703125,0.5622603735178708,-0.6655477295130491,-0.40385786402225493
1761469087455515400,7.442515380859375,0.5602729990929365,-0.6893056217193603,-0.4665560199975967
1761469087465498400,7.452498291015625,0.672560238623619,-0.5403244360417128,-0.5045137024700641
1761469087475481600,7.462481689453125,0.6552794334769249,-0.4202867285147309,-0.4384147981405258
1761469087485464300,7.47246435546875,0.6239303554892539,-0.284801276487112,-0.2576625096708536
1761469087495447300,7.482447265625,0.5303706127822398,-0.17754823173135517,-0.02717442265152931
1761469087505430500,7.492430419921875,0.36246962257921694,-0.08030950825065374,0.2030249105542898
1761469087515413200,7.502413330078125,0.2822416551321745,-0.013417699977755547,0.32886312105357646
1761469087525396200,7.512396240234375,0.1396428639680147,0.07146364623308181,0.48787937853336333
1761469087535379500,7.52237939453125,0.05583703803420066,0.15945961733311415,0.6205027191281318
1761469087545362400,7.532362548828125,0.15614976213276385,0.1941851860165596,0.5982131459087133
1761469087555345400,7.542345458984375,0.16308979052901268,0.1938666215866804,0.4815174422860145
1761469087565328400,7.552328369140625,0.15624270111322403,0.22951544259488582,0.3522796524763107
1761469087575311400,7.562311279296875,0.1678548129737377,0.2505895025447011,0.2554623692780733
1761469087585298000,7.5722978515625,0.21489421204626558,0.1578203256934881,0.14408873746097087
1761469087595281000,7.582281005859375,0.2454763973146677,0.05694061536192894,0.101070264467597
1761469087605264000,7.592263916015625,0.16876549807786942,-0.07357844642996787,0.05776829835772514
1761469087615247000,7.6022470703125,0.006194178465008735,-0.2605038705766201,0.0706926618605852
1761469087625229800,7.612229736328125,-0.01621171461045742,-0.36673487880825995,0.0903477949231863
1761469087635212800,7.622212890625,-0.02930734302699566,-0.471010953579843,0.07124386600255966
1761469087645195000,7.632195068359375,-0.1953133132636547,-0.5464341510936618,0.010098200166225433
1761469087655177700,7.642177734375,-0.2999275339484215,-0.6060615213215351,-0.047287236353754994
1761469087665161000,7.652160888671875,-0.32834932631254193,-0.6726993548333644,-0.1467757845878601
1761469087675144000,7.66214404296875,-0.33041444214880467,-0.7461036137402057,-0.2925403463065624
1761469087685127000,7.672126953125,-0.31279402978420257,-0.7710732198238373,-0.3387479707300663
1761469087695110000,7.68210986328125,-0.21640403208732603,-0.7721545853197574,-0.3426549150407314
1761469087705092900,7.6920927734375,-0.20337971534132956,-0.8033224615216255,-0.33901334366798397
1761469087715076000,7.702076171875,-0.2535761171400547,-0.79554627456218,-0.32951486296057697
1761469087725058800,7.712058837890625,-0.30433775160610677,-0.821615366320312,-0.3526028930813074
1761469087735041800,7.722041748046875,-0.4195265577971935,-0.8408315234437584,-0.3678261811763048
1761469087745025000,7.73202490234375,-0.5675058729559183,-0.8432131578832864,-0.38385844756662846
1761469087755008000,7.742008056640625,-0.7536877852588891,-0.8702683380693197,-0.4653904833495617
1761469087764990700,7.75199072265625,-0.8049123610615729,-0.9073808018893003,-0.5487415512531996
1761469087774974000,7.761973876953125,-0.772015469110012,-0.9133014241099358,-0.566958175945282
1761469087784957000,7.77195703125,-0.7314946581512689,-0.8994967706412076,-0.5421002135425805
1761469087794940000,7.78193994140625,-0.7726642884075641,-0.8816808357045054,-0.4642635251462459
1761469087804923000,7.7919228515625,-0.7866618340998888,-0.8738146323740482,-0.3905605755537748
1761469087814905900,7.80190576171875,-0.7916869687855244,-0.8729168067514896,-0.39507366906404495
1761469087824888800,7.811888916015625,-0.9161690885007381,-0.8992658844947814,-0.4467021494925022
1761469087834870800,7.821870849609375,-0.9830559283375739,-0.8687877441227435,-0.45643853060901163
1761469087844853800,7.831853759765625,-0.9459013789415359,-0.9130918730124831,-0.46236324448287486
1761469087854837000,7.8418369140625,-0.9177958129197359,-0.8634785317987204,-0.4705225855410099
1761469087864820000,7.851820068359375,-0.9594301380783319,-0.8366194587066769,-0.49468438237309453
1761469087874803000,7.861802978515625,-0.9357751217246055,-0.8809031293302774,-0.4429360749572515
1761469087884786000,7.871785888671875,-0.9359130688905716,-0.9887874577268958,-0.35168168658316135
1761469087894769000,7.881768798828125,-0.9967454309940338,-1.0412687555924058,-0.3245037568002939
1761469087904752000,7.891752197265625,-1.0114321279942988,-1.1197855352073907,-0.31477555899024007
1761469087914734800,7.90173486328125,-0.9983931982010602,-1.0194555677130819,-0.3723182318985462
1761469087924717800,7.9117177734375,-1.0454407805800436,-0.9787225753083825,-0.4575315865427255
1761469087934701000,7.921701171875,-1.069941015586257,-1.0346744718939065,-0.516188942694664
1761469087944683800,7.931683837890625,-1.0877321083426474,-1.0883975865140556,-0.4878618428766727
1761469087954666800,7.941666748046875,-1.0543044705152511,-1.1262412872180343,-0.4325590578496456
1761469087964650000,7.95164990234375,-1.038228364983201,-1.0661328554749487,-0.408762587198615
1761469087974633000,7.961633056640625,-1.0667992104291915,-0.9446458259224891,-0.32623627968132496
1761469087984615700,7.97161572265625,-1.0919061791568994,-0.6678238577514887,-0.19294132343530654
1761469087994599000,7.981598876953125,-1.182087385341525,-0.280614346191287,-0.006786299139261246
1761469088004582000,7.991581787109375,-1.2146890937387942,0.3000169657975435,0.3155009506553411
1761469088014564900,8.00156494140625,-1.0845891341418028,0.8573448513492942,0.5042991829365492
1761469088024546800,8.011546875,-0.9618243397384881,1.3452712838947771,0.5633160200506449
1761469088034530000,8.021530029296875,-0.5889572417855262,1.6452213219359517,0.6833318080067634
1761469088044513000,8.031512939453124,-0.6114999129831791,1.8136986507222055,0.949435398286581
1761469088054495700,8.041495849609374,-0.3722217857867479,1.9484964127466082,1.1274959634542465
1761469088064478000,8.05147802734375,0.0034410803645849226,1.7157547015815973,1.3342752581059931
1761469088074461000,8.0614609375,0.3642500762552023,1.2400567592293024,1.4730951152533291
1761469088084444000,8.07144384765625,0.6153519122362137,0.8002043295010924,1.4023305572003126
1761469088094427000,8.081427001953125,1.0060247159928082,0.39359336737841366,1.226360826832056
1761469088104409900,8.091409912109375,1.608845647957921,0.11400251901596783,0.9443290150582789
1761469088114393000,8.10139306640625,2.3445763362437484,-0.2654825357720256,0.33158173236250876
