time,seconds_elapsed,z,y,x
1761469256785132500,0.122132568359375,0.05998948153853416,0.6523825429916381,-0.36260932331085205
1761469256795115800,0.13211572265625,0.0528682513564825,0.7914264181531965,-0.27765140473246575
1761469256805098800,0.1420986328125,-0.050232057633996005,0.8719301338016986,-0.2019569890618324
1761469256815082800,0.152082763671875,-0.10587152726948261,1.028850149654597,-0.057362640166282654
1761469256825065700,0.162065673828125,0.12162731480598449,1.182062397030741,0.12188684252500534
1761469256835048700,0.172048583984375,0.7692670471847057,1.2447267968669533,0.22357202402055262
1761469256845031700,0.18203173828125,1.3774398615717887,1.1864902964755892,0.2071826147556305
1761469256855015000,0.192014892578125,1.7398662295311689,1.118219454934448,0.15158230808675288
1761469256864999000,0.2019990234375,2.046261498188972,1.0022099800102413,0.22660861523747441
1761469256874981600,0.211981689453125,2.258648695850372,0.7482064312383532,0.4123772705644369
1761469256884964600,0.221964599609375,2.276340419885516,0.49487040646448727,0.6484650772869587
1761469256894948600,0.231948486328125,2.2097546088218687,0.22320903592705726,0.9694424135267734
1761469256904931800,0.241931884765625,2.0915829874277114,-0.022929624688625333,1.2921727309137583
1761469256914914600,0.25191455078125,1.9734429302155971,-0.06865311885699629,1.5393606083214282
1761469256924897800,0.261897705078125,1.7374334494262933,-0.15014774523898958,1.682244646167755
1761469256934880800,0.271880859375,1.4344441898196936,-0.23824337732121348,1.6766829203873872
1761469256944864800,0.28186474609375,1.171356147968769,-0.2231362629517913,1.535375338077545
1761469256954847700,0.29184765625,0.8494260410487652,-0.12523659134432671,1.412851951214671
1761469256964830700,0.301830810546875,0.5104512758255004,0.0807305101417005,1.3386813841104506
1761469256974814700,0.311814697265625,0.26460370711088177,0.31079101939871906,1.2882125951111316
1761469256984797700,0.321797607421875,0.16731296118199823,0.4607382736295461,1.0958715756565331
1761469256994780700,0.33178076171875,0.18462416146695612,0.576619592129439,0.8359761923670769
1761469257004763600,0.341763671875,0.2080968069911003,0.6679822631835937,0.6370517028689384
1761469257014746600,0.35174658203125,0.2537853759765625,0.7811100451916456,0.4463496827930212
1761469257024730600,0.361730712890625,0.3434370053291321,0.8063290959917009,0.2392623451054096
1761469257034713900,0.3717138671875,0.5464017101287841,0.761540690716356,0.10711188271939753
1761469257044696800,0.38169677734375,0.66595631031394,0.6085445703089237,-0.026295886251330374
1761469257054679600,0.391679443359375,0.6554279020369053,0.4442455501206219,-0.2023544639468193
1761469257064663600,0.40166357421875,0.6544160946458578,0.2350207620128989,-0.34253976422846316
1761469257074646800,0.411646728515625,0.7496914090991019,-0.012963380338996649,-0.4561386708796024
1761469257084629800,0.421629638671875,0.9205798906803131,-0.20594284382760525,-0.5392775573372841
1761469257094613800,0.43161376953125,1.0676491052567958,-0.3487751514866948,-0.5654167917221784
1761469257104596700,0.4415966796875,1.1606430307745932,-0.5607128518149256,-0.6237713655352592
1761469257114579700,0.451579833984375,1.1026128666102886,-0.7519809813410043,-0.5878343752354384
1761469257124562700,0.461562744140625,0.96881463701725,-0.8391852175414561,-0.45261926458179946
1761469257134546700,0.471546630859375,0.7895254068374633,-0.8419028059370816,-0.323763167566061
1761469257144530000,0.481530029296875,0.6279477744370698,-0.878475609922409,-0.2065069074511528
1761469257154512600,0.4915126953125,0.43870413647592066,-0.8523052497468888,-0.03944938233494758
1761469257164495600,0.50149560546875,0.23129764983654022,-0.7727132421158254,0.07992693867385386
1761469257174478800,0.511478759765625,0.062336921447515486,-0.7351539113111794,0.15851006152331829
1761469257184462800,0.521462890625,0.08517828333079815,-0.686287589072436,0.22108137624859808
1761469257194445600,0.531445556640625,0.07364625096917152,-0.6447003179259598,0.22726912497282026
1761469257204428800,0.5414287109375,-0.07653028197288513,-0.6765301651678979,0.22761750001907347
1761469257214411800,0.551411865234375,-0.06973346143960953,-0.7357862178653478,0.20057284122705457
1761469257224395800,0.561395751953125,0.05777355905473232,-0.8107542189575732,0.18704992730915546
1761469257234378800,0.571378662109375,0.22353169201016423,-0.7143513617791235,0.2689998962432146
1761469257244361700,0.58136181640625,0.09976619613170623,-0.7588081970125437,0.2856833200186491
1761469257254345700,0.591345703125,-0.13953414289653301,-0.8468525372989475,0.14648527720868587
1761469257264328700,0.60132861328125,-0.27357144194245336,-0.8921142591744661,-0.0075052610635757445
1761469257274311700,0.611311767578125,-0.3120429191559553,-0.9383436570383608,-0.17344167319536208
1761469257284294700,0.621294677734375,-0.34063188478052614,-0.9911929114334285,-0.37305823661088944
1761469257294278700,0.631278564453125,-0.32500644562542436,-1.0334686032354832,-0.5205038832843303
1761469257304261600,0.64126171875,-0.26989947543144227,-1.05796182397902,-0.5917705456405877
1761469257314244900,0.651244873046875,-0.21228198372125626,-0.9625245969623327,-0.5367220276355743
1761469257324227800,0.661227783203125,-0.3853670985639095,-0.9842992063969374,-0.4461567905694246
1761469257334211800,0.6712119140625,-0.5434662411987781,-1.1458669019252061,-0.539053685453534
1761469257344194600,0.681194580078125,-0.48476212329566476,-1.2768401372253895,-0.43350539878904815
1761469257354177800,0.691177734375,-0.5402987170785665,-1.4104454745948314,-0.2993891892880201
1761469257364160800,0.701160888671875,-0.581193622046709,-1.5748077692776918,-0.29615970584750173
1761469257374144800,0.711144775390625,-0.6319032340645789,-1.6291913936331868,-0.30100188518166543
1761469257384127700,0.721127685546875,-0.687849577692151,-1.5782400818139313,-0.263640999558568
1761469257394110700,0.73111083984375,-0.546603370180726,-1.4885630257591604,-0.23931670564115046
1761469257404093700,0.74109375,-0.4000894513994455,-1.3256114746570586,-0.18295418242812156
1761469257414077700,0.75107763671875,-0.382260949242115,-1.238274551987648,-0.18616203855872154
1761469257424061000,0.76106103515625,-0.38784956302940843,-1.2132879947692154,-0.2469844637900591
1761469257434043600,0.771043701171875,-0.48992520514726634,-1.207376724898815,-0.22150573914051055
1761469257444026600,0.781026611328125,-0.6269850668847561,-1.1340268265277147,-0.15896131242215633
1761469257454010600,0.7910107421875,-0.6648644234240054,-1.165291148841381,-0.14369009353220463
1761469257463993900,0.800993896484375,-0.6997329077094793,-1.2256398190811275,-0.2601554955303669
1761469257473976600,0.8109765625,-0.7445265736818313,-1.201892156007886,-0.3224257814824581
1761469257483959600,0.82095947265625,-0.8617319803923368,-1.150026067431271,-0.3452694814532995
1761469257493943800,0.83094384765625,-1.0088345127165317,-1.1319143644183873,-0.36884208022058007
1761469257503926800,0.8409267578125,-1.1064356397688389,-1.0116013470813632,-0.3385907343417406
1761469257513909800,0.85090966796875,-1.2649433632045983,-0.8465931557103991,-0.13059680320322511
1761469257523892700,0.860892822265625,-1.4648001651167868,-0.6117050801664591,0.2766752531766891
1761469257533876700,0.870876708984375,-1.4333230768352747,-0.2708896555125713,0.7370154673993587
1761469257543859700,0.880859619140625,-1.1771692181617022,0.10213877048194407,1.171975156649947
1761469257553842700,0.8908427734375,-1.0413654939651489,0.37952100288420915,1.5516449203550815
1761469257563825700,0.90082568359375,-0.8065028451234102,0.4038125635758042,1.9452169526845215
1761469257573809700,0.9108095703125,-0.5318845244765281,0.26781594715565443,2.205740112483501
1761469257583792600,0.920792724609375,-0.03975099563002586,0.05235737922489643,2.400422726628184
1761469257593775900,0.93077587890625,0.4686147060930729,-0.1254404433533549,2.420570611643791
1761469257603759900,0.940759765625,0.8405074060559272,-0.4510074454709887,2.2364316033452747
1761469257613742800,0.950742919921875,1.155298747137189,-0.8221294533222914,1.779096416157484
1761469257623725600,0.9607255859375,1.2617974663943052,-1.1525076551139355,1.1900567567855118
1761469257633708800,0.970708740234375,1.6518272960722447,-1.3922870098307727,0.6442880838632583
1761469257643692800,0.98069287109375,2.039324976924062,-1.722228573770821,0.14239654659032822
1761469257653675800,0.99067578125,2.3376234483659264,-1.749144345486164,-0.38200083700120446
1761469257663658500,1.000658447265625,2.748043155121803,-1.4798390365555882,-0.5465928487867117
1761469257673641700,1.010641845703125,3.0967092932760716,-1.2909773836493492,-0.727624538719654
1761469257683625700,1.020625732421875,3.1687247281730175,-1.0299436439797283,-0.9281664002865553
1761469257693608700,1.030608642578125,2.8289000681221483,-0.7526280470728873,-0.9748439803093671
1761469257703592000,1.040592041015625,2.1277941184937954,-0.5004714413419366,-0.8752285908252
1761469257713574700,1.05057470703125,1.368100955340266,-0.3917755043014884,-0.65305065151155
1761469257723558700,1.06055859375,0.7958031719326972,-0.42610856653600926,-0.20286708964407443
1761469257733541600,1.070541748046875,0.3790712132900953,-0.15895020650625227,0.24717384888231753
1761469257743524900,1.08052490234375,0.12985796753466128,0.03950403513163328,0.6680903997331857
1761469257753511400,1.090511474609375,0.042494156858325,0.20668430984467268,0.9998901587605475
1761469257763495400,1.100495361328125,0.023131284740567207,0.29487375769019125,1.2082003162413835
1761469257773478100,1.11047802734375,-0.04765782323181629,0.2255851174086332,1.3726643177330493
1761469257783461400,1.12046142578125,-0.13414017489850522,0.20115677859485148,1.6034721382260322
1761469257793445400,1.1304453125,-0.1732704082816839,0.17132774978131055,1.7880244035005568
1761469257803428400,1.140428466796875,-0.1568798299729824,0.11151713194102048,1.8700404234081505
1761469257813411300,1.150411376953125,-0.04485387172698974,0.13729308597147463,1.8891198024094105
1761469257823394300,1.160394287109375,0.05939268468916416,0.13546791637092828,1.7100544441133736
1761469257833377300,1.170377197265625,0.1900672293037176,0.06396627621501684,1.450631354510784
1761469257843361300,1.180361328125,0.3662959028691053,-0.0072474869102239605,1.2051789225935936
1761469257853344500,1.190344482421875,0.6428776325434445,-0.0004363455906510353,0.9627817865937948
1761469257863327200,1.2003271484375,1.0095943911731242,0.08632482301741838,0.7264286069333553
1761469257873311200,1.210311279296875,1.3660381775915622,0.13732231206595896,0.5056231250166893
1761469257883294500,1.22029443359375,1.4983184038370847,0.1437087982326746,0.273393162766099
1761469257893277400,1.23027734375,1.3784288726091385,0.07249152797609568,0.024293898779153823
1761469257903260200,1.24026025390625,1.2180068399846553,-0.10891776309758425,-0.26380758829712864
1761469257913244200,1.250244140625,1.0170002835154532,-0.314059519675374,-0.5181383231967688
1761469257923227400,1.260227294921875,0.8855266974776983,-0.539910010021925,-0.6286152984350919
1761469257933210400,1.27021044921875,0.858382085442543,-0.6736480338603258,-0.6451859094858169
1761469257943193300,1.280193359375,0.8769371483087539,-0.7657400421023368,-0.622130612590909
1761469257953177300,1.29017724609375,0.8985393237859011,-0.8813935431957244,-0.5216302569657564
1761469257963160300,1.300160400390625,0.9108978700995445,-1.033463050277531,-0.3913409122765064
1761469257973143300,1.310143310546875,0.903606544047594,-1.1053384921818972,-0.15870879896581172
1761469257983126500,1.32012646484375,0.9516898992151022,-1.0648507067099213,0.1178232463479042
1761469257993110500,1.330110595703125,0.96739717143476,-1.023457496830821,0.28959143337309357
1761469258003093200,1.34009326171875,0.8828501717448234,-0.9279255772680044,0.35370588588714597
1761469258013076200,1.350076171875,0.8083283069849014,-0.7613815546318888,0.4061690635740757
1761469258023060200,1.360060302734375,0.7435434078633785,-0.6141255853116512,0.3819517371624708
1761469258033043500,1.37004345703125,0.7237485740691423,-0.5133662864893674,0.40840427528023715
1761469258043026400,1.3800263671875,0.6463537842214108,-0.3818418470472097,0.4438660492837429
1761469258053009200,1.390009033203125,0.5212567474782467,-0.27870968161374327,0.433216644975543
1761469258062993400,1.399993408203125,0.4114449581503868,-0.2151879342958331,0.3783902452886104
1761469258072976400,1.409976318359375,0.40623219193816185,-0.17257044331878424,0.2738759778469801
1761469258082959400,1.41995947265625,0.46077159137725826,-0.17120324661880731,0.11961480593979358
1761469258092942300,1.4299423828125,0.4818669863760471,-0.2520993225857615,-0.07960954328775405
1761469258102926300,1.43992626953125,0.6282406199038029,-0.29854952359348536,-0.16556056455671786
1761469258112909300,1.449909423828125,0.9143816205620765,-0.28234277741909025,-0.05124094241559505
1761469258122892300,1.459892333984375,1.0560609587937593,-0.35311376521289345,0.02764671633839607
1761469258132876300,1.469876220703125,1.065073117288947,-0.4364154410168528,0.15950199517011643
1761469258142859500,1.479859619140625,0.9851941094100475,-0.4797971943646669,0.29140637384057044
1761469258152842200,1.48984228515625,0.865444863435626,-0.4506239991113543,0.339022696018219
1761469258162825500,1.499825439453125,0.5765063410133123,-0.45288113038837907,0.036436171993613244
1761469258172809500,1.5098095703125,0.3100093675017357,-0.15313888987898824,0.31485973014235497
1761469258182792400,1.51979248046875,0.03488543542027473,0.08502396955192089,0.438890014436841
1761469258192775200,1.529775146484375,-0.23303835602402687,0.17482962042242287,0.4140753066539764
1761469258202758400,1.53975830078125,-0.8386269991368055,0.32328327509462834,0.45525136665105814
1761469258212742400,1.549742431640625,-1.3350479960441588,0.3156698774814605,0.41640521090626714
1761469258222725400,1.559725341796875,-1.4643249488204717,0.22753858956396578,0.2979126869946718
1761469258232708400,1.569708251953125,-1.1987614567667244,0.13357961840629576,0.2484253102481365
1761469258242691300,1.57969140625,-0.7287602647513151,-0.002715396438539028,0.11416063218712806
1761469258252675300,1.58967529296875,-0.48135494520068167,-0.47342912063747644,-0.4480886354148388
1761469258262658300,1.599658203125,-0.43877018744945523,-0.7570397260352969,-0.8671803089261054
1761469258272641500,1.6096416015625,-0.3501911557644605,-1.0351222156614064,-1.0132564208120107
1761469258282625500,1.61962548828125,-0.3477408400028944,-0.9894260478913783,-1.0306441934645176
1761469258292608300,1.629608154296875,-0.2812958987146616,-0.9997858216032385,-0.9027133946001529
1761469258302591200,1.63959130859375,-0.21957857047021387,-0.9591019290372729,-0.6503028141081333
1761469258312574500,1.649574462890625,-0.16683716036379337,-0.7202396891653537,-0.18570844957232474
1761469258322558500,1.659558349609375,-0.04268529551625252,-0.43297582195699214,0.4951812259793281
1761469258332541200,1.669541259765625,0.19648820226192473,-0.1631204779282212,1.3067314176201819
1761469258342524400,1.6795244140625,0.2744014630258083,-0.02901186721175909,1.880787442871928
1761469258352507400,1.68950732421875,0.014018588480353355,0.13539631243944167,2.405531447944045
1761469258362491400,1.699491455078125,-0.030360651472210884,0.19677695607542992,2.6396178517162796
1761469258372474400,1.709474365234375,0.08182137411832809,0.027427812890708444,2.4934412020653487
1761469258382457300,1.719457275390625,0.3897884221374988,0.011780746425688266,2.246310607802868
1761469258392441300,1.72944140625,0.9495382741391658,-0.025003508353233336,2.0712410411447286
1761469258402424300,1.73942431640625,1.3636954138576984,-0.08639028946906328,1.9949796392410992
1761469258412407300,1.7494072265625,1.5619003569096326,-0.2699842311054468,1.8586539369970558
1761469258422390500,1.759390625,1.544488034337759,-0.5449947659403085,1.5661796416640281
1761469258432374300,1.769374267578125,1.4858271710544824,-0.7368482941389083,1.2779092277616262
1761469258442357200,1.779357177734375,1.5392834514319895,-0.9137479988336562,0.9654881229430436
1761469258452340500,1.789340576171875,1.7349211743444204,-1.0233163347944616,0.6386234822303056
1761469258462323500,1.799323486328125,1.9122528407156467,-1.013886243148148,0.33602234515845775
1761469258472307500,1.809307373046875,2.156086731520295,-1.0213254532381892,0.07848959934711455
1761469258482290200,1.819290283203125,2.364682135683298,-1.0751266015306113,-0.15074702630639075
1761469258492273400,1.8292734375,2.4327988095760342,-1.2209043149918317,-0.24636136345565318
1761469258502257400,1.83925732421875,2.4037048170387743,-1.3427552094206212,-0.21084055274128913
1761469258512240400,1.849240478515625,2.394230886250734,-1.5257894713476299,-0.14019582167565822
1761469258522223400,1.859223388671875,2.3872458496689797,-1.7911600711777804,-0.011274842730164528
1761469258532206300,1.869206298828125,2.3787027699902654,-1.884374069187045,0.26083237187862396
1761469258542190300,1.8791904296875,2.312894665300846,-1.7923656475752592,0.6604623890727758
1761469258552173300,1.88917333984375,2.1471052604243157,-1.5354223920896648,0.9989321273833512
1761469258562156500,1.899156494140625,1.879592095607519,-1.2056979780316353,1.1655956847459077
1761469258572140500,1.909140625,1.56615742983222,-0.928312238498032,1.2892384310275316
1761469258582123300,1.919123291015625,1.3722966534644365,-0.6053504504427314,1.3166916706204415
1761469258592106200,1.929106201171875,1.2455395745545625,-0.3068386285111308,1.2656821988731621
1761469258602089500,1.93908935546875,1.0276213385120034,-0.022660452358424663,1.2075345458090305
1761469258612073500,1.949073486328125,0.7749322333395481,0.19606296258717773,1.1838766068458557
1761469258622056200,1.95905615234375,0.49474458812773225,0.25601766507327556,1.161335689213872
1761469258632039400,1.969039306640625,0.2522556821912527,0.23163170409649608,1.1751093630224465
1761469258642022400,1.9790224609375,0.11139525912702083,0.03576835573464632,1.2006167292445897
1761469258652006400,1.98900634765625,0.08901508501470089,-0.238398129491508,1.1169809991806745
1761469258661989400,1.9989892578125,0.12388152347356081,-0.5582832865804433,0.9673761286467313
1761469258671972400,2.008972412109375,0.13015081300139428,-0.8448919047504663,0.7847884414434433
1761469258681956400,2.018956298828125,0.21879823374748228,-1.106304999126494,0.5654372499883175
1761469258691939300,2.028939208984375,0.39260552538484333,-1.452590087363124,0.3346364437580108
1761469258701922300,2.03892236328125,0.5817459952324628,-1.716310874159634,0.15681728613078594
1761469258711905300,2.0489052734375,0.738814625775814,-1.913240682709217,0.1363227796345949
1761469258721889300,2.05888916015625,0.9288678265541791,-2.1285656873881815,0.19911971980929374
1761469258731872300,2.068872314453125,1.1175257735818624,-2.372134789776802,0.2690133402466774
1761469258741855500,2.07885546875,1.2373697121024132,-2.6372046530947086,0.3818050221681595
1761469258751835100,2.088835205078125,1.326215285769105,-2.9074276613920924,0.5360176787585019
1761469258761819100,2.098819091796875,1.3279466396063566,-3.122196785753965,0.6960550959795713
1761469258771802000,2.108802001953125,1.2567822685807943,-3.2336791386425494,0.8988163871616125
1761469258781785000,2.11878515625,1.197249883159995,-3.2506343650966882,1.0398591810554265
1761469258791769000,2.12876904296875,1.2171473005458713,-3.2789848457902666,1.0906810212761162
1761469258801752000,2.138751953125,1.307475513985753,-3.288447670662403,1.091636714565754
1761469258811735000,2.148735107421875,1.3627759609252215,-3.343849239888787,1.0397551361590622
1761469258821718000,2.158718017578125,1.39350456892699,-3.2829312453284856,1.045773958057165
1761469258831702000,2.168701904296875,1.3394354173481464,-3.311742913793027,1.0608797572523354
1761469258841685000,2.17868505859375,1.2105202836215496,-3.328442411920428,1.0520856254220008
1761469258851668200,2.188668212890625,1.1017585878685117,-3.203640266470611,1.0391565857440233
1761469258861652200,2.19865234375,1.0331056151419877,-3.060056848183274,1.0221101738750935
1761469258871635200,2.20863525390625,0.979476900807023,-2.902418016536534,0.9847411049455403
1761469258881618000,2.218617919921875,0.9867208805859088,-2.7913272933140396,0.8975824614524841
1761469258891601200,2.22860107421875,0.968081646567583,-2.6844059647306797,0.8632190040796994
1761469258901585200,2.238585205078125,0.9894447525918483,-2.675986803692579,0.8897504526525736
1761469258911568100,2.248568115234375,1.0075725299566984,-2.663416952715814,0.913037804737687
1761469258921551000,2.258551025390625,0.8255027291476726,-2.521737614484131,0.837223562079668
1761469258931535000,2.26853515625,0.6502262417405843,-2.132636005567014,0.8457190032243728
1761469258941518000,2.27851806640625,0.4398500916406512,-1.6733835865810514,0.8582657655864954
1761469258951501000,2.2885009765625,-0.11493746177852153,-1.4217659100323914,0.8148223451793193
1761469258961484300,2.298484375,-0.6622156624808907,-0.9904019071862101,0.8437018181830644
1761469258971468300,2.30846826171875,-0.5887485674709081,-0.26905104190856216,0.987899276715517
1761469258981451000,2.318450927734375,-0.11778846729546785,0.7939201346650719,1.1446329762160778
1761469258991434000,2.32843408203125,0.2441317047074437,1.7378434915319083,1.2901865255326033
1761469259001418200,2.338418212890625,0.2939060817018151,2.3668030733600256,1.524571619990468
1761469259011401200,2.348401123046875,-0.11561141551733016,2.5563681983605027,1.7954554302841423
1761469259021384000,2.358384033203125,-0.4735352113604545,2.338963757058978,1.8026164079546927
1761469259031367200,2.3683671875,-0.021553075638413428,2.093741334505379,1.6918921799570321
1761469259041351200,2.37835107421875,0.5439139849662781,1.7074363705694675,1.3810013534456491
1761469259051334100,2.388334228515625,0.9494599482059478,0.9587821955636143,1.1759931601196527
1761469259061317000,2.398317138671875,1.072984621065855,0.06159677060469985,0.7469576002210379
1761469259071300900,2.40830078125,1.356651925086975,-0.5707670667089522,0.1414087045967579
1761469259081284000,2.4182841796875,1.8174024736762047,-0.866753169555217,-0.3143389211386442
1761469259091267000,2.42826708984375,2.193681425899267,-0.7819472266681492,-0.5881044243484735
1761469259101250000,2.43825,2.6440233931988475,-0.6151876615852118,-0.7391507258623838
1761469259111234300,2.448234375,2.8963462954074144,-0.6112842244058847,-0.9769114342331886
1761469259121217000,2.458217041015625,2.90319864552021,-0.750939071072638,-1.270429101139307
1761469259131200000,2.468199951171875,2.6281618072003123,-0.8892372424334287,-1.4501076228976248
1761469259141184000,2.47818408203125,2.273141916105151,-0.4958195238828659,-1.1123188525885344
1761469259151167200,2.488167236328125,1.7709212930083273,0.1506461962804198,-0.42950200836658475
1761469259161150000,2.49814990234375,1.115586914473772,0.514273464462161,0.24566402884125707
1761469259171133000,2.5081328125,0.3379904303610325,0.5397060118824243,0.7569681221038103
1761469259181117200,2.5181171875,-0.468256394174695,0.6755988756671547,1.2453238859772682
1761469259191100200,2.52810009765625,-0.9565911152601242,0.691484427063167,1.6993290519595146
1761469259201083100,2.538083251953125,-1.0862088442981241,0.6263657659426332,2.1214076323270796
1761469259211067100,2.548067138671875,-1.0022621485888958,0.5711828079029917,2.400544307181239
1761469259221050000,2.558050048828125,-0.8612064952135086,0.464656908378005,2.5068583175212145
1761469259231033000,2.568033203125,-0.5973153202861547,0.36478052987009285,2.439620180028677
1761469259241016000,2.57801611328125,-0.2781628613859415,0.2565349669456482,2.1288474269390103
1761469259251000000,2.588,-0.05916589019596576,0.23407822046577928,1.6365262665659188
1761469259260983000,2.597983154296875,0.2990881605148315,0.30553339113146066,1.193726969730854
1761469259270966000,2.607966064453125,0.7379606392949819,0.44332127488255496,0.7281985392153263
1761469259280950000,2.617949951171875,1.0898299574047325,0.5086079860463738,0.29086101491749283
1761469259290933200,2.627933349609375,1.2557441577047108,0.4974330965593457,-0.133996967035532
1761469259300916200,2.637916259765625,1.259125032314658,0.4707487955123186,-0.5063847570389509
1761469259310899000,2.64789892578125,1.157243451464176,0.3308189312964678,-0.7907026339232921
1761469259320883000,2.657883056640625,1.0999743348002433,0.22930939862877128,-1.0315326667368412
1761469259330866200,2.6678662109375,0.9858172097444534,0.15674568219929932,-1.2356693379253147
1761469259340849200,2.67784912109375,0.8199187915354966,0.18542174158543348,-1.3252812197893857
1761469259350833200,2.687833251953125,0.6449246282011271,0.21625702483206985,-1.2936878116518258
1761469259360816000,2.697816162109375,0.4773199905961752,0.24601620327979326,-1.2264520122468472
1761469259370799000,2.707799072265625,0.33691023390889163,0.2709261881306767,-1.198980652475357
1761469259380783000,2.717783203125,0.27782909938693046,0.2704664616644382,-1.111698090341687
1761469259390766000,2.72776611328125,0.18711597828269003,0.25740152064710853,-0.966848889902234
1761469259400749300,2.737749267578125,0.11431202335655688,0.22019962497800588,-0.8123474794983864
1761469259410732000,2.74773193359375,0.03505143963694572,0.13787585429549215,-0.7248036360800266
1761469259420716000,2.757716064453125,-0.10286357762515544,0.03347819897085428,-0.711266693636775
1761469259430699000,2.767698974609375,-0.30328327411711214,-0.07180033084154129,-0.6890770736604929
1761469259440682200,2.77768212890625,-0.4647878412812948,-0.09120674984008073,-0.5525812755465507
1761469259450666200,2.787666259765625,-0.7181207973152398,-0.10866554190218448,-0.4661404249340296
1761469259460649000,2.79764892578125,-0.9467337381124495,-0.1478235400751233,-0.43439504110515115
1761469259470632200,2.807632080078125,-1.054410853499174,-0.2734475233018398,-0.477245756316185
1761469259480615200,2.817615234375,-1.0429378578484059,-0.49375236221998925,-0.5696691884696483
1761469259490599200,2.82759912109375,-0.8682242650210857,-0.6864402954161166,-0.5371487286150455
1761469259500582000,2.837581787109375,-0.5407756869405508,-0.8466115681499242,-0.47860886136293407
1761469259510565000,2.847565185546875,-0.22951368902921676,-0.9696490420147776,-0.4391220696270466
1761469259520549000,2.857549072265625,0.02894727754294872,-1.0909273972526192,-0.3210661835670471
1761469259530532000,2.867531982421875,0.17006722832620144,-1.134915884321928,-0.205408006298542
1761469259540515000,2.87751513671875,0.07431494401097297,-1.18098702288419,-0.12070669282972812
1761469259550499300,2.887499267578125,-0.08253624438941479,-1.1295490965917705,-0.14436755440235138
1761469259560482000,2.89748193359375,-0.32212767531871794,-1.0479188611313701,-0.2831032403975725
1761469259570465000,2.907465087890625,-0.6175047063559294,-0.8101797800704836,-0.5538952807545662
1761469259580448300,2.9174482421875,-0.8837760544180869,-0.5376996404960751,-0.8436562254756689
1761469259590432300,2.927432373046875,-1.0491454803168774,-0.3842848562851548,-1.0356523770153523
1761469259600415000,2.9374150390625,-1.2084095750778914,-0.22809505440294742,-1.1483224783837795
1761469259610398000,2.94739794921875,-1.3201701603859661,-0.16965426361113786,-1.1524608933627605
1761469259620382000,2.9573818359375,-1.3536468980520964,-0.2593754510685801,-1.1003010825365782
1761469259630365200,2.967365234375,-1.353735160857439,-0.41368659959733484,-0.9616472296059131
1761469259640348200,2.97734814453125,-1.3363900583028792,-0.5238248444005846,-0.7874182054251432
1761469259650331100,2.9873310546875,-1.2097013684540987,-0.5642097540199756,-0.49856093154549597
1761469259660315100,2.997315185546875,-0.772034173810482,-0.5327376341745257,-0.07989128283858299
1761469259670298000,3.007298095703125,-0.08015782482028007,-0.3644114042967558,0.5000748432397842
1761469259680281000,3.017281005859375,0.2899099978029728,-0.028251111972332,1.296880470213294
1761469259690265000,3.02726513671875,0.37988077610731125,0.23734131391495464,2.2051433156341314
1761469259700248000,3.037248046875,0.2326356204420328,0.3396744379252195,2.9699200656622646
1761469259710231000,3.04723095703125,-0.010810147827863693,0.4203767448857426,3.4527293013244864
1761469259720215000,3.057215087890625,0.19598142178356645,0.5717842809274792,3.7461452614217996
1761469259730198300,3.0671982421875,0.6536813506305217,0.8460732234895229,3.7914258341282605
1761469259740181200,3.07718115234375,1.004926983883977,1.0957049869179725,3.6700457720816133
1761469259750164000,3.0871640625,1.2474193969517946,1.0896648299708962,3.2704677773356434
1761469259760148700,3.097148681640625,1.4997475598573684,0.9337515069425105,2.6581226456999776
1761469259770131700,3.107131591796875,1.4873919361531733,0.7204135844275354,1.4899223314136265
1761469259780114700,3.11711474609375,1.5734563546687363,0.48955578731298444,0.2853121486186981
1761469259790098700,3.1270986328125,1.8576777854412794,0.35934330725222824,-0.34247020612359047
1761469259800081700,3.13708154296875,1.9996441239207983,0.07287468207478523,-0.8983300649493933
1761469259810065000,3.14706494140625,2.1302450187772513,-0.16287819360494613,-1.2842898687094448
1761469259820049000,3.157048828125,2.239090593421459,-0.4291971802011132,-1.4912299068808554
1761469259830031600,3.167031494140625,2.2927362588912246,-0.7356020934700965,-1.489028012922406
1761469259840014600,3.1770146484375,2.2612720300912854,-0.7492278832405805,-1.1672136413365601
1761469259849997800,3.186997802734375,2.1947581152200697,-0.3121764824077487,-0.45702188345491884
1761469259859981800,3.19698193359375,1.924578069281578,0.018381167604029178,0.30248072556257244
1761469259869964500,3.206964599609375,1.3462819222420452,0.03382949662655592,0.626532062420249
1761469259879947800,3.21694775390625,0.8075801189661026,0.07597673974335194,0.7324199563026428
1761469259889931800,3.226931884765625,0.546191282248497,0.13997925631552935,0.8318962295770644
1761469259899914800,3.236914794921875,0.4488613733530044,0.24013445176482198,0.9345692530661821
1761469259909897700,3.246897705078125,0.34309447550177574,0.23913082768023014,0.9854559752166271
1761469259919881700,3.2568818359375,0.40420448550283905,0.1021484150931239,0.8737392290502786
1761469259929864700,3.26686474609375,0.5212158309459686,-0.13395809632986783,0.6375801106572151
1761469259939847700,3.27684765625,0.7394312963694334,-0.3411979942306876,0.5035381354361772
1761469259949830700,3.28683056640625,0.9322223976790904,-0.48533115535527466,0.4279840050190687
1761469259959815000,3.29681494140625,1.0019815780818462,-0.6086337098971009,0.3603103987187147
1761469259969797600,3.306797607421875,1.1239414858430623,-0.7303337976783514,0.30280922686457634
1761469259979780600,3.316780517578125,1.2313918067365883,-0.7843997343868017,0.24699673874974248
1761469259989764600,3.3267646484375,1.1636848826885222,-0.8787421519041061,0.03590133446455002
1761469259999747800,3.336747802734375,1.0974585525870322,-0.9207520323768258,-0.16253391021192073
1761469260009730800,3.346730712890625,0.992722166827321,-0.9670958504006266,-0.39677930393815036
1761469260019713500,3.356713623046875,0.9073018914341926,-1.0097747161760926,-0.5857943938404321
1761469260029697500,3.366697509765625,0.8375356967687606,-1.0186001199275254,-0.6497276445686817
1761469260039680800,3.3766806640625,0.8585533503562212,-1.0021355995997785,-0.6067915891617536
1761469260049663700,3.386663818359375,0.8863535036906599,-0.9807017664268612,-0.4583341350972652
1761469260059647700,3.396647705078125,0.7903831927105784,-0.930968013703823,-0.25546587640941143
1761469260069630700,3.406630615234375,0.6680304862394929,-0.9435711824283003,-0.038292028993368143
1761469260079613700,3.41661376953125,0.5629343272566795,-0.9851739434048533,0.1467453894495964
1761469260089597700,3.42659765625,0.41249300589859483,-1.0552487656280398,0.28679449613094327
1761469260099580700,3.43658056640625,0.26318565700650215,-1.1032508722528815,0.41968730131685733
1761469260109564000,3.44656396484375,0.14793343019038438,-1.124602580100298,0.5169055665314197
1761469260119546600,3.456546630859375,0.07234539750367402,-1.15850426518023,0.5542822342455387
1761469260129530600,3.466530517578125,-0.03161357414275408,-1.2073892921194433,0.5177823493659496
1761469260139513900,3.476513916015625,-0.1158431784465909,-1.259571314777434,0.43978550197184085
1761469260149496800,3.486496826171875,-0.1772264524310827,-1.2750906632095576,0.3506891684144735
1761469260159480800,3.496480712890625,-0.31495442268848417,-1.3184925825625657,0.24882044704556464
1761469260169463600,3.506463623046875,-0.2353238366127014,-1.1530188195064663,0.28409049786925317
1761469260179446800,3.51644677734375,-0.20637159063369034,-1.0559788334682583,0.2528086398988962
1761469260189430800,3.5264306640625,-0.22894465696960686,-0.9838619840234517,0.06728256115615368
1761469260199413800,3.536413818359375,-0.20650106223225592,-0.9068371965318918,-0.2060965730845928
1761469260209396500,3.546396484375,0.024695465317368506,-0.6857993671640753,-0.27390345037579533
1761469260219380700,3.556380615234375,0.14219634784311055,-0.6933277168422937,-0.35260815377831456
1761469260229363700,3.56636376953125,0.24214725289195774,-0.6948878057658672,-0.39787352891564365
1761469260239346700,3.5763466796875,0.44327305182665583,-0.7654565489858388,-0.3050193041294813
1761469260249330000,3.586329833984375,0.635355420345068,-0.8725959042340516,-0.14080313991904259
1761469260259314000,3.59631396484375,0.7015729826182127,-1.0357473618224262,0.023068740898370743
1761469260269296600,3.606296630859375,0.5310837294876575,-1.1521209938839077,0.2363473344415426
1761469260279279600,3.616279541015625,0.1890343791246414,-1.3250719609528778,0.45420624151229855
1761469260289263600,3.626263671875,-0.12410042692124842,-1.4504609663799404,0.6724076784104108
1761469260299246800,3.636246826171875,-0.23886954639554023,-1.5874831264555453,0.8154770096957683
1761469260309229600,3.6462294921875,-0.24038404261171817,-1.6484803237318992,0.9050397917211055
1761469260319213600,3.656213623046875,-0.12326046896576881,-1.641762998175621,1.103497832751274
1761469260329196800,3.66619677734375,-0.27673019823431966,-1.748221093161404,1.170063770070672
1761469260339179800,3.6761796875,-0.15578209786415098,-1.6788085342392325,1.2302058118224144
1761469260349162800,3.686162841796875,0.015131518158316612,-1.6337515411555765,1.1962041734993456
1761469260359146800,3.696146728515625,-0.31424481311440466,-1.4016314690202474,1.271493515500426
1761469260369129700,3.706129638671875,-0.5192874932318926,-1.0457765884056687,1.3166595219165087
1761469260379112700,3.71611279296875,-0.556776973670721,-0.6906523601531982,1.5364730701863765
1761469260389096700,3.7260966796875,-0.6873802066147326,-0.17102116805016992,1.4408464580774307
1761469260399079700,3.73607958984375,-0.8123240986227989,-0.016513912427425382,1.2561603372901677
1761469260409062700,3.746062744140625,-0.627227643468976,-0.05182487978339195,1.1963497194498776
1761469260419046700,3.756046630859375,-0.1348760879576206,0.03537088084965944,0.8997428543567657
1761469260429029600,3.766029541015625,0.19871873779296872,0.025932898157835005,0.658119625338912
1761469260439012900,3.776012939453125,0.40159517978727816,-0.07762538373321294,0.5242062449336051
1761469260448996900,3.785996826171875,0.31395664382278915,-0.1589779712960124,0.2783972546637058
1761469260458979600,3.7959794921875,0.5785708723276853,-0.2674108734861016,0.17211305494010448
1761469260468962600,3.805962646484375,0.8158867595404387,-0.2968940114714205,0.03166939598321915
1761469260478945800,3.81594580078125,0.944163010841608,-0.21963380778878927,-0.0689981329023838
1761469260488929800,3.8259296875,1.0887369014710186,-0.09020239510312676,-0.12381927189230918
1761469260498912800,3.835912841796875,1.3626216471463442,0.11999752164706587,-0.199078218755126
1761469260508895700,3.845895751953125,1.7229606874376535,0.2495999069854617,-0.3101806324154138
1761469260518879700,3.855879638671875,1.9669220040142534,0.42432358281537885,-0.5039847101598978
1761469260528862700,3.86586279296875,1.960632548481226,0.6112815940573811,-0.6161597214877605
1761469260538845700,3.875845703125,1.7361200287401675,0.8730934784926474,-0.5639601631730795
1761469260548829700,3.88582958984375,1.2538339401692151,1.0968265382938087,-0.4028004639238119
1761469260558812700,3.895812744140625,0.6511451101511716,1.2870119871497154,-0.22810966745018957
1761469260568795600,3.905795654296875,0.1324672732502222,1.4375848259329795,-0.07911796037852764
1761469260578778600,3.915778564453125,-0.22411446033418178,1.6108933742679654,0.12253390825688838
1761469260588763000,3.925762939453125,-0.33401685055494307,1.7472955027490853,0.3152197956264019
1761469260598745900,3.935745849609375,-0.39628362937569617,1.6378477244280278,0.46573652030825613
1761469260608728600,3.945728515625,-0.5218401003241538,1.377928229610622,0.6441594890475273
1761469260618712600,3.955712646484375,-0.5886743331909179,1.0008183795213699,0.6854150440216064
1761469260628695800,3.96569580078125,-0.4157943855315447,0.7079040853358805,0.654363487675786
1761469260638678800,3.9756787109375,-0.25643092204928397,0.5206402230150997,0.6522229685157537
1761469260648662800,3.985662841796875,-0.10253215371370315,0.3853809809587896,0.5532119746655225
1761469260658645500,3.9956455078125,0.1115314527273178,0.32483021227568387,0.5385562573254108
1761469260668628700,4.005628662109375,0.2588882520735264,0.24759046685919164,0.5936193883776665
1761469260678612700,4.01561279296875,0.25309739371240136,0.14974559417888522,0.5775023663133383
1761469260688595700,4.025595703125,0.32857612080574033,0.021658581839501857,0.39282384431064127
1761469260698579000,4.035578857421875,0.41435704620480535,-0.14707988210096953,0.09463000228703021
1761469260708561700,4.045561767578125,0.6071148297667504,-0.29935587154030796,-0.2557633980512619
1761469260718545700,4.055545654296875,0.7379992177397012,-0.34923546247482296,-0.630504473182559
1761469260728528600,4.065528564453125,0.8086556392431259,-0.33392303479164837,-0.9046914166748523
1761469260738512000,4.075511962890625,0.692709877204895,-0.3823544727444649,-1.188985912683606
1761469260748496000,4.085495849609375,0.380901351326704,-0.3549097087189555,-1.3611848923414944
1761469260758478000,4.09547802734375,0.07731061869561671,-0.41418841163963077,-1.4009844032883643
1761469260768461000,4.1054609375,-0.11169161172509193,-0.4726417696520686,-1.3104355328351258
1761469260778445000,4.115445068359375,-0.20733926662206648,-0.42425884701609606,-1.1939888355374335
1761469260788428000,4.125427978515625,-0.39815351490080353,-0.3667322484597563,-1.098439964839816
1761469260798411000,4.135410888671875,-0.5951783082574605,-0.28439620281755923,-1.0701245554596186
1761469260808394200,4.145394287109375,-0.645128041818738,-0.2272632797539234,-1.0473083280175923
1761469260818378200,4.155378173828125,-0.6249024153918028,-0.1935398738503456,-1.0458604672968388
1761469260828361000,4.16536083984375,-0.49411213544309135,-0.28834757079184054,-1.0270283410549164
1761469260838344200,4.17534423828125,-0.4040244527608156,-0.4452002204969525,-1.0138315903514623
1761469260848328200,4.185328125,-0.4207908786445856,-0.5746387935757636,-0.8386807751506566
1761469260858311200,4.195311279296875,-0.41598201705813403,-0.703698596470058,-0.6827221516758203
1761469260868294000,4.2052939453125,-0.4420867646515369,-0.8185524716183543,-0.5452466948747634
1761469260878278100,4.215278076171875,-0.5692588541030883,-0.8424541562095283,-0.4011597109794616
1761469260888261000,4.22526123046875,-0.6565928541630506,-0.9246578076437115,-0.3647235389858484
1761469260898244000,4.235244140625,-0.707834965622425,-1.045535473126173,-0.43914545050263404
1761469260908227300,4.245227294921875,-0.7627338460236788,-1.1728507704406976,-0.5682359407961368
1761469260918211000,4.255211181640625,-0.7821879035562277,-1.2786267283812165,-0.7583382414132356
1761469260928194000,4.265194091796875,-0.6887959186315536,-1.4002151724815368,-0.9781015208005904
1761469260938177000,4.275177001953125,-0.5050573078274727,-1.4739219214662909,-1.1941823122829198
1761469260948161000,4.2851611328125,-0.3501005548715591,-1.4408219081580638,-1.3707125991433857
1761469260958144300,4.295144287109375,-0.34456688614189623,-1.4631024212881922,-1.4654887319028376
1761469260968127000,4.305126953125,-0.420001189571619,-1.3939037973776458,-1.4152309553056954
1761469260978111000,4.315111083984375,-0.45506490416824813,-1.2059411391377448,-1.2294693142414093
1761469260988094200,4.32509423828125,-0.17804829020798205,-0.9793094352856277,-1.0241659373611212
1761469260998077200,4.3350771484375,0.04371814569532871,-0.6126812317222357,-0.817601746764779
1761469261008060000,4.345059814453125,-0.010380524238944052,-0.2536646722063422,-0.553548659273982
1761469261018044000,4.3550439453125,-0.10201192923188208,-0.05272153636217117,-0.2888344775259495
1761469261028027100,4.365027099609375,-0.17341829231977463,0.11863865438401698,-0.07180091536343097
1761469261038010000,4.375010009765625,-0.41183483425080775,0.19747049129754304,0.0345382294178009
1761469261047994000,4.384994140625,-0.7511679113924503,0.19605302571505306,0.11267419302165507
1761469261057977000,4.39497705078125,-0.9369032489717006,0.14820172573775053,0.11244798305034637
1761469261067960000,4.4049599609375,-0.8619593594074249,0.09356149627268313,0.0933674350053072
1761469261077944000,4.414944091796875,-0.730733610650897,-0.05831541084647178,0.04420563695132732
1761469261087927000,4.424927001953125,-0.5619102449059487,-0.44784898144006724,-0.024223756152391432
1761469261097910300,4.43491015625,-0.4946393741875887,-0.7799559067204594,-0.07840309010744094
1761469261107894300,4.444894287109375,-0.6616741029500961,-1.0262710929468273,-0.07947334968745708
1761469261117877000,4.454876953125,-0.9887725524187088,-1.2893214331358671,-0.08274141157269477
1761469261127860000,4.46485986328125,-1.3284423141688109,-1.5749392867028713,-0.11375263590812683
1761469261137843200,4.47484326171875,-1.5731652627676724,-1.752378212840855,-0.11176643052697181
1761469261147827200,4.4848271484375,-1.693918132826686,-1.9088585221022367,-0.09376198728084564
1761469261157810000,4.494809814453125,-1.8343214597731827,-1.9956699595928191,-0.06157762751281261
1761469261167793200,4.504793212890625,-1.8630910426616667,-1.865875120422244,-0.034732290685176845
1761469261177777200,4.514777099609375,-1.8191116156816483,-1.6577482105538248,0.05474924279749393
1761469261187760000,4.524760009765625,-1.734002305933833,-1.4674419117972255,0.35301030483841894
1761469261197743000,4.5347431640625,-1.7453110509335994,-1.142534250371158,0.9322931248277425
1761469261207727000,4.54472705078125,-1.490559460273385,-0.575524051977694,1.5997808824926614
1761469261217710000,4.5547099609375,-1.1685913594305515,-0.0674994187772274,1.980308139809966
1761469261227693000,4.564693115234375,-1.0592296519577502,0.2643532394811511,2.0792828933030365
1761469261237676000,4.574676025390625,-0.8469207802295684,0.46891105869114397,2.0882716709226368
1761469261247662000,4.584662109375,-0.5502355892032385,0.8655363411113619,2.1484762565165756
1761469261257646000,4.59464599609375,-0.07723404632806778,1.2963666754722594,2.22648128721714
1761469261267629000,4.604629150390625,0.6445844364613295,1.5660647831127046,2.151729705354571
1761469261277612300,4.6146123046875,1.3961299489945171,1.709030069501698,1.6973972071141004
1761469261287596000,4.624595947265625,1.849888446739316,1.706316426628828,1.1054776083916424
1761469261297579000,4.6345791015625,1.9249533323347567,1.5026514646053313,0.5316816953808069
1761469261307562200,4.644562255859375,1.8378934730410574,1.0857073245167732,-0.019768530309200286
1761469261317546200,4.654546142578125,1.8765227711647747,0.7173080196276307,-0.4622691364586353
1761469261327529200,4.664529296875,2.0065069954276082,0.4810761282593012,-0.657739101588726
1761469261337512000,4.674511962890625,2.2214555680096146,0.35143238799721,-0.6456839221358299
1761469261347496000,4.684495849609375,2.2741578151494264,0.28205256230086084,-0.690852266639471
1761469261357479200,4.694479248046875,2.370806756043434,0.3161415866464376,-0.7379992177397012
1761469261367462100,4.704462158203125,2.420166122496128,0.4303548258036375,-0.6648381199389696
1761469261377444900,4.71444482421875,2.2309546332389116,0.6170201377093791,-0.36078327692747114
1761469261387429000,4.72442919921875,1.9319798699706792,0.7627624875962734,0.0472562566936016
1761469261397412000,4.734412109375,1.4558774384707212,0.8607192962184548,0.2949234420508146
1761469261407395000,4.74439501953125,0.9766057292848825,1.0134560350373387,0.5006371532976627
1761469261417379000,4.754379150390625,0.6582207476258277,1.1207555492833257,0.6658528499394655
1761469261427362300,4.7643623046875,0.41457039669454093,1.2069213823467493,0.7308686352074146
1761469261437345000,4.774344970703125,0.2677928585410118,1.2119061850219963,0.717322340413928
1761469261447329000,4.7843291015625,0.26006547915935513,1.1506126351475714,0.6617997751563787
1761469261457312000,4.79431201171875,0.31178456048071385,0.8918722671121359,0.5723194107174873
1761469261467295200,4.804295166015625,0.44898412294983864,0.4506830358222127,0.4237707712382078
1761469261477278000,4.81427783203125,0.7127320900142192,0.005429623833298683,0.2990069119721651
1761469261487262000,4.824261962890625,0.8448901511847973,-0.21318302421420812,0.3213017458885908
1761469261497245200,4.8342451171875,1.0207038142085074,-0.5022258837938308,0.30153263105750083
1761469261507228200,4.844228271484375,1.0475696093022824,-0.820395469136536,0.21956220385730266
1761469261517212200,4.854212158203125,0.9159498927921056,-1.0503814518526196,0.19733985065519807
1761469261527195000,4.86419482421875,0.7466179930031299,-1.163819614984095,0.1479787306368351
1761469261537178000,4.87417822265625,0.7041478015422821,-1.2233832723259925,0.017555530434846877
1761469261547162000,4.884162109375,0.7209522213488817,-1.2844865603253244,-0.12893091581761837
1761469261557145000,4.89414501953125,0.7052963870555162,-1.289457626736164,-0.33893267964720725
1761469261567128000,4.904128173828125,0.6518441983312367,-1.214530980567634,-0.5564256760150194
1761469261577111000,4.914111083984375,0.5762088193714618,-1.1875327912658453,-0.6781915225088596
1761469261587095000,4.924094970703125,0.47739539391994473,-1.1437938950434325,-0.7918249159514904
1761469261597078000,4.934078125,0.3576432253360748,-1.0759110299065708,-0.7693488802492618
1761469261607061200,4.944061279296875,0.24342297191619872,-1.0548013141214847,-0.7225193245351315
1761469261617045200,4.954045166015625,0.2028945621728897,-1.0819523558974264,-0.6785884128719568
1761469261627028000,4.964028076171875,0.19730302577614783,-1.096882798525691,-0.5886006834328175
1761469261637011000,4.974010986328125,0.17873568795025346,-1.1064435308143497,-0.4880336923122406
1761469261646995000,4.983994873046875,0.13879180009663103,-1.2033873630017042,-0.4842185179382562
1761469261656978200,4.993978271484375,0.09400222577750682,-1.2371850031852722,-0.5400111323088407
1761469261666961200,5.003961181640625,-0.025647651475667953,-1.3024948029637335,-0.5378980856776238
1761469261676945200,5.013945068359375,-0.12281681685149669,-1.2948895886570215,-0.47269349983930586
1761469261686928100,5.02392822265625,-0.3255073808848858,-1.280667586559057,-0.4348609050512314
1761469261696911000,5.0339111328125,-0.5108335531413555,-1.236413142029941,-0.4185387158036232
1761469261706894000,5.04389404296875,-0.6653437313735485,-1.174567511230707,-0.3655582362443208
1761469261716878000,5.053878173828125,-0.6930120750218629,-1.0878294312372803,-0.29082243647277356
1761469261726861000,5.063861083984375,-0.6531073501348496,-1.0316042706683277,-0.27382453992068767
1761469261736844000,5.073843994140625,-0.623197365039587,-0.9604176878109574,-0.29161154102385045
1761469261746828000,5.083828125,-0.5801484969079495,-0.8004492441728711,-0.3236094383090734
1761469261756814800,5.09381494140625,-0.444731141680479,-0.618995529435575,-0.3240641963392496
1761469261766798000,5.103798095703125,-0.3057207303971052,-0.4562137819424271,-0.23741584045588968
1761469261776781000,5.113781005859375,-0.15712883629798888,-0.317953604504466,0.07049450893998145
1761469261786764800,5.123764892578125,-0.20066928733885286,-0.2938289248123765,0.5232558123409747
1761469261796748000,5.133748046875,-0.3080032883763313,-0.3441358012482524,1.0852034666478634
1761469261806731000,5.14373095703125,-0.13962941996455192,-0.27868893108665943,1.6166314795285461
1761469261816715000,5.153715087890625,0.08896832326352595,-0.12252689399421214,1.998489693188667
1761469261826698000,5.163697998046875,-0.0001911386579275131,-0.020161621280014513,2.2780033846616745
1761469261836681000,5.173680908203125,-0.5211474418848753,0.03307283304035664,2.299332003894448
1761469261846665000,5.1836650390625,-1.079150157958269,0.18775719879567623,2.0897586946099995
1761469261856648000,5.19364794921875,-1.295349022862315,0.4269564155369997,1.7726187445759771
1761469261866631000,5.203630859375,-1.2081833651065825,0.7652922983348369,1.400309865027666
1761469261876614000,5.21361376953125,-0.8454898706436157,1.1166603889241813,1.1288415328443049
1761469261886598000,5.223597900390625,-0.36743455151021476,1.3548752708032727,0.9546680382430552
1761469261896580900,5.233580810546875,0.14228314934372902,1.4172078083366155,0.8675736921578645
1761469261906564000,5.243564208984375,0.7835422407746314,1.3605495170474051,0.8066267637640238
1761469261916548000,5.253548095703125,1.481021816599369,1.2509700751706958,0.827100227472186
1761469261926531000,5.263531005859375,2.018432995542884,1.120128357295692,0.7248585811376571
1761469261936513800,5.273513671875,2.2557015364825723,0.9053051646590232,0.5061731601148843
1761469261946497800,5.283497802734375,2.320413954889774,0.7669055787503719,0.2006768861234188
1761469261956481000,5.29348095703125,2.2580805405735966,0.6826911720156669,-0.0625321517586708
1761469261966464000,5.303464111328125,1.8778017050594091,0.6881804170817136,-0.2570721425622701
1761469261976447000,5.313447021484375,1.3139385725200174,0.6630199646010995,-0.36637656688988207
1761469261986431000,5.323430908203125,0.7276198625445366,0.7211088732153177,-0.41379064449369907
1761469261996414000,5.3334140625,0.20076748701632022,0.8319891685575246,-0.3351233504921198
1761469262006397000,5.34339697265625,-0.10061609095931053,0.9162380620837212,-0.23393735069036484
1761469262016381000,5.353380859375,-0.28374446091055866,0.9854460383445024,-0.20521102242171763
1761469262026364000,5.363364013671875,-0.5515034171819686,1.0646724275335668,-0.20945055968761442
1761469262036347000,5.373346923828125,-0.5945107842594385,1.0621829488053918,-0.31573066775798797
1761469262046331000,5.383330810546875,-0.4027168772935867,0.9995669181555509,-0.33499007950127124
1761469262056314000,5.393314208984375,-0.22950609024465082,0.9289788857132196,-0.30867139689624307
1761469262066297000,5.403297119140625,0.07803717940449714,0.7081888936266303,-0.4568436042785644
1761469262076279800,5.41327978515625,0.22268238170444965,0.5900052895337343,-0.5864274310469627
1761469262086263800,5.423263916015625,0.23685411491990088,0.5835428155213594,-0.5975631575673819
1761469262096247000,5.4332470703125,0.19443243877589703,0.616324848921597,-0.6064730247318745
1761469262106230000,5.44322998046875,0.1941413468748331,0.682303049480915,-0.6051578504800796
1761469262116214000,5.453214111328125,0.15973346583843231,0.8221610175043343,-0.6095657300502062
1761469262126196700,5.46319677734375,0.2576455585360527,0.9331588017463683,-0.5960165126472711
1761469262136180000,5.473179931640625,0.21553543255925178,0.89980948985219,-0.6763286512464285
1761469262146163000,5.483162841796875,0.1891997988194227,0.7755147094026208,-0.779027978220582
1761469262156147000,5.49314697265625,-0.12807459124922752,0.7234352703362703,-0.7619488331258296
1761469262166130200,5.503130126953125,-0.4548597369849682,0.5944166762351989,-0.5628454799294471
1761469262176113000,5.51311279296875,-0.3345511035621166,0.3575280745238065,-0.592900426453352
1761469262186097000,5.523096923828125,-0.5165279653906822,0.2435328620314598,-0.5041612357705831
1761469262196079900,5.533079833984375,-0.5585825617879628,0.08347177167385816,-0.5650432822346687
1761469262206063000,5.54306298828125,-0.5979501110583544,-0.0633078123062849,-0.7767366524130106
1761469262216047000,5.553047119140625,-0.3907657427370548,-0.1954875007867813,-0.9394979416400193
1761469262226029800,5.56302978515625,-0.1514756328418851,-0.266570915530622,-1.1739198609769343
1761469262236013000,5.573012939453125,-0.3779389943897724,-0.2867123708054423,-1.3214286360144614
1761469262245996000,5.58299609375,-0.4180433335021138,-0.40677375146895645,-1.3717524635851381
1761469262255980000,5.59297998046875,-0.43770840343683953,-0.4434402250871062,-1.4654501534581184
1761469262265963000,5.602962890625,-0.42983343227803705,-0.6078679862216114,-1.5229413884401322
1761469262275946000,5.612946044921875,-0.6567980213463306,-0.7038324519827962,-1.430808463665843
1761469262285930000,5.622929931640625,-0.7673293571203946,-0.7940981215804814,-1.391104229786992
1761469262295913000,5.632912841796875,-0.8789385512590407,-0.9366612569093704,-1.4108663303554057
1761469262305896000,5.64289599609375,-1.069592056018114,-1.0075652234330772,-1.486505216446519
1761469262315879000,5.65287890625,-1.231647827324271,-1.1122981020614504,-1.5490437979459761
1761469262325863000,5.66286279296875,-1.3109025658249853,-1.1922285478666423,-1.645375343453884
1761469262335846000,5.672845947265625,-1.239870881268382,-1.25731242993474,-1.6845944241642952
1761469262345829000,5.6828291015625,-1.0951882695674895,-1.305478202688694,-1.6853882048904896
1761469262355813000,5.692813232421875,-0.9354676632106304,-1.323993810327351,-1.7132815894663334
1761469262365795800,5.7027958984375,-0.6325830330222845,-1.2255109320044517,-1.81869777418375
1761469262375778800,5.71277880859375,-0.2450707391232252,-1.0522659504249692,-1.8764801010668277
1761469262385762800,5.7227626953125,0.009665361706912517,-0.6984583577290177,-1.8831909968823193
1761469262395746000,5.73274609375,-0.0887634483411908,-0.3743187580659985,-1.837431700748205
1761469262405729000,5.74272900390625,-0.46516894955337046,-0.16324381204694507,-1.736221735548973
1761469262415712000,5.7527119140625,-0.968637526884675,0.030796997062861917,-1.551242769294977
1761469262425696000,5.762696044921875,-1.546643751066923,0.06796031428724526,-1.120909570801258
1761469262435679000,5.772678955078125,-2.1252812588900327,0.01984802528619766,-0.5660223563998937
1761469262445662000,5.782661865234375,-2.471005498373508,0.06500058769881725,0.015266542714834212
1761469262455646000,5.79264599609375,-2.588113874450326,0.043157589203119275,0.6350578987032175
1761469262465629000,5.80262890625,-2.5309561092063784,0.02044277630895376,1.1175018081843853
1761469262475612000,5.81261181640625,-2.421514029973745,0.1840244420081377,1.648920468714833
1761469262485595000,5.822594970703125,-2.488945644211769,0.3685056878730654,2.286915589913726
1761469262495579000,5.832578857421875,-1.9372838215976953,0.6444084953725338,2.945651885846257
1761469262505562000,5.84256201171875,-0.7794441578060388,1.2203721078112721,3.5650691478252408
1761469262515544800,5.852544921875,-0.08374211304783821,1.4667811098009347,4.061232370579242
1761469262525528800,5.86252880859375,0.15004560003876685,1.3352300746127963,4.196441636013985
1761469262535512000,5.872511962890625,0.3833037362933159,0.9778262109905481,3.8536248084098097
1761469262545495000,5.8824951171875,0.840136819177866,0.6612631840616464,3.2627094182938334
1761469262555477800,5.892477783203125,1.2925994318932295,0.3963961498394608,2.5544261243820188
1761469262565461800,5.902461669921875,1.3633143055856227,0.0032046412602066993,1.7003601485729216
1761469262575445000,5.912445068359375,1.2219085235983134,-0.10905746382921934,0.7324883453637361
1761469262585428000,5.922427978515625,1.3799392771720886,0.059438861918449395,0.030260698229074477
1761469262595412000,5.932411865234375,1.786571282082796,0.021705635851621625,-0.400407431307435
1761469262605395200,5.942395263671875,2.1774176888406274,-0.01717062277048826,-0.8474491880178451
1761469262615378000,5.9523779296875,2.4445494531244036,0.05402355887144804,-1.1808446918040514
1761469262625362000,5.96236181640625,2.5644138499110936,0.16275836661756038,-1.3563152404785155
1761469262635345000,5.972344970703125,2.5140514438956973,0.27374153781235216,-1.4124153133630752
1761469262645328100,5.982328125,2.2816642452567812,0.3338689665168524,-1.2304910585045814
1761469262655310800,5.992310791015625,2.104894888943434,0.5657137288421392,-0.6313280645251274
1761469262665294800,6.002294921875,1.6470622736275196,0.7109875844344496,-0.15724281806647777
1761469262675277800,6.01227783203125,0.9015162937700748,0.8343024139359593,0.07334814480543136
1761469262685261000,6.022260986328125,0.2757353419780731,0.9771914202183485,0.2665904970139265
1761469262695245000,6.0322451171875,-0.15049801998138426,1.1007546715229748,0.35639527110159397
1761469262705227800,6.042227783203125,-0.3510392970263958,1.2115239077061415,0.3331307153701782
1761469262715211000,6.0522109375,-0.2316208904415369,1.2217238146811722,0.20817747101187706
1761469262725194000,6.062194091796875,-0.01281798051893711,1.2387702265501022,0.0795855778902769
1761469262735178000,6.072177978515625,0.25301205351650713,1.105758178898692,-0.08519874159693717
1761469262745161000,6.082160888671875,0.6692565209031105,0.9072755879491567,-0.22170915275812147
1761469262755140400,6.092140380859375,1.0605459952533245,0.8356070667937398,-0.2156032370984554
1761469262765124400,6.102124267578125,1.3141291266560553,0.5323953966081142,-0.1379962658047676
1761469262775107300,6.112107421875,1.3849474607229233,0.24717151079475877,-0.15883271760642528
1761469262785090600,6.122090576171875,1.4388655133932828,-0.04209609745144844,-0.18497312103509903
1761469262795074300,6.13207421875,1.449876152229309,-0.2689870367616415,-0.23718612335324285
1761469262805057300,6.142057373046875,1.3531892174124718,-0.31626345946043727,-0.21776596809029578
1761469262815040300,6.152040283203125,1.1223515863031148,-0.3494388760924339,-0.20440087508261204
1761469262825023500,6.1620234375,0.9444728074431419,-0.4242082858726382,-0.3778916481167078
1761469262835007500,6.172007568359375,0.7011755077332258,-0.498318354961276,-0.5311877743840218
1761469262844990200,6.181990234375,0.5557651662796735,-0.5071396670594811,-0.6182388658493757
1761469262854973400,6.191973388671875,0.4203495646178722,-0.5579664757162333,-0.7168558919459581
1761469262864957400,6.20195751953125,0.22100071222782133,-0.6339949456468225,-0.8259235849082469
1761469262874940400,6.2119404296875,0.06067278762757778,-0.7568345588520169,-0.815587484332919
1761469262884923400,6.22192333984375,-0.054290393114089966,-0.8783747798964381,-0.679934566783905
1761469262894906400,6.23190625,-0.19493220499157904,-0.9857873991280793,-0.4779676408499479
1761469262904890400,6.241890380859375,-0.2534194652736187,-1.1170736459001898,-0.30815351050198075
1761469262914873300,6.251873291015625,-0.1789297492176294,-1.276494100266695,-0.21567980946600435
1761469262924856300,6.261856201171875,-0.10489362214803695,-1.4053130801424383,-0.19029986901581286
1761469262934840300,6.27184033203125,-0.22852613929659127,-1.5021306556016205,-0.2173983038216829
1761469262944823300,6.2818232421875,-0.37311698106080293,-1.6130468990400433,-0.33899288540184497
1761469262954806300,6.29180615234375,-0.538779836948216,-1.578084014469385,-0.4468891964972019
1761469262964789500,6.30178955078125,-0.6726631144762039,-1.38283645991832,-0.4396966546446085
1761469262974773500,6.3117734375,-0.49964521965086456,-1.3114768585816026,-0.5741127238750457
1761469262984756200,6.321756103515625,-0.37813656278848645,-1.2606868748039006,-0.7705553334295749
1761469262994739200,6.3317392578125,-0.35597850699424743,-1.1729010393232107,-0.8998539135158061
1761469263004723200,6.34172314453125,-0.23581249691247938,-1.048299092620611,-0.9177689249128103
1761469263014706400,6.35170654296875,-0.11121931803822517,-0.8956745820045471,-0.8861240788489579
1761469263024689400,6.361689453125,-0.08863543804734945,-0.731076725000143,-0.7657792050689458
1761469263034672400,6.37167236328125,-0.3040197716981172,-0.6981523605197668,-0.5645294874936342
1761469263044656400,6.381656494140625,-0.7566016268789768,-0.7131833409130572,-0.39706396609842776
1761469263054639400,6.391639404296875,-1.169502044534683,-0.7356609840504824,-0.2721937238484621
1761469263064622300,6.401622314453125,-1.426006031820178,-0.7491618322670459,-0.11378770722150802
1761469263074606300,6.4116064453125,-1.444184078067541,-0.7133896771401167,0.07065759054720401
1761469263084589300,6.42158935546875,-1.41602415151,-0.5962617195799946,0.31783202395141125
1761469263094572300,6.431572265625,-1.3346259712398052,-0.5506377402633428,0.606576485106349
1761469263104555300,6.44155517578125,-1.2284838103353977,-0.5044743933729827,0.790036863490939
1761469263114539300,6.451539306640625,-1.2225444834142922,-0.5125904798112809,0.9717851772606372
1761469263124522500,6.4615224609375,-1.3001853569775819,-0.5695430778719485,1.1102952378064392
1761469263134505200,6.471505126953125,-1.386773507106304,-0.6493522353850305,1.205485796585679
1761469263144489200,6.4814892578125,-1.4467226566344498,-0.67511825254336,1.2452800468355416
1761469263154472400,6.491472412109375,-1.3459341317176818,-0.5252917020827531,1.3736258562415837
1761469263164455400,6.501455322265625,-1.1679296806514263,-0.12374167661145329,1.4778151295125483
1761469263174438100,6.511438232421875,-1.126038165861368,0.47148310113623737,1.5161165108561514
1761469263184422100,6.521422119140625,-1.0345312640309334,0.9837959330499172,1.4731021295160054
1761469263194405400,6.5314052734375,-0.5900818619012832,1.377355398158729,1.3382605283498763
1761469263204388400,6.541388427734375,0.2022930891484022,1.72245902152583,1.2224094588577747
1761469263214372400,6.551372314453125,1.293566231098771,1.9241478611707685,1.1465922935903072
1761469263224355600,6.56135546875,2.384380523365736,1.9410694776162505,1.1240455307394266
1761469263234338300,6.57133837890625,2.911878211060166,1.7041203778892755,1.0728343989402056
1761469263244321300,6.5813212890625,2.8475480699688194,1.3281884855382144,0.9388210652917623
1761469263254305300,6.59130517578125,2.696468450707197,0.9111554981224238,0.6524994473695754
1761469263264288500,6.60128857421875,2.4818711757808924,0.4942204181231558,0.18230244052112102
1761469263274271200,6.611271240234375,2.1088369045674797,0.15167743902429937,-0.34906536660492415
1761469263284255200,6.621255126953125,1.6400702227830886,0.15915055138394235,-0.6973673476219177
1761469263294238200,6.63123828125,1.3138134848356247,0.5543927088826894,-0.7084124732494353
1761469263304221400,6.641221435546875,1.0412772311598062,0.8995692513555288,-0.6697194622397422
1761469263314204400,6.651204345703125,0.809576845741272,1.1186539008289575,-0.5662900674253701
1761469263324188200,6.661188232421875,0.5314169069647788,1.3527458575591444,-0.1865647741407156
1761469263334171400,6.67117138671875,0.10788754326701164,1.4469817459620535,0.24708032537996769
1761469263344154400,6.681154296875,-0.3056850745618343,1.2853477071993051,0.5862433066517114
1761469263354138400,6.691138427734375,-0.485766916424036,0.9697698919154703,0.8847399310141801
1761469263364121300,6.701121337890625,-0.31707331453859805,0.5848349011585116,0.9858195478320121
1761469263374104300,6.711104248046875,0.014566285490989685,0.2786827936068177,0.9543950665205716
1761469263384087300,6.72108740234375,0.3100596363842487,0.04930529817789793,0.8792857572615146
1761469263394071300,6.7310712890625,0.5638847598493099,-0.07638853541463612,0.7341314363956452
1761469263404054500,6.741054443359375,0.7945289142131805,-0.17868468841537832,0.5456587828069925
1761469263414037200,6.751037353515625,0.8683066826075315,-0.2713756854638457,0.3538035010427236
1761469263424021200,6.761021240234375,0.8197393433153629,-0.31192981417030097,0.12267360898852347
1761469263434004200,6.771004150390625,0.6976455800414085,-0.21000147156864404,-0.12229951497912406
1761469263443987500,6.780987548828125,0.5478495708495378,-0.027598201021552086,-0.29912673895955083
1761469263453970400,6.790970458984375,0.4049409830838442,0.09899930341243743,-0.505851088553667
1761469263463954400,6.800954345703125,0.09025836307406425,0.14822174561247228,-0.7550567355245351
1761469263473937200,6.810937255859375,-0.18632161303460598,0.0830474087819457,-0.9029624009251594
1761469263483920400,6.82092041015625,-0.34536826565265655,-0.015513503213226794,-1.0829162324935198
1761469263493904400,6.830904296875,-0.33125907627940177,-0.09755611886680125,-1.3205302258700131
1761469263503887400,6.840887451171875,-0.22022797428965568,-0.12502426376789808,-1.5409434935986994
1761469263513870300,6.850870361328125,-0.14229425525963305,-0.09597089550197124,-1.6198843438446522
1761469263523853300,6.860853271484375,-0.10900807172954081,-0.10009557421654462,-1.5721370887637138
1761469263533837300,6.87083740234375,-0.11273615234196185,-0.16603256598263977,-1.5497873097896575
1761469263543820300,6.8808203125,-0.16354104142785073,-0.16770196049958466,-1.5822849732905626
1761469263553803500,6.890803466796875,-0.21949966001510618,-0.31548195369392634,-1.5558546470046042
1761469263563787500,6.90078759765625,-0.31498247973918914,-0.4362020905271172,-1.5302332990139722
1761469263573770200,6.910770263671875,-0.4997779061198234,-0.5607625361755489,-1.5517589021235703
1761469263583753500,6.92075341796875,-0.673255819672346,-0.7494055778950452,-1.6351503020375966
1761469263593736400,6.930736328125,-0.7591606637120246,-0.8311693766072392,-1.685100035598874
1761469263603720400,6.940720458984375,-0.7773129909962415,-0.9819386147454381,-1.712071629154682
1761469263613703200,6.950703125,-0.758445793440938,-1.0964560975462199,-1.7229805611819027
1761469263623686400,6.960686279296875,-0.7260679569274187,-1.0981924198195339,-1.6494178968429565
1761469263633670400,6.97067041015625,-0.6325467926651239,-1.004402667748928,-1.5625813249111176
1761469263643653400,6.9806533203125,-0.5607224964261055,-0.909792831467092,-1.5142372729808091
1761469263653636400,6.99063623046875,-0.5251625227451324,-0.8205848542287946,-1.4785066189080476
1761469263663619300,7.000619384765625,-0.2523380997776985,-0.5470236414194106,-1.403392633473873
1761469263673603300,7.010603271484375,-0.008874211329221724,-0.23658991102576254,-1.2670353670477867
1761469263683586300,7.02058642578125,-0.07120528755784035,-0.05867459954768419,-1.1352929009407757
1761469263693569500,7.030569580078125,-0.22325229054689405,0.00009673837274312972,-0.8775988270878792
1761469263703553500,7.040553466796875,-0.3172919257253408,0.03595803308784962,-0.3567313711881637
1761469263713536300,7.050536376953125,-0.5838385835975408,0.04976239429563284,0.1686088462114334
1761469263723519200,7.060519287109375,-0.8661836991041898,0.15235358472019433,0.5743184755802154
1761469263733502500,7.07050244140625,-1.113508939155936,0.28374358412772416,0.8913514581084251
1761469263743486500,7.080486572265625,-1.4077309549391268,0.3755255035072565,1.0561468835115433
1761469263753469200,7.09046923828125,-1.6628163075983524,0.36086189512163397,1.0054857868105171
1761469263763452400,7.100452392578125,-1.7704285410553215,0.13103110296726225,0.6003010580986737
1761469263773436400,7.1104365234375,-1.778520077574253,-0.24125731831490993,0.04068096995651722
1761469263783419100,7.120419189453125,-1.8287591494709252,-0.41846097439229485,-0.3025304099231958
1761469263793402000,7.130402099609375,-1.7159703901588916,-0.4900438630908727,-0.22818916242718695
1761469263803385300,7.14038525390625,-1.5086410604089497,-0.5933803189247846,0.23053426424860954
1761469263813369300,7.150369384765625,-1.4638438873052597,-0.5748518518045544,1.0026502711236476
1761469263823352000,7.16035205078125,-1.3509054903894662,-0.30820874782055613,1.8252859204024074
1761469263833335000,7.1703349609375,-1.220519699588418,0.020813070926070213,2.383265255600214
1761469263843318300,7.180318359375,-1.1709656873464585,0.13783464550226926,2.7571184419810773
1761469263853302300,7.19030224609375,-0.9541162495791912,0.370403338187933,3.122012661358714
1761469263863285200,7.20028515625,-0.45440673252046104,0.5286456886857748,2.905128736799955
1761469263873268200,7.210268310546875,0.006099485918879509,0.7788242723420262,2.2931430861264466
1761469263883252200,7.220252197265625,0.2420470073878765,1.0822677054569125,1.566882821497321
1761469263893235200,7.230235107421875,0.5719032311320305,1.3678010956108568,1.017796986851096
1761469263903218200,7.24021826171875,1.0594552774071693,1.590323902839422,0.561834841582179
1761469263913201400,7.250201416015625,1.5799989081799983,1.6692124383762479,0.14894319175481796
1761469263923185200,7.26018505859375,1.8701485599577425,1.5154317434623836,-0.1912351040393114
1761469263933168000,7.270168212890625,1.951340988522768,1.244876434470713,-0.48468788901567456
1761469263943151400,7.2801513671875,2.00282976821959,0.8782450160369276,-0.7045049444168806
1761469263953135400,7.29013525390625,2.189582758408785,0.5392269961938262,-0.8120265769809484
1761469263963118300,7.300118408203125,2.3861714984357354,0.16964403447806833,-0.7420370949536561
1761469263973101000,7.31010107421875,2.5852555624097584,-0.09649491937607527,-0.530512067079544
1761469263983084300,7.320084228515625,2.7665508717149496,-0.17616729876697063,-0.25240064361989495
1761469263993068300,7.330068359375,2.7554432022452353,-0.17718904303014277,0.1344540631532669
1761469264003051300,7.34005126953125,2.519223878097534,-0.19564386039227247,0.46023850741386413
1761469264013034000,7.350033935546875,2.1780109785586594,-0.2362427050232887,0.57154959538877
1761469264023018200,7.360018310546875,1.6948831784665583,-0.08724895212501287,0.6038537821441888
1761469264033001200,7.370001220703125,1.3285194710582493,0.13603402582108973,0.706309363490343
1761469264042984200,7.379984130859375,0.9595967268168926,0.2875266097977757,0.6492325545281171
1761469264052967400,7.389967529296875,0.5487655166506767,0.41335429890304803,0.5100561390280723
1761469264062951400,7.399951416015625,0.27845687589645385,0.42599312346279616,0.37114860359728336
1761469264072934100,7.40993408203125,0.04220598756670951,0.5387921119078993,0.21378186689019202
1761469264082917000,7.419917236328125,0.15066402419805525,0.601656564360857,0.09009645051062107
1761469264092901000,7.429901123046875,0.42098377086818217,0.6734314685001969,0.061978609529137606
1761469264102884400,7.43988427734375,0.674828183555603,0.5164288889303803,0.12373802334964275
1761469264112867000,7.4498671875,0.8873048130661249,0.1773290360227227,0.1230085400313139
1761469264122850300,7.459850341796875,1.1001157890975475,-0.12104600778669118,0.12182605224847792
1761469264132834300,7.469834228515625,1.2342045260697603,-0.3780520993754267,0.17845044126808643
1761469264142817300,7.4798173828125,1.2756681708365678,-0.5208075424060226,0.21297113502919673
1761469264152800300,7.48980029296875,1.2424345942765473,-0.6474316425859927,0.19424422272741793
1761469264162783200,7.499783203125,1.0355945093482732,-0.7676265865013003,0.16306933226287365
1761469264172767200,7.509767333984375,0.8343909690022469,-0.8452490476250648,0.017446224841475486
1761469264182750200,7.519750244140625,0.7584557303130626,-0.910835326257348,-0.23983985273241995
1761469264192733200,7.529733154296875,0.6881064750626683,-0.9615896541997789,-0.4926169284492731
1761469264202717200,7.53971728515625,0.5991524725854397,-1.0180521306559442,-0.7143377716451883
1761469264212700200,7.5497001953125,0.6058125149965286,-0.9475880168542266,-0.8496896604210138
1761469264222683100,7.55968310546875,0.6567196954131126,-0.8311132625058293,-0.8104875308454036
1761469264232666400,7.569666259765625,0.5470835549131036,-0.726529729220271,-0.6949485960423946
1761469264242650400,7.579650390625,0.41722295702993867,-0.6671262308761478,-0.6227256558746099
1761469264252633300,7.58963330078125,0.2640454887062311,-0.709039957498014,-0.6063461834818125
1761469264262616000,7.599615966796875,0.11183131245672702,-0.7821484483286738,-0.6008183599710464
1761469264272600000,7.60960009765625,-0.051801206646859645,-0.8992787439763545,-0.5465700524330139
1761469264282583300,7.619583251953125,-0.16830343352407215,-1.0278136462137102,-0.5740946036964655
1761469264292566300,7.629566162109375,-0.20595365748256445,-1.1302788721710444,-0.6286708280146122
1761469264302549200,7.63954931640625,-0.2954465891420841,-1.186578559280932,-0.6777455323070287
1761469264312533200,7.649533203125,-0.3458189320296049,-1.3106398232355714,-0.6942477542966604
1761469264322516200,7.65951611328125,-0.3954851724743843,-1.435972714561224,-0.7043500461161136
1761469264332499200,7.669499267578125,-0.43916532424688337,-1.5087690707027912,-0.6869611044198274
1761469264342482400,7.679482421875,-0.4709785126149654,-1.4608587340146302,-0.658699471053481
1761469264352466200,7.689466064453125,-0.2940697478309274,-1.3136489419236779,-0.5130816243290901
1761469264362449200,7.69944921875,-0.20795009199678896,-1.235532852064073,-0.5041910463869571
1761469264372432100,7.70943212890625,-0.1940145056247711,-1.147713406574726,-0.487020131355524
1761469264382416100,7.719416015625,-0.2922662055402994,-1.0754030803844332,-0.3879407484441995
1761469264392399400,7.7293994140625,-0.44851182926297184,-1.1145759838655591,-0.197483643040061
1761469264402382000,7.739382080078125,-0.597989858546853,-1.110133617503941,-0.04727496139407158
1761469264412365300,7.749365234375,-0.6307502646371722,-1.0427090175285936,0.14098551074862478
1761469264422349300,7.759349365234375,-0.5802832292035222,-0.9657435590088367,0.39123394477069373
1761469264432332300,7.769332275390625,-0.7973176681488752,-0.8536421974390744,0.5630892255574464
1761469264442315000,7.77931494140625,-1.0728533959016204,-0.7340098558425903,0.7140671380102634
1761469264452299000,7.789299072265625,-1.0803791152313351,-0.64219608002007,0.7999567844808101
1761469264462282200,7.7992822265625,-0.972244319204986,-0.5119339155986905,0.8190484384417533
1761469264472265200,7.80926513671875,-0.9000342385187745,-0.376117624181509,0.8101514307588339
1761469264482248200,7.819248291015625,-0.8690729908049106,-0.33483021276444197,0.7802899609804153
1761469264492232400,7.829232421875,-0.8700640476688742,-0.3306336378574371,0.7922609692811966
1761469264502215200,7.839215087890625,-0.9840957927793264,-0.3800263220578432,0.9005454029113054
1761469264512198100,7.8491982421875,-1.074103395962715,-0.2889838228687644,1.10195703305006
1761469264522181400,7.859181396484375,-0.9633628013521432,0.07461977217644453,1.246717386162281
1761469264532165400,7.869165283203125,-0.7315273913770913,0.5591144767075776,1.3875427379131315
1761469264542148000,7.879148193359375,-0.5484048666447401,1.005737715744972,1.317658469825983
1761469264552131000,7.889131103515625,-0.22867256202995775,1.2350536902450024,1.1640706671357155
1761469264562115000,7.899114990234375,0.381615637075901,1.314511257841438,1.1239426548868416
1761469264572098300,7.909098388671875,1.2494780830472707,1.4030381209477782,1.2428624642997979
1761469264582081300,7.919081298828125,1.9668232198148965,1.3330294958285986,1.3496815015524626
1761469264592064300,7.929064208984375,2.37004980019629,1.2015860126681626,1.362744981265068
1761469264602048300,7.93904833984375,2.3283798192024228,0.9944935604140162,1.2435831797897814
1761469264612031200,7.94903125,2.2817501699745653,0.6093374742522836,0.9921434901565312
1761469264622014200,7.95901416015625,2.1776503285527227,0.32650442909821864,0.6529132888674736
1761469264631998200,7.968998291015625,2.1061872668415305,0.17086612361893055,0.3045359045267105
1761469264641981200,7.978981201171875,1.760289716617763,0.11367533288821577,-0.13925357238948344
1761469264651964200,7.988964111328125,1.355665544398129,0.31924846662059425,-0.37795360743701456
1761469264661945000,7.998945068359375,0.9592673487320542,0.6008288813650607,-0.34142858811616894
1761469264671928000,8.008927978515626,0.5635363848030567,0.8392683657802641,-0.2110153247863054
1761469264681911300,8.018911376953126,0.22529811716079712,1.0242537617750465,-0.012241641935706139
1761469264691894300,8.028894287109376,0.023241174855828283,1.1370726239643991,0.1561480085670948
1761469264701878300,8.038878173828126,-0.22632512212097644,1.206085369914025,0.46495618358552454
1761469264711861200,8.048861328125,-0.49372401290833945,1.102816426358372,0.7403378898203372
1761469264721844200,8.05884423828125,-0.573446368920803,0.8574208391949534,0.8408183717012405
1761469264731828200,8.068828125,-0.44988779379129407,0.6194437115944922,0.869756881415844
1761469264741811200,8.078811279296875,-0.21481705515682695,0.43443011241853235,0.8545727562874555
1761469264751794200,8.088794189453125,0.026706805139780042,0.22717837794944643,0.7727063739836215
1761469264761777400,8.09877734375,0.4343137925624847,-0.002904489269852638,0.6283955182045697
1761469264771761400,8.108761474609375,0.7287357148319482,-0.15085954677015542,0.4947539404779672
1761469264781744000,8.118744140625,0.8369359773099422,-0.2793140772476792,0.298945537173748
1761469264791727400,8.128727294921875,0.9540776711344718,-0.3401037692531943,0.06407704311311245
1761469264801710300,8.13871044921875,1.0490683234274387,-0.39564036303609607,-0.17411270432472228
1761469264811694300,8.1486943359375,0.9405740464389324,-0.36608401368409393,-0.35881343815922734
1761469264821677600,8.158677490234375,0.7105471471905708,-0.2857787432171404,-0.5534428608119487
1761469264831660300,8.168660400390625,0.5696200886309146,-0.2528593471728265,-0.8066758636027574
1761469264841644300,8.178644287109375,0.3331400677204132,-0.24531346183791755,-0.9768769474416971
1761469264851627300,8.188627197265625,0.19851883130669593,-0.288284296297282,-1.1348714606583117
1761469264861610500,8.198610595703125,0.07115735676288604,-0.3392195337645709,-1.294448274630308
1761469264871593200,8.20859326171875,0.03656067515611648,-0.43799262720569965,-1.4255828379720448
1761469264881577200,8.2185771484375,0.08248188385367393,-0.46947176131382584,-1.4659335530608892
1761469264891560200,8.228560302734374,0.0983387936770916,-0.43910979466736316,-1.4107833282470703
1761469264901543400,8.23854345703125,0.019954992792010306,-0.31163404609411954,-1.2783213156938553
1761469264911527400,8.24852734375,-0.17951719371676444,-0.2307581361323595,-1.1341425618618726
1761469264921510400,8.258510498046874,-0.3281903363585472,-0.10976239722818136,-1.0728700547754764
1761469264931493400,8.268493408203126,-0.5543061996430159,-0.07025047105103731,-1.148494912341237
1761469264941476400,8.278476318359376,-0.7108727258831262,-0.1927797031328082,-1.2390128031343222
1761469264951460400,8.28846044921875,-0.7940186266034841,-0.3014405688598752,-1.3428636382311583
1761469264961443300,8.298443359375,-0.7724661354869604,-0.41808074290305375,-1.4038450534164906
1761469264971426300,8.30842626953125,-0.6296738675773144,-0.5808867480546236,-1.4577496620833872
1761469264981409300,8.3184091796875,-0.6092945118933916,-0.6776224904492497,-1.5039087711900472
1761469264991393300,8.328393310546875,-0.5592161835163831,-0.6883049202442169,-1.4782926838964223
1761469265001376500,8.33837646484375,-0.3395674704194069,-0.6474401181533932,-1.4426152213156223
1761469265011359500,8.348359375,-0.1681073264300823,-0.5987567512661218,-1.3294868547856806
1761469265021343200,8.35834326171875,-0.2215998471647501,-0.5361474426180124,-1.2308113765001296
1761469265031326200,8.368326171875,-0.3723755150437355,-0.29517274063676596,-1.0818646776139735
1761469265041309400,8.378309326171875,-0.4033358859747648,0.012022738488018513,-0.8748059814989566
1761469265051292400,8.38829248046875,-0.19069792842268943,0.3013987755447626,-0.6580109042674303
1761469265061276400,8.3982763671875,-0.15144436092078684,0.47317689944207664,-0.4868400986135006
1761469265071259100,8.408259033203125,-0.4069160825490951,0.5766492566153407,-0.27233926979899403
1761469265081242400,8.418242431640625,-0.7254261518925428,0.6162248956784606,0.0024807108998298644
1761469265091225300,8.428225341796875,-0.8597907831966877,0.5894809733986854,0.20311551144719123
1761469265101209300,8.438209228515625,-0.9139332922726869,0.5835767177909612,0.2923246577292681
1761469265111192300,8.4481923828125,-0.9548965863019228,0.6393555958971381,0.425566422483325
1761469265121175300,8.45817529296875,-1.1272235762536524,0.7042778576627373,0.44992403414845467
1761469265131159300,8.4681591796875,-1.4111837257415056,0.6998509811311959,0.48142567234933376
1761469265141142300,8.478142333984374,-1.541836058524251,0.6189762402132153,0.7122901914656162
1761469265151125500,8.48812548828125,-1.5326403601557015,0.5619608060494065,1.0770891337752342
1761469265161108200,8.498108154296874,-1.3944734139591455,0.4236629269495606,1.5389274776011705
1761469265171092200,8.50809228515625,-1.3089379877537488,0.2585688108608126,1.9294670103669165
1761469265181075500,8.518075439453124,-1.3516396498829126,0.12027063950002193,2.193517175248265
1761469265191058400,8.528058349609376,-1.2626654814004898,-0.06439969919621943,2.233478598758578
1761469265201041400,8.53804150390625,-0.9751356567323207,-0.10388999806344508,2.30779588085711
1761469265211025200,8.548025146484376,-0.46553953643143176,-0.0674509034603834,2.3114526497989893
1761469265221008400,8.55800830078125,0.2803320221185684,0.12445581623017787,1.9786486821651457
1761469265230991400,8.567991455078126,0.7997533708631992,0.5982087619945406,1.3455910173684358
1761469265240977400,8.577977294921874,1.1866706214785576,0.912045871090889,0.7863578827172517
1761469265250961400,8.58796142578125,1.7520143479645252,0.9810179927691817,0.27628186994493004
1761469265260944400,8.5979443359375,2.03569158885777,0.9806918295547365,0.027688801914453505
1761469265270927400,8.60792724609375,2.1706489253580568,0.791560712057352,-0.192280229178071
1761469265280910300,8.617910400390626,2.3102304145276547,0.6459791056901216,-0.38509061971008773
1761469265290894300,8.627894287109376,2.383841009661555,0.37512598279565573,-0.38661914445161816
1761469265300877300,8.637877197265626,2.4943910501360893,0.12471096003502606,-0.3305354381799698
1761469265310860300,8.6478603515625,2.6419121001332995,-0.023890286414325237,-0.11903145309388637
1761469265320843500,8.657843505859375,2.71921570456624,-0.06992489235848189,0.22571897292137144
1761469265330827300,8.6678271484375,2.4319500837922097,-0.07329086166024208,0.4952823482662439
1761469265340810200,8.677810302734375,2.037522895938158,-0.03847118495255709,0.6379407606631518
1761469265350793500,8.68779345703125,1.729990732204914,0.040002340042591095,0.6839484786003828
1761469265360777500,8.697777587890625,1.375238552135229,0.19044950661957263,0.7558037544995546
1761469265370760400,8.707760498046875,1.0925602591514587,0.3570177869141102,0.8363502863764762
1761469265380743200,8.7177431640625,0.824157159757614,0.48248716410100456,0.8508528589814901
1761469265390726400,8.727726318359375,0.5535135879606008,0.49791532711833714,0.7174006663471459
1761469265400710400,8.73771044921875,0.4559218132585287,0.48576457833647724,0.5727841056197881
1761469265410693400,8.747693359375,0.5768570541471243,0.5818693293511867,0.4690507594227791
1761469265420676400,8.75767626953125,0.6575485474526882,0.6327621889814734,0.40177404348552226
1761469265430659300,8.767659423828125,0.6284335121273994,0.6205851367145776,0.36552491849660873
1761469265440643300,8.777643310546875,0.6523106467992067,0.4778279401183128,0.426534390732646
1761469265450626300,8.787626220703125,0.7852367697328329,0.34807547878473993,0.4076484884768724
1761469265460609500,8.797609619140625,1.0009855527818203,0.15463058974146843,0.28369010037481784
1761469265470593500,8.807593505859375,1.2390630720168352,-0.09460311428010464,0.17105156318843365
1761469265480576300,8.817576171875,1.3567156379729508,-0.285672214102745,0.08973463146090507
1761469265490559200,8.827559326171874,1.3721891014367342,-0.4720464341074228,0.044344753161072725
1761469265500542500,8.83754248046875,1.3035299912303686,-0.591142623000592,-0.00036415713727474213
1761469265510526500,8.8475263671875,1.1768062300682067,-0.7258394088685513,-0.040108138504624365
1761469265520509200,8.85750927734375,1.1252993301928043,-0.8529564071319997,-0.10669628765583038
1761469265530492400,8.867492431640626,1.0452104789555072,-0.956210883770883,-0.17837445342242716
1761469265540475400,8.877475341796876,0.9666641809850931,-1.0567175230063497,-0.2322352229475975
1761469265550459400,8.88745947265625,0.7563385920286179,-1.1489682289414107,-0.21452245612442492
1761469265560442400,8.8974423828125,0.5931470946907996,-1.1628864257872105,-0.09403671256899833
1761469265570425300,8.90742529296875,0.5305506455242633,-1.2020780339688062,0.020700842723250387
1761469265580409300,8.917409423828126,0.45553602881133554,-1.2346985931970178,0.052938393983244895
1761469265590392300,8.927392333984375,0.3521627480983734,-1.2427693791888654,0.0762614019036293
1761469265600375300,8.937375244140625,0.2975514524668455,-1.157739418287575,0.12427227635681629
1761469265610358300,8.947358154296875,0.21713117731809614,-1.089534043198079,0.18336685488224028
1761469265620342300,8.95734228515625,0.020126842227578164,-1.0032026443094015,0.20743103655874728
1761469265630325200,8.9673251953125,-0.0064162967830896376,-0.9265722629629075,0.19867548317313194
1761469265640308500,8.97730859375,-0.021192425632476804,-0.8484459439702332,0.14984218642115593
1761469265650291500,8.98729150390625,-0.13040391097962856,-0.8371597030632197,0.06206570329070091
1761469265660275500,8.997275390625,-0.19382102887928485,-0.8384748773150146,0.0030190555602312087
1761469265670258200,9.007258056640625,-0.19026245961487293,-0.8741168301910162,-0.037215339672565455
1761469265680241400,9.017241455078125,-0.22055530654788016,-0.9904616745494306,-0.12616437371373176
1761469265690225400,9.027225341796875,-0.31940906400978564,-1.0009051810219884,-0.16140110678970812
1761469265700208400,9.03720849609375,-0.39974399896264073,-1.069156002688408,-0.19436463423669337
1761469265710191400,9.04719140625,-0.2955950577020645,-0.9974679000496863,-0.3229489285737276
1761469265720174300,9.05717431640625,0.008492518535256385,-0.9732193017169832,-0.4562263491630554
1761469265730158300,9.067158447265625,0.23101415672004222,-0.8647960441380739,-0.4748141452550888
1761469265740141300,9.077141357421874,0.28397710062265397,-0.7495359262764454,-0.37868133718967434
1761469265750124500,9.08712451171875,0.2615869896382093,-0.6224525380216539,-0.3686895200073719
1761469265760107000,9.09710693359375,0.1461445009469986,-0.595787380066514,-0.39813130306899547
1761469265770091000,9.107091064453124,0.03422551020681858,-0.5355994533464312,-0.35398996352553364
1761469265780074200,9.11707421875,-0.0606938304156065,-0.5305282875619829,-0.2444382864385843
1761469265790057200,9.12705712890625,0.0401718513906002,-0.5465009327195585,-0.21282266646921633
1761469265800040000,9.1370400390625,0.09610182840526103,-0.5253199052639306,-0.1642950746655464
1761469265810024000,9.14702392578125,0.1117757828772068,-0.4837264966376126,-0.10721300500631331
1761469265820007200,9.157007080078126,0.08229074519574642,-0.43674116583988065,0.040459436160326004
1761469265829990100,9.166990234375,-0.13470073139071465,-0.382105320288986,0.19779110155403612
1761469265839974100,9.17697412109375,-0.33209143545031544,-0.32105303182452916,0.38708267031013965
1761469265849956900,9.186956787109375,-0.47513387872874735,-0.2604991944015026,0.5428051469415426
1761469265859940000,9.196940185546875,-0.4092354654073715,-0.32973727353960275,0.5097065949380397
1761469265869923000,9.206923095703125,-0.3225426858603954,-0.45625075295194983,0.3477572066158056
1761469265879907000,9.216906982421875,-0.3526636833578348,-0.48891529745236034,0.2376420504271984
1761469265889890300,9.226890380859375,0.4183540068864822,-0.5076578457146883,0.2897738042026758
1761469265899873000,9.236873046875,-1.9461931042402982,0.19608999672457575,0.9789707048505544
1761469265909856000,9.24685595703125,-2.647638661086559,0.5510558195449412,1.1191244409501553
1761469265919840000,9.256840087890625,-1.0411854612231255,0.37055925940200685,1.1647229935646057
1761469265929823200,9.2668232421875,-0.6987199312746525,0.423037488527596,1.3843103318631649
1761469265939806000,9.276805908203125,-0.428598922047019,0.21943433969393372,1.571877561044693
1761469265949789000,9.286788818359375,0.0852501795232296,-0.10861468849778175,1.6972575063824653
1761469265959773200,9.296773193359375,0.8055904064536095,-0.47347149847447867,1.783463963717222
