time,seconds_elapsed,z,y,x
1761469122826251800,0.119251708984375,-0.0865396348118782,-0.01171089605987072,0.2944581626266241
1761469122836234500,0.129234375,0.031099487140774724,-0.13457944309860467,0.1261842474579811
1761469122846217700,0.1392177734375,0.17945114274322985,-0.25574381656795736,0.07895195616185664
1761469122856200700,0.14920068359375,0.5310761307030916,-0.3081245766684413,0.01504793152809143
1761469122866183700,0.15918359375,0.6380939053982496,-0.24779110399782656,0.006552490383386612
1761469122876166700,0.169166748046875,0.48640053815245626,-0.1142871811762452,0.030206922215223312
1761469122886149600,0.179149658203125,0.3465717962235212,-0.0950599181368947,-0.047859483283758164
1761469122896132600,0.189132568359375,0.15789397545158862,-0.17758213400095701,-0.1211257950246334
1761469122906115800,0.19911572265625,-0.019177578678727148,-0.440734473259747,-0.16809680503606794
1761469122916098600,0.2090986328125,-0.38025545463860033,-0.5733496305480599,-0.04171265109181404
1761469122926081500,0.21908154296875,-0.9313771790266037,-0.607204846137762,0.009603694647550582
1761469122936064800,0.229064697265625,-1.2010112815201281,-0.6227154267415403,-0.06009703356623649
1761469122946047700,0.2390478515625,-1.0926374160408974,-0.5141717576533555,-0.12861059782207013
1761469122956030700,0.24903076171875,-0.9142524412244558,-0.4507245368763804,-0.1569154858082533
1761469122966013700,0.259013671875,-0.6750660839647055,-0.4311699415788054,-0.26388182257711884
1761469122975996700,0.26899658203125,-0.3600187222957611,-0.3121335200488567,-0.38946985770761966
1761469122985979600,0.278979736328125,-0.055794952458143234,-0.35182343314141035,-0.5741057096123695
1761469122995962600,0.288962646484375,-0.2033306155025959,-0.5354857638388871,-0.778716428053379
1761469123005945600,0.298945556640625,-0.700087712496519,-0.7714137038245796,-0.9636328504651784
1761469123015928800,0.3089287109375,-0.8531576287925243,-0.9064403061687946,-0.8295254087924957
1761469123025911600,0.31891162109375,-0.8601111011922359,-0.988925112631917,-0.5817185227036475
1761469123035894500,0.32889453125,-1.217573124742508,-1.0120625348523258,-0.4912134913921356
1761469123045877800,0.338877685546875,-0.7252034490525722,-0.924750162102282,-0.08788695776760577
1761469123055860700,0.34886083984375,-1.1522539726138115,-0.4602452294155955,0.21676468209326266
1761469123065843500,0.358843505859375,-0.9439829780995845,-0.8249661380529403,0.2309311546117067
1761469123075826700,0.36882666015625,-0.756450235709548,-1.1920151973769069,0.18672142600715158
1761469123085809700,0.3788095703125,-1.1847913836032151,-1.3942860746935009,0.17481939128935337
1761469123095793000,0.38879296875,-1.0136112255990504,-1.365536657810211,-0.05048281752467155
1761469123105775600,0.398775634765625,-0.4933393975049257,-1.4069430194318293,-0.17430092037320136
1761469123115758600,0.408758544921875,-0.18528525572419166,-1.5609575231015682,-0.3023918782353401
1761469123125741800,0.418741943359375,-0.03572948502898216,-1.6445929609045384,-0.4322440005511045
1761469123135724800,0.428724853515625,0.015498597905039786,-0.2186316450089216,-0.40059681639969347
1761469123145707500,0.43870751953125,0.38953415511548517,-0.21538725626021624,-0.3539069614171982
1761469123155690800,0.448690673828125,0.7153466564267873,-0.9578808628097176,0.03170738990604877
1761469123165673700,0.458673828125,1.9198194765776395,-1.1211977400928734,0.11167816772162914
1761469123175656400,0.468656494140625,2.7271038274675607,-2.0648495865419507,-0.5078408010661601
1761469123185639700,0.4786396484375,1.4212310725033281,-0.08382628419995307,-1.685059119066596
1761469123195622700,0.48862255859375,-4.148430761560798,1.1905164832517503,-1.5615069736778735
1761469123205605600,0.498605712890625,-4.6203906864285464,1.501689633835852,0.6653519146800041
1761469123215588600,0.508588623046875,-1.8423142120927571,0.5488067254438996,1.088309615969658
1761469123225571600,0.518571533203125,-1.69978497903347,1.018864031560719,0.4281365652322769
1761469123235554800,0.528554931640625,-2.4231267258673905,1.2559165916621684,0.5737175870776177
1761469123245537800,0.538537841796875,-2.067268045860529,0.9820660405173898,0.22114859626591205
1761469123255520500,0.5485205078125,-0.9686088853120803,1.4982748569563031,0.03917874870002269
1761469123265503700,0.558503662109375,-0.13621288951933383,1.6964833071395753,0.08685118497908115
1761469123275486700,0.56848681640625,0.35633798795640464,1.2182026548177003,0.2974053219944238
1761469123285469700,0.5784697265625,0.6680196725845337,0.8187769280239939,0.2725625571608543
1761469123295452700,0.58845263671875,1.1007838976174593,0.5695742036625743,0.24071137486994265
1761469123305435600,0.598435546875,1.4737363357663154,0.5628828893303871,0.20781623648405073
1761469123315418600,0.608418701171875,1.6087556315869092,0.4786345803260803,0.1740074903845787
1761469123325401900,0.61840185546875,1.751158607918024,0.31770752078890796,0.10921265439093113
1761469123335384600,0.628384521484375,2.0151012207716703,0.10453238762021064,-0.11125789648294448
1761469123345367600,0.638367431640625,2.135558907276392,0.03829115221053361,-0.43301498492360113
1761469123355350800,0.648350830078125,1.8824194279879332,0.039164135652780534,-0.7034621573656797
1761469123365333500,0.65833349609375,1.3776117110073565,0.2338596092790365,-0.8825473894059658
1761469123375316700,0.668316650390625,0.6537140838563442,0.6270780058652162,-0.9992214657187461
1761469123385299700,0.6782998046875,0.10428455033898353,0.8442968614667653,-0.9983978743761778
1761469123395282700,0.68828271484375,-0.30485505347847935,0.9654603581532836,-0.8706739962607621
1761469123405265700,0.698265625,-0.757682992374897,1.0978604113861918,-0.5027911164611578
1761469123415248600,0.70824853515625,-0.9156313283622264,1.2462190812513232,-0.10622224040329456
1761469123425231600,0.718231689453125,-0.9787111771315335,1.3027151677161455,0.06980185050070285
1761469123435214800,0.72821484375,-1.0789408991217613,1.092348954488337,0.086944708481431
1761469123445197600,0.738197509765625,-0.9011725948989391,1.0595283426433801,0.18380057012438772
1761469123455180500,0.7481806640625,-0.5942910040289163,0.7841954439863562,0.4062696013391018
1761469123465163800,0.758163818359375,-0.13840250851809976,0.6292524272948503,0.6338537836104631
1761469123475146800,0.768146728515625,-0.5899146886408329,-0.04913783265650272,1.3090987312734126
1761469123485129500,0.77812939453125,-0.17094576472640036,0.8132491045132278,1.4978560470223425
1761469123495112700,0.78811279296875,0.75292147706151,0.8698501126572489,0.6014747780531644
1761469123505095700,0.798095703125,0.7259189038455486,0.22150193974822757,-0.03293839300572872
1761469123515078700,0.80807861328125,0.21145313168168067,0.2644318576753139,-0.3745832542210817
1761469123525061600,0.8180615234375,-0.023644494959712027,-0.07520166371762751,-0.7741723548829555
1761469123535044600,0.828044677734375,-0.08827157317101955,-0.23986264908611774,-0.9742951142549514
1761469123545027800,0.83802783203125,-0.19835633422136306,-0.26321137596964833,-1.0411071352899075
1761469123555010600,0.848010498046875,-0.1717927369445562,-0.19747019903659818,-1.2109025609374047
1761469123564993500,0.85799365234375,0.009800094002485275,-0.11062719736397265,-1.3620833024859427
1761469123574976800,0.867976806640625,0.2215864031612873,-0.08048311125189066,-1.204683832553029
1761469123584959700,0.877959716796875,0.1680032815337181,-0.08395663258135318,-1.0563310079067945
1761469123594942500,0.8879423828125,-0.2773620663970709,-0.1197925005942583,-1.2254220846772192
1761469123604925700,0.89792578125,-0.7534189051896333,-0.16516513549834488,-1.5369482864826918
1761469123614905000,0.907905029296875,-1.063918686556816,-0.28199089524149895,-1.8642191699087618
1761469123624888000,0.91788818359375,-1.0384925688773392,-0.1741074436277151,-1.764103429687023
1761469123634871300,0.927871337890625,-0.936758872064948,-0.10969751529842614,-1.397473180297017
1761469123644854300,0.937854248046875,-0.7785381488770245,-0.1148845625475049,-1.1521586955457925
1761469123654837200,0.947837158203125,-0.6562298660695552,-0.15922493179440497,-1.112485441327095
1761469123664820200,0.9578203125,-0.6924515185296535,-0.10340922880917787,-1.1422376055121422
1761469123674803200,0.96780322265625,-0.8550088096171617,-0.13611264401525258,-1.2276520356863736
1761469123684786400,0.977786376953125,-0.9573463175415993,-0.10245791943371295,-1.428760298964381
1761469123694769200,0.98776904296875,-1.07204237177968,-0.05969546702802181,-1.5844646554172037
1761469123704752000,0.997752197265625,-1.1168658483684062,-0.08890198002904653,-1.572653221592307
1761469123714735400,1.0077353515625,-1.1336673455655575,-0.07883855891525746,-1.5007359863728285
1761469123724718000,1.017718017578125,-1.2159493229329585,-0.06518208174556493,-1.3659271184325217
1761469123734701000,1.027701171875,-1.4462649759948252,-0.049478901179134845,-1.1737924352049827
1761469123744684300,1.037684326171875,-1.4493115040838718,0.14408435354679822,-1.088994091102481
1761469123754667300,1.047667236328125,-1.1796131041824818,0.4594119934618473,-1.1569774940043687
1761469123764650000,1.05764990234375,-0.711678781569004,0.6605737404927611,-1.3842378511488438
1761469123774633200,1.06763330078125,-0.3485463111668825,0.79075319506675,-1.6063468168795108
1761469123784616200,1.0776162109375,-0.17589081991314887,0.8521335464417934,-1.7126415379971265
1761469123794599200,1.08759912109375,-0.1830348464488983,0.9292992037087678,-1.6934657128840684
1761469123804582100,1.09758203125,-0.330904271492362,1.1311252598673105,-1.7954799802035093
1761469123814565000,1.107565185546875,-0.5491922176301479,1.1421534343600273,-1.7820657873570918
1761469123824548400,1.11754833984375,-0.8148428034454583,0.8539873576149344,-0.8799503586500883
1761469123834531300,1.12753125,-1.0835632982254029,1.0812903848573565,-0.3288122676491737
1761469123844514000,1.13751416015625,-1.3113000407099724,1.1659238937869667,0.0823088653743267
1761469123854497300,1.147497314453125,-1.2217027718931437,1.2076488198384643,0.48254503176808355
1761469123864480300,1.157480224609375,-0.9299562063127755,1.2577429303064942,1.0189631080210209
1761469123874463200,1.167463134765625,-0.4664291787475347,1.305297000902891,1.4586252758741378
1761469123884446200,1.1774462890625,-0.12421090155839919,1.3142872398272156,1.5406845504015683
1761469123894429200,1.18742919921875,-0.30307869145572186,1.0793936113253235,1.3721207123756407
1761469123904412200,1.197412109375,-0.7919745535552501,0.7177639467015862,1.1275573382526636
1761469123914395100,1.20739501953125,-0.9287234496474266,0.32700317240059373,0.9935989496618509
1761469123924378000,1.217378173828125,-0.6391922220289706,-0.10177432108372449,0.8380261106342076
1761469123934361300,1.227361328125,-0.16936112588346003,-0.39050416919142006,0.7418044552415609
1761469123944344300,1.23734423828125,0.2191729122787714,-0.549568941988051,0.5845803418755531
1761469123954327000,1.2473271484375,0.4436380857467651,-0.5226961326315999,0.5689005421847104
1761469123964310300,1.257310302734375,0.5834317563623189,-0.507891654470563,0.5291776036053896
1761469123974293200,1.267293212890625,0.6915566155165433,-0.2911594133421779,0.2527881816327572
1761469123984276200,1.277276123046875,0.8616437175869941,-0.23396336191445588,-0.09105565093159675
1761469123994259200,1.28725927734375,1.1738923884481192,-0.21688129421025512,-0.3078805387794971
1761469124004242200,1.2972421875,1.541004283875227,-0.1530710853397846,-0.4324707950443029
1761469124014225200,1.30722509765625,1.9098884496718644,-0.09671090021431446,-0.3841267431139946
1761469124024208400,1.31720849609375,2.09033561771512,-0.05114332726001739,-0.1868646338701248
1761469124034191000,1.327191162109375,2.1209598885595797,-0.04821925650686025,0.1257616381317377
1761469124044174000,1.337174072265625,2.065826030358672,-0.060712242855131625,0.40654081949591636
1761469124054157300,1.3471572265625,1.9700410128176211,-0.06122925246655941,0.6244885738939047
1761469124064140300,1.357140380859375,1.7923498654842376,-0.04658493330329656,0.7023246777683496
1761469124074123300,1.367123291015625,1.549370545682311,-0.003543663956224918,0.8713502880871296
1761469124084106200,1.377106201171875,1.2071651279747486,0.03232318371683359,1.0089508325725793
1761469124094089200,1.387089111328125,0.8041542361706495,0.039570086105167865,1.0241367112666369
1761469124104072200,1.397072265625,0.4694049796879291,0.036541970455646514,1.100211650687456
1761469124114055200,1.40705517578125,0.21622575291097162,-0.006744505824148654,1.0681740059137343
1761469124124038100,1.4170380859375,0.04294131610393524,-0.17010668355375527,0.9378794005274772
1761469124134021400,1.427021484375,-0.19351649297475815,-0.21735446467995642,0.8357599192678928
1761469124144004000,1.437004150390625,-0.34769466277360916,-0.19520488445311784,0.7042997772336006
1761469124153987000,1.446987060546875,-0.3094207539588213,-0.2275163777321577,0.5779027638077735
1761469124163970300,1.45697021484375,-0.20221184060573577,-0.21236966200470922,0.5031371534198522
1761469124173953300,1.466953369140625,-0.06041793608367443,-0.23300649958103894,0.49402913333475584
1761469124183936000,1.47693603515625,0.011119359907507896,-0.40042642826884983,0.39245851812958715
1761469124193919200,1.486919189453125,0.05110708690285683,-0.45047436150759457,0.3090934217005968
1761469124203903200,1.4969033203125,0.23262159191668033,-0.4340849522426724,0.3366933762878179
1761469124213886200,1.50688623046875,0.41895723347663877,-0.5671200885087251,0.326404037463665
1761469124223869400,1.516869384765625,0.6480383763074874,-0.7367731830760836,0.22543547980487344
1761469124233852200,1.52685205078125,0.8539169227272272,-0.8746335475414991,0.15043781422674654
1761469124243835100,1.536835205078125,0.9773971719235182,-1.1162094302862882,0.13982932645082474
1761469124253818400,1.546818359375,1.0899147130787372,-1.2643208473920822,0.11578034234344958
1761469124263801000,1.556801025390625,1.1813549794137477,-1.372737675230205,0.10900748720765113
1761469124273784000,1.5667841796875,1.1541057379603386,-1.421732884545624,0.06994155123233795
1761469124283767300,1.576767333984375,0.985247300902009,-1.4355530278444288,-0.010389292067289353
1761469124293750300,1.586750244140625,0.7599941919267177,-1.4880632595434784,-0.09077800303399562
1761469124303733000,1.59673291015625,0.5962883153259754,-1.522167481458187,-0.11225216821730136
1761469124313716200,1.60671630859375,0.41862756313085553,-1.4277394314840435,-0.07078560084104538
1761469124323699200,1.61669921875,0.23684300900399682,-1.3321619192138314,-0.03021101386845112
1761469124333682200,1.62668212890625,0.113396077555418,-1.250827744090557,0.026792145335674283
1761469124343665200,1.6366650390625,0.08578618609607219,-1.167255142390728,0.08705050694346428
1761469124353648000,1.646648193359375,0.027273206850886342,-1.075194406069815,0.11820084748864174
1761469124363631400,1.65663134765625,0.016947043147683142,-0.9044193217352032,0.20235680203437803
1761469124373614300,1.6666142578125,-0.02386485971212387,-0.7449787013635039,0.19576807129383086
1761469124383597000,1.67659716796875,-0.19798983899652955,-0.6836380974769591,0.16702245380282402
1761469124393580300,1.686580322265625,-0.355330272218585,-0.6507353603065014,0.20642156725525854
1761469124403563300,1.696563232421875,-0.4412158270359039,-0.6353492828652262,0.20347148527801034
1761469124413546200,1.706546142578125,-0.5343395164132118,-0.6851017402887344,0.13074001106619834
1761469124423529200,1.716529296875,-0.5572714791893959,-0.7886340109556913,-0.0214671509206295
1761469124433512200,1.72651220703125,-0.5174129315316677,-0.8325766130566596,-0.14618483295738696
1761469124443495200,1.7364951171875,-0.46278059311211106,-0.8241165354862808,-0.23482407039701939
1761469124453478100,1.74647802734375,-0.4754267241954803,-0.809317318022251,-0.30963585801422594
1761469124463461000,1.756461181640625,-0.4843763388484716,-0.734536217804253,-0.35594577376842496
1761469124473444000,1.766444091796875,-0.46672845395505425,-0.6467296317964791,-0.419100441339612
1761469124483427300,1.77642724609375,-0.4414566500544548,-0.6401885395899415,-0.46767362585067745
1761469124493410000,1.78641015625,-0.4806166940540075,-0.6277054901137947,-0.535674564409256
1761469124503393300,1.796393310546875,-0.61093877196908,-0.7046659801974893,-0.5968652384310961
1761469124513376300,1.806376220703125,-0.6835615251094103,-0.8352800267964601,-0.6478402233868837
1761469124523359200,1.816359130859375,-0.747268565866351,-0.9080822281569242,-0.665475248798728
1761469124533342200,1.82634228515625,-0.751138685297966,-0.9817731950506567,-0.5593079534530639
1761469124543325200,1.8363251953125,-0.6649912646740674,-0.978167571774125,-0.43887072521448134
1761469124553308200,1.84630810546875,-0.491919593834877,-0.9820660405173898,-0.36522330520153046
1761469124563291400,1.85629150390625,-0.33906361255049705,-0.8841454722523688,-0.22004209632873534
1761469124573274000,1.866274169921875,-0.21778233470320701,-0.8920131368875504,-0.1051227547287941
1761469124583257000,1.876257080078125,-0.24316344419717786,-0.7221148353874683,0.09528934297859668
1761469124593240300,1.886240234375,-0.39775194836258887,-0.5250777670711279,0.2887333552390337
1761469124603223300,1.896223388671875,-0.4841977674111724,-0.36852936100959777,0.6126975983351469
1761469124613206300,1.906206298828125,-0.3565414015740156,-0.12210516145080327,1.0123895748496055
1761469124623189800,1.916189697265625,-0.4089627859458327,0.05254121135920286,1.4006336901545524
1761469124633172700,1.9261728515625,-0.6324789881259203,0.18530892886072395,1.7238012299150227
1761469124643155500,1.936155517578125,-0.9033762424230575,0.3666109601676464,1.8417367044657467
1761469124653138700,1.946138671875,-1.1592030610993505,0.5868517939388752,1.6625275537848472
1761469124663121700,1.95612158203125,-1.056602226063609,0.6787798437908291,1.3651555495381353
1761469124673104600,1.966104736328125,-0.9706669868856668,0.6206596632555127,1.32450848185122
1761469124683087600,1.976087646484375,-0.5749561889618635,0.6726259973362088,1.1346195317238568
1761469124693070600,1.986070556640625,-0.20445582014024258,0.875154064284265,0.9132809658437967
1761469124703053800,1.9960537109375,0.1998451114743948,0.6795607650354504,0.6369254461407661
1761469124713036800,2.006036865234375,0.6137216806858777,0.4243959173992276,0.6313654739260673
1761469124723019500,2.01601953125,0.9619114335000515,0.4532967254519462,0.5668073692977428
1761469124733002800,2.026002685546875,1.2505600330650806,0.3283624780550599,0.4407756820529699
1761469124742985700,2.03598583984375,1.5772247672915458,0.049959378172457214,0.176599260443449
1761469124752968400,2.045968505859375,1.9579659596204757,-0.10218728579878807,0.07650164040029049
1761469124762951700,2.05595166015625,2.116600816567242,-0.3797384450271725,-0.18718202925622462
1761469124772934700,2.0659345703125,2.125791838760674,-0.39940731435418125,-0.36900107017457484
1761469124782917600,2.075917724609375,1.9255927992820738,-0.47729310258924956,-0.4584960476607084
1761469124792900600,2.085900634765625,1.4101380160808563,-0.2654141467109322,-0.4882616558492183
1761469124802884600,2.095884521484375,0.8246276998788118,0.3199968007698655,-0.6100216571241617
1761469124812867600,2.10586767578125,0.31171032620072364,0.46358460297137494,-0.7781313216418028
1761469124822850800,2.115850830078125,-0.22675591475367546,0.8015317787125706,-0.8521177643507718
1761469124832833800,2.125833740234375,-0.61466860614717,1.1606740104347466,-0.7935697137922048
1761469124842816500,2.13581640625,-0.8080503668263554,1.3693456947043536,-0.631666502699256
1761469124852799700,2.1457998046875,-0.9818307704567909,1.412132404768467,-0.48019466924965376
1761469124862782700,2.15578271484375,-1.0362170251607894,1.3759160130053758,-0.34688802256584167
1761469124872765700,2.165765625,-0.7449035903006792,1.0818214229941367,-0.09698445645868778
1761469124882748700,2.175748779296875,-0.3976432272911072,0.8809645041286945,0.22054829228520392
1761469124892731600,2.185731689453125,-0.3900783449947834,0.8205655650064348,0.4110679415315389
1761469124902714600,2.195714599609375,-0.5082002820283175,0.6554965833589435,0.3935281931877136
1761469124912697600,2.205697509765625,-0.37325960440188644,0.4887912326812744,0.3165565971881151
1761469124922680600,2.2156806640625,-0.15068039081096649,0.3674763448253274,0.15762743346989153
1761469124932663600,2.22566357421875,0.1817506518572569,0.33813480726778505,-0.08609189104437827
1761469124942646800,2.235646728515625,0.5279021768420934,0.32964696490764617,-0.3262339415937662
1761469124952629500,2.24562939453125,0.842441881249845,0.31430268078148366,-0.6191980662703513
1761469124962612700,2.25561279296875,0.9858762464553117,0.2798047833740711,-0.895098243421316
1761469124972595700,2.265595703125,0.872524300302565,0.2935805030092597,-1.028714686706662
1761469124982578700,2.27557861328125,0.6113698568627238,0.19182488662600516,-1.0700298629134892
1761469124992561700,2.285561767578125,0.2327475563839078,-0.011346738922595977,-1.070500403034687
1761469125002544600,2.295544677734375,-0.08132102338075638,-0.16154226882606743,-1.0577058033913374
1761469125012527600,2.305527587890625,-0.25382307763844725,-0.2750710328504443,-0.9527794480174779
1761469125022510800,2.3155107421875,-0.2817962494522333,-0.39063393305093047,-0.8910913458675146
1761469125032493600,2.32549365234375,-0.26378070029020306,-0.41349575320035215,-0.8825117335706949
1761469125042476500,2.3354765625,-0.29107816479951143,-0.3977785441085696,-0.8735404916077851
1761469125052459800,2.345459716796875,-0.3291793473958969,-0.3941583077847957,-0.8272989649146795
1761469125062442800,2.35544287109375,-0.39862697763144966,-0.3538391568779945,-0.8187228597491979
1761469125072425700,2.36542578125,-0.5217381012544036,-0.33801936419457196,-0.7737994299173354
1761469125082408700,2.37540869140625,-0.6346387965083122,-0.3016816841393709,-0.6809802764445543
1761469125092391700,2.3853916015625,-0.7356839265346526,-0.24562720396220683,-0.615558248463273
1761469125102374700,2.395374755859375,-0.8189598833754658,-0.24784224966317414,-0.5421832156509161
1761469125112357600,2.405357666015625,-0.9740244806200266,-0.39114889683574433,-0.5348755229860543
1761469125122340600,2.415340576171875,-1.1035849265128372,-0.552564032150805,-0.6706850924015044
1761469125132323800,2.42532373046875,-1.1524202690914274,-0.7031219656258821,-0.7922697371095418
1761469125142306600,2.435306640625,-1.1666367182314394,-0.8493605745971202,-0.911215850007534
1761469125152289500,2.44528955078125,-1.077232926160097,-1.0563087960749864,-0.9993407081842421
1761469125162272800,2.455272705078125,-0.986220822109282,-1.1758783015683292,-1.1925731235206127
1761469125172255700,2.465255859375,-0.8937970976948738,-1.1631801480367778,-1.4912673162817953
1761469125182238500,2.475238525390625,-0.7342910108715295,-1.2620093555793166,-1.6166630437105893
1761469125192221700,2.4852216796875,-0.6137313252970575,-1.277930270549655,-1.6982728209048508
1761469125202204700,2.49520458984375,-0.6140799926042556,-1.2225371768906712,-1.7234505167812109
1761469125212187600,2.505187744140625,-0.7003811424851417,-1.0946581082135438,-1.6582640511214732
1761469125222172000,2.515171875,-0.5467758041381836,-2.00926418518126,-1.9828186613261698
1761469125232154600,2.525154541015625,-0.8830506627529859,0.27814035729318853,-1.5069558838009833
1761469125242137600,2.5351376953125,-0.6764777043282986,0.3395174937978387,-0.47769408460557455
1761469125252120800,2.545120849609375,-0.30096506030261516,-0.04117050703912973,-0.5686655643850564
1761469125262103600,2.555103515625,-0.5679699833363294,0.1004991865813732,-0.6197200443178414
1761469125272086500,2.56508642578125,-0.5866121399641037,0.12457359739094973,-0.37701837241351605
1761469125282069800,2.57506982421875,-0.7979565505743026,0.3665618603289127,-0.0321896204650402
1761469125292052700,2.585052734375,-1.1614449948072432,0.4950859489113092,0.16982348269820213
1761469125302035500,2.595035400390625,-1.6048931109398603,0.43742403353750703,0.3752846804887056
1761469125312018700,2.605018798828125,-1.8338000662475824,0.24683161131590603,0.5136503641277551
1761469125322001700,2.615001708984375,-1.8812363556832075,-0.055180035430192946,0.5452157152146101
1761469125331984600,2.624984619140625,-1.9681150131911038,-0.25750965719670055,0.5546113200694323
1761469125341967600,2.634967529296875,-2.1988757796719667,-0.35593145298212764,0.7153577623426913
1761469125351950600,2.64495068359375,-2.4645649439319968,-0.4425447375521064,1.1169453433454035
1761469125361933800,2.654933837890625,-2.5894927615880965,-0.5059919583290815,1.541699864923954
1761469125371916800,2.664916748046875,-2.0886188769251106,-0.4566071651741862,2.0703239262998103
1761469125381899500,2.6748994140625,-1.3005682188153267,-0.1588970150142908,2.290887416154146
1761469125391882800,2.6848828125,-0.9474170442014932,0.002686462604999542,2.266785825076699
1761469125401865700,2.69486572265625,-0.581025864264369,-0.17862813592255114,2.676673616912961
1761469125411848700,2.7048486328125,-0.4813105215370655,-0.16754618541598318,2.4175053788542744
1761469125421831700,2.714831787109375,-0.30826895357519385,-0.1803770254164934,2.048404939958453
1761469125431814700,2.724814697265625,0.017780863623321055,-0.051615913207828996,1.9023726672142742
1761469125441797600,2.734797607421875,0.4189566489547491,0.2429556466653943,1.6997580910265444
1761469125451780600,2.744780517578125,0.7035375606894493,0.6964598773881793,1.1183072793483733
1761469125461763600,2.754763671875,0.8357529050052166,0.8887161411687732,0.2514028647542
1761469125471746600,2.76474658203125,1.1572720930367708,0.9095601917549967,-0.3573252454280853
1761469125481729800,2.774729736328125,1.6363327898204325,0.9046160133510828,-0.748262837600708
1761469125491712500,2.78471240234375,1.940783354151249,0.8229811017155647,-1.0403630389243363
1761469125501695700,2.79469580078125,2.2389000392854213,0.6619014819651842,-1.1880699668824672
1761469125511678700,2.8046787109375,2.555677001225948,0.6252604350492358,-1.2716489983230828
1761469125521661700,2.81466162109375,2.7653923493295904,0.446094538988173,-1.2292805136710405
1761469125531644700,2.824644775390625,2.871337526357174,0.16626199082434176,-0.9273083221524954
1761469125541627600,2.834627685546875,2.8538521385490894,-0.05337503183484077,-0.6310486630618571
1761469125551611600,2.844611572265625,2.7280776409357785,-0.08291676813960075,-0.43159927290678024
1761469125561594600,2.8545947265625,2.457697103989124,-0.15029343731999398,-0.14402093292176724
1761469125571577600,2.86457763671875,2.0607132173895835,-0.1320271282672882,0.0861345611423254
1761469125581560600,2.874560546875,1.608759723240137,-0.055094110712409015,0.3349304582685232
1761469125591543600,2.88454345703125,1.2716571816295386,0.051992929826676845,0.5434036973565817
1761469125601526800,2.89452685546875,1.0230781421244144,0.23330372896194457,0.6424298887759446
1761469125611509500,2.904509521484375,0.7984200764328241,0.37807226538062094,0.7594517556130885
1761469125621492500,2.914492431640625,0.6061901161372661,0.660100277762115,0.8806102838635445
1761469125631475500,2.924475341796875,0.5217851552665234,1.0712412845298647,1.0553612860918045
1761469125641458400,2.93445849609375,0.40877193954885005,1.2805281780883668,1.020797922232747
1761469125651441400,2.94444140625,0.20739830333292483,1.1699623555228114,0.8691068930745124
1761469125661424400,2.95442431640625,0.11438625763654708,0.8045219004392623,0.7856213851362467
1761469125671407400,2.964407470703125,0.2248275770395994,0.506475942453742,0.7628636098831891
1761469125681390600,2.974390625,0.36511283056437965,0.27046792296916244,0.6116770231157541
1761469125691373300,2.984373291015625,0.4119868099421263,0.032494740891456604,0.4594844741761684
1761469125701356300,2.994356201171875,0.4445528625041246,-0.24887480758130548,0.24449381601810455
1761469125711339500,3.004339599609375,0.5730863034367562,-0.4793649404272437,-0.05561375067234039
1761469125721322500,3.014322509765625,0.6487333728343248,-0.6431257620856166,-0.28791385554969307
1761469125731305500,3.024305419921875,0.716941816663742,-0.8156371686935424,-0.4386147046267986
1761469125741288400,3.034288330078125,0.8713952962726355,-0.9113231097742914,-0.5408429069578647
1761469125751271400,3.044271484375,1.0840315002590417,-0.9479983512207865,-0.5914718549549579
1761469125761254400,3.05425439453125,1.083965449285507,-1.0045534743964672,-0.5936632275193929
1761469125771237400,3.0642373046875,0.926514541426301,-1.0474790084093808,-0.5973778641283511
1761469125781220400,3.074220458984375,0.684971976429224,-1.0309791245073079,-0.5595984608322382
1761469125791203600,3.08420361328125,0.42998073179423807,-1.0402017108827828,-0.4689373621761799
1761469125801186300,3.094186279296875,0.20505787768661973,-1.0526429670438169,-0.30589199531078337
1761469125811169300,3.104169189453125,0.09587152678072453,-1.0910755735516549,-0.15759119311273098
1761469125821152500,3.114152587890625,0.028802900636196133,-1.1195160706162453,-0.04189619096517563
1761469125831135500,3.124135498046875,-0.08324702300727367,-1.057557334831357,-0.006146247670054435
1761469125841119500,3.134119384765625,-0.13853519498705863,-0.9800742821782826,-0.08429682432115078
1761469125851102500,3.1441025390625,-0.20354455051422118,-0.9824842659294605,-0.12405132708251476
1761469125861085400,3.15408544921875,-0.23247487692236898,-1.0532418097198009,-0.164948570138216
1761469125871068400,3.164068359375,-0.2283013906300068,-1.1188237044379115,-0.19850421825945377
1761469125881051400,3.174051513671875,-0.31107261281907556,-1.1485013420820236,-0.1895575262159109
1761469125891034400,3.184034423828125,-0.4520832580089569,-1.1995043840885162,-0.18705109635293482
1761469125901017300,3.194017333984375,-0.5603805511206388,-1.1524608933627605,-0.1481920811265707
1761469125911000600,3.20400048828125,-0.691068539738655,-1.1343149958193302,-0.09896481662094593
1761469125920983300,3.2139833984375,-0.7431687293320893,-1.1420765697315334,-0.06646364598870277
1761469125930966300,3.22396630859375,-0.6624322278410196,-1.1395844606548546,-0.08308277235627173
1761469125940949500,3.233949462890625,-0.5017582662820815,-1.1613163999915121,-0.037889877933263774
1761469125950932500,3.243932373046875,-0.26391280223727226,-1.1673732158124446,-0.02658580910861492
1761469125960915200,3.253915283203125,-0.05928805527091026,-1.1549562173098324,0.03445230470001697
1761469125970898400,3.2638984375,0.06250526375174523,-1.1746800316944717,0.11433832684159279
1761469125980881400,3.27388134765625,0.09630115036964416,-1.252676294566691,0.14772738622426987
1761469125990864600,3.28386474609375,-0.011259645161032675,-1.2151076114118098,0.19370412450134752
1761469126000847400,3.293847412109375,-0.14185235671103,-1.1667016001611947,0.294963774061203
1761469126010830300,3.303830322265625,-0.251471838337183,-1.0821130994170904,0.5255202501416206
1761469126020813600,3.3138134765625,-0.3481950135111809,-0.9981389311790466,0.6406663862347602
1761469126030796500,3.323796630859375,-0.2889782699108124,-0.7967427908703685,0.8355664425224065
1761469126040779300,3.333779296875,-0.3167641024589538,-0.5941746841728687,1.1077455533236265
1761469126050762500,3.343762451171875,-0.32316987784802914,-0.2810352019518614,1.3048393202632664
1761469126060745500,3.353745361328125,-0.3621411212772131,0.04016863652020693,1.4562223063856363
1761469126070728200,3.363728271484375,-0.22676526710391043,0.38730917254239317,1.4332844983905553
1761469126080711400,3.37371142578125,-0.3493383383274078,0.7238987961947918,1.4147341116994618
1761469126090695400,3.3836953125,-0.38875557195842264,1.0303218296423553,1.396850664484501
1761469126100678400,3.393678466796875,-0.5597194568634033,1.0163397737801074,1.1639397342324256
1761469126110661600,3.40366162109375,-0.6361386796772479,1.100797341620922,1.0164525865048168
1761469126120644400,3.413644287109375,-0.24843641616404055,0.9798235222876072,1.0220318479418753
1761469126130627300,3.42362744140625,0.16823241411447523,0.7713345011085272,0.7172872691005467
1761469126140610600,3.433610595703125,0.5330594134747981,0.6225412392184138,0.5773971523731947
1761469126150593500,3.443593505859375,1.107692361831665,0.43853287156224247,0.5955085631251334
1761469126160576300,3.453576171875,1.3437877673387526,0.2669675136327743,0.2916892824351787
1761469126170559500,3.4635595703125,1.4562380884766577,0.18452713083326816,-0.08364975858926772
1761469126180542500,3.47354248046875,1.9325141229778526,0.41045799293965096,-0.1280138009727001
1761469126190525400,3.483525390625,2.2262422177642582,0.4595774131566286,-0.16419219881296157
1761469126200508400,3.49350830078125,2.1141431942820548,0.4783671615615487,-0.4919347914040088
1761469126210491400,3.503491455078125,1.6124071398317812,0.6337807183742523,-0.41555940773189065
1761469126220474400,3.513474365234375,1.0288777683138848,0.7684636218473315,-0.2517857265919447
1761469126230457300,3.523457275390625,0.4800666589558124,0.9342679320320486,-0.11147124697268009
1761469126240440300,3.5334404296875,0.06446224303841591,0.9259417099744081,-0.007408814951777458
1761469126250423600,3.543423583984375,-0.18906711235046386,1.037153721489012,0.02921615761220455
1761469126260406500,3.553406494140625,-0.05661912832260132,1.4234198147192596,0.49233986507356164
1761469126270389200,3.56338916015625,-0.2946843725979328,1.2223647429332136,0.4463151960015297
1761469126280372500,3.57337255859375,-0.5595639740407466,1.1684630568757652,0.49115270111560816
1761469126290355500,3.58335546875,-0.5205769485205411,0.8512792677000165,0.4893184714257717
1761469126300338400,3.59333837890625,-0.4188029196977615,0.5995905717417598,0.45972763528227806
1761469126310322400,3.603322509765625,-0.22189853785037994,0.4189902589634061,0.43083530279695986
1761469126320305400,3.613305419921875,-0.06384206531345844,0.27921120139509437,0.33765725288391113
1761469126330288400,3.623288330078125,-0.011949965512752533,0.18490794684439896,0.21810791339576244
1761469126340271400,3.633271240234375,0.14461656072735785,0.10350830526947974,0.03087444621324539
1761469126350254600,3.643254638671875,0.48281508088111874,0.09904109672755003,-0.18594050476253032
1761469126360237300,3.6532373046875,0.8483861766070127,0.12200871533900498,-0.38517771347165103
1761469126370220500,3.663220458984375,1.018981812721491,0.18309329863786697,-0.5841074636667967
1761469126380203500,3.67320361328125,1.023108537262678,0.2386620411247015,-0.7743769375443458
1761469126390186200,3.683186279296875,0.9119961867302656,0.25756109512299297,-0.8547750008612871
1761469126400169500,3.69316943359375,0.6892284648299217,0.2819312740087509,-0.9293354440659284
1761469126410152400,3.70315234375,0.381576474109292,0.29009733706861734,-1.0170254179567098
1761469126420135400,3.713135498046875,0.15140052177906035,0.22654314878582954,-0.9940998849213123
1761469126430118400,3.723118408203125,0.033731589210033414,0.1505968041807413,-1.0229588996589183
1761469126440101400,3.733101318359375,-0.012740239107608794,0.12056640757620334,-1.070332645252347
1761469126450084400,3.74308447265625,-0.017376082214713096,0.12214870833158492,-1.1031512112706898
1761469126460067600,3.753067626953125,-0.07392097625732422,0.13932429953813552,-1.1387012480795382
1761469126470050300,3.76305029296875,-0.17300445082187652,0.08270926286876201,-1.1829168219029902
1761469126480033300,3.773033203125,-0.27631752578020097,0.04141220684051514,-1.1476391722947359
1761469126490016500,3.7830166015625,-0.27397885369956493,-0.02835515686869621,-1.1400298663347959
1761469126499999500,3.79299951171875,-0.1199322013258934,-0.21166911251991985,-1.053704166534543
1761469126509982500,3.802982421875,-0.001454290461540222,-0.27067835084944963,-0.8448866440534591
1761469126519966500,3.812966552734375,-0.1663520071953535,-0.2625429751887917,-0.8114239349126815
1761469126529949400,3.822949462890625,-0.2896376106023788,-0.3378670962423086,-0.9055272829771042
1761469126539932400,3.832932373046875,-0.36787586553692814,-0.43776890145242214,-0.9751385793417692
1761469126549915400,3.842915283203125,-0.434537079924345,-0.5198597401618957,-1.0570680900096894
1761469126559898400,3.8528984375,-0.4519605084121227,-0.6213362473428249,-1.21773737539351
1761469126569881300,3.86288134765625,-0.44609541577100753,-0.7343819040253758,-1.3865782767951487
1761469126579864600,3.872864501953125,-0.2816694082021713,-0.8042357769742607,-1.5361293713152409
1761469126589847300,3.882847412109375,-0.08847557131052017,-0.9257587546229362,-1.6056272704333066
1761469126599830300,3.892830322265625,0.09109949007332324,-0.9318424584507942,-1.6188333734869955
1761469126609813500,3.9028134765625,0.1366840141624212,-1.0297171417474746,-1.6116192043244837
1761469126619799800,3.9127998046875,-0.005934066224098205,-1.0707625611022114,-1.6073358279168606
1761469126629783000,3.922782958984375,-0.2274421434521675,-1.047206621208787,-1.5076497112840412
1761469126639766000,3.93276611328125,-0.23933891747295855,-0.9672580552250146,-1.291222298321128
1761469126649749000,3.9427490234375,-0.23658114319741724,-0.7385352243125438,-0.9538713349074125
1761469126659732000,3.95273193359375,-0.1821060411661863,-0.38990795686393975,-0.6169780521333217
1761469126669715000,3.96271484375,-0.2576490656673908,-0.05098258374035358,-0.3959685720771551
1761469126679698000,3.972697998046875,-0.5437731151908636,0.20901479861885308,-0.18766367529332637
1761469126689681200,3.98268115234375,-0.8560217860519885,0.4086763702198863,0.05629471867382526
1761469126699665200,3.9926650390625,-1.1183593017965554,0.5408429069578647,0.24397417605817318
1761469126709648000,4.00264794921875,-1.2043494860321282,0.58176996062994,0.4080377800554037
1761469126719630800,4.012630859375,-1.094096382677555,0.5402297434955835,0.5741863736331463
1761469126729614000,4.022614013671875,-0.9440694873392581,0.4232403176233172,0.6172638833373785
1761469126739596800,4.0325966796875,-0.9306611397117376,0.2518155372083187,0.6065045889139175
1761469126749580000,4.042580078125,-1.1243716939538717,0.04703793776780366,0.5671574979096651
1761469126759563000,4.05256298828125,-1.3473065891146658,-0.2613829914987087,0.5174269600570202
1761469126769546000,4.0625458984375,-1.3965361917078494,-0.565333789613843,0.4215694618016481
1761469126779529000,4.072529052734375,-1.3879016343533992,-0.8336264143705368,0.25508885979056356
1761469126789512000,4.082511962890625,-1.314068336379528,-1.0767366670757532,0.17340952449142932
1761469126799495000,4.092494873046875,-1.3045347843587398,-1.2248209039136766,0.12167583012282848
1761469126809478100,4.10247802734375,-1.4964672230124472,-1.398075530104339,0.13268062373995781
1761469126819460900,4.1124609375,-1.8268968627303839,-1.5765595813810824,0.25630408079922196
1761469126829443800,4.12244384765625,-2.012559719595313,-1.6973408007517456,0.5869055699527264
1761469126839427000,4.132427001953125,-1.9548533805578945,-1.465513866344094,0.9988935489386319
1761469126849410000,4.14241015625,-1.3639239619165657,-1.0801277708187698,1.2286468919426201
1761469126859394000,4.15239404296875,-0.8186807741731404,-0.7190244681566953,1.4348381575733422
1761469126869376000,4.1623759765625,-0.680171298149228,-0.14986673634052275,1.5796896961003541
1761469126879360000,4.172360107421875,-0.5715642084360122,0.5072521875232457,1.5647241821587086
1761469126889343000,4.182343017578125,-0.35093642117381096,1.034878762294352,1.447520529013872
1761469126899326000,4.192325927734375,-0.2046457897543907,1.3239575699701904,1.1360942804515362
1761469126909309000,4.202308837890625,0.18054829033017158,1.4393582653462886,0.6938292366236448
1761469126919292000,4.2122919921875,0.7080921552538871,1.3843524174392223,0.26291969954669475
1761469126929275100,4.222275146484375,1.1957289572030305,1.264169748483598,-0.13287819213867186
1761469126939257900,4.2322578125,1.5801760183125733,1.1081851137846708,-0.5369330400377512
1761469126949240800,4.24224072265625,1.8969266767680644,0.9231061942875385,-0.87763448292315
1761469126959224000,4.25222412109375,2.1434055291235445,0.6557721854299307,-1.1353449233889579
1761469126969207000,4.26220703125,2.309783839803934,0.3947185720160603,-1.3012731522142886
1761469126979189800,4.272189697265625,2.5034113919377328,0.25121026479154823,-1.3265531394213437
1761469126989173000,4.282173095703125,2.6252935582876202,0.2127975320279598,-1.235508594405651
1761469126999156000,4.292156005859375,2.578715931507945,0.21746727740466593,-0.9531564646363258
1761469127009139000,4.302138916015625,2.3345465251386166,0.18868483503460884,-0.6158592772364616
1761469127019122000,4.312121826171875,1.9737585720360278,0.1583764982715249,-0.3575041091263294
1761469127029106000,4.32210595703125,1.5750234578549862,0.24633944388478993,-0.14336276127398012
1761469127039089000,4.3320888671875,1.1404080519974231,0.3942760889455676,0.07206570377945899
1761469127049072000,4.342072021484375,0.7315922733068466,0.659688189829886,0.2913070051193237
1761469127059054800,4.352054931640625,0.3621124797046184,0.9240908214107155,0.42033027539551254
1761469127069037800,4.362037841796875,0.0029401451051235196,1.1325517855390905,0.5343243188440799
1761469127079021000,4.37202099609375,-0.24190438404679296,1.377685653026402,0.68154784719944
1761469127089004000,4.382004150390625,-0.3237707663506269,1.4655524447888135,0.7345482005029916
1761469127098986800,4.39198681640625,-0.2721937238484621,1.4631912686154245,0.7549743179380893
1761469127108970000,4.401969970703125,-0.15645546708106994,1.2926353799894452,0.8110656229943036
1761469127118953000,4.411952880859375,0.02319207501709461,0.7440110253751278,0.8024182061582803
1761469127128936000,4.42193603515625,0.14352350479364395,0.4181871258869767,0.6607014585256576
1761469127138919000,4.4319189453125,0.3017173399746418,0.10083587118983268,0.5391951397508382
1761469127148902000,4.44190185546875,0.5108966815054417,-0.21041414402276276,0.36394554035067556
1761469127158885000,4.451885009765625,0.6546013880848884,-0.4460109523579478,0.1635422104716301
1761469127168868000,4.4618681640625,0.8127092985481024,-0.7592334366872906,0.029638182416558263
1761469127178851800,4.471851806640625,0.9418220006734133,-1.0339689539730548,-0.11504442928433417
1761469127188834800,4.481834716796875,1.0459902311563491,-1.1956500467479227,-0.30035657301545143
1761469127198818000,4.491818115234375,0.9324836789637804,-1.4120757061451672,-0.3479278870075941
1761469127208801000,4.501801025390625,0.7005050611257553,-1.5319246131017803,-0.34165421356558795
1761469127218783700,4.51178369140625,0.4944494045734405,-1.5297966611623763,-0.4406786514192819
1761469127228767000,4.52176708984375,0.32227614387869835,-1.509813903580606,-0.4958101715326309
1761469127238750000,4.53175,0.18971651616990565,-1.3482625746652483,-0.4672743974000215
1761469127248733000,4.54173291015625,0.08441606678664684,-1.1735393372267484,-0.4001338750630617
1761469127258716000,4.5517158203125,-0.03625789281725883,-1.0818924424037337,-0.42273967462480067
1761469127268699000,4.561698974609375,-0.12975216907262802,-0.9780456989601254,-0.46415305050909517
1761469127278682000,4.57168212890625,-0.19669103135764598,-0.8735945598825812,-0.462299531596899
1761469127288665000,4.5816650390625,-0.2264057861417532,-0.8858861784398555,-0.506132828104496
1761469127298647800,4.591647705078125,-0.3339899625480175,-0.950196445786953,-0.49211716223359103
1761469127308631800,4.6016318359375,-0.4697895950913429,-0.9467164947167038,-0.4425368465065956
1761469127318615000,4.611614990234375,-0.5944006018832325,-0.9516855153009295,-0.39069267750084397
1761469127328598000,4.621597900390625,-0.7467419116437435,-0.9655085812091827,-0.337888723552227
1761469127338580700,4.631580810546875,-1.013886243148148,-0.9978954778119921,-0.3217237706929445
1761469127348564700,4.641564697265625,-1.3021084339946507,-1.0560343630477786,-0.3131231156080961
1761469127358548000,4.6515478515625,-1.4412904024526476,-1.1308736231938004,-0.31702129209041596
1761469127368531000,4.661531005859375,-1.3880503951743244,-1.1726359586462378,-0.36758535815775395
1761469127378514200,4.67151416015625,-1.2201879834160207,-1.1854343576818704,-0.37619536559283734
1761469127388497000,4.681496826171875,-0.8787614411264657,-1.2075918289542198,-0.31664193738400936
1761469127398480000,4.69147998046875,-0.3899637787044048,-1.2923287982583045,-0.3251771260172128
1761469127408463000,4.701463134765625,-0.039677930393815036,-1.42495798407197,-0.330756971976161
1761469127418446000,4.711446044921875,0.11251169593632221,-1.5509095918178557,-0.2413794833898544
1761469127428428800,4.7214287109375,0.12100012281835079,-1.6116723958164452,-0.08936229101717472
1761469127438412000,4.731412109375,0.0164957922488451,-1.6612836912035942,0.09501578673422335
1761469127448395000,4.74139501953125,-0.14270751223564146,-1.6033575719356536,0.42646833975911136
1761469127458378000,4.7513779296875,-0.30198037482500073,-1.4773469274789095,0.7284586514562368
1761469127468361000,4.76136083984375,-0.38408407301604747,-1.3223235390275716,0.9549170445680618
1761469127478345000,4.771344970703125,-0.3082218995630741,-1.0973252815961838,1.077249877294898
1761469127488328000,4.781327880859375,-0.2110597484499216,-0.7801566899895668,1.178763793876767
1761469127498311200,4.791311279296875,-0.21263386589884756,-0.39172260507047174,1.247453883743286
1761469127508294000,4.8012939453125,-0.2405564765691757,0.08123305283635854,1.2787895177274942
1761469127518276900,4.81127685546875,-0.26454057874679565,0.46537762386798853,1.4197715213447808
1761469127528260000,4.821260009765625,-0.3720025900781154,1.0311723089918494,1.523549291205406
1761469127538243000,4.8312431640625,-0.6270435190737247,1.4120155003905295,1.4326216505676508
1761469127548225800,4.841225830078125,-0.8263888643324374,1.6479858182132243,1.2787082691848277
1761469127558209000,4.851208984375,-0.7349053433775902,1.7933552431344986,1.227425825715065
1761469127568192000,4.86119189453125,-0.3993906554803252,1.803953209516406,1.1118313613325357
1761469127578175000,4.871175048828125,0.11135025094151496,1.5179647690713405,0.8957359568029641
1761469127588158000,4.881157958984375,0.6698197077438235,1.181962589918077,0.6738041012048721
1761469127598141000,4.891140869140625,1.138983572152257,0.897890504488349,0.336861134070158
1761469127608124000,4.9011240234375,1.6225778207123278,0.7989537449181079,0.07730185086727141
1761469127618108200,4.911108154296875,2.054822990307212,0.6054971654370427,-0.231898538339138
1761469127628091100,4.921091064453125,2.344208087453246,0.5650882904201746,-0.6433318060517311
1761469127638074000,4.93107421875,2.4187346283882856,0.5663832986667752,-0.8543482998818158
1761469127648057300,4.941057373046875,2.154638870799541,0.5722144890382885,-1.101395892035961
1761469127658040300,4.951040283203125,1.5177619399756193,0.6709802759557962,-1.2025164253860712
1761469127668023000,4.96102294921875,0.8513608085036277,0.7562082436472177,-1.1211088927656412
1761469127678006300,4.97100634765625,0.6888111162006855,1.1147396499946713,-0.5444868164181709
1761469127687989200,4.9809892578125,0.4424170195192098,1.1865645307555794,-0.28448154301345346
1761469127697972000,4.990971923828125,0.17807430143207312,1.397195240138471,-0.2375666471034288
1761469127707955200,5.000955078125,-0.12555296381711958,1.5955273167014121,-0.15878127968013286
1761469127717938200,5.010938232421875,-0.39584816056787964,1.6990809224173427,-0.06571838057935238
1761469127727921200,5.020921142578125,-0.6097165366977453,1.4462088618934155,0.12371055082082748
1761469127737904000,5.030904052734375,-0.7192226210772991,1.1645306858628988,0.267689982688427
1761469127747888000,5.04088818359375,-0.740547148656845,1.0104290884315967,0.4412035520762205
1761469127757871000,5.05087109375,-0.7248147419959307,0.8201952703893184,0.6167863289535045
1761469127767854300,5.060854248046875,-0.6192500887185335,0.6796952050700783,0.6797860982239246
1761469127777837300,5.07083740234375,-0.43793110627681014,0.5269958756521343,0.5877560493022204
1761469127787820000,5.080820068359375,-0.1223848551750183,0.3808896608889103,0.4532978944957256
1761469127797803300,5.09080322265625,0.12141805596947669,0.34869799459725614,0.32142157287597656
1761469127807786200,5.1007861328125,0.4028849273368716,0.2285647177413106,0.1230646541327238
1761469127817769000,5.11076904296875,0.6029802141800522,0.20471213298887014,-0.17317746930122374
1761469127827752200,5.120752197265625,0.6571224309951067,0.18567074791043997,-0.43511224946379656
1761469127837735200,5.130735107421875,0.6169447343856096,0.13501228155791759,-0.5497679716914892
1761469127847718100,5.14071826171875,0.42288229796588417,0.16010522176027298,-0.8080103270769119
1761469127857701000,5.150701171875,0.19394933143407106,0.10952829621136188,-0.9766150816351175
1761469127867685000,5.16068505859375,0.0390194664850831,0.14191665411889554,-1.0562374844044446
1761469127877668000,5.170668212890625,-0.10632599303871393,0.14599778595268725,-1.1249369266211986
1761469127887651300,5.1806513671875,-0.2774012293636799,0.1532134164199233,-1.1889566865891217
1761469127897634300,5.19063427734375,-0.32239363277852534,0.14245266069173812,-1.0531021089881658
1761469127907617000,5.200616943359375,-0.31167730071395633,0.10765870294719934,-0.9609358664661646
1761469127917600300,5.210600341796875,-0.26012159326076506,-0.017977262978255748,-0.8713748380064964
1761469127927583200,5.220583251953125,-0.27310265538692474,-0.08350801203101874,-0.8108563641577958
1761469127937566200,5.230566162109375,-0.3604568214520812,-0.17044073781371116,-0.865435511085391
1761469127947549200,5.240549072265625,-0.43056262333542106,-0.23644904125034807,-0.9157353732585907
1761469127957532200,5.2505322265625,-0.4034048595577478,-0.2888485060513019,-0.8576876734375953
1761469127967515100,5.26051513671875,-0.5449643708020449,-0.2882370961546898,-1.0232219345092772
1761469127977498000,5.270498046875,-0.6838625538825989,-0.3910796309918165,-1.189931669101119
1761469127987482000,5.280482177734375,-0.7733946485087275,-0.4951829795449972,-1.3577812213778495
1761469127997465000,5.290465087890625,-0.8980556319221854,-0.611235124567151,-1.4724194079488515
1761469128007448300,5.3004482421875,-0.9522428569227457,-0.7153188916370272,-1.5565011282145975
1761469128017431300,5.310431396484375,-0.9083405868321657,-0.7822033933863043,-1.6069833612173794
1761469128027414000,5.3204140625,-0.7354647308260202,-0.7987459473863243,-1.657104359692335
1761469128037397200,5.330397216796875,-0.5865683008223772,-0.7957306912183761,-1.7042022109538315
1761469128047380200,5.340380126953125,-0.5479653061836958,-0.822111333143711,-1.6935171508103608
1761469128057363200,5.35036328125,-0.4553887292951345,-0.8732675198853015,-1.67207104267776
1761469128067346200,5.36034619140625,-0.48274669182002544,-0.8839987572580575,-1.6607102752298115
1761469128077329200,5.3703291015625,-0.49074265900999303,-0.7815306086912751,-1.5971645625144242
1761469128087312100,5.38031201171875,-0.4470423412322998,-0.697581282633543,-1.4416262102782726
1761469128097295400,5.39029541015625,-0.42711072931587696,-0.47887686464935536,-1.225499241566658
1761469128107279000,5.400279052734375,-0.5183382296830416,-0.2019683872386813,-0.9878665434896945
1761469128117262000,5.410261962890625,-0.6975397815793752,0.061703299719095224,-0.7360404848873615
1761469128127245300,5.420245361328125,-0.9368114790350198,0.2411100187987089,-0.3898211553633213
1761469128137228300,5.430228271484375,-1.172646772301197,0.42662557614743707,0.009176993668079376
1761469128147211000,5.4402109375,-1.3957587775945663,0.5858765191659331,0.3291501213014126
1761469128157194200,5.4501943359375,-1.6371183872401713,0.6283519713237882,0.6408861664652824
1761469128167177200,5.46017724609375,-1.9161194530159233,0.6179430977731942,0.9288654884666204
1761469128177160200,5.47016015625,-2.1292899100095033,0.5800926750674843,1.1867571307182312
1761469128187143200,5.48014306640625,-2.224667515793443,0.4949684600114822,1.343091601768136
1761469128197126100,5.490126220703125,-2.32998900796473,0.3126385469615459,1.3408195651829242
1761469128207109000,5.500109130859375,-2.3198966530174014,0.13442425253689289,1.2596259675741195
1761469128217092400,5.51009228515625,-2.0888541469857094,-0.07472206350713968,1.3280571142435074
1761469128227076000,5.520076171875,-1.7695055809915066,-0.22707857083678243,1.3812556204676627
1761469128237059000,5.53005908203125,-1.459102245736122,-0.4213108108654618,1.4806787022501229
1761469128247042300,5.540042236328125,-1.2208891174227,-0.3958578051790595,1.551731429594755
1761469128257025300,5.550025390625,-1.0429551012441516,-0.3719078975319862,1.5319599766761063
1761469128267008000,5.560008056640625,-0.7990256411105394,-0.2329705514848232,1.4016501737207174
1761469128276991200,5.5699912109375,-0.5372650484710931,-0.022390695506334303,1.3785510376840828
1761469128286974200,5.57997412109375,-0.11519698949754237,0.41341216657012697,1.113313124322891
1761469128296957200,5.589957275390625,0.4996054721623659,0.9467232167184352,0.4574737188756466
1761469128306940200,5.599940185546875,1.0891004740864039,1.249736441722512,-0.1365460669964552
1761469128316923100,5.609923095703125,1.4768933384925127,1.6010513408198952,-0.627197832852602
1761469128326906000,5.619906005859375,1.7156705304294824,1.838862318073213,-0.9997451973319053
1761469128336889300,5.629889404296875,1.8340894045829772,1.9393723183095455,-1.2820692700505256
1761469128346873300,5.639873291015625,1.9743653057575226,1.899027740700543,-1.4522861359804868
1761469128356856000,5.64985595703125,2.026505827361345,1.8178610310986636,-1.5565385376155376
1761469128366839300,5.65983935546875,2.0353899755626914,1.719964720492065,-1.5897259369462728
1761469128376822300,5.669822265625,1.9978753606826065,1.4902023173987864,-1.5323732336521148
1761469128386805000,5.679804931640625,2.0515859080821275,1.1273872423827647,-1.316410515591502
1761469128396788200,5.689788330078125,2.0935165858387945,0.9064882369637489,-1.0542051017940044
1761469128406771200,5.699771240234375,2.054782658296823,0.6755161658197641,-0.7343868724614382
1761469128416754200,5.709754150390625,1.9070944350391625,0.546049535690248,-0.3259890269219875
1761469128426737200,5.719737060546875,1.674779132592678,0.48144525383263825,0.05413491029143333
1761469128436720000,5.72972021484375,1.4603528303191065,0.42595103788673877,0.35484921070337294
1761469128446703000,5.739703125,1.256184302687645,0.42066374513357874,0.5767582699477672
1761469128456686300,5.749686279296875,1.158636951649189,0.48110623113662004,0.7104524546444415
1761469128466670300,5.75967041015625,1.080004144439101,0.6030465574145317,0.7956658092886209
1761469128476653000,5.769653076171875,0.8730816419243812,0.7027262443065643,0.7854337536096573
1761469128486636300,5.77963623046875,0.5870750813007355,0.7963271958068012,0.6517839925765991
1761469128496619300,5.789619384765625,0.3308312062561512,0.7914137048020958,0.5112625922083854
1761469128506602200,5.799602294921875,0.22572774074971674,1.000711996537447,0.5459726710617542
1761469128516585200,5.809585205078125,0.31530747390985486,1.0161132715478538,0.59631695689857
1761469128526568200,5.819568115234375,0.3995136973381042,1.0142001314029097,0.5450906275302171
1761469128536551200,5.82955126953125,0.4917956751942634,1.0371981451526284,0.4962713593035936
1761469128546534100,5.8395341796875,0.5464934800654649,0.8986761019080877,0.338651524618268
1761469128556517000,5.84951708984375,0.6352624813646077,0.8128036988332867,0.20229951888918876
1761469128566500000,5.8595,0.6498088931113482,0.6204582954645157,0.0909007526308298
1761469128576484000,5.869484130859375,0.6889104849219322,0.3620034663721919,-0.08232757007479667
1761469128586467300,5.87946728515625,0.77270929659307,0.128866326148808,-0.24873861398100852
1761469128596450000,5.889449951171875,0.883251738283038,-0.08702858737260102,-0.3774164318203926
1761469128606433300,5.899433349609375,0.9844605344384908,-0.2516805126518011,-0.5108873291552066
1761469128616416300,5.909416259765625,1.0071826538562774,-0.4099827766433358,-0.5699328078418969
1761469128626396000,5.91939599609375,0.980054992955923,-0.533384115384519,-0.6680448070257902
1761469128636379000,5.92937890625,0.9396154305398464,-0.627861557458341,-0.712881727617979
1761469128646361900,5.93936181640625,0.853180425146222,-0.6863061476424336,-0.6302268252849579
1761469128656344800,5.9493447265625,0.687521368651092,-0.7095534599781036,-0.5200105468094348
1761469128666328000,5.959328125,0.4460699890688061,-0.7329147540822625,-0.4016542164981365
1761469128676310800,5.969310791015625,0.26128537634313104,-0.7537298708349466,-0.2369189968496561
1761469128686293800,5.979293701171875,0.11953297287523745,-0.7630214307934046,-0.08806348337829112
1761469128696277800,5.98927783203125,0.09926496861129999,-0.765161657692492,-0.0028010288953781125
1761469128706261000,5.999260986328125,0.14546996268630027,-0.7479092018574476,0.03069850512444973
1761469128716243700,6.00924365234375,0.14888941574096679,-0.724743138064444,0.04417933346629142
1761469128726226700,6.019226806640625,0.09666267715841531,-0.7174328150510788,0.06394084951281548
1761469128736210000,6.0292099609375,0.015881167481839657,-0.6634057490482926,0.04388005825877189
1761469128746193000,6.03919287109375,-0.023033669584989546,-0.6099915542468428,-0.012070961543917656
1761469128756176000,6.04917578125,-0.06292787307798862,-0.5744724970981478,-0.05005027132630348
1761469128766158800,6.059158935546875,-0.15347732805311678,-0.5234758848324418,-0.09284194982647895
1761469128776141800,6.069141845703125,-0.3051882309556007,-0.4136699407234788,-0.15940554905831814
1761469128786125000,6.079125,-0.4425450298130512,-0.3114832394465804,-0.1827437545478344
1761469128796107800,6.089107666015625,-0.5697063056096434,-0.22821429686844347,-0.23930267711579797
1761469128806091800,6.099091796875,-0.7279992172509432,-0.15630436817258594,-0.33393501749038695
1761469128816074800,6.10907470703125,-0.8540519472837448,-0.14329787934422492,-0.48735973857343196
1761469128826058000,6.11905810546875,-0.96898239479959,-0.178609723483026,-0.6798579944163561
1761469128836040700,6.129040771484375,-1.0039601846784352,-0.3183119164228439,-0.8154244027256965
1761469128846023700,6.139023681640625,-1.006778749230504,-0.5288683915257454,-0.8253332177996635
1761469128856007000,6.1490068359375,-0.7626122654706239,-0.7866156568706035,-0.700604429847002
1761469128865990000,6.158989990234375,-0.3065782240092754,-0.948111163945496,-0.5301327123731374
1761469128875972900,6.168972900390625,0.03517711184322834,-1.0447641964927314,-0.28768413844704627
1761469128885955800,6.178955810546875,0.0061389411464333535,-1.1533964206472038,-0.03177402540147305
1761469128895938800,6.188938720703125,-0.2790554263114929,-1.2628455141425132,0.12471417490541935
1761469128905922000,6.198922119140625,-0.612042641557753,-1.2987272671237586,0.26608839271068574
1761469128915906000,6.208906005859375,-0.862708716470003,-1.2582388971298932,0.39615678812563415
1761469128925888800,6.218888671875,-0.9435130225002765,-1.1672235782086848,0.49265609141588207
1761469128935871700,6.228871826171875,-0.8720236573040485,-1.1583210175678134,0.48252281993627544
1761469128945855000,6.23885498046875,-0.7406634685128927,-1.0672890397727488,0.4724661208242178
1761469128955837700,6.248837646484375,-0.6082125618755817,-0.965683353254199,0.4217833968132734
1761469128965820700,6.258820556640625,-0.628518267801404,-0.7529264454975724,0.4856406596958637
1761469128975804000,6.268803955078125,-0.6433551869273185,-0.43081221418231724,0.7179185527414083
1761469128985787000,6.278786865234375,-0.5659539673388004,-0.0676323975071311,0.9519055877923965
1761469128995769900,6.288769775390625,-0.5424193624943494,0.31921091108918187,1.1236316892415283
1761469129005752800,6.2987529296875,-0.6232184078276157,0.6378399306371808,1.17916828302443
1761469129015735800,6.30873583984375,-0.7519540933340787,0.923642493121326,1.1572405288547276
1761469129025719800,6.3187197265625,-0.7194687047928572,1.0686553596898913,1.1032114170253275
1761469129035703000,6.328703125,-0.4595721524596214,1.2204901812329887,1.1487661304980517
1761469129045685800,6.338685791015625,-0.12870879749953745,1.4175354328557848,1.1602291892766952
1761469129055668700,6.348668701171875,0.09023936611264943,1.479846635340154,0.9530600185245275
1761469129065652000,6.35865185546875,0.09710194535851478,1.5562386778861284,0.5768897873729467
1761469129075634700,6.368634765625,0.3750003105893731,1.6742235445365308,0.4707008647173643
1761469129085617700,6.37861767578125,0.7531754518225788,1.522747327172756,0.1324748720347881
1761469129095601000,6.388600830078125,1.0615233158528805,1.2950427333921193,-0.2588987734675407
1761469129105583900,6.398583984375,1.419655786010623,1.1359276917129755,-0.3275958775967359
1761469129115566800,6.40856689453125,1.6267267570853232,0.9449041845977306,-0.5278752888351679
1761469129125549800,6.4185498046875,1.8575974136814475,0.9046741732791066,-0.7173924830406904
1761469129135533800,6.428533935546875,2.284792606410384,0.7684107226163148,-0.5541536394298077
1761469129145516800,6.438516845703125,2.166394482783973,0.7594038248181343,-0.7802467063605785
1761469129155500000,6.4485,1.9205846157312392,0.7316203303575516,-1.0495651670336723
1761469129165482800,6.458482666015625,2.028141611869633,0.9323819721549749,-0.8627186533421277
1761469129175465700,6.4684658203125,1.6403867413863538,0.9213879921928048,-0.7211047815620899
1761469129185449000,6.478448974609375,1.3093886541306972,-0.29633009397834537,-1.320752344188094
1761469129195432000,6.488431884765625,0.37840602737963197,1.4319099951669574,-0.881927796202898
1761469129205414700,6.49841455078125,0.29465777685195205,2.3581734844416378,0.4448270032703876
1761469129215398000,6.50839794921875,0.26941841391623017,2.124225320096314,0.5413783290088177
1761469129225380900,6.518380859375,-0.048370647676289076,1.8040727442428468,0.24137831434607504
1761469129235363800,6.52836376953125,-0.5012327811032533,1.67190328489542,0.15934534330368041
1761469129245347800,6.538347900390625,-0.5503168377459049,1.4057529328644274,0.28312428318560123
1761469129255330800,6.548330810546875,-0.34408173297345634,1.284632983058691,0.4284714962750673
1761469129265313800,6.558313720703125,-0.11706775180548429,1.1782862394928932,0.48098377380073065
1761469129275297000,6.568297119140625,0.07103928334116935,1.0135010432228446,0.36904841644763947
1761469129285279700,6.57827978515625,0.11038900469392537,0.8009788210049271,0.18794775293171403
1761469129295262700,6.5882626953125,0.040270051068067546,0.5978805529534816,0.023995792615413663
1761469129305246000,6.598245849609375,-0.08745002765506506,0.43851212103515863,-0.1267898121356964
1761469129315229000,6.60822900390625,-0.10189882424622773,0.32057576970160007,-0.2529670453310013
1761469129325211600,6.618211669921875,-0.0714946258932352,0.23809067097753284,-0.4007540527880192
1761469129335195000,6.62819482421875,0.03816197287291288,0.16461334683448076,-0.5508394003152847
1761469129345179000,6.638178955078125,0.09497194759249687,0.09818974059522151,-0.7344026545524597
1761469129355161900,6.648161865234375,0.09017711453139782,-0.002712473829090595,-0.76925886387825
1761469129365144800,6.658144775390625,0.00917114844918251,-0.01532411812096834,-0.8642559459120035
1761469129375127800,6.6681279296875,-0.16063246050477026,-0.07039309439212084,-1.0125888968139887
1761469129385110800,6.67811083984375,-0.2579202838242054,-0.1699003473266959,-0.9735065942257642
1761469129395094000,6.688093994140625,-0.4121025452762842,-0.08606704886406659,-1.0350199243307112
1761469129405076700,6.69807666015625,-0.6161421858310699,-0.13579028019309042,-1.0758294891029596
1761469129415059700,6.708059814453125,-0.7542328519210219,-0.15059154348373413,-1.1023422329753636
1761469129425043000,6.71804296875,-0.785678668281436,-0.18118892632126807,-1.1364455781072378
1761469129435026000,6.72802587890625,-0.7774544452935457,-0.18452245465815068,-1.2061924835503102
1761469129445010000,6.738010009765625,-0.7052437800854444,-0.2784559991136193,-1.1803320661067962
1761469129454993000,6.747992919921875,-0.6513786266461015,-0.2466334583953023,-1.2908382674396037
1761469129464976000,6.757975830078125,-0.5964779926791787,-0.31600071687102316,-1.3299322604656219
1761469129474958800,6.767958740234375,-0.6028127486586571,-0.3712549865812063,-1.2305927653133868
1761469129484941800,6.77794189453125,-0.7333376556694507,-0.4049430289104581,-1.2034300330996512
1761469129494924800,6.7879248046875,-0.8209200775325298,-0.5110711612895131,-1.1094254692345857
1761469129504907800,6.79790771484375,-0.9791256031513214,-0.5043593886911869,-1.193708265030384
1761469129514891000,6.80789111328125,-1.1262766507923603,-0.6355526964828372,-1.1354460456758737
1761469129524873700,6.817873779296875,-1.2778800016671419,-0.6210793499723076,-1.1591232738614081
1761469129534856700,6.827856689453125,-1.40315590210855,-0.5749290086939931,-1.151616843754053
1761469129544840000,6.83783984375,-1.4310381807684898,-0.7167500934839248,-1.1192921987324953
1761469129554824000,6.847823974609375,-1.4107552711963653,-0.8156707787021994,-1.0936796185702085
1761469129564807000,6.857806884765625,-1.3156009527742862,-0.8838324607804418,-1.1505454151302574
1761469129574790000,6.867789794921875,-0.9813710439905524,-0.9852139831542969,-1.1991513328671455
1761469129584772900,6.87777294921875,-0.7159305937945842,-0.9848118320941924,-1.2348059990942477
1761469129594755800,6.887755859375,-0.6704167968541384,-0.9893956527531147,-1.2876976313263178
1761469129604739000,6.897739013671875,-0.8313321659535169,-0.9535007480293511,-1.3361533269375563
1761469129614721800,6.9077216796875,-1.0782850655615328,-0.9032797963112592,-1.3261989191561936
1761469129624704500,6.91770458984375,-1.1489940940350294,-0.7854328768268227,-1.214971417811513
1761469129634687700,6.927687744140625,-0.9791332019358873,-0.5608458305448293,-1.0107874003499746
1761469129644670700,6.937670654296875,-0.8042068431407213,-0.28119302286207676,-0.7891092272520065
1761469129654654700,6.94765478515625,-0.8030214327484368,-0.07303834820389747,-0.6021446401387452
1761469129664637700,6.9576376953125,-1.0058321160301567,-0.013784195202589035,-0.3815507551461458
1761469129674620700,6.96762060546875,-1.2892881153881548,-0.09806611421555281,-0.21277590471804142
1761469129684603600,6.977603759765625,-1.5412006832301617,-0.27410452590584755,-0.15858078867197037
1761469129694587000,6.9875869140625,-1.8441057716846465,-0.45277503966540095,-0.07822773354053497
1761469129704569900,6.99756982421875,-2.1328367888361215,-0.770365071554482,0.05478197602331638
1761469129714552600,7.007552490234375,-2.3761130457580086,-1.0064400187954305,0.17770459133684635
1761469129724535800,7.017535888671875,-2.4234458748191594,-1.212317396171391,0.23936931261122224
1761469129734518800,7.027518798828125,-2.283403197878599,-1.309401805873215,0.24734394475221633
1761469129744501500,7.03750146484375,-2.0489397774875164,-1.265945233723521,0.3645598728567362
1761469129754485500,7.047485595703125,-1.7838515017300842,-1.3546765333607793,0.7865887688636779
1761469129764468700,7.05746875,-1.505568813356757,-1.5329571710199117,1.3402765443474054
1761469129774451700,7.06745166015625,-1.1331886221379042,-1.3674381075173616,2.2125012771815062
1761469129784434700,7.0774345703125,-0.9462819026917219,-0.6917527226105332,2.981504704993963
1761469129794417700,7.087417724609375,-1.0702955281123518,0.3893886091649532,3.1888240978717803
1761469129804400600,7.097400634765625,-1.0576572880744934,1.435418587809801,2.966986350297928
1761469129814383900,7.1073837890625,-0.4994704476058483,2.169041197900474,2.5974451818972826
1761469129824366800,7.117366943359375,0.25186112991571424,2.3177853599518534,2.2171184155881405
1761469129834349600,7.127349609375,0.9725362878888845,2.298255899095535,1.9756079992949962
1761469129844333600,7.13733349609375,1.0121996052354574,2.229918275928497,1.0174608867645263
1761469129854316800,7.14731689453125,1.0220651656895876,2.08189658293277,0.062327569097280495
1761469129864299800,7.1572998046875,1.3978174636900424,1.8595085079997777,-0.46559565053284163
1761469129874282500,7.167282470703125,1.7500187902331352,1.700558886015415,-0.9847983880907296
1761469129884265700,7.177265625,2.1039047088623044,1.4583826992899178,-1.3471844240397215
1761469129894248700,7.187248779296875,2.3964532384753228,1.125862809294462,-1.507051745390892
1761469129904231700,7.197231689453125,2.6652923911988733,0.907150208003819,-1.724740556591749
1761469129914214700,7.207214599609375,2.869101145607233,0.7836351797550917,-1.8486100973665713
1761469129924197600,7.21719775390625,3.0708167271286246,0.7697001779049635,-1.7977829964488743
1761469129934180900,7.227180908203125,3.15098331977725,0.8097139161244035,-1.4266098429322243
1761469129944164900,7.237164794921875,3.003282821559906,0.882114258685708,-0.8549223003774881
1761469129954147800,7.24714794921875,2.485416885563731,1.0014718749940394,-0.47725277057886123
1761469129964130600,7.257130615234375,1.7782628879427909,1.1381111732318996,-0.17157354123592375
1761469129974113800,7.26711376953125,1.1239245347082614,1.3037705219879745,0.08939911589622497
1761469129984096800,7.2770966796875,0.6345826824069023,1.4541951844722032,0.34027474190592766
1761469129994079700,7.287079833984375,0.2624333773344755,1.4797650945365428,0.5639432120382786
1761469130004062700,7.297062744140625,0.21335575043261049,1.5548112754315138,0.627690000283718
1761469130014045700,7.307045654296875,0.19529753117263315,1.590236516816914,0.6188584590524435
1761469130024028700,7.317028564453125,0.2370581130594015,1.5380176692798733,0.679270549917221
1761469130034012700,7.3270126953125,0.46273909205794334,1.5296981692239642,0.8063099528998136
1761469130043995600,7.33699560546875,0.6330851373255253,1.4825447883829475,0.8392840017408132
1761469130053978600,7.346978515625,0.48784781435132024,1.2646376582562924,0.7614724477857351
1761469130063961900,7.3569619140625,0.18704057495892046,0.8787219858989119,0.7107879702091217
1761469130073944800,7.36694482421875,0.13926584734916686,0.5339686372742056,0.5900678333759307
1761469130083927600,7.376927490234375,0.22216215722262858,0.31111294482946394,0.3960813848018646
1761469130093910800,7.386910888671875,0.3629594519227743,0.08832681048959493,0.1950339118003845
1761469130103893800,7.396893798828125,0.5564952341198921,-0.061712944330275056,0.020976737055182455
1761469130113876700,7.406876708984375,0.7347562902957201,-0.15709230367988347,-0.15457213755249977
1761469130123859700,7.416859619140625,1.046999700459838,-0.24336598103195428,-0.3821165723353624
1761469130133843700,7.42684375,1.407540400803089,-0.20995704790502787,-0.599800707361102
1761469130143826700,7.43682666015625,1.3604729446798562,-0.18971534712612628,-0.7069780565321445
1761469130153809700,7.4468095703125,1.0063660767763853,-0.3269219238579273,-0.7873352033168077
1761469130163792600,7.456792724609375,0.7165753214389086,-0.3923325536623597,-0.7538327466875314
1761469130173775600,7.466775634765625,0.4276613489359617,-0.4061483130469918,-0.6493477053403854
1761469130183758800,7.4767587890625,0.2243009228169918,-0.43360593655407426,-0.49754912415444846
1761469130193741800,7.486741943359375,0.11702888109982013,-0.4337774937286973,-0.3938718920588493
1761469130203724500,7.496724609375,0.07971884888112545,-0.46026451863795514,-0.285925896602869
1761469130213707800,7.506707763671875,0.08657236803770064,-0.49730187139511106,-0.21242694514989852
1761469130223691800,7.51669189453125,0.11735504431426524,-0.5676023190677165,-0.12177870597541332
1761469130233674800,7.5266748046875,0.1004991865813732,-0.5750795230805874,0.0016746552139520643
1761469130243657700,7.53665771484375,0.0011275427252054214,-0.557392475220561,0.026749475237727163
1761469130253640700,7.546640625,-0.09563596445918082,-0.5503673988893628,0.043369770649075504
1761469130263623700,7.556623779296875,-0.17724632617533206,-0.47349663291573524,0.04176291997432709
1761469130273606700,7.566606689453125,-0.30201778422594067,-0.4406082165315747,-0.04774140986204147
1761469130283589600,7.576589599609375,-0.4280488869488239,-0.43962826558351514,-0.12485212207138538
1761469130293572600,7.586572509765625,-0.5916016188144684,-0.3719000064864754,-0.12707155168652534
1761469130303555800,7.596555908203125,-0.5813339073002338,-0.4059694493487477,-0.19408640181720255
1761469130313539800,7.606539794921875,-0.3974818992495537,-0.44654257501661776,-0.24083003281354903
1761469130323522800,7.616522705078125,-0.27418168279528615,-0.5074070858240127,-0.3800678231120109
1761469130333505500,7.626505615234375,-0.33392508061826226,-0.6293848215028643,-0.5427537090152502
1761469130343488800,7.63648876953125,-0.48240123938322066,-0.7075842057317495,-0.6203939980566501
1761469130353471700,7.6464716796875,-0.6404460214823484,-0.6867714270666241,-0.7109691719949245
1761469130363454700,7.656454833984375,-0.7322861007899045,-0.6915393721207976,-0.7523094826430082
1761469130373437700,7.666437744140625,-0.7584048769086599,-0.7859314739987253,-0.6841144828170538
1761469130383420700,7.676420654296875,-0.7872831808686256,-0.8647358383834362,-0.6095815121412277
1761469130393403600,7.686403564453125,-0.4485147518724203,-0.8078741334766149,-0.5252928711265326
1761469130403388000,7.696387939453125,-0.5403197598665952,-0.5093634805887938,-0.04396773654222488
1761469130413370600,7.70637060546875,-0.5590706375658512,-0.8212529627487063,-0.4533639454692602
1761469130423353600,7.716353515625,-0.5907756893843412,-0.6316881300091743,-0.926885712826252
1761469130433336800,7.7263369140625,-0.6081733989089727,-0.44801761600524187,-0.6101824006438255
1761469130443319800,7.73631982421875,-0.7661860323041677,-0.3600929565757513,-0.46388241687417026
1761469130453302500,7.746302490234375,-0.6475847873210907,-0.4032993533566594,-0.4500526289641857
1761469130463285800,7.75628564453125,-0.45157823109626766,-0.33988340450078247,-0.4142717060089111
1761469130473268700,7.766268798828125,-1.121817917817831,-0.2810138669028878,-0.9174947841465473
1761469130483251700,7.776251708984375,-0.660946957719326,-0.5422168256595731,-1.0060510194778443
1761469130493235700,7.786235595703125,-0.3530044596195221,-0.5539382431134581,-0.6826216139107942
1761469130503218700,7.79621875,-0.28275369630753994,-0.5386828063145279,-0.6625181525588035
1761469130513201700,7.80620166015625,-0.08939677780866623,-0.6225058756440878,-0.4725923775523901
1761469130523185000,7.816184814453125,-0.5270324082702398,-0.5263105237364769,-0.05839490582346916
1761469130533167600,7.826167724609375,-0.8956576308697461,-0.24802082110047338,0.4716922138422727
1761469130543150600,7.836150634765625,-1.0058131190687418,0.07790332389175891,0.84371000148952
1761469130553133800,7.8461337890625,-1.0350573337316513,0.396979502685368,1.0696896711736916
1761469130563116800,7.85611669921875,-1.0076876807689665,0.7041270510151982,1.2184323719203471
1761469130573099500,7.866099609375,-0.9174199653446674,0.8216589132010936,1.1782470765262842
1761469130583083500,7.87608349609375,-0.6475538076609373,0.8569099670633673,1.0446037452340124
1761469130593066800,7.886066650390625,-0.24853812297284603,0.9513833174839615,0.9485931022435427
1761469130603049700,7.8960498046875,0.25624972026348114,0.970243208515644,0.8516460551857947
1761469130613032700,7.90603271484375,0.6883668795645237,0.8210720532238482,0.7902841162502765
1761469130623015400,7.916015380859375,0.749409669548273,0.5790212464436888,0.7833756520360707
1761469130632998400,7.925998291015625,0.7113000113844871,0.3287298500627279,0.738158207693696
1761469130642981600,7.935981689453125,0.7263987963169812,0.057765960270166394,0.5994137538701295
1761469130652964400,7.94596435546875,1.0563374376475811,-0.10381196439117192,0.3606161036670208
1761469130662948400,7.9559482421875,1.4098708895772696,-0.108509766818583,0.13474281696677207
1761469130672931300,7.965931396484375,1.827401889643073,-0.0015144962161779403,-0.008491934013366698
1761469130682914600,7.97591455078125,2.219377592691779,0.12899199835509062,-0.15226795226335524
1761469130692897300,7.985897216796875,2.367056463599205,0.3782689569965005,-0.3091524584114551
1761469130702880300,7.99588037109375,2.043582634368539,0.6977765129446983,-0.4262625880539417
1761469130712863500,8.005863525390625,1.3800339697182178,0.9432546638250351,-0.44055707086622714
1761469130722845400,8.015845458984375,0.6879957081645727,1.165884438559413,-0.3095774058252573
1761469130732828400,8.025828369140624,0.12487550294697283,1.418025554460287,0.02445347325503826
1761469130742812400,8.0358125,-0.14254267706274987,1.62037300414443,0.37946985721886156
1761469130752795400,8.04579541015625,-0.2699187646538019,1.6980913268581033,0.6547878505676984
1761469130762778600,8.055778564453124,-0.19288871646523476,1.6629709136381745,0.8368792786866426
1761469130772761300,8.06576123046875,-0.2117792948961258,1.460767548599839,0.8759007909983396
1761469130782744300,8.075744384765626,-0.35966391750872134,1.2257368497148156,0.8059650849848985
1761469130792727600,8.0857275390625,-0.3167611798495054,0.990159622862935,0.6849392432034015
1761469130802710500,8.09571044921875,-0.10241641837954521,0.8089008461758493,0.4661807569444179
1761469130812693200,8.105693359375,0.08518120594024657,0.677840224853158,0.21118542065620421
1761469130822677200,8.11567724609375,0.14453238957524298,0.5522586194634437,-0.00018470891714096068
1761469130832660500,8.125660400390625,0.1898801822990179,0.43203006553947926,-0.24180150819420812
1761469130842643500,8.1356435546875,0.1986246297687292,0.26336744331419465,-0.43321430688798424
1761469130852626400,8.14562646484375,0.20099545055329798,0.15464841765910387,-0.5422942748099565
1761469130862609400,8.155609375,0.326961671346426,0.08019143482893705,-0.5356289717018604
1761469130872592400,8.16559228515625,0.5497177028089761,0.07314239310026169,-0.5850812771350145
1761469130882575600,8.17557568359375,0.6718120506048202,0.10406652367413044,-0.7327186469882726
1761469130892558300,8.185558349609375,0.690029844340682,0.1863049541607499,-0.8327291732698678
1761469130902541300,8.195541259765625,0.5759872855752706,0.23049451676011085,-0.9713368489712476
1761469130912525300,8.205525390625,0.3463151911139488,0.2258057744219899,-1.0916431443065404
1761469130922508500,8.215508544921875,0.12112871763408184,0.15819237387627363,-1.1803256363660097
1761469130932491300,8.2254912109375,-0.047963528180122374,0.0646519203916192,-1.147810437208414
1761469130942474200,8.23547412109375,-0.3586941956937313,0.03371522259712219,-1.0076976176410912
1761469130952457500,8.24545751953125,-0.5740507645547389,0.07332856332212687,-0.901853562900424
1761469130962440400,8.2554404296875,-0.556112956804037,0.10150397970974445,-0.9751754042208194
1761469130972423400,8.26542333984375,-0.47613458020389077,0.06958090122640133,-1.0791565876990556
1761469130982406400,8.275406494140626,-0.3954313964605331,-0.014555179575085639,-1.1688672537624836
1761469130992390400,8.285390380859376,-0.2816162167102098,-0.13998714736104012,-1.2867097893327475
1761469131002373400,8.295373291015625,-0.29648119288682934,-0.20639409472644327,-1.3302367963701487
1761469131012356600,8.305356689453125,-0.5435702860951424,-0.25928514243662354,-1.2779530669033528
1761469131022339300,8.31533935546875,-0.8360761456102133,-0.24018764325678346,-1.1097469562739133
1761469131032322300,8.325322265625,-0.9825041396737099,-0.21565935119986532,-1.0188555559933186
1761469131042305500,8.335305419921875,-0.9416916522920131,-0.2722124285489321,-1.0603870052993296
1761469131052288500,8.34528857421875,-0.949817675602436,-0.3844590438082814,-1.0377677617341279
1761469131062271200,8.355271240234375,-0.8930646917670965,-0.5819909099042415,-1.2424696655899286
1761469131072255500,8.36525537109375,-0.8880155916839837,-0.7753545504048466,-1.3938713564127683
1761469131082238500,8.375238525390625,-0.7992220404654741,-0.8345663255691528,-1.5140613318920135
1761469131092221400,8.385221435546875,-0.7081383324831724,-0.7673109446808696,-1.570976812812686
1761469131102204400,8.395204345703124,-0.6370154625117779,-0.6613245588600635,-1.5498545298069715
1761469131112187400,8.4051875,-0.6653513301581144,-0.5505316495403647,-1.5421201361626387
1761469131122170400,8.41517041015625,-0.8993453794717788,-0.37809535399526356,-1.5571335808992386
1761469131132153600,8.425153564453124,-1.1490163058668375,-0.21170359931141136,-1.5795336287558077
1761469131142136300,8.43513623046875,-1.169308567789197,-0.08293985675424337,-1.5695318747013807
1761469131152120300,8.445120361328126,-1.101519226154685,0.05789543186873197,-1.4669085355728864
1761469131162103300,8.455103271484376,-1.0252391195505857,0.14605594588071108,-1.2695178315132856
1761469131172086500,8.46508642578125,-1.0514005657672882,0.2560945297017693,-1.0100403813749552
1761469131182069200,8.4750693359375,-1.2441712088108061,0.3917275735065341,-0.626651304885745
1761469131192052500,8.485052490234375,-1.4032441649138927,0.4778747018694877,-0.24857903950512408
1761469131202035500,8.495035400390625,-1.4982166970282793,0.49089054304808377,-0.024943887120485304
1761469131212018400,8.505018310546875,-1.5390414593696593,0.4948083010137081,0.16318799020648
1761469131222001400,8.51500146484375,-1.4737994641304015,0.5983133914127946,0.34225217945873737
1761469131231985400,8.5249853515625,-1.2782301302790642,0.7326014503493905,0.4610521618843078
1761469131241968400,8.534968505859375,-1.2553396685570477,0.817331405390799,0.6503530829906463
1761469131251951400,8.544951416015625,-1.3348545192986725,0.8538046945244073,1.0388052880883216
1761469131261934600,8.5549345703125,-1.197811024174094,1.043042195005715,1.4351684124410151
1761469131271917300,8.564917236328125,-1.003390275835991,1.1363353957310318,1.8520038314580916
1761469131281900300,8.574900390625,-0.9797516260951756,1.0725868539199233,1.9976473971456288
1761469131291883500,8.584883544921874,-1.0073784686893223,0.851388281032443,1.8360662576138973
1761469131301869300,8.594869384765625,-0.9191367061346769,0.40854631409943104,1.597287896633148
1761469131311852500,8.6048525390625,-0.35757658984065055,0.028419454276561736,1.160333818694949
1761469131321835500,8.61483544921875,-0.29781039566397666,-0.37181992698758837,0.6865992853701114
1761469131331819500,8.624819580078125,-0.6781973677277564,-0.3087316026508808,0.29346739802360533
1761469131341802200,8.63480224609375,-0.45520811203122136,-0.27540684067606924,-0.18237550575733183
1761469131351785500,8.644785400390624,0.19575228920280932,-0.17029431508034468,-0.5217646970003843
1761469131361768400,8.6547685546875,0.5780635073274374,-0.09144465024918318,-0.7886965547978878
1761469131371751400,8.66475146484375,0.9893822087496519,-0.05521276865601539,-1.1081962197005748
1761469131381734400,8.674734375,1.341522745016217,-0.07318710902482271,-1.310868079033494
1761469131391717400,8.68471728515625,1.57768303245306,0.01490589270889759,-1.3632289653897285
1761469131401700600,8.69470068359375,1.8417372889876364,0.07321282798796892,-1.382896373412013
