time,seconds_elapsed,z,y,x
1761469163346087000,0.1260869140625,1.0284235948055982,-0.8911027440443634,-0.4078185843467712
1761469163356071000,0.13607080078125,1.006332759028673,-0.9785738144874572,-0.5576362208485603
1761469163366054100,0.14605419921875,0.9633125324696302,-0.9917831324115395,-0.6699304746419191
1761469163376036900,0.156036865234375,1.0020353540956974,-0.9739987616568804,-0.7102519636362791
1761469163386019800,0.166019775390625,0.8998819705665111,-0.9598258593976497,-0.62848845718503
1761469163396003000,0.176003173828125,0.6363958693087101,-0.962550023664534,-0.49918520092368124
1761469163405986000,0.185986083984375,0.40149522654414177,-0.9420184000283479,-0.3730506378263235
1761469163415969800,0.1959697265625,0.1492681859254837,-0.9233332810416817,-0.25701895107030864
1761469163425953000,0.205953125,-0.10928221249580383,-0.8150795348107814,-0.17190964132249353
1761469163435936000,0.21593603515625,-0.30809914996623994,-0.7390989956751466,-0.098477909886837
1761469163445919000,0.2259189453125,-0.5360714547723532,-0.6988315749555826,-0.055956280499696726
1761469163455902000,0.23590185546875,-0.637615766492486,-0.6816378635704516,-0.08728723830878735
1761469163465885000,0.245885009765625,-0.5552314977943897,-0.7155848490968346,-0.14643383928239345
1761469163475869000,0.255868896484375,-0.4094909014731645,-0.7927274177491664,-0.2605155610144138
1761469163485852000,0.265851806640625,-0.32738603423833845,-0.8965577945798635,-0.3917378026396036
1761469163495835100,0.275835205078125,-0.4012918129265308,-1.0105606058567762,-0.4584311657309532
1761469163505817900,0.28581787109375,-0.485835890007019,-1.1104279242753983,-0.5135141705274582
1761469163515800800,0.29580078125,-0.520700282639265,-1.2247285494551061,-0.600834142062068
1761469163525784000,0.3057841796875,-0.46908115456104277,-1.3351117089301348,-0.6800637461215258
1761469163535768000,0.31576806640625,-0.3535515721082687,-1.4094783831283448,-0.7599573670476675
1761469163545750800,0.325750732421875,-0.213448104891181,-1.4199053768575192,-0.8440770812362431
1761469163555734000,0.335734130859375,-0.10681786820888518,-1.438102420066297,-0.901129924800992
1761469163565717000,0.345717041015625,-0.015197569131851196,-1.4682152342572807,-0.9145704211324452
1761469163575700000,0.355699951171875,0.09321078313887118,-1.4576160988315938,-0.8487649467915296
1761469163585683000,0.365682861328125,0.12738134828805922,-1.4332488425552845,-0.6938286521017552
1761469163595667000,0.3756669921875,0.05923895543217659,-1.3352233526110648,-0.3334937034636736
1761469163605650000,0.38564990234375,-0.1682511188149452,-1.0273556733131408,0.11352525689303875
1761469163615633000,0.3956328125,-0.5815080948233604,-0.8581649355605244,0.5237018025428056
1761469163625616100,0.4056162109375,-1.0382049841076135,-0.8068181946828961,0.7971189307063817
1761469163635598800,0.415598876953125,-1.3584253645002842,-0.7570198522910475,0.8571592656493187
1761469163645582000,0.42558203125,-1.5111381379216908,-0.643195904712379,0.8233189553678035
1761469163655566300,0.43556640625,-1.446981599831581,-0.48878421841859815,0.7496499080449343
1761469163665549300,0.44554931640625,-1.2193079857110976,-0.34153000266402955,0.6156593707501888
1761469163675532300,0.4555322265625,-0.89121175737679,-0.1881649028137326,0.49507133586406704
1761469163685515500,0.465515625,-0.8688912044972181,-0.12630173635780811,0.3753969086915254
1761469163695498200,0.475498291015625,-0.968109703618288,-0.2922907554596662,0.1526093130469322
1761469163705481200,0.485481201171875,-1.0729033725231885,-0.27234190014749765,0.10019815780818461
1761469163715465200,0.49546533203125,-1.1471978582680225,-0.04808014029711485,0.469000490540266
1761469163725448400,0.505448486328125,-1.16588969925642,0.1725169595658779,0.9409919795900583
1761469163735431400,0.515431396484375,-0.9938473714649677,0.42029432729929683,1.3364379890978335
1761469163745414100,0.5254140625,-0.5809036991894245,0.680057608641684,1.6847797176033257
1761469163755397400,0.5353974609375,-0.11994856793880462,0.8071735839918255,1.9594763641834259
1761469163765380400,0.54538037109375,0.4127051873445511,1.000755397287756,2.075184225812554
1761469163775364400,0.5553642578125,0.881411078852415,1.0959826348155737,2.1511299858957527
1761469163785347300,0.565347412109375,1.2622598232090472,1.083033136871457,2.037930892217159
1761469163795330300,0.575330322265625,1.857697074663639,0.9397891796715557,1.7282015107005833
1761469163805313300,0.585313232421875,2.5128233634054657,0.692954938007146,1.2745172472357749
1761469163815296500,0.595296630859375,2.9389836601287125,0.45268400038108225,0.6912742914438247
1761469163825279200,0.605279296875,2.8901614692926407,0.21396248415410518,0.16758710194826126
1761469163835263200,0.61526318359375,2.449189387884736,0.03611965339034796,-0.40343817730545994
1761469163845246200,0.62524609375,1.8543255524039268,-0.007326251234859227,-0.8444394848078489
1761469163855229400,0.6352294921875,1.0657254437178372,0.12032003159970045,-0.8182780385911465
1761469163865212400,0.64521240234375,0.18006956690251827,0.3043896279238164,-0.605675736874342
1761469163875195400,0.6551953125,-0.3861749078154564,0.44656829397976394,-0.3545774080246687
1761469163885178400,0.665178466796875,-0.7236749243110417,0.6920742096498608,0.09519640399813652
1761469163895162400,0.675162353515625,-0.8230389693826436,0.8810133117064833,0.6147632986932993
1761469163905145300,0.685145263671875,-0.6424953552275896,0.8801996572360395,0.9066203389108181
1761469163915128300,0.69512841796875,-0.35706104153394697,0.7426748083353042,0.9358516940921544
1761469163925111300,0.705111328125,-0.15349603275358675,0.5832946859791874,0.8439829732120037
1761469163935094300,0.71509423828125,0.12984569257497786,0.3054509735450148,0.8150865490734577
1761469163945077500,0.725077392578125,0.5368827711552381,0.17023410932570696,0.8357236789107322
1761469163955061500,0.7350615234375,0.8607681037962436,0.05143441916108131,0.7116700137406587
1761469163965044200,0.745044189453125,1.017991048118472,-0.009251520209014414,0.5183423213362693
1761469163975027200,0.755027099609375,1.0337024119913578,-0.071884794254601,0.22577508702278135
1761469163985010400,0.765010498046875,1.0573252796411514,-0.17281389668583869,-0.07599310635626316
1761469163994993400,0.774993408203125,0.9774842656850814,-0.1885758217021823,-0.37516952967643735
1761469164004976400,0.784976318359375,0.8587766377180814,-0.16175211218446492,-0.7217763972133397
1761469164014960400,0.79496044921875,0.9703560212403535,-0.026847090393304823,-0.7388666482239962
1761469164024943400,0.804943359375,1.0181056144088505,0.2257078670054674,-0.6110545073032378
1761469164034926300,0.81492626953125,0.7557762819707393,0.2740723772019148,-0.753242379578948
1761469164044909300,0.824909423828125,0.4048842844605446,0.15840046366900204,-1.114277585440874
1761469164054892300,0.834892333984375,-0.05745967079997062,-0.03050853551030159,-1.3240338500767945
1761469164064875300,0.844875244140625,-0.2960866406112909,-0.2621267956033349,-1.4605243874937295
1761469164074859300,0.854859375,-0.3367705331772566,-0.4373877931803465,-1.6530898633539675
1761469164084842500,0.864842529296875,-0.3510720302522182,-0.5595137051582336,-1.6241197894573212
1761469164094825200,0.8748251953125,-0.2810334483861923,-0.5921116141632199,-1.464990134730935
1761469164104808400,0.884808349609375,-0.16654899107217788,-0.494396213081479,-1.1392156273424625
1761469164114791400,0.89479150390625,-0.1436731423974037,-0.3318406755596399,-0.7467623699098825
1761469164124775400,0.904775390625,-0.31292028651237486,-0.20509908647984265,-0.39020518624484535
1761469164134758100,0.914758056640625,-0.4476917450517416,-0.2745005394861102,-0.4217173458397388
1761469164144741400,0.924741455078125,-0.5087205065101384,-0.40473990755379197,-0.6928168447107076
1761469164154724400,0.934724365234375,-0.6229553729772568,-0.5479983316704631,-1.0698416468650103
1761469164164707300,0.944707275390625,-0.7581663919776678,-0.7632038016229867,-1.354800159740448
1761469164174690300,0.954690185546875,-0.7985849116057157,-0.8700912279367446,-1.5534961011797188
1761469164184674300,0.96467431640625,-0.8418442076176404,-1.0415633546248078,-1.5815630887567995
1761469164194657300,0.9746572265625,-0.7927209880083799,-1.107522558222711,-1.5565093115210533
1761469164204640500,0.984640625,-0.5990466741234064,-1.2459995932817458,-1.3431442087382077
1761469164214623500,0.99462353515625,-0.43087329671978947,-1.1858265718698502,-1.106854741963744
1761469164224606200,1.004606201171875,-0.2964659953176975,-1.1619716490298508,-0.9074550361692905
1761469164234589400,1.01458935546875,-0.272542683416605,-1.100607079745829,-0.8953151010423899
1761469164244573400,1.024573486328125,-0.13089140223562717,-0.9811308054938912,-0.946747766637802
1761469164254556400,1.034556396484375,-0.07021218486726284,-0.7569085008710622,-0.9758744924008845
1761469164264539100,1.0445390625,-0.26940087825953957,-0.5961538752913474,-0.9247042771339415
1761469164274522400,1.0545224609375,-0.4202273995429277,-0.3428419620454311,-0.7505424729704856
1761469164284505300,1.06450537109375,-0.5992459960877895,-0.0329915844976902,-0.44506198107004163
1761469164294488300,1.07448828125,-0.8951344837784767,0.16846213121712206,-0.2422112580388784
1761469164304472300,1.084472412109375,-1.1805670439064502,0.24621669428795576,-0.11363456248641013
1761469164314455300,1.094455322265625,-1.4310796818226574,0.3963111019045114,-0.05570785869657993
1761469164324438300,1.104438232421875,-1.5738830556482075,0.4458069542184472,0.04609072004556656
1761469164334421500,1.11442138671875,-1.6141455079317093,0.36131548410803077,0.039245384195446965
1761469164344404200,1.124404296875,-1.5725480076521634,0.24535890841484068,-0.12230360663235187
1761469164354387200,1.13438720703125,-1.72276194999516,0.043972704978287216,-0.2132213103979826
1761469164364371200,1.14437109375,-1.992768392932415,-0.16859306412041186,-0.02793137849867344
1761469164374354400,1.1543544921875,-1.994993083244562,-0.43801761551648377,0.40000060407221316
1761469164384337400,1.16433740234375,-1.8150550337672233,-0.5829623852849006,1.0931044490307569
1761469164394320100,1.174320068359375,-1.4879273582041264,-0.41741029629558324,1.765090102636814
1761469164404303400,1.184303466796875,-1.2698188602864742,-0.2705304668113589,2.056432179069519
1761469164414286300,1.194286376953125,-1.1688941417694092,-0.2586287243545055,2.1841730083197355
1761469164424270300,1.204270263671875,-1.0804980654358862,-0.1680640718102455,2.422711715325713
1761469164434253600,1.214253662109375,-0.8055810541033744,0.04709375960826873,2.545806180074811
1761469164444236300,1.224236328125,-0.4110656034439802,0.23008213656693696,2.475294135478139
1761469164454219300,1.23421923828125,0.3188122671604156,0.28132249446064234,2.1059265700787306
1761469164464202500,1.244202392578125,1.1186223366469144,0.458332673792541,1.5794243231624363
1761469164474185200,1.254185302734375,1.45442490157485,0.6538751196369529,0.8978186082959174
1761469164484169200,1.264169189453125,1.754576891928911,0.6256634628921747,0.4752607199788093
1761469164494152200,1.274152099609375,2.0969377924591304,0.6007768589168787,0.12600012306272984
1761469164504135400,1.284135498046875,2.393067687690258,0.4730272618383169,-0.16504735433757303
1761469164514118400,1.294118408203125,2.6149030971765517,0.24709230807870625,-0.41196868976354595
1761469164524101400,1.304101318359375,2.667359260600805,-0.027696985220909118,-0.5405670126259327
1761469164534084400,1.31408447265625,2.675321033260226,-0.27731764273345466,-0.4955027130186557
1761469164544068400,1.324068359375,2.8383406811624763,-0.46314650381505484,-0.24581658905446527
1761469164554051300,1.33405126953125,3.0350299589544534,-0.4543973801702261,0.05426525867283344
1761469164564034300,1.344034423828125,2.813829340240359,-0.5128998380213976,0.3145774060696363
1761469164574017300,1.354017333984375,2.3309710047394034,-0.47264878391474485,0.5155985755860805
1761469164584000300,1.364000244140625,1.739935203114152,-0.34219080466032026,0.5841431195020675
1761469164593983500,1.3739833984375,1.1633780086964367,-0.18623773414343595,0.7519844884723424
1761469164603967500,1.383967529296875,0.7532710211515427,0.05223989032506943,0.9864765504360199
1761469164613950200,1.3939501953125,0.42363340859413146,0.3007791823416948,1.0754530570060015
1761469164623933400,1.403933349609375,0.16865093178749083,0.4673348954156041,1.1208850208818912
1761469164633916400,1.41391650390625,0.13896657214164734,0.611121435059607,1.0461164878845215
1761469164643899400,1.4238994140625,0.2703402049362659,0.5807791960269212,0.874080005311966
1761469164653878500,1.43387841796875,0.45600130823552604,0.2718374577566981,0.6460802279770373
1761469164663862500,1.443862548828125,0.5540303053110838,-0.10891834761947393,0.5675087955653667
1761469164673845500,1.453845458984375,0.7017711355388164,-0.339145737875998,0.5309750084161758
1761469164683828500,1.463828369140625,0.8619663736701011,-0.5757873790889978,0.4532283363908529
1761469164693811500,1.4738115234375,0.9197177208930254,-0.7618538483187556,0.30222061332166195
1761469164703794400,1.48379443359375,0.9725906484246254,-0.847553817436099,0.09203998579382897
1761469164713777700,1.493777587890625,0.972982862612605,-0.9356450656041503,-0.1381751295030117
1761469164723761700,1.50376171875,0.9848848973304033,-1.040117831991613,-0.369964946770668
1761469164733744600,1.51374462890625,0.9261305105447769,-1.09093528829813,-0.5455243427723646
1761469164743727400,1.523727294921875,0.8154559669077396,-1.1604518921166658,-0.6327928763806819
1761469164753710600,1.533710693359375,0.7872188834607601,-1.2689666273713112,-0.713506581518054
1761469164763693600,1.543693603515625,0.8333616259545087,-1.3464888429909945,-0.7342775668680668
1761469164773676300,1.55367626953125,0.8866595008999109,-1.3946584151372312,-0.6429267323821782
1761469164783660300,1.563660400390625,0.7355354579746722,-1.401835467159748,-0.47895314475595946
1761469164793643500,1.5736435546875,0.5197475119590759,-1.3836977529227732,-0.26495675833225246
1761469164803626500,1.58362646484375,0.26775720270574094,-1.3430711435019969,-0.029265257450938224
1761469164813609700,1.593609619140625,0.07830547495186328,-1.31086603320688,0.15496610530614852
1761469164823592400,1.603592529296875,-0.08644728035330772,-1.2813845026567579,0.25492460913956166
1761469164833576400,1.613576416015625,-0.2849573438316583,-1.2743334151014685,0.26777707644999027
1761469164843559400,1.623559326171875,-0.4527934521049261,-1.2811141612827777,0.20351473989784716
1761469164853542700,1.633542724609375,-0.5689134016662836,-1.2758420660987495,0.07160159339904784
1761469164863525400,1.643525390625,-0.625584552437067,-1.2929478069394826,-0.12464870845377445
1761469164873508400,1.65350830078125,-0.6849146932840346,-1.2998723455056547,-0.27752690156996246
1761469164883491600,1.66349169921875,-0.6943366016238928,-1.3168299100473522,-0.40334757641255853
1761469164893474600,1.673474609375,-0.5889753619641065,-1.351638773100078,-0.5909668280422687
1761469164903458600,1.68345849609375,-0.46970483941733837,-1.3855074326932428,-0.7134165651470422
1761469164913441500,1.693441650390625,-0.3767126674652099,-1.492224763137102,-0.7373276020884514
1761469164923424500,1.703424560546875,-0.3308814751386642,-1.556347691218555,-0.7066033780008554
1761469164933407500,1.713407470703125,-0.20627309869527816,-1.568304086472094,-0.5650275001436471
1761469164943390700,1.723390625,-0.1639385163128376,-1.5272037220597265,-0.416196536591649
1761469164953374500,1.73337451171875,-0.15683365274369715,-1.4588839268103242,-0.17042670928835868
1761469164963357400,1.743357421875,-0.10664484972953796,-1.3619772117629647,0.11379822861552238
1761469164973340400,1.75334033203125,-0.10928279701769351,-1.3204396249771118,0.30125732124745846
1761469164983323600,1.76332373046875,-0.2734814255714416,-1.3897992846682667,0.48373453381359577
1761469164993306400,1.773306396484375,-0.511602783948183,-1.4795181340381502,0.6993108829051256
1761469165003289300,1.783289306640625,-0.6849550252944231,-1.516908245755732,0.890810775360465
1761469165013273600,1.793273681640625,-0.7353039873063564,-1.4161074458792804,1.0469260507017373
1761469165023256600,1.803256591796875,-0.806077897709608,-1.1689511326536535,1.3060083640426396
1761469165033239600,1.813239501953125,-0.8789625166565179,-0.8740019716396927,1.6765823826223611
1761469165043222500,1.823222412109375,-0.9358598773986101,-0.4070926081597805,2.0356150164902207
1761469165053205500,1.83320556640625,-0.9837585236489772,0.17160773576647043,2.4736031136512753
1761469165063188500,1.8431884765625,-1.0565227310866117,0.7383966926246881,2.8834938280969857
1761469165073172500,1.85317236328125,-1.0078618682920932,1.2339759780108928,3.1250287943094968
1761469165083155500,1.863155517578125,-0.8218184876769781,1.5515537349402904,3.1174931381076574
1761469165093138400,1.873138427734375,-0.44137014081478115,1.730915738095343,2.9198446598947045
1761469165103121400,1.883121337890625,-0.04535422246456146,1.8122642340049147,2.5516923155039546
1761469165113104600,1.893104736328125,0.31940380331277846,1.6247341219633817,1.9609838461369276
1761469165123087400,1.90308740234375,0.9254337604522704,1.7519208244621753,1.378675540846586
1761469165133070600,1.913070556640625,1.5279519100785255,1.4019631851926446,0.5592389798700809
1761469165143054600,1.9230546875,2.378091652354598,1.0870441260784864,-0.33695816470384593
1761469165153037600,1.93303759765625,3.0767566385716196,0.8728840735256671,-1.152239944088459
1761469165163020500,1.9430205078125,3.614105858194828,0.5485805154725909,-2.068927503505349
1761469165173003500,1.95300341796875,3.60585766980946,0.24588059420138597,-2.7644010002046824
1761469165182986500,1.962986572265625,3.135893887194991,0.0748173405751586,-2.951668369656801
1761469165192970500,1.972970458984375,2.417355741250515,0.14104250163286924,-2.726251010030508
1761469165202953500,1.982953369140625,1.6548498587638139,0.44885465135127306,-2.0609189690947534
1761469165212936400,1.9929365234375,0.8946668662667274,0.8707350787982344,-1.072376718300581
1761469165222919400,2.00291943359375,0.28900515791773795,1.2807868290245532,-0.3532213172405958
1761469165232902400,2.01290234375,-0.28433775062859057,1.481778772446513,0.042671266990900035
1761469165242885600,2.0228857421875,-0.5827081182628869,1.7227847463488577,0.4563835855513811
1761469165252869600,2.03286962890625,-0.8106056042671204,2.1211340760827064,1.1949936286658047
1761469165262852400,2.042852294921875,-1.1030097569733857,1.7895856614679098,1.5355717374324798
1761469165272835600,2.052835693359375,-1.0843553253859282,1.4836837292850016,1.6157991203576325
1761469165282818600,2.062818603515625,-0.845608528587222,1.1718421779200434,1.692239385959506
1761469165292801500,2.072801513671875,-0.5082260009914636,0.7953446145102381,1.8061083417236803
1761469165302784500,2.082784423828125,-0.18193828338384627,0.541362839178741,1.9085300208002327
1761469165312767500,2.092767578125,0.17900398349761962,0.4093514930024743,1.8201240075945853
1761469165322751500,2.10275146484375,0.6265419992923736,0.16137684913128614,1.4566975226819514
1761469165332734500,2.112734375,1.0965911221027373,0.09538403552472591,1.2972668391823767
1761469165342717400,2.122717529296875,1.1930752278238534,-0.02396072130203247,0.8955413110136985
1761469165352700400,2.132700439453125,1.2020680970966815,-0.17375263884067535,0.34657705692052837
1761469165362683600,2.14268359375,1.0905495038509367,-0.27577216685712336,-0.29064883347153664
1761469165372666600,2.15266650390625,0.9697592243909835,-0.39718028595447535,-0.8344500057131051
1761469165382650600,2.162650634765625,0.7916162416368723,-0.43428485872894523,-1.1727636766791343
1761469165392633300,2.17263330078125,0.5454816726744175,-0.49440030473470686,-1.4083984789371489
1761469165402616600,2.182616455078125,0.26299685643613335,-0.5493281189695001,-1.618866106712818
1761469165412599600,2.192599609375,0.10305997698009013,-0.5067702492251992,-1.7077818230062722
1761469165422582300,2.202582275390625,0.040537177571654315,-0.4236667263418436,-1.6935323483794926
1761469165432565500,2.2125654296875,-0.01311433311700821,-0.336284795486927,-1.6371517049878834
1761469165442549500,2.222549560546875,0.0044184009641408915,-0.20485124919861553,-1.6141823328107594
1761469165452532500,2.232532470703125,0.03277706496417522,-0.1402504744723439,-1.5708242525994778
1761469165462515700,2.242515625,-0.04175181405842304,-0.08977613251507281,-1.4930828412711619
1761469165472498400,2.25249853515625,-0.19992402192950248,-0.11675386355072259,-1.334719494742155
1761469165482481400,2.2624814453125,-0.41373686847984786,-0.18943302305340765,-1.2466998505055904
1761469165492464600,2.272464599609375,-0.554712442356348,-0.2977639261737466,-1.272750822085142
1761469165502448600,2.28244873046875,-0.5849690489321947,-0.41068800230324265,-1.33676181422472
1761469165512431600,2.292431640625,-0.6452689115941525,-0.5637666864275932,-1.3970464793175459
1761469165522414300,2.302414306640625,-0.6984878760844468,-0.6649544397950172,-1.424491535604
1761469165532397600,2.3123974609375,-0.5798591585725545,-0.7995566792473197,-1.396400582629442
1761469165542380500,2.322380615234375,-0.3754980309784412,-0.8328133444219827,-1.3547212492853402
1761469165552363500,2.332363525390625,-0.186938868150115,-0.8029179723739623,-1.2935872738867997
1761469165562347500,2.342347412109375,-0.0411480029463768,-0.7917237936645746,-1.1958043605268
1761469165572330500,2.35233056640625,-0.20577742413282393,-0.718877753162384,-1.1231243242412805
1761469165582313500,2.3623134765625,-0.5474900898873806,-0.6001493746683001,-1.0564689550727606
1761469165592296700,2.372296630859375,-0.6417021590232849,-0.4223956834927201,-0.9915595527887344
1761469165602279400,2.382279541015625,-0.5499199473828077,-0.21145780785679816,-0.8341454698085784
1761469165612262400,2.392262451171875,-0.48087388368546957,-0.10560235493928194,-0.6210130067378282
1761469165622246400,2.402246337890625,-0.38267186813056464,-0.0042751931011676784,-0.3196300132840872
1761469165632229600,2.412229736328125,-0.34439036053121086,-0.009204173935949802,0.013392565536499023
1761469165642212400,2.42221240234375,-0.5991524725854397,-0.08833908544927835,0.3025818478494882
1761469165652195300,2.4321953125,-0.8989847294658422,-0.20166735846549272,0.5793710827946662
1761469165662179300,2.442179443359375,-1.0518617535382508,-0.29900808101594445,0.8292389930665492
1761469165672162300,2.452162353515625,-1.2245230900108814,-0.31635785974562164,0.9766355399012565
1761469165682146300,2.462146240234375,-1.445782160913944,-0.43788200643807645,1.0103250435352324
1761469165692129300,2.47212939453125,-1.6292390321671961,-0.5581754422917962,0.9581015198230742
1761469165702112500,2.482112548828125,-1.8228677533447741,-0.7050164010703563,0.8483750706911086
1761469165712095200,2.49209521484375,-1.7988123394966125,-0.7377122174918651,0.7823118221968411
1761469165722078200,2.502078125,-1.6938894912540912,-0.8062228591382503,0.9205138397067785
1761469165732061400,2.5120615234375,-1.749920006033778,-0.822547970995307,1.1992319968879221
1761469165742045400,2.52204541015625,-1.5026532181710004,-0.7856275226160884,1.5899123994290827
1761469165752028200,2.532028076171875,-0.9715122055381535,-0.5657672125950456,1.8797557617366314
1761469165762011400,2.542011474609375,-0.34417233386635776,-0.21326222693026065,1.9862357762932776
1761469165771994400,2.551994384765625,-0.03876373815834522,0.18472762184143066,1.825943507528305
1761469165781977300,2.561977294921875,-0.14846154571771622,0.5921604217410087,1.6158774462908505
1761469165791960300,2.571960205078125,-0.4122895922809839,1.0728338144183158,1.4162959541887044
1761469165801944300,2.5819443359375,-0.4124205251842737,1.4998799540653824,1.1904694292396307
1761469165811927300,2.59192724609375,0.10865911216139792,1.6557921080499887,0.8754548007965087
1761469165821910300,2.60191015625,1.057434000712633,1.6023910649910569,0.30686288616955276
1761469165831893500,2.6118935546875,2.019430189886689,1.3992211930081246,-0.24700316849052906
1761469165841876200,2.621876220703125,2.651483061555028,1.1013201964512467,-0.7270914547562599
1761469165851859500,2.631859375,2.9498879159808156,0.847466139152646,-1.0373135882258415
1761469165861843500,2.641843505859375,2.9919366671591994,0.5818222753390669,-1.0892179629862309
1761469165871826400,2.651826416015625,2.9262101032733914,0.387635920278728,-0.9046329644858837
1761469165881809200,2.66180908203125,2.809318584817648,0.2699769245818257,-0.48898003325164313
1761469165891792400,2.67179248046875,2.6147107894748447,0.24716800366342065,-0.03302548676729202
1761469165901775400,2.681775390625,2.1999399017721415,0.19403934780508278,0.3358025649279356
1761469165911758300,2.69175830078125,1.7725643840402363,0.22041765164285898,0.610774521318078
1761469165921741300,2.7017412109375,1.376646665367484,0.3669426763400435,0.8147697382092476
1761469165931725300,2.711725341796875,0.9341910674035548,0.6063999594956636,0.9969190339952707
1761469165941708300,2.721708251953125,0.5642214444577693,0.8440107380017637,1.1122568932682275
1761469165951691300,2.731691162109375,0.24720775115191934,1.0491866891101003,1.065073117288947
1761469165961674500,2.741674560546875,0.07140519404411315,1.353295015874505,0.9998772992789745
1761469165971657200,2.7516572265625,-0.024853286227583885,1.6585045818790793,0.8790466878086328
1761469165981640400,2.761640380859375,0.10857026483416557,1.8374089043945072,0.6695552115887403
1761469165991624400,2.77162451171875,0.38247722234129905,1.7637766819506882,0.4607271677136421
1761469166001607400,2.781607421875,0.6792255417317151,1.36679776378721,0.24539105711877346
1761469166011590100,2.791590087890625,0.8209230001419782,0.8588204768598079,0.19659984594285487
1761469166021573400,2.801573486328125,0.8548989195019007,0.40428631856739516,0.14819500373601913
1761469166031556400,2.811556396484375,0.9557458966076373,-0.01500000073313713,0.02623509597480297
1761469166041539300,2.821539306640625,1.065364209190011,-0.3709267775401473,-0.16853578097522257
1761469166051523300,2.8315234375,1.1706991453647613,-0.6682119802862405,-0.34125323154926296
1761469166061506300,2.84150634765625,1.2901350876063107,-0.9221215671643614,-0.5500964729934931
1761469166071489300,2.8514892578125,1.3427823896884918,-1.1226947006523609,-0.7544277899712324
1761469166081472500,2.861472412109375,1.2546364887237549,-1.1828308971852064,-0.87366207216084
1761469166091455200,2.871455322265625,1.1214110905826091,-1.1426286506563423,-0.897383139488101
1761469166101438200,2.881438232421875,0.9824187994778155,-1.0451026346668602,-0.9356576328247785
1761469166111422200,2.891422119140625,0.8649380829572677,-0.9598758360192179,-0.9129068718343972
1761469166121405400,2.901405517578125,0.6911667394161224,-0.8347542493566871,-0.8025076380074023
1761469166131388400,2.911388427734375,0.4795891045719385,-0.7569727982789277,-0.635163112643361
1761469166141371100,2.92137109375,0.33804654446244237,-0.7753902062401175,-0.4571972400218248
1761469166151354400,2.931354248046875,0.20598492940366267,-0.7371890704005957,-0.27994273054003715
1761469166161337300,2.94133740234375,-0.014565116447210312,-0.6888385887295008,-0.11331950518786907
1761469166171321300,2.9513212890625,-0.2207674879938364,-0.6745908676683903,0.0033288521617650985
1761469166181304600,2.9613046875,-0.3455886304050684,-0.6601847411751747,0.13171324001252652
1761469166191287300,2.971287353515625,-0.5310626866996287,-0.6244727918028831,0.22660218549668787
1761469166201270300,2.981270263671875,-0.7911918787449598,-0.6551327184826136,0.20320085164308546
1761469166211253500,2.99125341796875,-1.0166676905602217,-0.6869453223288059,0.10117606292963027
1761469166221236200,3.001236328125,-1.1476286509007214,-0.6375611136958003,0.03203822929561138
1761469166231220200,3.01122021484375,-1.213161738041043,-0.648043052482605,-0.1060989062845707
1761469166241203200,3.021203125,-1.1588503021389245,-0.7076590245336294,-0.2919716065078974
1761469166251186400,3.0311865234375,-0.9695610714703797,-0.7656438882514834,-0.4509890330314636
1761469166261169400,3.04116943359375,-0.6308534327507018,-0.8201450015068054,-0.5315612838715315
1761469166271152400,3.05115234375,-0.25031799212694167,-0.8715686070129275,-0.5622346545547247
1761469166281135400,3.06113525390625,0.09156009332239627,-0.9608385435715318,-0.5074953486293554
1761469166291118300,3.071118408203125,0.16694120526015757,-1.055606493024528,-0.39811669002175326
1761469166301102300,3.081102294921875,0.09733224698305129,-1.1504825790271163,-0.250983178037405
1761469166311085300,3.091085205078125,0.046477673536539074,-1.2073720487236976,-0.11898059968948363
1761469166321068300,3.101068359375,0.01139934589266777,-1.1591679897859692,0.027839024040102956
1761469166331051300,3.11105126953125,-0.04398351863324642,-1.0510513139382005,0.16889058576226235
1761469166341034500,3.121034423828125,-0.03434124554097652,-0.9717004215866327,0.2501929044425487
1761469166351017200,3.131017333984375,0.0528115527331829,-0.9217971575155853,0.2814712552815676
1761469166361001200,3.141001220703125,0.19669278492331504,-0.8254849012300371,0.3010854718118906
1761469166370984200,3.150984130859375,0.2979723082274198,-0.662209525001049,0.33890520711839195
1761469166380967400,3.160967529296875,0.2809340796649456,-0.4572910557851195,0.3659954586178064
1761469166390950400,3.170950439453125,0.14641630362570285,-0.23139526499211788,0.43512218633592126
1761469166400933400,3.180933349609375,0.011194763231277466,0.11253858394324778,0.5483084205329418
1761469166410916400,3.190916259765625,-0.009254150557518005,0.4451946675390005,0.6542436606884002
1761469166420900400,3.200900390625,-0.13060031033456324,0.8064481923267245,0.7900994073331356
1761469166430883300,3.21088330078125,-0.2293763263851404,1.0727689324885605,0.8173819665342569
1761469166440866300,3.2208662109375,-0.33536826516389845,1.2128130707338451,0.9244277982801199
1761469166450849300,3.230849365234375,-0.31354806302189825,1.2036030515789984,1.10214408005476
1761469166460832300,3.240832275390625,-0.1470715526640415,1.1181332379557192,1.2873977715969085
1761469166470815500,3.2508154296875,0.11757540906667709,0.8831856873095035,1.4684171865701674
1761469166480798200,3.260798095703125,0.3203472216427326,0.6699144002899527,1.654527202680707
1761469166490782200,3.2707822265625,0.44232408053874966,0.5811171958096325,1.6406208424031734
1761469166500765400,3.280765380859375,0.7615887676417827,0.4484080766275525,1.3736509906828402
1761469166510748400,3.29074853515625,1.2919348305046559,0.43835444625541564,1.0037526794075966
1761469166520731400,3.3007314453125,1.8631851506859063,0.5026468856848776,0.6569722088694572
1761469166530714400,3.31071435546875,2.176270272371173,0.6235454478248953,0.3305687559276819
1761469166540697300,3.320697265625,2.196478947663307,0.7717045034646988,0.10822773500680923
1761469166550681300,3.330681396484375,1.97655200214684,0.9067701226450502,0.002421089667081833
1761469166560664300,3.340664306640625,1.7130220617473124,1.0348197255834937,-0.11123217751979828
1761469166570647300,3.350647216796875,1.542531639572978,1.17942532652542,-0.31629823851287364
1761469166580630300,3.36063037109375,1.2633283292233943,1.2854542363137007,-0.5897311487674712
1761469166590613200,3.37061328125,0.7807347821384668,1.3253656832024454,-0.8944704669117927
1761469166600596500,3.380596435546875,0.18369886331558227,1.309996849156916,-1.1094178704500197
1761469166610580500,3.39058056640625,-0.3964584014207124,1.4001763017758726,-1.178000992810726
1761469166620563200,3.400563232421875,-0.7931769150823355,1.4110475321412086,-0.9715320792824029
1761469166630546400,3.41054638671875,-0.8772440223008394,1.3663036966599522,-0.6651075845301151
1761469166640529400,3.420529296875,-0.5598772777736186,1.3444053147152066,-0.3737748604476452
1761469166650512100,3.43051220703125,-0.23920447743833065,1.2374107747651635,-0.13638590799868106
1761469166660494300,3.440494384765625,-0.17007190450131893,1.087807803927362,0.08271744617521762
1761469166670477300,3.450477294921875,-0.23727380163669584,0.9333492097519338,0.17954466624557971
1761469166680461300,3.46046142578125,-0.17516133659482,0.7641210625983774,0.29554478881955143
1761469166690444500,3.470444580078125,-0.02636369079053402,0.703690997685492,0.46667233985364437
1761469166700427300,3.48042724609375,0.18732699068486688,0.695690062059462,0.5523176561743021
1761469166710410200,3.49041015625,0.3710772919267416,0.6986036114186048,0.48578620564639563
1761469166720393500,3.5003935546875,0.40162148327231406,0.6741694273859262,0.34237609809935093
1761469166730376400,3.51037646484375,0.3820961140692234,0.5988114040628075,0.0678133070319891
1761469166740360200,3.520360107421875,0.3240162655442953,0.48911447328627106,-0.2733516617119312
1761469166750343400,3.530343505859375,0.22999650411009787,0.3560182544827461,-0.5035299521297216
1761469166760326400,3.540326416015625,0.052713937577605244,0.25573621778339145,-0.6967039152771234
1761469166770309400,3.550309326171875,-0.13537526965141294,0.08999182109236717,-0.8980506634861231
1761469166780292400,3.560292236328125,-0.1762988161921501,-0.1467582489311695,-1.151986261588335
1761469166790275300,3.570275390625,-0.15247253492474555,-0.34647125845849513,-1.2889508462578056
1761469166800258300,3.58025830078125,-0.11679156521260738,-0.4396408328041434,-1.4078916984587906
1761469166810242300,3.5902421875,-0.11619710645079612,-0.5044993816837668,-1.415638367062807
1761469166820225500,3.6002255859375,-0.15554828910827637,-0.4742538810238242,-1.500087751597166
1761469166830208300,3.610208251953125,-0.2398340075135231,-0.446877798320353,-1.496486512234807
1761469166840191500,3.62019140625,-0.38803953264355656,-0.30172113936692474,-1.4682272169560193
1761469166850174500,3.630174560546875,-0.5305974072754382,-0.1632768375337124,-1.3866981037825346
1761469166860157400,3.640157470703125,-0.6795616418182849,-0.07319821494072676,-1.2761544930487871
1761469166870141200,3.65014111328125,-0.8002437847286462,0.017761574400961398,-1.1793950775176285
1761469166880124400,3.66012451171875,-0.7006149512410164,0.07897095312327146,-1.1614631149858237
1761469166890107400,3.670107421875,-0.6462783808976411,0.0975362451225519,-1.135771624368429
1761469166900090400,3.68009033203125,-0.7075614093780517,0.12437544447034597,-1.0451888516455887
1761469166910073300,3.6900732421875,-0.8211445339381694,0.14366262100338936,-0.9473533313155174
1761469166920056300,3.700056396484375,-0.8475392043888569,0.1426253869101405,-0.8536533033549785
1761469166930040300,3.710040283203125,-0.7543839508295058,0.16357786630690097,-0.7742582796007395
1761469166940023300,3.720023193359375,-0.5952712472379207,0.27753946879059077,-0.7532254284441471
1761469166950006500,3.730006591796875,-0.3440238653063774,0.45578912678956984,-0.8052063755720853
1761469166959989200,3.7399892578125,-0.21709552148282527,0.6222305658340453,-0.9046633596241473
1761469166969972500,3.749972412109375,-0.17547814745903015,0.8135524713739752,-0.9990759197682142
1761469166979955500,3.75995556640625,-0.18047288700640202,0.9452090127632021,-1.048704166290164
1761469166989938400,3.7699384765625,-0.2226975792735815,0.9645058339074254,-1.0133645573616028
1761469166999922200,3.779922119140625,-0.34469255834817886,0.9167942346617579,-0.9093512251794338
1761469167009905400,3.789905517578125,-0.5517348878502846,0.8693813261017203,-0.6938321592330933
1761469167019888400,3.799888427734375,-0.6796452284485102,0.7715893526524304,-0.33770869081020355
1761469167029871400,3.809871337890625,-0.5815314756989479,0.6615723961412906,0.053392567491531366
1761469167039854300,3.819854248046875,-0.6769120040923357,0.5702645240142941,0.48176001887023445
1761469167049837300,3.82983740234375,-0.8641443022310733,0.3934454833403229,0.8723112420737743
1761469167059821300,3.8398212890625,-0.7538567120850086,0.31374300107210873,1.1456857001394032
1761469167069804500,3.849804443359375,-0.38570904386937616,0.1836161534681916,1.5297253494918346
1761469167079787500,3.85978759765625,-0.2016004307091236,0.09936579863727092,1.9953221690684555
1761469167089770200,3.869770263671875,-0.2658329566448927,0.014587036018073558,2.225914885506034
1761469167099753500,3.87975341796875,-0.33747722014188763,-0.12402473133653402,2.1873118908673526
1761469167109736400,3.889736328125,-0.09249825095534324,-0.11497428665757178,1.9036258821457623
1761469167119719200,3.89971923828125,0.393040701931715,0.0681090751081705,1.2439882534593343
1761469167129703200,3.909703125,0.5715881738334894,0.5182371073961257,0.379746920594573
1761469167139686400,3.919686279296875,0.740066087141633,0.7980342919856309,0.01717208407521248
1761469167149669400,3.92966943359375,1.2842682413995266,1.1756146821960807,-0.34246962160170075
1761469167159652400,3.93965234375,1.6584376541227102,1.402724817214906,-0.7877326782017946
1761469167169635300,3.94963525390625,1.5908318523615599,1.4462895259141921,-1.1345084725648165
1761469167179618300,3.959618408203125,1.4165443759918213,1.2970458899080752,-1.182624560958147
1761469167189602300,3.969602294921875,1.517920929929614,1.1596963975742458,-1.2112182027578353
1761469167199585500,3.97958544921875,1.9221686700522898,1.1613982330560684,-1.1940724221676586
1761469167209568300,3.989568359375,2.324084167835116,1.0527689315110444,-0.7154273204475641
1761469167219551200,3.99955126953125,2.4143723415255547,0.8836579809963703,-0.09442425058186053
1761469167229534500,4.009534423828125,2.040059136417508,0.7444546774893999,0.165485745754838
1761469167239517400,4.019517333984375,1.4950100099414587,0.6715516461029648,0.4881196170300245
1761469167249500200,4.029500244140625,1.126083174046874,0.6945633961170912,0.7910019091308117
1761469167259484400,4.039484375,0.9215268161416054,0.7467179462462663,1.0781833587527274
1761469167269467400,4.04946728515625,0.722154582875967,0.8112503319114446,1.2005588615775107
1761469167279450400,4.059450439453125,0.7364186705499887,0.783229813824594,1.2975941714406012
1761469167289433600,4.06943359375,0.6174310565978288,0.791704504442215,1.4822762005746364
1761469167299416300,4.079416259765625,0.38107436980605125,0.699515173305571,1.664702559736371
1761469167309399300,4.0893994140625,0.19655133062601088,0.5886576743170618,1.7262953848183153
1761469167319383300,4.09938330078125,0.11217325776219367,0.4645078552961349,1.799633592751622
1761469167329366500,4.109366455078125,0.231350256806612,0.36980800264328717,1.7987445349574087
1761469167339349200,4.119349365234375,0.37101416356265543,0.2409898995503783,1.7254507506877184
1761469167349332200,4.129332275390625,0.5030149883449078,0.1858998804911971,1.5573592063486574
1761469167359315500,4.1393154296875,0.7688532056868076,0.06888561243861913,1.3327572547584772
1761469167369298400,4.14929833984375,1.0081517911493778,-0.0013747954845428467,1.1229261713206768
1761469167379282400,4.159282470703125,1.2475497453331947,-0.07033902611732483,0.8976648790389299
1761469167389265400,4.169265380859375,1.483382700511813,-0.14913199232518673,0.609993015551567
1761469167399248400,4.179248291015625,1.6185107174038886,-0.25535686307698485,0.3216138805776834
1761469167409231400,4.1892314453125,1.6673399225026369,-0.35541707371920345,0.07677928829789162
1761469167419214600,4.199214599609375,1.6817705989152192,-0.4964443777829408,-0.0950403366535902
1761469167429197300,4.209197265625,1.6610931370675563,-0.630015812882781,-0.25835750619769093
1761469167439180300,4.21918017578125,1.5709733056813477,-0.7260860771059989,-0.3491857781141996
1761469167449164300,4.229164306640625,1.418040752029419,-0.762565503719449,-0.28140228169858456
1761469167459147500,4.2391474609375,1.1909510752767323,-0.6676289197012781,-0.12014905894696712
1761469167469130200,4.249130126953125,1.0503531025409698,-0.4961784203231334,0.013852584263682365
1761469167479113200,4.25911328125,0.9396025710582733,-0.35827304767221213,0.09966273575723171
1761469167489096400,4.269096435546875,0.7439969968497753,-0.119093704675138,0.1591232249855995
1761469167499079400,4.279079345703125,0.5067611891359091,0.0259112708479166,0.2421212416678667
1761469167509063400,4.2890634765625,0.4362345314919948,0.21409107896983623,0.324555779248476
1761469167519046400,4.29904638671875,0.37637189120352266,0.42494332214891906,0.4085901532411575
1761469167529029400,4.309029296875,0.35325872664153574,0.5705038857281207,0.40582244209349155
1761469167539012400,4.319012451171875,0.5048457109034061,0.7213856443300842,0.35394261725246906
1761469167548995600,4.32899560546875,0.8246773842394352,0.8781447705328465,0.3527338259845972
1761469167558978300,4.338978271484375,1.132489533957839,0.961492623566091,0.38649697937667365
1761469167568961300,4.348961181640625,1.2651970457047224,1.0217112376853823,0.5527028560996056
1761469167578945300,4.3589453125,1.260329731929302,1.0229600687026976,0.7935089235156774
1761469167588928500,4.368928466796875,1.2810264829993248,0.9963710447236895,0.9882663564622401
1761469167598911200,4.3789111328125,1.202171557471156,0.7082917694792151,1.0575240170836449
1761469167608894500,4.38889453125,0.9544482580125331,0.5941524723410606,1.0984504862338305
1761469167618877400,4.39887744140625,0.7693576480776071,0.5397597878962754,1.1949655716150998
1761469167628860400,4.4088603515625,0.623402532222867,0.26696225293576714,1.1655845788300037
1761469167638844400,4.418844482421875,0.8255190957605838,0.14999153176397084,1.072600590184331
1761469167648827400,4.428827392578125,1.2196551917135714,0.010350713622570036,1.0266004710316659
1761469167658811400,4.438811279296875,1.5357494320869445,-0.13987111976593733,0.9164408911794424
1761469167668794000,4.448794189453125,1.449784966814518,-0.33650632928311824,0.7173135725855827
1761469167678777300,4.45877734375,1.6378174754202366,0.041515374954044816,0.731114134401083
1761469167688760300,4.46876025390625,1.4761895741373299,-0.48281624992489813,0.546437365964055
1761469167698743000,4.478742919921875,1.5203215613305567,-0.7311796008527278,0.29854280159175395
1761469167708727000,4.48872705078125,1.3151286590874194,-0.8875424212142825,0.15997428885698317
1761469167718710300,4.498710205078125,1.041337436914444,-0.9442083112880587,0.15777005681097506
1761469167728693200,4.508693359375,0.8561889593124389,-1.004152784641087,0.08474865974187851
1761469167738676200,4.51867626953125,0.7122860998123883,-0.9028174394965172,0.05859305874407291
1761469167748659200,4.5286591796875,0.5646960762321949,-0.5064359027042985,0.10936521460413932
1761469167758642200,4.53864208984375,0.3675257369250059,-0.11791793889403343,0.21611995444893836
1761469167768626200,4.548626220703125,0.049556350329518314,0.26705723774284124,0.3402630514681339
1761469167778609200,4.558609130859375,-0.32091537691950794,0.6469868214279413,0.43391514863371844
1761469167788592000,4.568592041015625,-0.6295452727615833,0.872623084501922,0.4013590329438448
1761469167798575000,4.5785751953125,-0.7244084992825984,0.9584650924384593,0.3665133450120687
1761469167808558300,4.588558349609375,-0.589166500622034,0.9110793641462922,0.17342121492922305
1761469167818542300,4.598542236328125,-0.3671551500469446,0.6688464787974954,-0.16054653578698636
1761469167828525300,4.608525390625,0.03792845637798309,-0.1125906063914299,-0.5132312619328498
1761469167838509300,4.61850927734375,-0.6307838746458292,-0.37993425986021756,-0.9789005622237921
1761469167848492000,4.628491943359375,-0.6337409708857535,0.18323679876178503,-0.7857429656893015
1761469167858475300,4.638475341796875,-0.005543605601787567,0.46177784581035375,-0.5848842932581901
1761469167868458200,4.648458251953125,-0.011598083335161208,0.4560886942580342,-0.6001280396193266
1761469167878441200,4.658441162109375,0.12560966244041918,0.5441641603350639,-0.7063385895848274
1761469167888424200,4.668424072265625,0.4312497288167476,0.5530646751493216,-0.8900923979580402
1761469167898408200,4.678408203125,0.48064182849526405,0.32744594773203134,-0.989240169930458
1761469167908391200,4.68839111328125,0.35467385413646696,0.007884615769982338,-1.0495604908585547
1761469167918374400,4.69837451171875,0.17400690586268902,0.09625234279185534,-1.0124626400858163
1761469167928357000,4.708357177734375,-0.06516250026226043,0.22068740849494933,-0.8232727781385183
1761469167938340000,4.718340087890625,-0.2534218033611774,0.35767917343229055,-0.6607780308932065
1761469167948323300,4.7283232421875,-0.4532978944957256,0.5736340004473924,-0.5192693730533122
1761469167958307300,4.738307373046875,-0.5790355672299862,0.6405559115976095,-0.37733985945284365
1761469167968290300,4.748290283203125,-0.7069798100978135,0.7260436992689967,-0.2561731478959322
1761469167978273300,4.758273193359375,-0.7819815673291682,0.7101645776137709,-0.15340134020745752
1761469167988256300,4.76825634765625,-0.6760662009179592,0.6263590439409017,-0.04753624267876148
1761469167998239200,4.7782392578125,-0.6436474478721619,0.49578679065704345,-0.018808160844445226
1761469168008222200,4.78822216796875,-0.8016139040380715,0.3179477592855692,-0.07728840686380863
1761469168018205200,4.798205078125,-0.8625497265160084,0.12011983285248279,-0.16874153268039224
1761469168028189200,4.808189208984375,-0.8141115665614604,-0.11401800884604453,-0.26425357849895953
1761469168038172200,4.818172119140625,-0.6866179900705814,-0.3468403840318322,-0.3358616016387939
1761469168048155400,4.8281552734375,-0.6726794810891151,-0.5318780947357415,-0.42512452393472194
1761469168058138000,4.83813818359375,-0.7250795304119586,-0.7326297996610402,-0.5897802486062049
1761469168068121000,4.84812109375,-0.773675511276722,-0.9082365419358015,-0.6918032837539911
1761469168078104300,4.858104248046875,-0.9211813637048005,-1.033759695136547,-0.7312672791361808
1761469168088088300,4.86808837890625,-1.0765011047542095,-1.1223518785640596,-0.7249491820305586
1761469168098071000,4.878071044921875,-1.0198977585226296,-1.1487974024191498,-0.7523673503100872
1761469168108054300,4.88805419921875,-0.9101590344309807,-1.1329138968497514,-0.7427379366993904
1761469168118037200,4.898037353515625,-0.9692600426971911,-1.110931782144308,-0.749739924415946
1761469168128020200,4.908020263671875,-1.054009871482849,-1.1011688052818178,-0.7843827832520007
1761469168138003200,4.918003173828125,-1.0953846689224243,-1.083617074239254,-0.8235317213356494
1761469168147987200,4.9279873046875,-1.0723013149768112,-1.0688938446208833,-0.8173100703418255
1761469168157970200,4.93797021484375,-0.9356763375252485,-0.9885320216611028,-0.8277759347766638
1761469168167953200,4.947953125,-0.7807020489126444,-0.8634723943188786,-0.8909440463513135
1761469168177936400,4.957936279296875,-0.7372597975492478,-0.728392892743647,-1.0006704954832792
1761469168187919000,4.967919189453125,-0.8265922779500484,-0.5673790317058562,-1.1395698476076126
1761469168197902000,4.977902099609375,-0.8841951566129922,-0.38330578211992977,-1.2911392962127923
1761469168207885300,4.98788525390625,-0.972699369496107,-0.22295096951276064,-1.4833832850337028
1761469168217869300,4.997869384765625,-0.9974252299517392,-0.08624532804042101,-1.6570874085575342
1761469168227852000,5.00785205078125,-0.9651309800684451,0.05494827250093221,-1.7802613682836292
1761469168237835300,5.017835205078125,-0.8415706513732671,0.13044424299001692,-1.9142203413963317
1761469168247818200,5.027818359375,-0.7961316732347011,0.21835838102549313,-1.9169956513285635
1761469168257801200,5.03780126953125,-0.8061351808547973,0.3525619765490293,-1.9053093051880596
1761469168267784200,5.0477841796875,-0.8860627040505409,0.4550318786814809,-1.923272831901908
1761469168277768200,5.057768310546875,-0.9327782779961824,0.6178808461919426,-1.9536299762427807
1761469168287751200,5.067751220703125,-0.8422586336374283,0.7357394561141729,-1.9476924028873444
1761469168297734100,5.077734130859375,-0.7381108614206313,0.8179746717303991,-1.9122785596787928
1761469168307717400,5.08771728515625,-0.658472092038393,0.8388780512884259,-1.8179361421614884
1761469168317700000,5.0977001953125,-0.5201730438947677,0.7770531710162758,-1.72181093288064
1761469168327683300,5.107683349609375,-0.43859599992632864,0.7068313415378332,-1.6246230628043412
1761469168337667300,5.117667236328125,-0.5540256291359663,0.6307803675144911,-1.4839508557885885
1761469168347650300,5.127650390625,-0.7041857954651117,0.5818596847400069,-1.3307494220674037
1761469168357633000,5.137633056640625,-0.9334154068559407,0.6408318059295416,-1.1265466999053955
1761469168367616300,5.1476162109375,-1.021460185533762,0.7912848177254199,-0.7834574851006268
1761469168377599200,5.15759912109375,-1.0226567018419503,0.9552025835111737,-0.17218378208875654
1761469168387582200,5.167582275390625,-0.8174678912520408,1.0962646666273475,0.6305412980616092
1761469168397566200,5.177566162109375,-0.7016834572553634,1.0259536975607275,1.1696148572593927
1761469168407549200,5.187549072265625,-0.6546855592370033,0.8781874406307936,1.3285510352402925
1761469168417532200,5.1975322265625,-0.4500000219941139,0.7973267282381653,1.2997516417354344
1761469168427515400,5.207515380859375,-0.31268998488783833,0.6692942225649953,1.2389379843324422
1761469168437498000,5.217498046875,-0.2998696662813425,0.5272226701453328,1.1316051523387431
1761469168447481000,5.227481201171875,-0.2655219909995794,0.33272505717873574,0.7693547254681586
1761469168457464300,5.23746435546875,-0.3689449560731649,0.005092646963894367,0.18363807303905486
1761469168467448300,5.2474482421875,-0.3619926527172327,-0.3680252108797431,-0.10348784700334071
1761469168477431300,5.257431396484375,-0.046448447442054744,-0.7674412930622696,-0.2982838583946228
1761469168487414000,5.2674140625,0.2544640058904886,-1.0087439118236303,-0.4882441201925277
1761469168497397200,5.277397216796875,0.3497451655626297,-1.1896598664224147,-0.6838841811925173
1761469168507380200,5.287380126953125,0.3482160562992096,-1.275313658310473,-0.7936275814592838
1761469168517363200,5.29736328125,0.4188964432001114,-1.3157388999402522,-0.7939116590976715
1761469168527347200,5.30734716796875,0.5802776762455701,-1.143794771826267,-0.7518442032188176
1761469168537330200,5.317330078125,0.6821569190084934,-0.8681494462192058,-0.5736883609831332
1761469168547313200,5.327313232421875,0.7802385230541229,-0.5308958057001233,-0.2988356470584869
1761469168557296400,5.33729638671875,0.8371879062443971,-0.19599983422309158,-0.044607203489542
1761469168567279000,5.347279052734375,0.6757873839765787,0.01910685153007507,0.21213702229261397
1761469168577262000,5.357261962890625,0.39858898370862006,0.22104805850088596,0.43696752194166183
1761469168587246000,5.36724609375,0.25814532475173474,0.35554683757871386,0.6479781705528498
1761469168597229300,5.377229248046875,0.20792554207742214,0.43250294374823567,0.840226251026988
1761469168607212300,5.38721240234375,0.3495481816858053,0.36140053204298017,0.9836872119784354
1761469168617195000,5.397195068359375,0.4916349316745996,0.1322656131982803,1.078572065809369
1761469168627178200,5.40717822265625,0.5035901578843593,-0.028719606266915797,1.1161439638346433
1761469168637161200,5.4171611328125,0.5337760373115539,-0.2397463292300701,1.1704811186999082
1761469168647144200,5.427144287109375,0.559828177934885,-0.5551984723076224,1.2365788539856672
1761469168657131800,5.4371318359375,0.5657797798156738,-0.7749111905515194,1.264845163527131
1761469168667114800,5.44711474609375,0.48844870285391806,-1.0031173041135073,1.3048042489498852
1761469168677097700,5.45709765625,0.4643266535103321,-1.1625471108302474,1.2473808185070752
1761469168687080700,5.467080810546875,0.5024795662939548,-1.3063868419662117,1.1035603765934705
1761469168697063700,5.477063720703125,0.4767915828078985,-1.4160215211614966,0.9991402171760797
1761469168707046700,5.487046630859375,0.4676765484601259,-1.4465855862513184,0.8971943389177321
1761469168717030700,5.49703076171875,0.4336252257764339,-1.4858765631541608,0.8284592408657073
1761469168727014000,5.507013916015625,0.379493238094449,-1.4549313897922633,0.7985439950734377
1761469168736996600,5.51699658203125,0.3760387137264013,-1.3486702786833047,0.7693699230372906
1761469168746979800,5.526979736328125,0.5099181918621063,-1.246845980978012,0.6014554888308048
1761469168756962800,5.536962890625,0.6080488957464695,-1.207919453473389,0.349283977791667
1761469168766945500,5.546945556640625,0.6149649587452412,-1.19108609983325,0.15951310108602046
1761469168776929500,5.556929443359375,0.6628185968101025,-1.2054627079710363,0.061221069160103794
1761469168786912800,5.566912841796875,0.6389794560611247,-1.2781319306015968,0.036577626290917396
1761469168796895700,5.576895751953125,0.6571861438810825,-1.370204941882193,0.08682137436270713
1761469168806878700,5.586878662109375,0.5673690948337317,-1.3709709578186273,0.16457622969448565
1761469168816861700,5.59686181640625,0.3264291719049215,-1.4378069442510604,0.22178104895055292
1761469168826844700,5.6068447265625,0.12084405547380447,-1.4493796008840203,0.2287047107338905
1761469168836828700,5.61682861328125,-0.013261632633209227,-1.444327578191459,0.18700258103609085
1761469168846811600,5.626811767578125,-0.12649229049384594,-1.3754346592292188,0.14997954906523228
1761469168856794600,5.636794677734375,-0.0974146645694971,-1.2382269134536386,0.12125029818713665
1761469168866777600,5.646777587890625,0.010626023432612418,-1.1419736938789486,0.04084522060751915
1761469168876760800,5.6567607421875,0.06612813042402267,-1.0617629698276518,-0.060875616723299025
1761469168886743800,5.666743896484375,0.0798170485585928,-0.9701093530029058,-0.11385258915126323
1761469168896726500,5.6767265625,0.08603986859619617,-0.8682076061472296,-0.14144202234447
1761469168906710500,5.68671044921875,-0.04922083476483822,-0.788205556410551,-0.13531447937488555
1761469168916693800,5.69669384765625,-0.19463643691539764,-0.6479580045476555,-0.1517465587377548
1761469168926676700,5.7066767578125,-0.3185235133469105,-0.550588932685554,-0.2163140157163143
1761469168936659700,5.71665966796875,-0.3597930968463421,-0.4799503390997648,-0.3213280493736267
1761469168946642700,5.726642578125,-0.373887088650465,-0.43053310497999187,-0.41073827118575573
1761469168956625700,5.736625732421875,-0.362715706294775,-0.4179699760049581,-0.4938707279026508
1761469168966609700,5.746609619140625,-0.3516296641349792,-0.41762861522138117,-0.5572755708426237
1761469168976593000,5.756593017578125,-0.4752671497195959,-0.41615766588598485,-0.6266834535896778
1761469168986575600,5.76657568359375,-0.6043173080027103,-0.46273032422959803,-0.6839309429436922
1761469168996558600,5.77655859375,-0.7189239303916692,-0.5022933960720897,-0.7301379828453064
1761469169006541800,5.786541748046875,-0.8467863401949405,-0.5576826903387904,-0.7610743883788585
1761469169016524800,5.79652490234375,-1.0191600918978452,-0.679716247858107,-0.7266665073424577
1761469169026507500,5.806507568359375,-1.1881664129942655,-0.6742451229706407,-0.6653799717307091
1761469169036491500,5.816491455078125,-1.2155395730882883,-0.7716606643229722,-0.6453174269109964
1761469169046474800,5.826474853515625,-1.1371534341156482,-0.9528490061223507,-0.6531453440576791
1761469169056457700,5.836457763671875,-0.9983914446353912,-1.1049933320060372,-0.567187308526039
1761469169066440700,5.846440673828125,-0.8750351140797138,-1.284871467989683,-0.4581038334727287
1761469169076423700,5.856423583984375,-0.8737146791309118,-1.421069159939885,-0.31261925773918625
1761469169086406700,5.86640673828125,-0.9046241966575383,-1.5147116124942899,-0.19501111544668673
1761469169096390700,5.876390625,-0.8708446766525506,-1.5981483128547667,-0.06361643986403942
1761469169106374000,5.886373779296875,-0.8133107715725898,-1.6920198979899286,0.013301964643597602
1761469169116356600,5.896356689453125,-0.8260439964175224,-1.7617340702071784,0.07491583251357078
1761469169126339600,5.906339599609375,-0.8837035737037658,-1.8049886900439858,0.2176572470188141
1761469169136322800,5.91632275390625,-0.9687176063835621,-1.779370556923747,0.4610322881400585
1761469169146305800,5.926305908203125,-1.0146259555995463,-1.7786597783058882,0.6952829425632954
1761469169156288500,5.93628857421875,-0.9103945967525243,-1.670558592288196,0.8711579803854227
1761469169166272800,5.946272705078125,-0.875532542207837,-1.4310665300801395,1.0234861384034155
1761469169176255700,5.956255859375,-0.926818492808938,-1.0387330996349453,1.236874037539959
1761469169186238700,5.96623876953125,-0.9558312368035315,-0.6003679858550429,1.5506991639375687
1761469169196222000,5.976221923828125,-0.9589368016034364,-0.08670885389894246,1.8446371020823715
1761469169206204700,5.98620458984375,-0.9264239405333995,0.4427455208212137,1.9659218870609998
1761469169216187600,5.996187744140625,-0.9514280334085226,0.8882225124329328,1.9734563742190598
1761469169226171600,6.006171630859375,-0.986444401732087,1.2070566991642118,1.957359225898981
1761469169236155000,6.01615478515625,-0.5765022493600845,1.616589101691544,1.7679133433640002
1761469169246137600,6.0261376953125,0.228905201742053,1.8937658746495842,1.4415350248634815
1761469169256120600,6.03612060546875,0.9678057522356509,1.9998744255453347,1.0069207880496978
1761469169266103800,6.046103759765625,1.4786860671281814,1.973262020690739,0.5651654473096132
1761469169276086800,6.056086669921875,1.7689549613714217,1.739906853802502,0.12883154709637165
1761469169286070800,6.06607080078125,1.9314625680983066,1.5744807292804122,-0.36524902416467664
1761469169296053800,6.0760537109375,2.0962001258343457,1.3638102724090218,-0.8454846099466085
1761469169306036700,6.08603662109375,2.1849089213788506,1.1896022910162807,-1.2999141388207673
1761469169316019700,6.096019775390625,2.106423413684964,1.1253306021139025,-1.588893577775359
1761469169326002700,6.106002685546875,2.0253361990600824,1.2352987510472535,-1.5319786813765763
1761469169335985700,6.115985595703125,1.7680512905299663,1.351221132209897,-1.259511401283741
1761469169345968600,6.12596875,1.2913029623419046,1.4017434049621225,-1.0262667090326547
1761469169355952600,6.13595263671875,0.7280500706553459,1.4347618774667381,-0.814697842016816
1761469169365935900,6.145935791015625,0.20261749879717825,1.3792343437731265,-0.5314303509682416
1761469169375918600,6.155918701171875,-0.23041619082689285,1.2590221564620732,-0.27342297338247296
1761469169385901600,6.165901611328125,-0.5074538475751876,1.1505962685346602,-0.005768062007427215
1761469169395884800,6.175884765625,-0.619131430774927,1.02791681432724,0.21446984915435313
1761469169405867800,6.18586767578125,-0.6637678603589534,0.8809817475244403,0.3483464046806097
1761469169415851500,6.1958515625,-0.7348416304916143,0.7144400629758835,0.3401858945786953
1761469169425834800,6.205834716796875,-0.6567009907126427,0.4983759303674102,0.27404315110743044
1761469169435817700,6.215817626953125,-0.35916590485870836,0.3226853092014789,0.14808043744564056
1761469169445800700,6.22580078125,0.06461188064217567,0.23368629853874442,-0.009521861582994461
1761469169455783700,6.23578369140625,0.3823065419495105,0.12600421471595763,-0.22101298718750476
1761469169465766700,6.2457666015625,0.5844932481139898,0.06907879692316055,-0.3767003925055265
1761469169475749600,6.25574951171875,0.6866735196501016,0.08714052331447601,-0.41554654825031756
1761469169485733600,6.265733642578125,0.6417237863332033,0.07415799988359212,-0.56104982868433
1761469169495716900,6.275716796875,0.6374094302654266,0.013607085070014,-0.7747872719109058
1761469169505699600,6.285699462890625,0.6224217044919729,-0.012693185095489024,-0.8878221149384975
1761469169515682800,6.295682861328125,0.5504384182989597,-0.03891220671832561,-1.0380483322411775
1761469169525665800,6.305665771484375,0.40799978613257404,-0.07071136656105519,-1.1962515197724104
1761469169535648800,6.315648681640625,0.1444318518102169,-0.12429478044956922,-1.2847896349251269
1761469169545632500,6.325632568359375,-0.16047171698510646,-0.1582414737150073,-1.2927794646352528
1761469169555615700,6.33561572265625,-0.45415714167356486,-0.2283171727210283,-1.3088754439115524
1761469169565598700,6.3455986328125,-0.6357663392335177,-0.27201047623604535,-1.2645663465857504
1761469169575581700,6.355581787109375,-0.6821434750050306,-0.24970161379426717,-1.1858218956947326
1761469169585564700,6.365564697265625,-0.7042278810411692,-0.2053229583635926,-1.1259002186954021
1761469169595547600,6.375547607421875,-0.7522913624644278,-0.19637159014493225,-1.0999708276689053
1761469169605530600,6.385530517578125,-0.8172814287692308,-0.2651961200460791,-1.1039315479934215
1761469169615515000,6.395514892578125,-0.9088298316538334,-0.35749154190570115,-1.0983172152429819
1761469169625497900,6.405497802734375,-1.0172510434061288,-0.5402624767214059,-1.0981757609456777
1761469169635480600,6.41548046875,-1.0701105269342661,-0.7887491617679595,-1.150393439438939
1761469169645463800,6.4254638671875,-1.1124340034008025,-1.0644520627811551,-1.1926613863259554
1761469169655446800,6.43544677734375,-1.0885364104628563,-1.2519456422045827,-1.2277239318788051
1761469169665429800,6.4454296875,-0.9430886596083641,-1.419456171785295,-1.3095055585086346
1761469169675413800,6.455413818359375,-0.7836065381824969,-1.5283359409600494,-1.4194482807397841
1761469169685397000,6.46539697265625,-0.5824550202846527,-1.5796762520968912,-1.528282749468088
1761469169695379700,6.475379638671875,-0.39486967092454434,-1.5214853444129228,-1.6190052229225635
1761469169705362700,6.48536279296875,-0.4251777154266834,-1.4115700947105885,-1.605725470110774
1761469169715346000,6.495345947265625,-0.6823170780062675,-1.3035942886382341,-1.6194097120702267
1761469169725329000,6.505328857421875,-0.799934572649002,-1.1087731428056955,-1.6904308752328157
1761469169735312000,6.515311767578125,-0.8150450480192899,-0.7093076685234904,-1.7329425677478312
1761469169745296000,6.5252958984375,-0.9800479786932468,-0.3849544261097908,-1.738901768413186
1761469169755278800,6.53527880859375,-1.0043623357385396,0.05444470689296722,-1.7926801203519105
1761469169765261800,6.54526171875,-0.9747492877632379,0.50213411385715,-1.6455501154989003
1761469169775245000,6.5552451171875,-0.9575415478527546,0.789473676650226,-1.4384241993665694
1761469169785227800,6.565227783203125,-0.9965414328545331,0.9140689013510942,-1.1203197882145643
1761469169795210800,6.575210693359375,-1.1243377916842698,0.7846075319185852,-0.8003454915374517
1761469169805194800,6.58519482421875,-1.3754641775846481,0.5251067009046674,-0.5659048675000667
1761469169815178000,6.595177978515625,-1.712526971706748,0.11492460229694842,-0.3765542620331049
1761469169825160700,6.60516064453125,-1.9976947434186934,-0.20780863769948482,-0.11967267360687255
1761469169835143700,6.615143798828125,-2.239633029735088,-0.3523080017879605,0.23930384615957737
1761469169845127000,6.625126953125,-2.422230653810501,-0.5165984002783894,0.6521838055491447
1761469169855110000,6.63510986328125,-2.4676012428879734,-0.6174740189567208,1.2174690798461436
1761469169865092900,6.6450927734375,-2.193871980035305,-0.34351854613274335,1.9416496155917644
1761469169875076900,6.655076904296875,-1.7101532283127308,0.054985681901872155,2.6566344529688357
1761469169885059800,6.665059814453125,-1.5571148761987685,0.4991708801373839,3.0474744299858805
1761469169895042800,6.675042724609375,-1.5670055710941553,0.6446247684717178,3.0464708059012886
1761469169905025800,6.68502587890625,-1.3734990149915218,0.7043968078672885,2.830543743675947
1761469169915008800,6.6950087890625,-0.8450345280915498,0.8359680090606212,2.509921212223172
1761469169924991700,6.70499169921875,-0.1658896503806114,0.8800877212941646,2.1002064388662576
1761469169934975700,6.714975830078125,0.5654787510424852,0.9719593647837639,1.4339572830855845
1761469169944959000,6.724958984375,1.0218827948600053,0.9818997440397739,0.6666618282347917
1761469169954941700,6.734941650390625,1.3429092309385537,0.9560501402512193,0.18959961179196833
1761469169964925000,6.744925048828125,1.6612047807484864,1.0110632946819067,-0.10438099645078182
1761469169974908000,6.754907958984375,1.8723440241754055,0.9973591789782047,-0.332733825007081
1761469169984891000,6.764890869140625,2.049824743628502,1.0038435725614427,-0.4825783495157957
1761469169994873900,6.774873779296875,2.1417647761791945,0.8686705474838614,-0.6250204888135195
1761469170004857900,6.78485791015625,2.229021619349718,0.7332920629620552,-0.6763567082971335
1761469170014840800,6.7948408203125,2.374911853274703,0.5032388602286577,-0.6746452282041311
1761469170024823800,6.80482373046875,2.4224089329868552,0.37551732020080086,-0.5577314979165792
1761469170034806800,6.814806884765625,2.2601924181610347,0.38537411282658574,-0.32403087859153745
1761469170044789800,6.824789794921875,1.8278128085315226,0.4614318088516593,-0.049475686308741565
1761469170054772700,6.834772705078125,1.3089748126327991,0.5799862920835613,0.23085516676604748
1761469170064757000,6.844757080078125,0.9844032512933015,0.6208475870430469,0.3721183254122734
1761469170074740000,6.854739990234375,0.6876198605895042,0.5747194575965404,0.37474750487208364
1761469170084722700,6.86472265625,0.5648720173209906,0.5891191543489694,0.4275993896156549
1761469170094706000,6.874705810546875,0.562606994998455,0.5882213287264109,0.4255395344763994
1761469170104689000,6.88468896484375,0.545038605082035,0.47607145183980465,0.3955027081310749
1761469170114671900,6.894671875,0.49959436624646186,0.31363866391479966,0.36284430111050603
1761469170124654800,6.90465478515625,0.4031716353237629,0.18666151251345872,0.37385493994653224
1761469170134638800,6.914638916015625,0.3943675666213035,0.023675182358920573,0.39118601397573943
1761469170144621800,6.924621826171875,0.5110130013614893,-0.11885171261280775,0.4284282416552305
1761469170154604800,6.934604736328125,0.7541828752994537,-0.2738739320203662,0.42242987802326676
1761469170164587800,6.944587890625,1.0106558829247951,-0.4702610119953751,0.30474750145077706
1761469170174570800,6.95457080078125,1.222110183650255,-0.5588903125628829,0.1732838522851467
1761469170184554000,6.964553955078125,1.256704527169466,-0.669995941093564,0.11124328343570232
1761469170194537000,6.974536865234375,1.274798402264714,-0.6955535761982202,0.036983284482359886
1761469170204521000,6.98452099609375,1.1702514015972614,-0.729588532269001,-0.09353051661252974
1761469170214503700,6.994503662109375,0.9778770643949508,-0.7773179594323039,-0.19350187992751597
1761469170224487000,7.00448681640625,0.8324912728607654,-0.8312211067944765,-0.3692161742299795
1761469170234470000,7.014469970703125,0.7454343361765146,-0.8929118392929434,-0.5673918911874294
1761469170244452900,7.024452880859375,0.5803495724380016,-0.9472545471161603,-0.6630658495694398
1761469170254435800,7.034435791015625,0.46025955020189285,-1.0059013818740845,-0.6866162365049123
1761469170264418800,7.044418701171875,0.38323593175411225,-1.0834469783693552,-0.6432458813339471
1761469170274402800,7.05440283203125,0.28896482590734957,-1.1498609399974344,-0.5019669405966997
1761469170284385800,7.0643857421875,0.14111001391112804,-1.218576456566155,-0.3385737832069397
1761469170294368800,7.07436865234375,-0.036080782684683795,-1.2594149551719427,-0.21022388214766977
1761469170304351700,7.084351806640625,-0.15869301687479018,-1.3592282053157687,-0.13250409812927244
1761469170314335000,7.0943349609375,-0.24760288794934748,-1.4195444345906376,-0.0642015462756157
1761469170324318000,7.10431787109375,-0.382025971442461,-1.4175398167699576,-0.0015840543210506439
1761469170334302000,7.114302001953125,-0.4922317285239696,-1.5187755009323358,-0.008579612296819687
1761469170344284700,7.12428466796875,-0.5420347470909357,-1.6085893351092935,-0.08694821561276912
1761469170354268000,7.134267822265625,-0.4604179556339979,-1.6467849179908631,-0.21307284183800218
1761469170364251000,7.1442509765625,-0.4263023355424404,-1.6508879693955183,-0.3169984957367182
1761469170374233600,7.154233642578125,-0.5109235695123672,-1.6057283927202224,-0.39586511170268057
1761469170384216800,7.164216796875,-0.5386117869049311,-1.5697341192752121,-0.45356619004309173
1761469170394199800,7.17419970703125,-0.5633014070034027,-1.454865338818729,-0.37696050474643705
1761469170404183800,7.184183837890625,-0.4340425744056701,-1.3300780986770986,-0.31755496057569976
1761469170414167000,7.1941669921875,-0.22256372376084327,-1.2899188145071268,-0.3587204991787672
1761469170424149800,7.204149658203125,-0.16002338869571686,-1.165320959457755,-0.3582137187004089
1761469170434132700,7.2141328125,-0.1945855835109949,-0.9993830860212445,-0.2402782441496849
1761469170444116000,7.224115966796875,-0.40583530157506464,-0.9182280668571591,-0.18194412860274314
1761469170454099000,7.234098876953125,-0.5489204149514436,-0.9086538905650376,-0.052828503867983816
1761469170464081700,7.24408154296875,-0.5593184748470783,-0.8657672272577881,0.11429799483120441
1761469170474065700,7.254065673828125,-0.5204851785838603,-0.8000257580637932,0.39017128397524353
1761469170484049000,7.264048828125,-0.5319722027599811,-0.6871312002897262,0.645088878852129
1761469170494032000,7.274031982421875,-0.46117724956870076,-0.5749430372193456,0.8081839300781488
1761469170504014800,7.284014892578125,-0.5321615878522395,-0.38775048656910654,1.0061100561887024
1761469170513997800,7.293997802734375,-0.7097860996901989,-0.15798457634449004,1.2382412342399358
1761469170523980800,7.303980712890625,-0.9043944795548915,0.15463497365564108,1.4380617957949637
1761469170533964800,7.31396484375,-0.8685983590304851,0.5270426374033094,1.7257248914539813
1761469170543948000,7.323947998046875,-0.8067571121454239,1.0418538620039821,2.000295281305909
1761469170553930800,7.3339306640625,-1.0408949538439511,1.4172604153066872,2.133014483490586
1761469170563913700,7.343913818359375,-0.9787801507145166,1.3924772717058658,2.0431150168567895
1761469170573897000,7.35389697265625,-0.6879395940631627,1.5111971746325492,1.889994831678271
1761469170583880000,7.3638798828125,-0.18494447946250436,1.5700585289239883,1.724033869627118
1761469170593862700,7.373862548828125,0.5986801788985728,1.5125380678474902,1.300090079909563
1761469170603847000,7.383846923828125,1.3981442114263771,1.3195201720446348,0.7162199321299791
1761469170613830000,7.393829833984375,2.0156419035196302,1.072100823968649,0.22995792566537857
1761469170623812900,7.403812744140625,2.3803584282428023,0.912681538645923,-0.3017787147730589
1761469170633795800,7.4137958984375,2.5194436583280564,0.7304118313506245,-0.7834931409358978
1761469170643778800,7.42377880859375,2.3331577011287212,0.6114966981127857,-1.2310042687237261
1761469170653761800,7.43376171875,2.1128847186535595,0.5702338366150855,-1.4316472525775432
1761469170663741200,7.4437412109375,1.6499889747291803,0.7691402059346437,-1.2046481767177581
1761469170673725200,7.45372509765625,1.0272083737969397,0.967734732826054,-0.8469394849300385
1761469170683708200,7.463708251953125,0.41667993619441984,1.1959177577733993,-0.5308136803746223
1761469170693691100,7.473691162109375,-0.0821475373327732,1.4078066505238414,-0.19063304649293422
1761469170703674400,7.48367431640625,-0.3877420110017061,1.52247903162539,0.1598901177048683
1761469170713657000,7.493656982421875,-0.59370589761734,1.5340630864351987,0.45526890230774875
1761469170723640300,7.503640380859375,-0.7328028181403875,1.4588056008771062,0.6568868686735629
1761469170733623300,7.513623291015625,-0.8505494921207427,1.3124471649184821,0.8367325636923313
1761469170743607300,7.523607177734375,-0.9445786059051752,1.1438806965440511,0.9393319374233484
1761469170753590000,7.533590087890625,-0.7466536488384008,0.9862126388028264,0.9300964915663004
1761469170763573200,7.5435732421875,-0.3260428029358387,0.7990531136393546,0.8139975847929716
1761469170773556200,7.55355615234375,0.18628595719933508,0.638624651274085,0.5675695858418941
1761469170783539200,7.563539306640625,0.6304869375258684,0.5053583366006612,0.36300913628339765
1761469170793522200,7.573522216796875,0.7936381028532982,0.3674801442176103,0.1597597693234682
1761469170803505200,7.583505126953125,0.9028355596750974,0.2428159459337592,-0.12269348273277282
1761469170813489200,7.5934892578125,0.924694340261817,0.1147927926108241,-0.41371582569181914
1761469170823472400,7.603472412109375,0.9255623552680015,0.035140286964178084,-0.7023001278489828
1761469170833455400,7.613455322265625,0.8685328925788403,-0.0010381108760833739,-0.9444248766481875
1761469170843438000,7.62343798828125,0.689313805025816,-0.08588467803448438,-1.158888880583644
1761469170853421300,7.63342138671875,0.5217115055084228,-0.17413491615653037,-1.3298644559264183
1761469170863404300,7.643404296875,0.29536300251185893,-0.2120920141071081,-1.3970809661090373
1761469170873388300,7.65338818359375,0.13731997397840023,-0.28050387155413625,-1.4626970553576946
1761469170883371000,7.66337109375,0.07411679109036921,-0.3857882465854287,-1.4572025495946406
1761469170893354200,7.673354248046875,0.0535351908326149,-0.4032786028295755,-1.4818243651539087
1761469170903337200,7.683337158203125,-0.011848258703947066,-0.5414885113850235,-1.4478338327467442
1761469170913320200,7.6933203125,-0.16981062321662901,-0.39742578514814375,-1.327149351748824
1761469170923303200,7.70330322265625,-0.3987649247974157,-0.3758367614135146,-1.381331608313322
1761469170933286100,7.7132861328125,-0.5511550421357154,-0.39308161846399303,-1.440015852472186
1761469170943270100,7.723270263671875,-0.6096949093878269,-0.43931788446009157,-1.4397200843960045
1761469170953253400,7.73325341796875,-0.4918564654707908,-0.4217272827118635,-1.3600403984814882
1761469170963236000,7.743236083984375,-0.3612742753148079,-0.4486538680821657,-1.2724796039283275
1761469170973219000,7.753218994140625,-0.5770832641184329,-0.572970860363543,-1.3092518760085106
1761469170983202300,7.763202392578125,-0.7537357160538435,-0.6176344702154397,-1.4600631997227669
1761469170993185300,7.773185302734375,-0.9066957422345876,-0.7656956184387207,-1.5209943460255861
1761469171003168000,7.78316796875,-0.882298967602849,-0.8125506008550524,-1.5834955181241035
1761469171013152000,7.793152099609375,-0.7018629054754972,-0.846354670779407,-1.6878724229216575
1761469171023135200,7.80313525390625,-0.5156418302059174,-0.9102864602029324,-1.759817715191841
1761469171033118200,7.8131181640625,-0.2729267142981291,-0.8271487427890301,-1.7180559642612934
1761469171043101200,7.82310107421875,0.04795534487366676,-0.6462649368941783,-1.6773802550017833
1761469171053084200,7.833084228515625,0.239841606298089,-0.5650625714570283,-1.7194021181732415
1761469171063067100,7.843067138671875,0.17404665335118769,-0.37584202211052176,-1.7213503296315669
1761469171073050400,7.85305029296875,-0.028438743498921393,-0.05283756395727396,-1.4504384622871875
1761469171083034400,7.863034423828125,-0.21786767489910125,0.24594547613114118,-1.0843751991301773
1761469171093017000,7.87301708984375,-0.41990532798171043,0.4755006662145257,-0.6122340724766254
1761469171103000000,7.883,-0.7261199793756008,0.700538963395357,-0.14688216757178305
1761469171112983300,7.8929833984375,-1.0343617526829243,0.7728183099254965,0.20612463013529778
1761469171122966300,7.90296630859375,-1.3523410761505366,0.6756584968999028,0.43977965675294395
1761469171132949000,7.912948974609375,-1.54144618242383,0.4826148821339011,0.582943096062541
1761469171142932200,7.92293212890625,-1.6321119572550058,0.21915099270790814,0.6315256329238415
1761469171152916200,7.932916259765625,-1.6628215682953595,0.016859657125175,0.6413666434586047
1761469171162899200,7.942899169921875,-1.7383026334762572,-0.03728022160232067,0.6620896980136632
1761469171172882400,7.95288232421875,-1.729571045488119,-0.1720768145829439,0.5892091707199811
1761469171182865200,7.962865234375,-1.6513076561123132,-0.36049101598262784,0.7659124760597944
1761469171192848100,7.97284814453125,-1.7184288892269133,-0.41937428984493014,1.2420908954054117
1761469171202831400,7.982831298828125,-1.8328022873818872,-0.35506723736822604,1.7237702502548693
1761469171212814000,7.99281396484375,-1.8008382923662662,-0.30565614072829483,2.116886355510354
1761469171222798000,8.002798095703126,-1.8790537509471177,-0.3181841983899474,2.176708079266548
1761469171232780300,8.0127802734375,-1.8999965857326984,-0.28304157333821056,1.9678005404144525
1761469171242763300,8.02276318359375,-1.3829367054224013,-0.08310439966619014,1.5889841786682606
1761469171252746000,8.03274609375,-0.6417880837410688,0.07717763996571302,1.0506091231286525
1761469171262729200,8.042729248046875,-0.049209728848934174,0.429900652295351,0.42466976590454575
1761469171272712200,8.052712158203125,0.5182786084502935,0.626977760361135,0.0054752165406942365
1761469171282696200,8.0626962890625,1.1490005237758159,0.8464388419315219,-0.2085410436272621
1761469171292679400,8.072679443359375,1.5102134242922067,1.1004042506501077,-0.21119535752832888
1761469171302662100,8.082662109375,1.6926602417200802,1.2543868978768586,-0.15435644897520542
1761469171312645000,8.09264501953125,1.7484633774846792,1.2759770906552672,-0.08898176726698875
1761469171322628400,8.10262841796875,1.729925265753269,1.1766337961107491,-0.0610246698051691
1761469171332611300,8.112611328125,1.7640104907065628,1.0378154002681375,-0.06393325072824954
1761469171342594000,8.122593994140624,1.920756465166807,0.827505008880794,-0.06357669237554073
1761469171352578000,8.132578125,2.15167651386261,0.6381947354242206,0.004744564178586006
1761469171362561300,8.142561279296874,2.3680337841987606,0.4393538325563073,0.18812135593295096
1761469171372544300,8.152544189453126,2.398867313879728,0.22905805421620606,0.3023702509254217
1761469171382527200,8.16252734375,2.323847436469793,0.05194412224888801,0.3327519451856613
1761469171392510200,8.17251025390625,2.088609524574876,-0.017608429665863512,0.4566974738061428
1761469171402493200,8.1824931640625,1.7056395502805708,-0.005236439348757267,0.5581137752324342
1761469171412476400,8.192476318359375,1.2313117272377014,0.023071663507819175,0.5921294420808554
1761469171422460400,8.20246044921875,0.8338374267727137,0.10074176316559313,0.6008581074595452
1761469171432443100,8.212443115234375,0.5134644861668348,0.1787885871812701,0.6322299818009137
1761469171442426000,8.222426025390625,0.20906769784986973,0.2335503971993923,0.6608499270856381
1761469171452409300,8.232409423828125,-0.031983868759870526,0.2519011696651578,0.6654483607918024
1761469171462392300,8.242392333984375,-0.07138473577797412,0.20570523567944765,0.6225602361798286
1761469171472375000,8.252375,0.04692191017270088,0.07551730553805827,0.5738800841629504
1761469171482358300,8.262358154296875,0.34706221008896826,-0.05281418308168649,0.5308867456108332
1761469171492342300,8.27234228515625,0.7717091796398162,-0.1951639679208398,0.4636836794316768
1761469171502325200,8.2823251953125,0.9743097273021936,-0.3413672133177519,0.33905133759081363
1761469171512308200,8.29230810546875,0.9725766198992729,-0.46744887718409295,0.24556407559812068
1761469171522291200,8.302291259765624,1.1626210528492926,-0.591585544462502,0.13210662324428557
1761469171532274200,8.312274169921874,0.7567489263951778,-0.624547610604763,0.07810673750936985
1761469171542257400,8.32225732421875,0.31228023504316804,-0.6044026481986046,0.05847907697558403
1761469171552240000,8.332240234375,0.4064209925085306,-0.739691116349399,-0.16032383294701574
1761469171562224000,8.34222412109375,0.8695429464042186,-0.9027084261640905,-0.3817383866727352
1761469171572207000,8.35220703125,1.10874567027688,-1.0791606793522834,-0.5098790288954973
1761469171582190300,8.3621904296875,1.0148656095743178,-1.1603417097404598,-0.582728576529026
1761469171592173000,8.372173095703126,0.9051631258398294,-1.1404703035786747,-0.5285948352813721
1761469171602156300,8.38215625,0.801146871048212,-1.156874618151784,-0.405690924668312
