time,seconds_elapsed,z,y,x
1761469069738609400,0.122609375,-1.1356909603476524,-0.7166387420639395,0.21567162615954874
1761469069748592400,0.13259228515625,-1.0466682765483855,-0.18295213660150766,0.8180939141958952
1761469069758575400,0.142575439453125,-0.3047346419692039,-0.17448796737790107,1.0562415760576724
1761469069768558300,0.152558349609375,-0.06749708068966866,-0.3335474794775247,1.1402128216862677
1761469069778541300,0.162541259765625,-0.3011187895596027,-0.21843758374154568,0.9521125085413455
1761469069788524300,0.172524169921875,-0.3204296392291784,0.1802256342470646,0.718778968963027
1761469069798506200,0.18250634765625,0.44981355951130386,0.21456191135197877,0.601425093692541
1761469069808489200,0.1924892578125,1.65163089671731,0.11832038221508263,1.071455511802435
1761469069818472400,0.202472412109375,3.2220763791322704,0.14149842870682477,0.7003437330842017
1761469069828455400,0.212455322265625,-2.4382874701201915,-1.0926537826538085,-1.0921060856431721
1761469069838438400,0.2224384765625,-1.3617951331943272,-1.0772773498237131,-0.5833481697320938
1761469069848421400,0.23242138671875,-0.5239215827733278,-0.7701946834236383,0.16269816086292266
1761469069858404400,0.242404296875,-1.1117138724327087,-0.390179759542644,-0.146166128256917
1761469069868387600,0.2523876953125,-0.6693588122338057,0.12211539058387279,-0.1636988623380661
1761469069878370300,0.262370361328125,-0.3001291940003633,0.17227818237394094,0.04121288487613201
1761469069888352500,0.2723525390625,-0.06518062044084072,0.05258563502281904,0.13927812230885028
1761469069898335500,0.28233544921875,0.03786006731688976,0.021053893944621083,0.026168460479378697
1761469069908318200,0.292318115234375,-0.008732172510027884,-0.10884966629743575,-0.03509118712544441
1761469069918301400,0.302301513671875,-0.09781973823904991,-0.15045242727398872,-0.24383038367331025
1761469069928284400,0.312284423828125,-0.048447512304782864,-0.13040917167663574,-0.4550362625956535
1761469069938267400,0.322267333984375,-0.05446574968099594,-0.21997926022559403,-0.5661065275520086
1761469069948250400,0.33225048828125,-0.1540951676905155,-0.11297463727295398,-0.5930553247541189
1761469069958233300,0.3422333984375,-0.057630935713648794,0.20140695396363734,-0.563860209929943
1761469069968216300,0.35221630859375,-0.6125450381219387,-0.744818250104785,-0.0031371289819478987
1761469069978199600,0.362199462890625,-0.7420546306103467,-0.6679664810925722,-0.4746960718333721
1761469069988181200,0.37218115234375,-0.2121826150000095,-0.5815645011857151,-0.5366852027565241
1761469069998164500,0.38216455078125,-0.11365735884010791,-0.6141466280996799,-0.608111439588666
1761469070008147500,0.3921474609375,-0.007317045015096664,-0.6293579334959387,-0.6171072314709425
1761469070018130200,0.402130126953125,0.19062194057703016,-0.423913979101181,-0.23880700255334375
1761469070028113400,0.412113525390625,0.6179916130900382,0.2193418391048908,0.7721849804580211
1761469070038096400,0.422096435546875,-0.6412053154170513,-0.3782429457724094,-0.36366438532173634
1761469070048079600,0.43207958984375,-1.2267092018783092,0.11368190875947475,-0.2335942363411188
1761469070058062300,0.442062255859375,-0.38253275192081926,0.49958209128677844,0.8412094168454408
1761469070068045300,0.45204541015625,-0.45704701789617536,0.02660539059191942,0.08696107509434223
1761469070078028500,0.462028564453125,-0.7001262909412383,0.1263800622910261,-0.24425766917467115
1761469070088010200,0.47201025390625,-0.6684504652172326,-0.20568214706480503,-0.29066870721578597
1761469070097993500,0.481993408203125,-0.9866811330974101,-0.3844470611095428,-0.25018355209231374
1761469070107976400,0.4919765625,-1.0965776780992746,-0.5578937027409673,-0.2657020237416029
1761469070117959200,0.501959228515625,-0.8505231886357069,-0.766371910265088,-0.31743980976343156
1761469070127942400,0.5119423828125,-0.6149795717924833,-0.68181818857342,-0.2741419353067875
1761469070137925400,0.52192529296875,-0.2561041743129492,-0.6427341324195266,-0.3341372620642185
1761469070147908400,0.531908447265625,-0.104220252931118,-0.687239629100263,-0.4961871881514787
1761469070157891300,0.541891357421875,0.018491934502124784,-0.6101937988206744,-0.650696781861782
1761469070167874300,0.551874267578125,0.05999941841065883,-0.6191656253054738,-0.6742337247937917
1761469070177857300,0.561857177734375,-0.21292554232180116,-0.5628676917612553,-0.5863128647565842
1761469070187839200,0.571839111328125,-0.41491935626268384,-0.4070753647640347,-0.5358230329692364
1761469070197822200,0.581822265625,-0.5701502499848604,-0.3907300869017839,-0.5344722028821707
1761469070207805400,0.591805419921875,-0.6709054571539164,-0.4064946422666311,-0.6262625978291034
1761469070217788400,0.601788330078125,-1.2841712107658385,-0.37964755187332627,-0.6690630441576242
1761469070227771400,0.611771484375,-0.5635457371532917,-0.5863777466863394,-0.750006466397643
1761469070237754400,0.62175439453125,-0.4015753060430288,-0.3586374970704317,-0.7146148350208997
1761469070247737300,0.6317373046875,-0.39336452705860137,-0.2268582060843706,-0.5743681599408388
1761469070257720600,0.641720458984375,-0.46665129706561564,-0.08205547513514756,-0.2928010430693626
1761469070267703300,0.651703369140625,-0.7377928815126419,-0.055440147671103474,-0.17491174574792384
1761469070277685500,0.661685546875,-0.886373961956799,0.0816661835566163,-0.32149639167785643
1761469070287668500,0.67166845703125,-0.755148213200271,0.0014659808993339539,-0.39421033023297786
1761469070297651200,0.681651123046875,-0.7638780476227403,0.3304331468492746,-0.3512690141290426
1761469070307634400,0.691634521484375,-1.1920371169477701,0.14796119498014448,-0.1513157661050558
1761469070317617400,0.701617431640625,-1.5133306795299053,-0.0025222119539976117,0.22689093931019305
1761469070327600400,0.711600341796875,-0.9106015175014733,0.27211042947918174,0.4361047676324844
1761469070337583400,0.721583251953125,-0.4250736705303192,-0.12266747150868176,0.3208639389932155
1761469070347566300,0.73156640625,-0.9318301834911108,-0.3717091600894928,0.41208793222904205
1761469070357549300,0.74154931640625,-0.3566559678643942,0.6766533531561494,0.07059212409555912
1761469070367532500,0.751532470703125,-0.3423410267859697,-0.464793101978302,1.0023843136638402
1761469070377514200,0.76151416015625,-0.8417924774304032,-0.4058525449708104,1.2134931619524956
1761469070387497500,0.77149755859375,-0.20341887830793856,0.08514116619080304,0.4347895933806896
1761469070397480400,0.78148046875,0.0742874714821577,0.07058481757193803,0.1535118148446083
1761469070407463400,0.79146337890625,0.16973054371774196,-0.1298243575260043,-0.2119797859042883
1761469070417446400,0.8014462890625,0.5448027504995465,-0.2060594559445977,-0.42435061695277687
1761469070427429400,0.811429443359375,0.9850167070165275,-0.04813333178907633,-0.5894792198330163
1761469070437412400,0.821412353515625,1.1841671142250298,0.09411796111166476,-0.7677969746321439
1761469070447395300,0.831395263671875,1.0127356118083,0.3432663249373436,-0.6859884599953889
1761469070457378300,0.84137841796875,0.7452724236130714,0.5379504003867507,-0.4277560414820909
1761469070467360300,0.8513603515625,0.6580491904512047,0.6666513068407773,-0.18494857111573218
1761469070477343200,0.86134326171875,0.9163713330745696,0.7475275090634822,-0.004480944806337356
1761469070487326500,0.871326416015625,1.1004600724905729,0.7320365099430084,0.12615560588538646
1761469070497309400,0.881309326171875,1.3303466864854097,0.804332223086059,0.18362112190425395
1761469070507292200,0.891292236328125,1.8654414051800965,0.63917468637228,-0.09826806652843952
1761469070517275400,0.901275390625,1.6116817481666803,0.43833091924935574,-0.6348451327353716
1761469070527258400,0.91125830078125,0.8134270914286374,0.5658198195651173,-0.4388070123285055
1761469070537241300,0.921241455078125,0.16190613370239734,0.7441565713256597,-0.0058329439371824264
1761469070547224300,0.931224365234375,-0.3860235166460275,0.7025815751388669,0.026155016475915907
1761469070557207300,0.941207275390625,-0.6352829396307468,0.5740723918646574,-0.18466507799923418
1761469070567184100,0.95118408203125,-0.5886325398758053,0.7802621961906552,-0.11643266877233982
1761469070577167400,0.96116748046875,-0.4463520208805799,0.9426660502821207,0.21043314098417756
1761469070587150300,0.971150390625,-0.3393482747107744,0.8827928885996341,0.4835480713307857
1761469070597133300,0.98113330078125,-0.31027181783020497,0.7217045010209083,0.5120739085912704
1761469070607116300,0.9911162109375,-0.30392858628332614,0.5265358569249511,0.34938510007858276
1761469070617099300,1.001099365234375,-0.2841264459654689,0.39611674837619065,0.20963702217042446
1761469070627082200,1.011082275390625,-0.17535656690597534,0.41895372634530065,0.08561725926995277
1761469070637065200,1.021065185546875,-0.1853895928815007,0.42899172075688835,-0.06306932737529278
1761469070647048200,1.031048095703125,-0.5387736994683742,0.31694121259152885,-0.19784253948032854
1761469070657031400,1.041031494140625,-0.6703457774445414,0.13370996678769587,-0.42324060988426204
1761469070667013400,1.051013427734375,-0.5756698901891708,0.09733283150494099,-0.5128460620075463
1761469070676996400,1.060996337890625,-0.5982610767036676,0.15833616626113653,-0.48617023652791974
1761469070686979300,1.070979248046875,-0.6082365272730589,0.14629501533359288,-0.5339595771849155
1761469070696962300,1.08096240234375,-0.7303910808235407,0.1236857086405158,-0.662093789666891
1761469070706945300,1.0909453125,-0.7890545744553208,0.1241582945883274,-0.7704922050654888
1761469070716928300,1.10092822265625,-0.72960899053514,0.1539925840988755,-0.8286907115340232
1761469070726911200,1.1109111328125,-0.7303101245418191,-0.2195011213198304,-0.8329185583621262
1761469070736894500,1.12089453125,-0.9394511798888444,-0.1273702423721552,-1.2845043882429599
1761469070746877200,1.130877197265625,-0.7552870371490716,-0.04136719865500927,-1.3883791887372732
1761469070756859400,1.140859375,-0.7364689394325018,-0.06918050373196602,-1.0611609122812746
1761469070766842400,1.15084228515625,-1.002065749233961,-0.41988545423746104,-1.1220663396209478
1761469070776825000,1.1608251953125,-1.15637835906744,-0.4022983596205711,-1.3832979399502277
1761469070786808300,1.170808349609375,-0.9908312385141849,0.048284430697560304,-1.6351526401251553
1761469070796791300,1.180791259765625,-0.7730494883328676,0.21167700356543062,-1.7047814721465109
1761469070806774300,1.190774169921875,-0.5573664639964699,-0.17616262259185314,-1.6378011088073252
1761469070816757200,1.20075732421875,-0.769540603429079,-0.19273264912068844,-1.5264835910916328
1761469070826740200,1.210740234375,-1.105010575401783,-0.2185579952508211,-1.3239186992645262
1761469070836723200,1.22072314453125,-1.1809063588634132,-0.11051146202981471,-1.1832874087810517
1761469070846705200,1.230705078125,-1.1800307450726628,-0.1456342133373022,-1.2102911510407923
1761469070856688400,1.2406884765625,-1.186041091403365,-0.24140461783111095,-1.2831255011051892
1761469070866671400,1.25067138671875,-1.1597159790575504,-0.28507892438471316,-1.2483464486688374
1761469070876654300,1.260654296875,-0.9866285261273383,-0.18353811979591844,-1.1480284638732672
1761469070886637300,1.27063720703125,-0.8385825754731893,0.00004208557605743408,-1.2094213824689388
1761469070896620300,1.280620361328125,-0.905070479120314,0.210837045609951,-1.255488721638918
1761469070906603300,1.290603271484375,-0.9609273908987641,0.40345103678703303,-1.3203203825116157
1761469070916586500,1.30058642578125,-1.004652843117714,0.5813870987921953,-1.4864625463485717
1761469070926569200,1.3105693359375,-1.0201575785025954,0.7558020009338855,-1.6722434766352177
1761469070936552200,1.32055224609375,-0.8851134405016898,0.8274532786935568,-1.9075234741061924
1761469070946534400,1.330534423828125,-0.7022884374111891,0.9266606718987226,-2.003756819936633
1761469070956517000,1.34051708984375,-0.641176089322567,1.1007809750080109,-1.9415297886043785
1761469070966500400,1.350500244140625,-0.7096709488779306,1.1803905182957648,-1.891235187128186
1761469070976483300,1.3604833984375,-0.8199439259767531,1.2113853760182858,-1.6992583248108624
1761469070986466300,1.37046630859375,-1.1366682809472084,1.2656477120816707,-1.226808570599556
1761469070996449300,1.38044921875,-1.681558417469263,1.0935025084376335,-0.658121378904581
1761469071006432300,1.390432373046875,-1.868762074035406,0.9674883568495511,-0.07854103727340697
1761469071016415200,1.400415283203125,-1.4383102175980806,0.9951739438936114,0.6785960116565227
1761469071026398200,1.410398193359375,-0.8462479955345392,0.8134019569873809,1.3361720316380261
1761469071036380400,1.42038037109375,-0.6260013165444135,0.5491098000437021,1.7110644979387521
1761469071046363400,1.43036328125,-0.7015963634938002,0.23659078780859708,1.9979870043635368
1761469071056346000,1.44034619140625,-0.8087830650150776,-0.09837591081708669,2.0998516340792177
1761469071066329300,1.450329345703125,-0.7966822928547859,-0.5607686736553907,1.9865029027968644
1761469071076312300,1.460312255859375,-0.4327887749522924,-0.9310162367597222,1.7135113065689802
1761469071086295300,1.47029541015625,-0.0334708924472332,-0.9002353140488266,1.2676543757289647
1761469071096278300,1.4802783203125,0.29759879873991013,-0.6615192046493291,0.8337772210180759
1761469071106261200,1.49026123046875,0.5957955633729696,-0.406726112934947,0.45086569891273975
1761469071116244200,1.500244140625,0.833456318500638,-0.19689123010486362,0.06952887877821921
1761469071126227500,1.5102275390625,1.1801555404961108,-0.1699658137783408,-0.31775311349630353
1761469071136209200,1.520209228515625,1.4267951363712548,-0.24605682755112646,-0.597363251081109
1761469071146192400,1.5301923828125,1.610404567837715,-0.3401668976172805,-0.6942869172632694
1761469071156175400,1.54017529296875,1.857376172146201,-0.30056612411290407,-0.743022014337778
1761469071166158000,1.550157958984375,2.0997242083072662,-0.45275808853060007,-0.6982704339414835
1761469071176141300,1.560141357421875,2.2304116124033926,-0.5291995231762529,-0.4863473466604948
1761469071186124300,1.570124267578125,2.3255413809061047,-0.4938917706906795,-0.04665127653777599
1761469071196107300,1.580107177734375,2.1497359011888504,-0.5154001304045319,0.3321060484975576
1761469071206090200,1.59009033203125,1.7644097191572188,-0.5315788195282221,0.6919763022333383
1761469071216073200,1.6000732421875,1.4655600435733793,-0.5306719338163733,0.9687398182153701
1761469071226055400,1.610055419921875,1.210590426248312,-0.5124456645131111,1.1838520569264888
1761469071236038100,1.6200380859375,1.020516182681918,-0.5192343017399311,1.3191770576953887
1761469071246021400,1.630021484375,0.7800438772648572,-0.6102864455401897,1.3808277504444122
1761469071256004400,1.64000439453125,0.5002361712813377,-0.6016372751384973,1.4207663776010273
1761469071265987300,1.6499873046875,0.2579530170500278,-0.48045974992662666,1.4728180518776177
1761469071275970300,1.65997021484375,0.05041267489790916,-0.3920601664617657,1.3879156628787517
1761469071285953300,1.669953369140625,0.011710311537981032,-0.3760805070415139,1.2275772168844938
1761469071295936300,1.679936279296875,0.0901993263632059,-0.40224253778010605,1.124507303032279
1761469071305919500,1.68991943359375,0.1980062056094408,-0.3572197392269969,1.0437819074571133
1761469071315901200,1.699901123046875,0.29573183582425117,-0.29755086794495583,0.9638473699986934
1761469071325884400,1.709884521484375,0.2382774257212877,-0.31832769851386544,0.754780841192603
1761469071335867400,1.719867431640625,0.13754618394970894,-0.4516302535444498,0.5453133303701877
1761469071345850000,1.72985009765625,0.14048165287971495,-0.5449313453152775,0.38160102402865886
1761469071355833300,1.739833251953125,0.289193373966217,-0.6606582039058209,0.3278945682823658
1761469071365816300,1.74981640625,0.5031967746526003,-0.806924577666819,0.31308804429471493
1761469071375799300,1.75979931640625,0.6561562163114547,-0.9569663783133029,0.2861433387458324
1761469071385782300,1.7697822265625,0.7015174530386924,-1.1391741262882946,0.2837134812504053
1761469071395765200,1.77976513671875,0.7824205432683229,-1.2888821649357676,0.25807868925631045
1761469071405747200,1.789747314453125,0.7431137842744588,-1.4822814612716435,0.18062895435094833
1761469071415730200,1.799730224609375,0.5484054511666298,-1.5971043567597865,0.09181903651952743
1761469071425713400,1.80971337890625,0.43056174655258656,-1.6672081128165124,-0.04423427852392196
1761469071435696400,1.8196962890625,0.4938356565892696,-1.6385077957719563,-0.1941460230499506
1761469071445679000,1.82967919921875,0.6063531977444887,-1.5393687916278838,-0.3109925333201885
1761469071455662300,1.839662353515625,0.8164525767296552,-1.3284095809429883,-0.33814006796479223
1761469071465645300,1.849645263671875,0.916312880885601,-1.1939154780402779,-0.334054259955883
1761469071475628300,1.859628173828125,0.5513356593996286,-1.0775430150225758,-0.35367081457376476
1761469071485611300,1.869611328125,0.00836158563196659,-0.9122814334124326,-0.33481589197814465
1761469071495594200,1.87959423828125,-0.4306675450146198,-0.7319169752165675,-0.18938626130223274
1761469071505576400,1.889576416015625,-0.7380763746291399,-0.5855573702141642,0.038352819269895554
1761469071515559200,1.89955908203125,-0.7693728456467389,-0.49514644692689175,0.2289057862639427
1761469071525542100,1.909542236328125,-0.5949655422896146,-0.48633565622270103,0.3367085738569498
1761469071535525400,1.919525390625,-0.48717619870007034,-0.5098211612284184,0.43535891770124435
1761469071545508400,1.92950830078125,-0.47842444470673795,-0.49630555383414027,0.47866322189867494
1761469071555491300,1.9394912109375,-0.4631353978991508,-0.4916530518531799,0.5114473011255264
1761469071565474300,1.949474365234375,-0.4836012628227472,-0.5623913064211606,0.5112520708143711
1761469071575458600,1.95945849609375,-0.5875216560244559,-0.6781295631885528,0.48065585702061653
1761469071585441500,1.969441650390625,-0.7752543049007654,-0.8354697041496634,0.46457682887911794
1761469071595423500,1.979423583984375,-0.9008163288071751,-0.9473910329774021,0.42274844245314597
1761469071605406500,1.989406494140625,-0.9867699804246425,-1.0221671647593378,0.37288814074099064
1761469071615389700,1.9993896484375,-1.1486594552531837,-1.0944111477151512,0.2435328620314598
1761469071625372400,2.009372314453125,-1.2626821402743458,-1.1823369761884213,0.03916588921844959
1761469071635355400,2.01935546875,-1.2951499931588768,-1.2591022359609603,-0.21377660619318484
1761469071645338600,2.029338623046875,-1.2481745992332696,-1.3619044387876986,-0.35199557483792304
1761469071655321600,2.039321533203125,-1.1197878732949496,-1.4819380546614527,-0.4079635457754135
1761469071665304300,2.04930419921875,-0.9554168107837439,-1.6004203494399785,-0.508980618751049
1761469071675287600,2.05928759765625,-0.8523112410962581,-1.6742209141880273,-0.5687164177894592
1761469071685269500,2.06926953125,-0.8733315250322222,-1.728372191092372,-0.49274318517744536
1761469071695252500,2.07925244140625,-0.816868756315112,-1.6955024794086813,-0.3752145378619432
1761469071705235500,2.0892353515625,-0.7081093986496328,-1.6445228182777762,-0.15286124198138712
1761469071715218400,2.099218505859375,-0.567761893543601,-1.5745470725148916,0.1287818627357483
1761469071725201700,2.10920166015625,-0.47148090917915103,-1.456569804649055,0.357903922098875
1761469071735184400,2.119184326171875,-0.4074547194704413,-1.2511141598165034,0.49080724867880343
1761469071745167600,2.129167724609375,-0.40603257771283385,-1.0699547518506645,0.8349059327870607
1761469071755150600,2.139150634765625,-0.5116390243053436,-0.7424585352361202,1.2556997340410947
1761469071765133300,2.14913330078125,-0.616673516228795,-0.3105444972917437,1.6795301265120506
1761469071775115500,2.159115478515625,-0.6382084716886282,0.2887769021198153,2.1587445525527
1761469071785098500,2.169098388671875,-0.7683408722504973,0.9023577130302787,2.4397230558812617
1761469071795081700,2.179081787109375,-0.9624442252025007,1.231067981609702,2.4323306075423954
1761469071805064400,2.189064453125,-1.1724421896398067,1.3103817568212748,2.1238006649434564
1761469071815047400,2.19904736328125,-1.106513381180167,1.3310039813503622,1.7272978398591279
1761469071825030700,2.20903076171875,-0.6891577376812696,1.3338155316397546,1.2230904268592595
1761469071835013400,2.219013427734375,-0.12927695277631282,1.1492191349625587,0.626817309102416
1761469071844996400,2.228996337890625,0.3963075947731733,0.8319257479324936,0.022700492107868193
1761469071854979600,2.2389794921875,0.7888461924016476,0.5401452800825238,-0.4504670549839735
1761469071864961300,2.248961181640625,1.1765712522685527,0.19986235487014054,-0.778257578369975
1761469071874944500,2.258944580078125,1.3193600130468606,-0.17581395528465507,-1.0332067374289036
1761469071884927500,2.268927490234375,1.4657406608372925,-0.32470190972089763,-1.2270090616077185
1761469071894910500,2.278910400390625,1.7019821968168019,-0.16412088714241982,-1.2544091097086667
1761469071904893400,2.2888935546875,1.7844319319665432,-0.049017421147227284,-1.1618296102106571
1761469071914876400,2.29887646484375,1.899465839856863,0.21916648253798485,-1.0217664750039577
1761469071924859600,2.308859619140625,1.8583225130856036,0.49572132420539855,-0.9441431370973586
1761469071934842600,2.318842529296875,1.5927958459109066,0.6455152875706553,-0.7463596343278884
1761469071944825300,2.328825439453125,1.3119827622771263,0.9321607306197285,-0.5139461322039366
1761469071954807600,2.3388076171875,1.0356804340660573,1.3127382568195463,-0.43024668925404547
1761469071964790500,2.34879052734375,0.6164648419141769,1.5940654274553059,-0.41554654825031756
1761469071974773500,2.3587734375,0.016830723291635513,1.8540818067759275,-0.4075385983616113
1761469071984756500,2.368756591796875,-0.4911947866916656,2.0008874019801617,-0.3441056983709335
1761469071994739500,2.378739501953125,-0.6938947030752897,1.9633537901386617,-0.15594985564649105
1761469072004722700,2.38872265625,-0.7961766814202069,1.6862380997180937,0.018116671448946
1761469072014705400,2.398705322265625,-0.7354384273409843,1.1794012149974704,0.14102525823712347
1761469072024688400,2.4086884765625,-0.48844928737580773,0.7947805508866905,0.05988076046705246
1761469072034671600,2.418671630859375,-0.23878654428720472,0.5732046691194176,-0.03777414259910583
1761469072044653300,2.4286533203125,0.040160745474696155,0.3902835121780634,-0.0625929420351982
1761469072054636500,2.438636474609375,0.3626818040251732,0.26798925789594646,-0.05168050287663936
1761469072064619500,2.44861962890625,0.6047165364533662,0.15426438677757978,-0.058334700068831444
1761469072074602500,2.4586025390625,0.8203951768755913,0.09583382511883974,-0.052446226552128786
1761469072084585500,2.46858544921875,0.9246861569553613,0.07199117723852395,-0.0463894107311964
1761469072094568400,2.478568359375,0.8295400218397379,0.04923369424641132,-0.10270634123682976
1761469072104551700,2.4885517578125,0.5749971054941415,-0.03996639194637537,-0.18650573742985724
1761469072114534700,2.49853466796875,0.38011458486318583,-0.10256342563480138,-0.3570931902378797
1761469072124517400,2.508517333984375,0.14103461058735847,-0.2017711111009121,-0.46464580246210097
1761469072134499600,2.51849951171875,0.00018120178580284117,-0.2958779662966728,-0.5963327389895916
1761469072144482600,2.528482666015625,-0.14048691357672213,-0.3733849843472242,-0.7547562912732362
1761469072154465500,2.538465576171875,-0.3181125944584608,-0.4627206796184182,-0.8454390172392129
1761469072164448500,2.548448486328125,-0.42938744207620616,-0.5115025384441018,-0.9131827661663293
1761469072174431500,2.558431396484375,-0.4627519515395164,-0.5644707430437207,-0.9951888492017984
1761469072184414500,2.56841455078125,-0.5515431646704674,-0.546653639063239,-1.022575453299284
1761469072194397400,2.5783974609375,-0.7971808900266886,-0.5276131307676434,-1.0248702862381935
1761469072204380400,2.58838037109375,-1.0415133780032395,-0.5023913034886122,-0.9800608381748199
1761469072214363600,2.59836376953125,-1.1533002667963503,-0.5361904049769044,-0.9115916975826025
1761469072224345300,2.608345458984375,-1.0803855449721216,-0.609136983244121,-0.9099211340218782
1761469072234328600,2.61832861328125,-1.116379233895242,-0.7741215014785527,-0.8956979628801345
1761469072244311600,2.6283115234375,-1.1170835827723145,-0.8711930516988039,-0.8181085272431373
1761469072254294300,2.638294189453125,-1.0452554871410131,-0.9642693948030471,-0.7595201446741819
1761469072264277500,2.648277587890625,-1.071404950658977,-1.1242191337406635,-0.6620674861818552
1761469072274260500,2.658260498046875,-1.1124074076548218,-1.286184888675809,-0.7229325815111398
1761469072284243500,2.668243408203125,-1.0378916803747416,-1.495852305984497,-0.8162474095463752
1761469072294226400,2.678226318359375,-0.8963859451442956,-1.5732698921859263,-0.834718885782361
1761469072304209400,2.68820947265625,-0.8581213886797427,-1.5424983218252657,-0.9578308861881494
1761469072314191600,2.698191650390625,-0.8029962983071803,-1.5032856708556412,-1.079112748557329
1761469072324174300,2.70817431640625,-0.6992839948982,-1.4189192884296178,-1.2067080318570136
1761469072334157600,2.718157470703125,-0.5808025769025087,-1.3555115228801964,-1.3207353930532932
1761469072344140500,2.728140625,-0.6474807424247264,-1.1354781943798065,-1.3434008138477802
1761469072354123500,2.73812353515625,-0.7955793000489473,-0.8884586592763661,-1.3091741345971821
1761469072364106500,2.7481064453125,-0.9174725723147392,-0.6212947462886571,-1.2521119386821984
1761469072374089500,2.75808935546875,-0.9909744463771581,-0.4170610444664955,-1.1368453910797833
1761469072384072400,2.768072509765625,-1.165462413755059,-0.1550625514179468,-0.9353741397082805
1761469072394055700,2.7780556640625,-1.259580082605779,0.06628419776856899,-0.7385393159657716
1761469072404037400,2.788037353515625,-1.1657727948784828,0.24315584541261195,-0.45486032150685785
1761469072414020600,2.7980205078125,-1.19804249484241,0.2732341728121042,-0.19752806670367717
1761469072424003600,2.808003662109375,-1.3597314786627888,0.231271930873394,-0.07853986822962761
1761469072433986300,2.817986328125,-1.6475094328731297,0.1898842739522457,0.014418985974788665
1761469072443969500,2.827969482421875,-1.8355384343475103,0.1112897529259324,0.07235036593973636
1761469072453952500,2.837952392578125,-1.8519798660606144,0.09719751468747853,0.16318974377214907
1761469072463935500,2.847935546875,-1.8865192645221946,0.09227905524671078,0.31807460053563114
1761469072473918500,2.85791845703125,-1.917825087890029,0.07352846980839968,0.5198346057206392
1761469072483901400,2.8679013671875,-1.83011173312366,0.005902209781110286,0.8213409332931041
1761469072493883600,2.877883544921875,-1.6166098522186279,0.0548597174346447,1.2900292891442775
1761469072503866400,2.887866455078125,-1.2292998028934001,0.3114873310998082,1.6415496476858853
1761469072513849600,2.897849609375,-0.9375883086264133,0.4461857244029641,1.9094260928571223
1761469072523832600,2.90783251953125,-1.068025537353754,0.582187893781066,2.2209528791844844
1761469072533815300,2.917815185546875,-1.258552785384655,0.6241188637986779,2.383447626429796
1761469072543798500,2.927798583984375,-1.1365712503135204,0.6370546254783869,2.3066584012597797
1761469072553781500,2.937781494140625,-0.5853688619047402,0.6476522995993494,2.0605805309206247
1761469072563764500,2.947764404296875,0.21907529712319374,0.5936261103793978,1.45267192042768
1761469072573748200,2.957748291015625,0.7533838338762522,0.5947454697981477,0.3873708396017551
1761469072583730200,2.967730224609375,0.9968944840759039,0.3434276529788971,-0.27325521560013294
1761469072593713200,2.977713134765625,1.3826064505547284,0.25669454142153264,-0.6421364587873221
1761469072603696000,2.987696044921875,1.6391285580188035,0.22347674695253372,-0.9106804279565811
1761469072613679000,2.99767919921875,1.6628648229151963,0.054846565692126745,-1.1109171690970658
1761469072623662300,3.007662353515625,1.6440414645016193,-0.16624299386292696,-1.2801666512995957
1761469072633645000,3.01764501953125,1.6341975313574075,-0.4733317977428436,-1.299388653641939
1761469072643628000,3.0276279296875,1.6087807660281657,-0.76925886387825,-1.208708265763521
1761469072653611300,3.037611328125,1.6834803254425525,-0.8944099688962102,-0.9478045822143554
1761469072663594000,3.047593994140625,1.8506126693606375,-0.8431143736839294,-0.5288946950107812
1761469072673577000,3.057576904296875,2.111898045703769,-0.6726806501328945,-0.11304887155294417
1761469072683559200,3.06755908203125,2.217027814695239,-0.45171793182790276,0.3558013968616724
1761469072693542100,3.077542236328125,1.9298142163693903,-0.03864566473662853,0.7685422400414943
1761469072703525000,3.087525146484375,1.449100491681695,0.19813743077367543,1.0680641157984734
1761469072713508000,3.097508056640625,1.1001853472024201,0.3728133219391107,1.135813125422597
1761469072723491000,3.107490966796875,0.8656196354806422,0.42382863890528677,1.1151947002857923
1761469072733474000,3.11747412109375,0.6652899553596973,0.3842988848105073,1.079993038523197
1761469072743457000,3.12745703125,0.39996436371505256,0.2954661706253886,0.8826865056157112
1761469072753440300,3.137440185546875,0.13678630549311638,0.1676642588376999,0.6614478929787874
1761469072763423200,3.14742333984375,0.08080664411783219,0.1216504034206271,0.4678939906030893
1761469072773405200,3.1574052734375,0.1616182566717267,0.13696224658191203,0.3137959003031254
1761469072783388200,3.16738818359375,0.3686024262458086,0.1308355803951621,0.16754384732842445
1761469072793371100,3.17737109375,0.6024307636037468,0.07677607342749834,0.07257774495482444
1761469072803354000,3.18735400390625,0.6899895123302936,-0.004564531436562538,0.06929097836911678
1761469072813337000,3.197337158203125,0.7036755078554153,-0.079725278621912,0.010191723668575287
1761469072823320000,3.207320068359375,0.6504571278870105,-0.2474444825172424,-0.1057148754030466
1761469072833303300,3.21730322265625,0.5380085603147745,-0.4460536224558949,-0.31853929543793197
1761469072843286000,3.2272861328125,0.4340437434494495,-0.6441057130336761,-0.5493652361094952
1761469072853268200,3.237268310546875,0.40272739868760105,-0.84056731954962,-0.7625351085811853
1761469072863251200,3.247251220703125,0.4289426209181547,-1.0239154697313904,-0.89900752581954
1761469072873234000,3.25723388671875,0.4210983371585607,-1.2166355516314507,-0.8987637801915407
1761469072883217200,3.267217041015625,0.43318624983727927,-1.393911103901267,-0.7343412797540426
1761469072893200100,3.2772001953125,0.5433931759625673,-1.48308079495579,-0.48590427906811234
1761469072903183000,3.28718310546875,0.6826438257426023,-1.5006462622627614,-0.16759119360148905
1761469072913166000,3.297166015625,0.5172825831502675,-1.4201304177850484,0.18178630769252777
1761469072923149000,3.307149169921875,0.06836041952073574,-1.3595561220958827,0.44403322254419325
1761469072933132300,3.31713232421875,-0.2199088253378868,-1.3042334633246064,0.5460954206585884
1761469072943115300,3.327115234375,-0.43815059424638747,-1.2613684273272752,0.513919244197011
1761469072953097200,3.33709716796875,-0.6043035717383026,-1.2474594367012382,0.4168956247717142
1761469072963080200,3.347080078125,-0.5977125029101967,-1.1895242573440075,0.33481063128113747
1761469072973063200,3.357063232421875,-0.5726625250667333,-1.1399816432788967,0.2824111664801836
1761469072983046100,3.367046142578125,-0.5932838728129863,-1.0818082712516188,0.21610651044547557
1761469072993029000,3.377029052734375,-0.6322106925785541,-0.9939444020986556,0.12010229719579218
1761469073003012000,3.38701220703125,-0.627182927544415,-0.9442220475524663,0.007122983747720718
1761469073012995300,3.396995361328125,-0.5611836841970682,-0.931400852163136,-0.15443769751787184
1761469073022978000,3.40697802734375,-0.5526593092188239,-0.9251207489803432,-0.24485505054593085
1761469073032961000,3.4169609375,-0.555685963563621,-0.9334422948628663,-0.24506489390432834
1761469073042943200,3.426943115234375,-0.5900432834565639,-0.9218906810179353,-0.28821371527910233
1761469073052926000,3.436926025390625,-0.6369558412790298,-0.9242170781388879,-0.3831424082517624
1761469073062909200,3.4469091796875,-0.7554065718755125,-1.0475795461744069,-0.3709451899796724
1761469073072892200,3.45689208984375,-0.8801873822763562,-1.1911562424600124,-0.37734453562796116
1761469073082875100,3.466875244140625,-0.9467153256729245,-1.2948077555924653,-0.3169529030293226
1761469073092858000,3.476858154296875,-0.9387146823078394,-1.3178648060530422,-0.20999533408880233
1761469073102841000,3.486841064453125,-0.8768181981042027,-1.3426353824332355,-0.15537293254137038
1761469073112824300,3.49682421875,-0.8037181828409433,-1.3871549076393246,-0.0857160434693098
1761469073122807000,3.50680712890625,-0.7392711373716593,-1.3611144574537872,0.048295536613464356
1761469073132789200,3.516789306640625,-0.643270431253314,-1.3441253287300468,0.16844459556043148
1761469073142772200,3.526772216796875,-0.5489724373996258,-1.2978700657725333,0.3127794167369604
1761469073152755000,3.5367548828125,-0.5190525154322385,-1.2570856354415416,0.5054787481099366
1761469073162738200,3.54673828125,-0.5573486360788344,-1.1706807329252362,0.734430127081275
1761469073172721200,3.55672119140625,-0.6939572469174862,-1.057105791671574,0.8762526731759309
1761469073182704000,3.5667041015625,-0.8180226025253534,-0.9368383670419455,0.9306646468430757
1761469073192687000,3.57668701171875,-0.8816022175103425,-0.5787146647125482,1.279196344962716
1761469073202670000,3.586670166015625,-0.8520221950218081,-0.049962008520960804,1.757273875927925
1761469073212653000,3.596653076171875,-0.6636357584118843,0.5507894236937165,2.1697224581629038
1761469073222635000,3.606635009765625,-0.5040723884433508,1.1608929138824342,2.4529350041538476
1761469073232618000,3.616617919921875,-0.42649318193942304,1.8311790700942276,2.535333885899186
1761469073242601200,3.626601318359375,-0.17810440430939198,2.564101422961056,2.532609429371357
1761469073252584200,3.636584228515625,0.4130570695221424,3.0714284292861818,2.5406711552739143
1761469073262567200,3.646567138671875,0.9819090963900089,2.889945780715346,2.4438223078936336
1761469073272550100,3.656550048828125,1.3307085055351258,2.073455502323806,2.0484026018708943
1761469073282533000,3.666533203125,1.60567695479393,1.2388628732696174,1.4586656078845261
1761469073292516400,3.676516357421875,2.0045617065787313,0.584903290219605,0.6750105543851852
1761469073302499000,3.6864990234375,2.4450556490808726,-0.030421149487793443,-0.06566752717494964
1761469073312481300,3.696481201171875,2.6699983769327402,-0.253536369651556,-0.982042951902747
1761469073322464300,3.70646435546875,2.6623563377469774,-0.44843905628770586,-1.8646388566255567
1761469073332447000,3.716447021484375,2.348637886594236,-0.45061026284694666,-2.6923405571222303
1761469073342430200,3.72643017578125,1.8899778805434704,-0.2981543867960572,-3.0153321557939052
1761469073352413200,3.7364130859375,1.2097335171580315,0.08982201748341322,-2.528140175002813
1761469073362396200,3.746396240234375,0.4456640386164188,0.5158832377463579,-1.8249638488411903
1761469073372379100,3.756379150390625,-0.19165157588571308,0.8455366323947906,-1.261262628865242
1761469073382362000,3.766362060546875,-0.6190516435369848,1.158353458532691,-0.642418198338151
1761469073392345000,3.776344970703125,-0.6776940943807364,1.30050567497313,-0.09853285494446754
1761469073402327000,3.7863271484375,-0.5523246704369783,1.2637450933307408,0.32296821779608725
1761469073412310000,3.79631005859375,-0.35823593053221703,1.1214297952830792,0.6602864479839802
1761469073422293200,3.806293212890625,-0.2395437923952937,1.0169906389042735,0.855761673811078
1761469073432276000,3.81627587890625,-0.17179741311967373,0.8634905144974588,0.9524234741866588
1761469073442259200,3.82625927734375,-0.17451076373159885,0.6696779611855745,1.0340098705053329
1761469073452242200,3.8362421875,-0.12136954065263271,0.4989198279857635,1.0160621258825062
1761469073462225200,3.84622509765625,0.11453092680424451,0.38275399345606564,1.0158487753927707
1761469073472208100,3.8562080078125,0.2896861259192228,0.3347746831849217,0.9130085786432027
1761469073482191000,3.866191162109375,0.40323301012217994,0.2731704599261284,0.5650193168371915
1761469073492173300,3.87617333984375,0.47920068977624175,0.21435674416869877,0.15117840346097947
1761469073502156000,3.886156005859375,0.4881570264309644,0.12409399718046188,-0.20022972687780857
1761469073512139000,3.896138916015625,0.5179442619293928,-0.005470540365576744,-0.4936445179313421
1761469073522122200,3.906122314453125,0.5590490102559328,-0.14310644842535256,-0.7664420528918504
1761469073532105200,3.916105224609375,0.5109323373407125,-0.23745851055383682,-1.0016302804261445
1761469073542088000,3.926087890625,0.3116641489714384,-0.29552666864097116,-1.1242495288789272
1761469073552071200,3.9360712890625,0.035706688675284384,-0.3430456679239869,-1.2180921801805495
1761469073562054100,3.94605419921875,-0.17709084335267541,-0.38478023858666416,-1.259461132401228
1761469073572036000,3.9560361328125,-0.41525311826169486,-0.408281525683403,-1.2055822426974774
1761469073582019000,3.96601904296875,-0.6506494355887175,-0.40624066750556226,-1.095847610259056
1761469073592001000,3.9760009765625,-0.7220116672739386,-0.384461674156785,-1.0473287862837315
1761469073601984000,3.98598388671875,-0.7008306398183107,-0.4375219409540295,-1.028821069690585
1761469073611967000,3.995967041015625,-0.5801712932616472,-0.5550187318265438,-1.0649363391667603
1761469073621950000,4.005949951171875,-0.43532063151746986,-0.6835404823213815,-1.0729764377593993
1761469073631933000,4.015932861328125,-0.4576435224846005,-0.7442620775267481,-1.1078612886577843
1761469073641916200,4.025916259765625,-0.5977420212656259,-0.8931368802204728,-1.0046651180773973
1761469073651899100,4.035899169921875,-0.8468556060388683,-0.9071215664312243,-0.9213350929617882
1761469073661881900,4.0458818359375,-1.1410527796417473,-0.9179045339912175,-0.9079565559506416
1761469073671864000,4.055864013671875,-1.245481122365594,-0.9141931122526525,-0.9216711930483579
1761469073681847000,4.065846923828125,-1.0750690261244773,-0.972249872162938,-0.9603490064889192
1761469073691830000,4.075830078125,-0.8637968039676547,-1.0558429321289062,-1.026059203761816
1761469073701813000,4.08581298828125,-0.631244770155847,-1.127834401628375,-1.1260036790698766
1761469073711796000,4.0957958984375,-0.4168944557279348,-1.202291384458542,-1.2284750425070523
1761469073721779200,4.105779296875,-0.31692806084901093,-1.2428127799391746,-1.2897194925427435
1761469073731762000,4.115761962890625,-0.3636792906299233,-1.228057693877816,-1.2408020246386526
1761469073741745000,4.125744873046875,-0.505506220638752,-1.0395721808075904,-1.1791273664921522
1761469073751728000,4.13572802734375,-0.5249380663394928,-0.707413525339961,-1.1091776319533586
1761469073761709800,4.145709716796875,-0.32442659991085526,-0.34258418789207934,-1.0090063621520995
1761469073771693000,4.155693115234375,-0.3787120245888829,-0.1320823655858636,-1.0170581511825323
1761469073781676000,4.165676025390625,-0.8101409093648195,0.08667612067312001,-1.1326333263427018
1761469073791659000,4.175658935546875,-1.11072310782969,0.29349165568202734,-1.0257494071602822
1761469073801642000,4.18564208984375,-1.0612997362300753,0.3934638957798481,-0.6259627380996942
1761469073811625000,4.195625,-1.140738306865096,0.32725188646465536,-0.2352940259963274
1761469073821608200,4.205608154296875,-1.345896722316742,0.22801000646799802,0.06459785211682319
1761469073831591000,4.2155908203125,-1.3995838888406753,0.1323544605255127,0.25850129858255383
1761469073841574000,4.225573974609375,-1.4005936504051089,0.015748188751935958,0.2912503064960241
1761469073851557000,4.23555712890625,-1.5193296276837587,-0.1238598961636424,0.2278343576401472
1761469073861538800,4.245538818359375,-1.6510820306628942,-0.2674950446382165,0.10671616140007972
1761469073871522000,4.25552197265625,-1.8009774085760115,-0.31167525488734243,0.00554828177690506
1761469073881505000,4.265505126953125,-2.048891846692562,-0.2595943545162678,0.08678513400554656
1761469073891488000,4.275488037109375,-2.2101696193635463,-0.2841834368497133,0.46486324460506434
1761469073901471000,4.285470947265625,-2.0772680463492867,-0.2580605690777302,1.0152928950756788
1761469073911454000,4.295453857421875,-1.4552426476985216,0.015744389359652996,1.5177794756323097
1761469073921437000,4.30543701171875,-0.698362788400054,0.35004648659676313,1.8032383392453193
1761469073931420200,4.315420166015625,-0.4379086021840572,0.7956652247667312,1.6930238143354652
1761469073941403000,4.32540283203125,-0.5089467164814472,0.9038178487107157,1.788439998564124
1761469073951385000,4.335385009765625,-0.18357845180630683,1.1537675920471548,2.044488643297553
1761469073961368000,4.3453681640625,0.24878186860084534,1.1937544422596693,2.083866713961959
1761469073971350800,4.355350830078125,0.40426586030125616,0.8862906675875186,1.9069079725563525
1761469073981334000,4.365333984375,0.605675736874342,0.6605185031741857,1.426139887332916
1761469073991317000,4.37531689453125,0.9910948578864336,0.4073421990066767,0.8270067039698362
1761469074001300200,4.38530029296875,1.3068325399070977,0.3565633211448788,-0.06908171953260898
1761469074011283000,4.395282958984375,1.4076321707397699,0.22552608069777488,-0.574168253454566
1761469074021266000,4.405265869140625,1.4366075053334235,0.05270575427114963,-0.7806576252490282
1761469074031249200,4.415249267578125,1.795448416021466,-0.1284282269924879,-0.7371043147265911
1761469074041230800,4.42523095703125,2.0974130087554452,-0.23226006512790917,-0.5788993736296891
1761469074051214000,4.435214111328125,2.0713900942265986,-0.3119078945994377,-0.45470659224987026
1761469074061197000,4.445197021484375,2.056476602733135,-0.4064344365119934,-0.28518764545619485
1761469074071180000,4.455179931640625,2.1626772158265113,-0.8880921640515327,-0.10812836628556251
1761469074081163000,4.4651630859375,1.521786957708001,0.21211948663592337,0.012001987960934638
1761469074091146000,4.47514599609375,1.8968577031850813,0.7942252550914883,1.0612526822179555
1761469074101129000,4.48512890625,1.7922709550291298,0.3420809145450592,1.419073602208495
1761469074111112200,4.4951123046875,0.9882213482767342,0.5355716885566711,0.9827116449445485
1761469074121095000,4.505094970703125,0.7484393632113933,0.6234843652874231,0.8610118494242429
1761469074131077000,4.5150771484375,0.7533031698554754,0.7506362887337803,0.6934697556614875
1761469074141060000,4.52506005859375,0.8608405845105648,0.8532818396940827,0.4271458006292581
1761469074151042800,4.535042724609375,0.9860440042376518,0.9308353272348642,0.1408195065319538
1761469074161026000,4.545026123046875,1.1253642121225595,0.8743602835580706,-0.11951193008720874
1761469074171009000,4.555009033203125,1.2395569930136203,0.7996238992646336,-0.3965858271926641
1761469074180992000,4.564991943359375,1.2690659960925579,0.6316261706888675,-0.6166840376228093
1761469074190975000,4.57497509765625,1.2630273004502057,0.4531324748009443,-0.780848179385066
1761469074200959000,4.584958984375,1.1741232745945454,0.27750293617248534,-0.9018412879407405
1761469074210941200,4.594941162109375,1.001325744521618,0.04928045599758625,-0.9805115045517683
1761469074220924000,4.604923828125,0.8538286599218845,-0.17226210802197456,-1.0199860213279723
1761469074230907000,4.614906982421875,0.662481912201643,-0.3337982393682003,-0.9573843114644288
1761469074240890000,4.62489013671875,0.4968596805855632,-0.5110495339795946,-0.7988923701196908
1761469074250873000,4.634873046875,0.4349745945587754,-0.6852563463285565,-0.6162889008253812
1761469074260855800,4.644855712890625,0.37675913695544,-0.8171013960272073,-0.5180722722232342
1761469074270839000,4.654839111328125,0.32644553851783276,-0.9845581495940685,-0.41830198443830013
1761469074280822000,4.664822021484375,0.22302140440046786,-1.074469014404714,-0.28574177220761776
1761469074290805000,4.674804931640625,0.04908581020832062,-1.210515607446432,-0.13260112876296043
1761469074300787000,4.684786865234375,-0.1776739039376378,-1.3535995517790316,0.05429565381109714
1761469074310770000,4.69477001953125,-0.31351883692741395,-1.4701888724178076,0.2679196997910738
1761469074320753200,4.704753173828125,-0.328330621612072,-1.5243822348982095,0.431720853459835
1761469074330735900,4.71473583984375,-0.3502718197852373,-1.5047966599404812,0.5879466034382581
1761469074340719000,4.724718994140625,-0.5231096818685531,-1.4094792599111794,0.6589473083347082
1761469074350702000,4.7347021484375,-0.634945085978508,-1.3022937274336814,0.6674135233849287
1761469074360685000,4.74468505859375,-0.5334434443563223,-1.1735504431426524,0.5998579905062914
1761469074370668000,4.75466796875,-0.4662853863626718,-1.0689181022793055,0.4550333399862051
1761469074380651000,4.764651123046875,-0.4963365334942937,-0.9737152685403824,0.3209685684114694
1761469074390633200,4.77463330078125,-0.6061041914194822,-0.871187206479907,0.15549100596308707
1761469074400616000,4.784615966796875,-0.6888315744668245,-0.8231991283804178,-0.009974866047501564
1761469074410599000,4.794598876953125,-0.7308017074510454,-0.8218146882846951,-0.20131109237372874
1761469074420582100,4.80458203125,-0.7288707393884658,-0.8460808222740888,-0.3597755611896515
1761469074430564900,4.81456494140625,-0.7437953367978334,-0.8855614765301346,-0.4798346037656068
1761469074440547800,4.8245478515625,-0.7426984814718365,-0.9765607210993766,-0.6551572684019804
1761469074450531000,4.834531005859375,-0.6860688317552208,-1.0429518863737584,-0.8104366774410009
1761469074460514000,4.84451416015625,-0.5313277673766017,-1.065062011373043,-0.8535393215864896
1761469074470496800,4.854496826171875,-0.4892117961809039,-1.0669751515179873,-0.8276666291832924
1761469074480480000,4.86447998046875,-0.5368099981799721,-1.15709644420892,-0.6595154636114835
1761469074490462000,4.8744619140625,-0.6170721601575613,-1.223315175525844,-0.42331192155480385
1761469074500445000,4.88444482421875,-0.7481003405153751,-1.3191568916901946,-0.27779402807354925
1761469074510428000,4.894427978515625,-0.8501888421148062,-1.4441601126700638,-0.15502514201700687
1761469074520411100,4.9044111328125,-0.8546265323013067,-1.5448258879899979,-0.05406652123034
1761469074530394000,4.91439404296875,-0.7845973027855158,-1.5745426886007188,0.06535831509530544
1761469074540376800,4.924376953125,-0.743725194171071,-1.557287602417171,0.19760580811500547
1761469074550360000,4.934360107421875,-0.6992234968826174,-1.50652362986356,0.3182037798732519
1761469074560343000,4.944343017578125,-0.6855693578004837,-1.45751146941334,0.4739934765219688
1761469074570330400,4.954330322265625,-0.6398772816836834,-1.3890353145584464,0.6051438219547272
1761469074580312300,4.964312255859375,-0.5454311115309596,-1.3007906293943523,0.7061299152702093
1761469074590295300,4.97429541015625,-0.5690069251686334,-1.0210618338659405,1.0468266819804906
1761469074600278300,4.9842783203125,-0.8212123384773731,-0.4477604263737798,1.5767472129076718
1761469074610261200,4.99426123046875,-1.0139064091533423,0.16849018826782702,1.9460522344648836
1761469074620244200,5.004244140625,-1.0000509022802113,0.7914744950786232,2.1978905680269003
1761469074630227200,5.014227294921875,-0.9628142275586724,1.4368711247056722,2.460294719266891
1761469074640210400,5.02421044921875,-0.9043594082415103,1.9807886168032884,2.6357331192374227
1761469074650193200,5.034193115234375,-0.5427917029380798,2.0639733882293103,2.8246546856373547
1761469074660176400,5.04417626953125,-0.002924363014101982,1.7394956426531076,3.0342537138849495
1761469074670158300,5.054158447265625,0.5808648284837603,1.35152303776592,2.7778227918356655
1761469074680141300,5.064141357421875,1.079689379401505,0.7709665445789694,2.2503712813705206
1761469074690124300,5.074124267578125,1.465083658233285,0.4547913479238748,1.6400667156517506
1761469074700107300,5.084107177734375,1.8218454245597122,0.16100480094850061,0.8832055610537528
1761469074710090500,5.094090576171875,2.211473103177547,-0.037168870182335376,0.18962416171133517
1761469074720073200,5.1040732421875,2.46199509344399,-0.17393617871403694,-0.5788280619591474
1761469074730056200,5.11405615234375,2.5975533184468746,-0.19623715011030435,-1.4348586158394814
1761469074740039400,5.124039306640625,2.2757500527769325,-0.12367635629028081,-2.0521447110086677
1761469074750022100,5.134022216796875,1.7093594475865364,0.14395838907957076,-2.2347762373536826
1761469074760004400,5.14400439453125,1.0698147588580846,0.4783019873708486,-1.9015350473463535
1761469074769987300,5.1539873046875,0.41828211069405075,0.8777791520908474,-1.5011492433488367
1761469074779970300,5.16397021484375,-0.036897359764575956,1.222944004125893,-1.1245751075714825
1761469074789953300,5.173953369140625,-0.515280595678091,1.4455340313717722,-0.6207791979819536
1761469074799936300,5.183936279296875,-0.7689011364817618,1.5397443469420073,-0.24231004223823546
1761469074809919200,5.193919189453125,-0.6608505116075277,1.4123098071619868,0.08852759375870227
1761469074819902200,5.203902099609375,-0.3083797204732895,1.201936579671502,0.4187234247207641
1761469074829885200,5.21388525390625,0.21801672798097133,0.924410847145319,0.5587567493110894
1761469074839868400,5.223868408203125,0.4977718269944191,0.6976753906577825,0.6059995620012283
1761469074849851400,5.233851318359375,0.32977088354825973,0.5700593568310142,0.6809235778212547
1761469074859833300,5.243833251953125,0.1717676025032997,0.4079311048105359,0.6626227819770574
1761469074869816300,5.25381640625,0.22560616019666194,0.22622779922634362,0.5477461104750633
1761469074879799300,5.26379931640625,0.31870237704515453,0.17508154935687778,0.34358605841100215
1761469074889782300,5.2737822265625,0.4045540295928716,0.1297656130760908,0.15613748717308043
1761469074899765200,5.28376513671875,0.5357739331305027,0.1348626439541578,-0.05037701906263828
1761469074909748200,5.293748291015625,0.5893868653744458,0.0929550548121333,-0.24206103591322897
1761469074919731500,5.3037314453125,0.5394844780862331,0.03713233756422996,-0.43966099880933757
1761469074929714200,5.313714111328125,0.6173796186715365,-0.06037409694194793,-0.6245668998271227
1761469074939697200,5.323697265625,0.6972972049951552,-0.18431378034353255,-0.7961918789893389
1761469074949679400,5.333679443359375,0.6048433777034282,-0.32013211758732796,-1.0194640432804822
1761469074959662000,5.343662109375,0.42873920730054377,-0.44199996315091844,-1.200780395373702
1761469074969645300,5.353645263671875,0.19819442165791987,-0.508961914050579,-1.2443401356369257
1761469074979628300,5.363628173828125,-0.02079261265993118,-0.48761429785639043,-1.1950187631070612
1761469074989611300,5.373611328125,-0.14804536613225935,-0.4304562403514981,-1.088935638913512
1761469074999594200,5.38359423828125,-0.21544366262257097,-0.3946542746081948,-0.9392717316687107
1761469075009577200,5.3935771484375,-0.33415830485224723,-0.3257505419909954,-0.8235907580465078
1761469075019560400,5.403560546875,-0.48931964046955106,-0.32188597551733256,-0.772338125193119
1761469075029543400,5.41354345703125,-0.6032306818097829,-0.3915314664125442,-0.7926876702606678
1761469075039525400,5.423525390625,-0.5528957483232021,-0.5282929297253489,-0.9476023376405238
1761469075049508400,5.43350830078125,-0.4728495671838522,-0.5926929211825132,-1.103093343603611
1761469075059491300,5.4434912109375,-0.513411879196763,-0.6448685140997171,-1.2602999213129282
1761469075069474300,5.453474365234375,-0.648710576480627,-0.6613818420052529,-1.368910518157482
1761469075079457300,5.463457275390625,-0.7376607795655727,-0.6909013664782047,-1.4371592939972877
1761469075089440300,5.473440185546875,-0.7124059267997741,-0.7432166601270437,-1.4493348849594592
1761469075099423500,5.483423583984375,-0.7345955467760562,-0.8538421039253473,-1.369583887374401
1761469075109406200,5.49340625,-0.7428115864574909,-0.9869128960266709,-1.25718149703145
1761469075119389200,5.50338916015625,-0.6233849965661764,-1.1540136757627129,-1.1577233439356087
1761469075129372400,5.513372314453125,-0.47992695822417736,-1.4371128245070577,-1.1760399218708275
1761469075139354000,5.52335400390625,-0.5742226139903068,-2.045225433139503,-1.494141994935274
1761469075149337300,5.53333740234375,-0.5598854610800743,-0.43513767616599797,-1.4567600665241478
1761469075159320300,5.5433203125,0.23964403789937494,-0.5625494195923209,-0.5613607943296433
1761469075169303300,5.55330322265625,-0.19516542922556399,-0.42795185631513594,-0.7078507477134466
1761469075179286300,5.563286376953125,-0.7824193742245436,-0.3971270944625139,-0.8631570447593927
1761469075189269200,5.573269287109375,-0.9427630809158086,-0.17136399013847112,-0.7248217562586069
1761469075199252500,5.58325244140625,-0.8879472026228904,0.1137228252917528,-0.3695575350135565
1761469075209235200,5.593235107421875,-0.9117325673580169,0.3348486252039671,-0.020899580165743826
1761469075219218200,5.60321826171875,-1.0147177255362272,0.44725013876408337,0.23699732278287408
1761469075229200400,5.613200439453125,-1.0854232468783855,0.47337534462362524,0.38901276158988474
1761469075239183000,5.62318310546875,-1.128255841910839,0.40928924142122264,0.5080576586872338
1761469075249166300,5.633166259765625,-1.184107492992282,0.21065788965076207,0.48392684151530263
1761469075259149300,5.6431494140625,-1.3590098863899707,-0.08137889104783534,0.2763590268343687
1761469075269132300,5.65313232421875,-1.5632804130911826,-0.3773977271199226,-0.029731705918908117
1761469075279115300,5.663115234375,-1.7138655268341303,-0.5676905818730592,-0.2045551888614893
1761469075289098200,5.67309814453125,-1.8770394885152577,-0.6414861781850457,-0.16120061578154563
1761469075299081200,5.683081298828125,-1.8955577265024184,-0.7502700857698917,-0.04632511332333088
1761469075309064400,5.693064453125,-1.8967448904603719,-0.6751224903270602,0.20946634177863596
1761469075319046100,5.703046142578125,-1.6759598668098448,-0.4603013435170054,0.5760433996766805
1761469075329029400,5.713029296875,-1.2017507017105817,-0.16394757640212773,0.8469622812837362
1761469075339012400,5.723012451171875,-0.9132546623587607,0.13511311158388853,1.0739040739983319
1761469075348995300,5.732995361328125,-0.8535159407109022,0.3511839661940932,1.2734551709622144
1761469075358978300,5.742978271484375,-0.7730120789319276,0.4567617712140083,1.537712256592512
1761469075368961300,5.752961181640625,-0.5358370614945889,0.602331687143445,1.8261510127991436
1761469075378944500,5.762944580078125,-0.43054771802723407,0.9079583095163106,2.0981115124136207
1761469075388927200,5.77292724609375,-0.036106501647830004,1.1205863301962613,2.182073990213871
1761469075398910200,5.78291015625,0.6235393103450536,1.1088011998564005,1.9867694447785615
1761469075408892400,5.792892333984375,1.0482301190376282,1.1751909038260577,1.1838520569264888
1761469075418875100,5.802875244140625,1.4530629655718803,1.0730901272669433,0.36055648243427274
1761469075428858400,5.8128583984375,1.9319734402298927,0.9890642288416623,-0.06748246764242649
1761469075438841300,5.82284130859375,2.235248531040549,0.865873902502656,-0.3919008842468262
1761469075448824300,5.83282421875,2.1894225994110106,0.6454013058021664,-0.6956669734448194
1761469075458807300,5.842807373046875,2.145508638882637,0.2990820230349898,-0.8830664448440074
1761469075468790300,5.852790283203125,2.134229119977355,0.02901303625553846,-0.9830793092131614
1761469075478773200,5.862773193359375,2.13401460044384,-0.12049129651337862,-0.9366811306536197
1761469075488756200,5.872756103515625,2.2990812440037725,-0.18992168335318566,-0.6350999842792749
1761469075498738200,5.88273828125,2.4372271474123,-0.12539689647257327,-0.2763134341269731
1761469075508721400,5.892721435546875,2.336925529229641,-0.052311786517500874,0.02711129428744316
1761469075518704000,5.9027041015625,2.0223288339376446,0.13317454473674298,0.3138601977109909
1761469075528687400,5.912687255859375,1.6070745466321705,0.3833092892512679,0.5958639524340629
1761469075538670300,5.92267041015625,1.1916355504095553,0.4718289919644594,0.6861188083767891
1761469075548653300,5.9326533203125,0.8620049521148204,0.5243211034849286,0.7248854691445827
1761469075558636300,5.94263623046875,0.6165782391607761,0.5724857071951032,0.7158288869857787
1761469075568619300,5.952619384765625,0.36253801164031024,0.5609978062361478,0.7011866136491298
1761469075578598100,5.96259814453125,0.23080372883975506,0.5110498262405395,0.6843541367918252
1761469075588580400,5.972580322265625,0.23612696968913077,0.44959991676062344,0.6008756431162356
1761469075598563300,5.982563232421875,0.29481296741366386,0.32122195865064856,0.5239414565175772
1761469075608546300,5.99254638671875,0.45237201182246206,0.2125321590900421,0.4380547326564789
1761469075618529300,6.002529296875,0.6037164195001125,0.07472177124619483,0.4052963723927736
1761469075628512300,6.01251220703125,0.6540303101986646,-0.10120850389450788,0.32180852636694907
1761469075638495500,6.02249560546875,0.7065349889397621,-0.3289499225541949,0.22255670949816703
1761469075648478200,6.032478271484375,0.7249591189026832,-0.5632990689158439,0.10885258890688419
1761469075658461400,6.04246142578125,0.6204641406834125,-0.8900728164747357,0.006709726771712303
1761469075668444400,6.0524443359375,0.5453197601109743,-1.1054556888207792,-0.14973112726211546
1761469075678426400,6.06242626953125,0.5151981780916453,-1.2870283537626266,-0.2608119136124849
1761469075688409300,6.072409423828125,0.5883458318889141,-1.4045909033477306,-0.38788054268956185
1761469075698392300,6.082392333984375,0.6445376747101544,-1.468298528626561,-0.5027975462019443
1761469075708375600,6.09237548828125,0.5982657528787851,-1.5043004008561371,-0.5060691152185202
1761469075718358300,6.102358154296875,0.5512538263350725,-1.4619196412444113,-0.3970575363576412
1761469075728341200,6.11234130859375,0.4707862049132585,-1.4180249699383973,-0.22792320496737956
1761469075738324500,6.122324462890625,0.33358079722523687,-1.3407529296874998,-0.01817979981303215
1761469075748307500,6.132307373046875,0.09505758004933595,-1.184157761874795,0.2503296825647354
1761469075758290200,6.142290283203125,-0.08192629579752683,-1.0176663462087512,0.45852819636464115
1761469075768272400,6.1522724609375,-0.17454320469647644,-0.8745961381405591,0.577359158450365
1761469075778255400,6.16225537109375,-0.23789397936165332,-0.7675538135260344,0.5097358210325241
1761469075788238300,6.17223828125,-0.31319968797564507,-0.7521893633946776,0.29420214203894135
1761469075798221300,6.18222119140625,-0.4196420008704066,-0.7561985990360379,0.07634966470897198
1761469075808204300,6.192204345703125,-0.4905938981890678,-0.7534110141441226,-0.04733282906115055
1761469075818187500,6.2021875,-0.5226151763498783,-0.7701163574904203,-0.2213198611795902
1761469075828170200,6.212170166015625,-0.5860851934805512,-0.8268576508879661,-0.3559966271728277
1761469075838153500,6.222153564453125,-0.6837637696832418,-0.8692766966834664,-0.4410767108261585
1761469075848136400,6.232136474609375,-0.7273311087310314,-0.8919538079157471,-0.5134627326011657
1761469075858118400,6.242118408203125,-0.7775181581795215,-0.8989353373661637,-0.6123918933868407
1761469075868101400,6.252101318359375,-0.6797030961155891,-0.9928981079161167,-0.5046294378042221
1761469075878084400,6.26208447265625,-0.5329068532615899,-0.960211351583898,-0.535325604841113
1761469075888067600,6.272067626953125,-0.4399199420064687,-1.1027832547411323,-0.5908545998394489
1761469075898050300,6.28205029296875,-0.32314649697244163,-1.1940212765023113,-0.4992652804225683
1761469075908033300,6.292033203125,-0.23182138144969938,-1.1963552724078297,-0.41447044345140455
1761469075918016500,6.3020166015625,-0.20164719246029852,-1.1424179305151105,-0.3012760259479284
1761469075927999200,6.311999267578125,-0.287298646260798,-1.0515914121642709,-0.1786614536702633
1761469075937982200,6.321982177734375,-0.34274113201946016,-0.9712024089366197,-0.02948328411579132
1761469075947964400,6.33196435546875,-0.3868360020726919,-0.9471355969116091,0.1770569410830736
1761469075957947400,6.341947509765625,-0.5575120099470019,-0.7807862200647592,0.24079554602205752
1761469075967930400,6.351930419921875,-0.5837158340007066,-0.6392796080514789,0.3010743658959865
1761469075977913300,6.361913330078125,-0.4729235092028975,-0.5581333567157387,0.40135961746573445
1761469075987896300,6.371896240234375,-0.3634773383170366,-0.5089943550154566,0.45303369060158727
1761469075997879300,6.38187939453125,-0.2548819390416145,-0.4655146942511201,0.5455377867758274
1761469076007862300,6.3918623046875,-0.33950258848965165,-0.4292418961256742,0.5512812988638878
1761469076017845500,6.401845458984375,-0.5491857878893613,-0.4159297023490071,0.5228378791898489
1761469076027828500,6.411828369140625,-0.6770031895071268,-0.2187424119070172,0.6103963356554508
1761469076037811200,6.421811279296875,-0.6292576879918574,0.20367402211278676,0.8875883061826229
1761469076047793400,6.43179345703125,-0.6163403387516737,0.633771950545907,1.1555477534621954
1761469076057776400,6.4417763671875,-0.8109703459262847,0.8427136839285493,1.347778298279643
1761469076067759400,6.45175927734375,-0.9691963298112154,0.9207830120369791,1.4757932682961226
1761469076077742300,6.461742431640625,-0.6640396630376577,0.6825403653681278,1.871294807383418
1761469076087725300,6.471725341796875,-0.11279635809659957,0.6363616747781634,2.249139109227061
1761469076097708500,6.48170849609375,0.41104456065595146,0.6033470016658306,2.2742419863015413
1761469076107691300,6.491691162109375,0.7826134354919194,0.5416311347261071,2.0144640919119117
1761469076117674200,6.50167431640625,1.0547732570707797,0.47421705614477394,1.5862404329180717
1761469076127656400,6.511656494140625,1.3675573499828577,0.29896687222272156,0.9423077383637428
1761469076137639200,6.52163916015625,1.8274258550405502,0.21997078465819359,0.3341021907508373
1761469076147622400,6.531622314453125,2.190706794002652,0.24906565397828817,-0.07747019317150115
1761469076157605400,6.54160546875,2.172537515583634,0.4565364380255341,-0.464470445895195
1761469076167588400,6.55158837890625,1.839683279067278,0.589189004714787,-0.9002829525828361
1761469076177571300,6.5615712890625,1.5260510448932647,0.7910112614810466,-1.2149661571145056
1761469076187554300,6.57155419921875,1.170004148837924,1.1580375244513152,-1.3111854744195937
1761469076197537500,6.58153759765625,0.7177116319924592,1.5394745900899172,-1.216584113705158
1761469076207520500,6.5915205078125,0.2674918297678232,1.8072478671476244,-0.9911468803346156
1761469076217502500,6.60150244140625,-0.11195698466300964,1.928013304427266,-0.5203939931690693
1761469076227485400,6.6114853515625,-0.39145781665444374,1.924878221271932,-0.02444645899236202
1761469076237468400,6.621468505859375,-0.6179752464771271,1.6779782208949325,0.3475964630961418
1761469076247451400,6.631451416015625,-0.6552490383386611,1.4011141671478748,0.6475023697346448
1761469076257434400,6.641434326171875,-0.5832756890177726,1.1119868441551923,0.8886573967188596
1761469076267417300,6.651417236328125,-0.4827484453856945,0.8337877424120903,0.9319237069934606
1761469076277400300,6.661400390625,-0.28815935474336146,0.5490016634941101,0.8054191415399312
1761469076287383300,6.67138330078125,-0.04325695792436599,0.32327947570234533,0.6372364117860794
1761469076297366300,6.6813662109375,0.192006088411808,0.13414046715945005,0.35029987683594227
1761469076307348500,6.691348388671875,0.4618284069538116,0.05437485652714968,0.008352817803621291
1761469076317331200,6.701331298828125,0.7223007133483886,0.03823065419495106,-0.26052374432086944
1761469076327314400,6.711314453125,0.9200082282721995,0.003543663956224918,-0.4693254847109318
1761469076337297400,6.72129736328125,1.02946462829113,-0.06636427726745606,-0.6488695664346218
1761469076347280400,6.7312802734375,0.9939654448866844,-0.15143500857055187,-0.7715460980325937
1761469076357263400,6.741263427734375,0.9366010511547327,-0.16654460715800523,-0.8561392749518155
1761469076367246300,6.751246337890625,0.8114829716235399,-0.14310089546740054,-0.942822117626667
1761469076377229600,6.7612294921875,0.49786008979976176,-0.17739011856019496,-1.0349684864044189
1761469076387212300,6.77121240234375,0.17635726838111876,-0.1984741153821349,-1.102764842301607
1761469076397194500,6.781194580078125,-0.05359715015292167,-0.19509704016447066,-1.1391174276649951
1761469076407177500,6.791177490234375,-0.06287818871736527,-0.19017828846275805,-1.1791606842398643
1761469076417160200,6.80116015625,0.07586801867187022,-0.1140542492032051,-1.2353922745496033
1761469076427143400,6.811143310546875,0.26756372596025463,-0.020393091948330402,-1.26943482940495
1761469076437126400,6.82112646484375,0.2437941433161497,0.045557928343117234,-1.2685095312535761
1761469076447109400,6.831109375,0.030333178943395614,0.08868249205946922,-1.2180769826114177
1761469076457092400,6.84109228515625,-0.30827976723015305,0.08316665124744177,-1.1278384932816028
1761469076467075300,6.851075439453125,-0.6421586706191301,0.05766454572230577,-0.9745891287654638
1761469076477058300,6.861058349609375,-0.8831798420906066,0.03131342215240002,-0.8199000868350267
1761469076487040300,6.871040283203125,-1.1038526375383138,-0.08847557131052017,-0.7506260596007108
1761469076497023200,6.881023193359375,-1.2720903123497962,-0.23893384380340574,-0.7102268291950226
1761469076507006500,6.89100634765625,-1.1513362732470034,-0.42556262309104204,-0.7319704589694738
1761469076516989400,6.900989501953125,-0.9289917451947927,-0.586494066542387,-0.8424041795879602
1761469076526972400,6.910972412109375,-0.8297790912926196,-0.7031015073597431,-0.950904886317253
1761469076536955400,6.920955322265625,-0.7480518251985311,-0.7509124753266573,-1.050623151654005
1761469076546938400,6.9309384765625,-0.7507622532010078,-0.8454606445491314,-1.1100304493904114
1761469076556921600,6.940921630859375,-0.7955266930788755,-0.9120254128247499,-1.1623352216452358
1761469076566904300,6.950904296875,-0.796101862618327,-0.9699477327004075,-1.2599480391353368
1761469076576889600,6.9608896484375,-0.7531471025109291,-1.0037678769767284,-1.3377905727505683
1761469076586872600,6.97087255859375,-0.5831091002792119,-0.9203332224428653,-1.3918565094590187
1761469076596855600,6.98085546875,-0.3338905938267708,-0.7859221216484904,-1.3646703963696956
1761469076606838800,6.9908388671875,-0.15467735149264333,-0.5405249270498752,-1.2333090385347605
1761469076616821500,7.000821533203125,-0.16792378655672072,-0.2673793093040585,-1.1231816073864698
1761469076626804500,7.010804443359375,-0.3186193749368191,0.020630700096487996,-0.9873545023143291
1761469076636787700,7.02078759765625,-0.4017103305995464,0.05886690724939107,-0.834064221265912
1761469076646770700,7.030770751953125,-0.5866290910989046,0.08555150055736303,-0.6541185730040073
1761469076656753700,7.040753662109375,-0.7908622083991765,-0.030962124496698377,-0.39230595791637896
1761469076666735600,7.050735595703125,-0.9243418735623359,-0.18508973315209148,-0.16717267592847346
1761469076676718600,7.060718505859375,-0.9991314493477343,-0.29899376022964713,-0.0014613047242164612
1761469076686701600,7.07070166015625,-1.0323866532176733,-0.33087621444165705,0.1796194850474596
1761469076696684500,7.0806845703125,-1.1494810007691383,-0.34984394976198674,0.29454993256330486
1761469076706667800,7.090667724609375,-1.4280775773972272,-0.2923985997483134,0.31969606425762176
1761469076716650800,7.100650634765625,-1.6931144152283668,-0.16982231365442274,0.37808454034030436
1761469076726633500,7.110633544921875,-1.7474568307906388,-0.12671937724798918,0.6270201381981373
1761469076736616700,7.12061669921875,-1.7852759815752506,-0.1493815831720829,0.9617805005967617
1761469076746599700,7.130599609375,-1.7346797668039797,-0.07438245628923178,1.3315204064399002
1761469076756581600,7.14058154296875,-1.2973358127653598,0.1729030362740159,1.5115075557559727
1761469076766564600,7.150564697265625,-0.7708744823813438,0.5420294863939285,1.4437164605557917
1761469076776547600,7.160547607421875,-0.48226153865158555,0.7953641959935426,1.3936018918216229
1761469076786530800,7.17053076171875,-0.4162783696562051,1.1219450513288378,1.3941530959635973
1761469076796513500,7.180513427734375,-0.31608781063258645,1.4935612724378704,1.4157733916193247
1761469076806496500,7.19049658203125,-0.09046353025734424,1.8773218125879763,1.37892922334671
1761469076816479700,7.200479736328125,0.07121697799563408,2.1455480941101905,1.1379103899627923
1761469076826462500,7.21046240234375,0.3380687562942505,2.046711287783086,0.4937053082078695
1761469076836445700,7.22044580078125,0.6764169140517712,1.8672192285075782,-0.1806213555663824
1761469076846427600,7.230427734375,1.016822004339099,1.684428419947624,-0.7572188819944858
1761469076856410600,7.24041064453125,1.4215268405795096,1.509405322779715,-1.2102028882354496
1761469076866393600,7.2503935546875,1.8264578867912291,1.3191148061141371,-1.6436527574449777
1761469076876376600,7.26037646484375,2.1156582750201225,0.952286988325417,-1.9201567457079887
1761469076886359800,7.27035986328125,2.2370342454135415,0.7209285482123494,-2.1209318315088748
1761469076896342500,7.280342529296875,2.2826135088056323,0.45570086398422716,-2.1838000833541154
1761469076906325500,7.290325439453125,2.2805133216559885,0.315521701182425,-2.0053262612104414
1761469076916308700,7.300308837890625,2.274684469372034,0.23358576077371834,-1.6545488299906252
1761469076926291700,7.310291748046875,2.276773550605774,0.2528229606851935,-1.195799099829793
1761469076936273700,7.320273681640625,2.0171072998970745,0.3994114060074091,-0.7431798352479935
1761469076946256600,7.330256591796875,1.5794962193548678,0.5331836243763566,-0.1997960116356611
1761469076956239600,7.340239501953125,1.148179855042696,0.741218764308095,0.36820845849215983
1761469076966222600,7.35022265625,0.733807026746869,0.864305338011682,0.8706003465026616
1761469076976205600,7.36020556640625,0.28686522327959535,0.9565431844651698,1.2485866871654987
1761469076986188500,7.3701884765625,-0.10215630613863468,1.108212586313486,1.4897095654457806
1761469076996171800,7.380171875,-0.2568564539849758,1.1528361564159393,1.7143693847030401
1761469077006154500,7.390154541015625,-0.2532791800200939,1.211983341911435,1.8734546157658098
1761469077016137500,7.400137451171875,-0.18316402578651905,1.2586299422740936,1.9411311446756123
1761469077026119700,7.41011962890625,-0.07428864052593707,1.1062211202353238,1.848922232055664
1761469077036102700,7.4201025390625,0.16936404849290848,0.9115113258227705,1.640977985277772
1761469077046085600,7.430085693359375,0.5119686946511268,0.7382298116251825,1.418202664592862
1761469077056068600,7.440068603515625,0.7802507980138063,0.5380258037105202,1.1687684695631264
1761469077066051800,7.4500517578125,0.9690788409113883,0.3113251262754202,0.9185171129316091
1761469077076034600,7.46003466796875,1.0887690501749514,0.04138531883358955,0.6095955406665802
1761469077086017500,7.470017578125,1.147424068239331,-0.2355228663161397,0.25711189005076884
1761469077096000800,7.480000732421875,1.206093699350953,-0.4302428898617625,-0.04113748155236244
1761469077105983700,7.489983642578125,1.229296295762062,-0.5764291841238737,-0.31029870583713054
1761469077115965700,7.499965576171875,1.2465958056092261,-0.7415203776031732,-0.6334206528902053
1761469077125948700,7.50994873046875,1.2410036846905945,-0.8439011401474475,-0.9202356072872877
1761469077135931600,7.519931640625,1.2718366298496722,-0.870375890097022,-1.1002964063614606
1761469077145914600,7.52991455078125,1.273435297217965,-0.8684916837856173,-1.1299234828621147
1761469077155897600,7.539897705078125,1.1677952406167984,-0.7501765622675418,-1.0952011290490626
1761469077165880600,7.549880615234375,0.9705050743222237,-0.6171750360101461,-0.964070072838664
1761469077175863800,7.55986376953125,0.7373661805331707,-0.478219277523458,-0.7053624380290507
1761469077185846500,7.569846435546875,0.4675304179877042,-0.35316432635635137,-0.4067284510225057
1761469077195829500,7.57982958984375,0.24865444282889365,-0.2143278103351593,-0.1634317358344793
1761469077205812700,7.589812744140625,0.02297521739602089,-0.11047142228037118,-0.012983400213718414
1761469077215794700,7.599794677734375,-0.21007716715335845,-0.08872925381064414,0.11429916387498378
1761469077225777700,7.609777587890625,-0.3599526713222265,-0.1623454019024968,0.27668226743936536
1761469077235760600,7.6197607421875,-0.3922083427608013,-0.24449118566960096,0.4573158979654312
1761469077245743600,7.62974365234375,-0.34372517462074753,-0.30084172618389127,0.5916933887511492
1761469077255726600,7.6397265625,-0.32092648283541203,-0.35322073271870613,0.6408680462867021
1761469077265709600,7.64970947265625,-0.4122545209676027,-0.36083588389754295,0.6258095933645963
1761469077275692800,7.65969287109375,-0.4830436289399862,-0.31006781969070435,0.5628051479190588
1761469077285675500,7.669675537109375,-0.4702344162493944,-0.2819312740087509,0.46247956433892246
1761469077295658500,7.679658447265625,-0.3952373351931572,-0.2603022105246782,0.3025567134082317
1761469077305640700,7.689640625,-0.30884792250692844,-0.28545769456923004,0.17714111223518847
1761469077315623400,7.69962353515625,-0.23142156847715376,-0.3304997823446989,0.09942132821679114
1761469077325606700,7.709606689453125,-0.23329613017737863,-0.433304323258996,0.03977028485238552
1761469077335589600,7.719589599609375,-0.22343641494214533,-0.519931928615272,-0.015478724160790443
1761469077345572600,7.729572509765625,-0.18240882350504398,-0.6004083178654313,-0.013225976797938346
1761469077355555600,7.7395556640625,-0.12744213856458664,-0.657748453938961,0.0141167881578207
1761469077365538600,7.74953857421875,0.06479483599364758,-0.7562497447013855,0.018823942935466766
1761469077375521500,7.759521484375,0.33995617747604845,-0.862550311037898,0.07280746205747127
1761469077385504800,7.7695048828125,0.4839022915959358,-0.9614707039952277,0.12617840223908425
1761469077395486700,7.77948681640625,0.5464128160446882,-1.0867185473859309,0.14321253914833068
1761469077405469700,7.7894697265625,0.5066881238996982,-1.201358487522602,0.21519290273189542
1761469077415452700,7.79945263671875,0.4156535157561302,-1.2276444369018078,0.3504962761908769
1761469077425435600,7.809435546875,0.24181202958822248,-1.1467182580575346,0.504627684238553
1761469077435418600,7.819418701171875,0.21565350598096847,-1.026063003154099,0.6265396612048149
1761469077445401600,7.829401611328125,0.3137655051648617,-0.6715311878368259,0.777121852338314
1761469077455384800,7.839384765625,0.34136779783964155,-0.1360769881799817,0.9562672901332377
1761469077465367600,7.849367431640625,0.43320553905963893,0.29764029979407786,1.0145973140269517
1761469077475350500,7.8593505859375,0.511436779731512,0.5378226823538541,0.949701940268278
1761469077485333800,7.869333740234375,0.6327268254071474,0.6095730365738272,0.7922095313549041
1761469077495315500,7.8793154296875,0.8655658594667911,0.58076282941401,0.6213111129015684
1761469077505298700,7.889298583984375,0.9559639232724905,0.5310612253949046,0.5543745887041092
1761469077515281700,7.89928173828125,0.8165952000707387,0.4966644502744078,0.49875323924720283
1761469077525264600,7.9092646484375,0.5577209765225648,0.4732879586011171,0.28068390429615975
1761469077535247600,7.91924755859375,0.22178981677889822,0.5069593420565128,0.03941957171857357
1761469077545230600,7.929230712890625,0.12520692685842513,0.6728393478259443,-0.08601473415493964
1761469077555213600,7.939213623046875,0.29325813918709753,0.8773439755439758,-0.18541677314937113
1761469077565196500,7.949196533203125,0.4242810588479042,0.9575000467985868,-0.22125673281550406
1761469077575175200,7.959175048828125,0.5318588055133819,1.0618600004613399,-0.11063070449531077
1761469077585158100,7.969158203125,0.5237444726407527,1.1419783700540662,0.0360632470279932
1761469077595140900,7.979140869140625,0.5808125137746334,1.222580431510508,0.1142588318645954
1761469077605124000,7.9891240234375,0.7604179702967405,1.3742775981485842,0.17149989147782324
1761469077615106000,7.99910595703125,0.9490461067080497,1.4644851078182457,0.2234066043257713
1761469077625089000,8.009089111328125,1.137525190037489,1.5098197487995029,0.26560440858602524
1761469077635072000,8.019072021484375,1.2828893542617559,1.4624553555563091,0.27392916933894157
1761469077645055000,8.029054931640625,1.3439876738250254,1.2675292880445719,0.17271511248648166
1761469077655038000,8.039037841796874,1.2764689658254385,1.0031693265616892,-0.04036649717986583
1761469077665021000,8.04902099609375,1.1112550227493048,0.7894009036749601,-0.24163199684619902
1761469077675004000,8.05900390625,0.8501286363601684,0.6696180476918816,-0.46085868513882156
1761469077684986000,8.068986083984376,0.6265156958073377,0.5750406523749232,-0.676482380503416
1761469077694968800,8.07896875,0.37756548490226266,0.5170277316063642,-0.8422598026812076
1761469077704952000,8.0889521484375,0.1518997034728527,0.5260539186269044,-0.7808581162571907
1761469077714935000,8.09893505859375,-0.09323708662390709,0.544798074324429,-0.6095014326423406
1761469077724918000,8.10891796875,-0.295316240760684,0.5862199257761239,-0.36600773357748984
1761469077734901000,8.11890087890625,-0.4094190052807331,0.6758104725912213,-0.16407120278179643
1761469077744884000,8.128884033203125,-0.47112990378439423,0.7864116587311029,0.008403086686134337
1761469077754867200,8.1388671875,-0.3642436465144157,0.8384738544017076,0.025676293048262595
1761469077764850000,8.148849853515625,-0.2376981645286083,0.7232993689969182,-0.06659224080443382
1761469077774832000,8.15883203125,-0.12389175260663032,0.4752753330260515,-0.283831554672122
1761469077784815000,8.168815185546874,-0.01993862617909908,0.44302813715487716,-0.3924982656180858
1761469077794797800,8.1787978515625,-0.1785474719017744,0.30485417669564485,0.08255202648043632
1761469077804781000,8.188781005859376,-0.563643936830759,0.04236176265031099,-0.11437865885198116
1761469077814764000,8.198763916015626,-0.6480968284964561,-0.07351648710966109,-0.5213748208999633
1761469077824747000,8.2087470703125,-0.31319618084430695,-0.32627953430116174,-0.6853367180883884
1761469077834730000,8.21872998046875,-0.11001228033602237,-0.4512473917067051,-0.7952244952619075
1761469077844713000,8.228712890625,-0.20032149681448935,-0.48077100783288473,-0.960903133240342
1761469077854696000,8.238696044921875,-0.4539268400490284,-0.4121481379836798,-1.0509469767808914
1761469077864679200,8.24867919921875,-0.638270431008935,-0.24294863240271805,-1.0310177029520273
1761469077874660900,8.258660888671875,-0.6416998209357261,-0.008584580732882022,-0.899294526067376
1761469077884644000,8.26864404296875,-0.5861071130514145,0.1886865886002779,-0.8059533945471048
1761469077894627000,8.278626953125,-0.5151964245259761,0.26175883907377717,-0.7551905910372734
1761469077904609800,8.28860986328125,-0.4761071076750755,0.2774795552968979,-0.7017062536090612
1761469077914593000,8.298593017578124,-0.5080009600639342,0.18946400271356104,-0.7051660386741161
1761469077924576000,8.308575927734376,-0.48654199244976043,0.030585692399740218,-0.8030693635433912
1761469077934559200,8.318559326171876,-0.36360534861087795,-0.16079349628537892,-1.0560919384539127
1761469077944542000,8.3285419921875,-0.33988661937117576,-0.2100114084407687,-1.510807883054018
1761469077954525000,8.33852490234375,-0.42140754923820495,-0.054279871720075604,-1.5711457396388053
1761469077964507100,8.348507080078125,-0.26617840908169743,-0.1154354744285345,-1.5154799665182828
1761469077974489900,8.35848974609375,-0.24041560679376123,-0.045566696171462535,-1.2192092015117406
1761469077984473000,8.36847314453125,-0.4194166676819324,0.03277706496417522,-0.9485919331997632
1761469077994456000,8.3784560546875,-0.07058335626721382,-0.03382949662655592,-1.0111971501946448
1761469078004439000,8.38843896484375,0.30311668537855146,-0.09138064510226249,-1.1267010136842728
1761469078014422000,8.398422119140625,0.03823474584817886,-0.00020107553005218505,-1.1720599123239517
1761469078024405000,8.408405029296874,-0.30277298650741574,0.1060962759360671,-1.204984276804328
1761469078034388000,8.418387939453124,-0.3491740876764059,0.17853987311720848,-1.3220178340792654
1761469078044371000,8.428370849609376,-0.28728549451828,0.14554624279290437,-1.3647919769227503
1761469078054353000,8.438352783203126,-0.2448229018419981,0.3340507528245449,-1.2592565497398376
1761469078064336100,8.448336181640625,-0.28015491198599335,0.493890893907845,-1.2283978856176136
1761469078074318800,8.45831884765625,-0.4843710781514644,0.6276566825360059,-1.182950724172592
1761469078084301800,8.4683017578125,-0.6276303790509701,0.7508747736647725,-1.0816647711277008
1761469078094285000,8.47828515625,-0.6746978351742029,0.8259057569906115,-0.8476648765951394
1761469078104268000,8.48826806640625,-0.7818652474731207,0.8424778293460607,-0.5223386974960565
1761469078114251000,8.4982509765625,-0.855994898045063,0.8625079332008957,-0.03539806111752987
1761469078124234000,8.50823388671875,-0.6931354091405868,0.8370026128053665,0.5303314498156309
1761469078134217000,8.518217041015625,-0.5336240616202355,0.6252198107779026,0.9223609288781881
1761469078144200200,8.5282001953125,-0.46561786236464975,0.35908290275037286,1.1070809519350528
1761469078154182000,8.538181884765624,-0.5190121834218502,0.006798866359889507,1.2085954530388117
1761469078164165000,8.5481650390625,-0.5669359641134739,-0.28644582882374525,1.2570341975152493
1761469078174148000,8.558148193359376,-0.37807109633684155,-0.5540551474913954,1.0656219833433627
1761469078184130800,8.568130859375,-0.253047709351778,-0.8447884443759918,0.6003723697692156
1761469078194114000,8.578114013671875,-0.21516250759363173,-1.1011354875341057,0.060532502374053
1761469078204098000,8.58809814453125,-0.19113222818672657,-1.250870706449449,-0.3958130892544985
1761469078214081000,8.5980810546875,-0.2828589102476835,-1.3357847858861087,-0.7510171047449111
1761469078224064000,8.60806396484375,-0.4221101445496082,-1.3387091489002108,-1.0182833090633154
1761469078234046000,8.6180458984375,-0.5640893425107002,-1.270220134563744,-1.2427993359357117
1761469078244029000,8.62802880859375,-0.8042389918446541,-1.1293117807045578,-1.3709779720813036
1761469078254012200,8.63801220703125,-0.9454635720461606,-0.860026930040121,-1.2521750670462846
1761469078263995000,8.647994873046875,-0.8299281443744897,-0.5543076609477401,-0.9696341367065906
1761469078273978000,8.65797802734375,-0.633546325096488,-0.23212328700572252,-0.8350625846534967
1761469078283961000,8.667961181640624,-0.5357324320763349,0.18060148182213306,-0.807614605757594
1761469078293943800,8.67794384765625,-0.478743301397562,0.5872723574385047,-0.7225286768853664
1761469078303927000,8.687927001953126,-0.32946868573129173,0.9636182374179363,-0.6144207688659429
1761469078313910000,8.697909912109376,-0.1474953310340643,1.265861647093296,-0.45588849551081656
1761469078323892200,8.707892333984375,0.05294716181159019,1.5322528221428393,-0.3077975366711616
1761469078333875000,8.717875,0.25120178922414776,1.6768503859087824,-0.16710428686738013
1761469078343858000,8.72785791015625,0.46790158938765525,1.7050523980423806,-0.01756663635075092
1761469078353841200,8.737841064453125,0.6988596320062875,1.6511796458184718,0.19308570034205913
1761469078363823900,8.747823974609375,1.0253133538305759,1.4458084643989801,0.32587972132861615
1761469078373806800,8.757806884765625,1.2418880663096905,1.1113073374584317,0.36420389902591704
1761469078383790000,8.7677900390625,1.390235045737028,0.7471896554112434,0.3597656243175268
1761469078393773000,8.77777294921875,1.4675889190524816,0.2591422268345952,0.30954116546809674
1761469078403755800,8.787755859375,1.4593383925795553,-0.17443974432200193,0.3055260846078396
1761469078413738000,8.797738037109376,1.4851935493260622,-0.6081503102943301,0.3302174582719803
1761469078423721000,8.807720947265626,1.4002631032764912,-0.8958136982142925,0.37771570702791213
1761469078433704000,8.817703857421876,1.1789777288883925,-1.087923247000575,0.5058551802068948
1761469078443687000,8.82768701171875,0.9332762906461953,-1.109118887503445,0.6400163978934288
1761469078453670100,8.837670166015625,0.7920072867810726,-0.8294049972832203,0.8704694135993719
1761469078463653000,8.847653076171875,0.6959896295279264,-0.49727089173495764,0.9837579391270875
1761469078473635800,8.8576357421875,0.6221563315540551,-0.22118220627456903,0.882582460719347
1761469078483619000,8.867619140625,0.559319059368968,0.05547755707204342,0.7331143683075905
1761469078493602000,8.87760205078125,0.41027474532723424,0.28345541483610864,0.6088724870890379
1761469078503585000,8.8875849609375,0.2564467041403055,0.4184332096025348,0.5065870016127825
1761469078513567000,8.89756689453125,0.15426409451663492,0.429044619987905,0.43433951152563094
1761469078523550000,8.907550048828124,0.1529056656450033,0.4020861781746149,0.34168928487896916
1761469078533533200,8.917533203125,0.17382628859877586,0.405429935644567,0.23947277298569677
1761469078543516000,8.927515869140626,0.3129056734651327,0.3577937397226691,0.27806407718658444
1761469078553499000,8.937498779296876,0.45879766095578667,0.1997095023959875,0.4059229798585176
1761469078563482000,8.947482177734376,0.6773673466444015,-0.02182575509995222,0.47928982936441894
1761469078573465000,8.957465087890625,0.8772387616038322,-0.28428718948513265,0.4997317288905382
1761469078583451400,8.967451416015624,0.8918845420718192,-0.4999333889424801,0.5328799652546644
1761469078593434600,8.9774345703125,0.8370236555933952,-0.6776265821024775,0.5132692558556795
1761469078603416300,8.987416259765626,0.8180348774850368,-0.7921095781117677,0.37866380153298373
1761469078613399600,8.997399658203125,0.7729378446519375,-0.7996446497917175,0.2099965031325817
1761469078623382500,9.007382568359375,0.6249152748733758,-0.7491527721777558,0.13945464791953563
1761469078633365500,9.017365478515625,0.4203180004358291,-0.6860264539182186,0.08007949888706206
1761469078643348500,9.027348388671875,0.1836065088570118,-0.6433838284999132,-0.0057423430442810055
1761469078653331500,9.03733154296875,0.00858078134059906,-0.5944827272087335,-0.03047404871881008
1761469078663314700,9.047314697265625,-0.10724573823213576,-0.5212935723572969,0.009362287107110023
1761469078673297700,9.057297607421875,-0.18126842129826545,-0.46168139969855543,0.010194646278023719
1761469078683280400,9.0672802734375,-0.22116087122559547,-0.39275633203238247,-0.028917466926574705
1761469078693262600,9.0772626953125,-0.3113987760335207,-0.3060229282140732,-0.08396832301914692
1761469078703245600,9.08724560546875,-0.4413251326292753,-0.19858780488967895,-0.10788345161378383
1761469078713228500,9.097228515625,-0.33451486320495605,-0.2758566302701831,-0.14219430201649666
1761469078723211500,9.10721142578125,-0.3085784579157829,-0.319977219286561,-0.06943652431964874
1761469078733194500,9.117194580078126,-0.3643050213128328,-0.41289749504625795,0.06747311529219151
1761469078743177700,9.127177734375,-0.39215339770317076,-0.5495633890300989,0.24577158086895942
1761469078753160400,9.137160400390625,-0.24139468095898628,-0.5913827153667808,0.30813948197662827
1761469078763143400,9.147143310546875,0.0012029460489749908,-0.6205307761788368,0.14097966552972793
1761469078773126700,9.157126708984375,0.011762918508052824,-0.6205459737479686,-0.1073661497414112
1761469078783108400,9.1671083984375,-0.15531331130862236,-0.5403168372571469,-0.19666940404772756
1761469078793091600,9.177091552734375,-0.4101069875448942,-0.4581757296651601,-0.2218091060012579
1761469078803074600,9.187074462890624,-0.5817091703534126,-0.4907099257841706,-0.28319325676858426
1761469078813057500,9.1970576171875,-0.5833282959878444,-0.5703484029054642,-0.43168052144944663
1761469078823040500,9.20704052734375,-0.7358569450139999,-0.6484864123359322,-0.5019973357349634
1761469078833023500,9.2170234375,-0.7684206594884395,-0.7151610707268119,-0.5495815092086792
1761469078843006700,9.2270068359375,-0.6708446668773889,-0.7597013464599848,-0.6424976933151483
1761469078852989400,9.236989501953126,-0.5856728132873773,-0.7761115062519908,-0.6848918969303369
1761469078862972400,9.246972412109375,-0.5928840598404407,-0.7685650363951921,-0.5840267996460199
1761469078872955600,9.25695556640625,-0.6056073478132487,-0.7926549370348454,-0.441267849484086
1761469078882937300,9.266937255859375,-0.6945546282887458,-0.855073399285972,-0.3668085285663604
1761469078892920600,9.276920654296875,-0.8318582356542349,-0.8601526022464037,-0.27550504035353657
1761469078902903600,9.286903564453125,-0.7881202162146568,-0.8339148759230971,-0.1953483845770359
1761469078912886500,9.296886474609375,-0.7623340330511331,-0.7737719573885202,-0.14950257920324803
1761469078922869500,9.306869384765625,-0.7553776380419731,-0.6867281724467873,-0.19526070629358291
1761469078932852500,9.3168525390625,-0.8203630281716585,-0.6211024385869502,-0.3417565048962831
1761469078942835500,9.32683544921875,-0.8727554787099361,-0.6100169809490442,-0.3987999961107969
1761469078952818700,9.336818603515624,-0.8510732237339019,-0.5848845855191349,-0.3964215765416622
1761469078962801400,9.346801513671876,-0.7527987274646759,-0.6161340025246143,-0.4105068005174398
1761469078972783600,9.35678369140625,-0.6029536184340715,-0.6522790826171636,-0.3853986627459526
1761469078982766600,9.3667666015625,-0.4420627992540598,-0.7467924727872014,-0.4372644590616226
1761469078992749600,9.37674951171875,-0.3660217621028423,-0.7662076596140861,-0.44175417169630526
1761469079002732500,9.386732666015625,-0.24584756871461866,-0.7661836942166089,-0.5645417624533177
1761469079012715500,9.396715576171875,-0.5189706823676824,-0.7429431038826704,-0.5982224982589482
1761469079022698800,9.40669873046875,-1.0120224951028822,-0.6089931908592582,-0.6304863530039787
1761469079032681500,9.416681396484375,-1.0394915167868137,-0.41983021691888567,-0.49826633251309393
1761469079042664400,9.42666455078125,-0.8432797933787107,-0.2341296583920717,0.045154315978288645
1761469079052647700,9.436647705078125,-0.7170809328734874,0.27462124325633047,0.5645476076722145
1761469079062629400,9.44662939453125,-0.5971574993759393,0.9890995924159884,0.7949018391788005
