time,seconds_elapsed,z,y,x
1761469239025528300,0.1125283203125,1.7222580921262503,-0.5238219217911362,0.1257777124837041
1761469239035511300,0.12251123046875,1.9860843851238488,-0.2130309754576534,-0.7395277424812317
1761469239045494300,0.132494384765625,2.011509333759546,0.21783647604323922,-1.0599904071971773
1761469239055477500,0.1424775390625,1.9067758706092834,0.5961170504122972,-0.9948734996423124
1761469239065461500,0.15246142578125,1.3919763364464044,0.7962779498375951,-0.25108546936810017
1761469239075444200,0.1624443359375,0.10737316400408745,0.5334283929176629,0.6584937193483114
1761469239085427200,0.17242724609375,-0.9751555304765701,0.5337645660694689,0.5077241889491677
1761469239095410400,0.182410400390625,-2.392942015483975,0.3237259773608297,0.0757280256792903
1761469239105394400,0.19239453125,-3.444377652564645,-0.08671842544488609,0.054205052918195724
1761469239115377200,0.202377197265625,-2.6129075394451617,-0.4864523414049297,0.15271861864030362
1761469239125360000,0.212360107421875,-1.2636340341717005,-0.24239633228220045,0.3831611129522323
1761469239135343400,0.22234326171875,-0.7590262236773967,0.1860039253875613,0.7472510302096604
1761469239145327400,0.232327392578125,-0.37215047411620616,0.2821900710754096,0.848691297033429
1761469239155310300,0.242310302734375,0.0015787936240434645,0.3418419912226498,0.5609335088282823
1761469239165293300,0.252293212890625,0.31913901489675045,0.4048347462303936,0.1779939296722412
1761469239175276300,0.2622763671875,0.5299146857082844,0.2713034970104694,-0.07389876442551613
1761469239185260300,0.27226025390625,0.5632581523835659,0.008107318609952925,0.0554389786273241
1761469239195243300,0.2822431640625,0.7310515905588865,0.04400353850796818,0.5733347252398729
1761469239205226500,0.2922265625,1.4399322658419609,-0.3205520965650677,0.5733183586269617
1761469239215209200,0.302209228515625,2.2930723589777946,-0.5247501425519585,0.06744038206636906
1761469239225193200,0.312193115234375,3.4452596960961817,-0.7601056894771754,-0.5748334393650293
1761469239235176400,0.322176513671875,3.3148084388434884,-0.6513485237687826,-1.045471760240197
1761469239245159400,0.332159423828125,3.5050545318454502,-0.6258920109510422,-0.768667912247777
1761469239255142100,0.34214208984375,5.096881824985147,-0.6937972340501845,-0.22574118475317953
1761469239265126100,0.352126220703125,5.746441711771488,-0.4276256931006908,0.17870061663687228
1761469239275109400,0.362109375,4.921616443493962,-0.5148825362712145,0.8334194936215877
1761469239285092400,0.37209228515625,4.236292584887146,-0.8810276324927806,1.1500514941334723
1761469239295075300,0.382075439453125,2.504261286765337,-0.4024481433548033,1.221489421403408
1761469239305059000,0.39205908203125,-1.9379197814136742,0.5308242017686366,1.2695891431838273
1761469239315042300,0.402042236328125,-5.907733512967825,0.06341229559406637,1.2881395298749208
1761469239325025300,0.412025390625,-8.304539802664518,-1.0258327015295625,2.318621810775995
1761469239335008300,0.42200830078125,-6.945698258578777,-0.3605598434351384,3.056532181188464
1761469239344991200,0.4319912109375,-2.8481314228147268,-0.09565145428925752,2.995769961711764
1761469239354975200,0.441975341796875,-0.8469909228563308,-0.7650071977831423,3.0392776795268057
1761469239364958200,0.451958251953125,-1.0256523765265941,-0.7124447975054383,3.0448002423405645
1761469239374941400,0.46194140625,-1.1836772848814725,-0.1444859200850129,2.81397663975656
1761469239384925400,0.471925537109375,-0.6342839917212725,0.0841667682006955,2.53638894791007
1761469239394908200,0.481908203125,0.9551672199368476,0.24425810756608843,2.3224796552479265
1761469239404891100,0.49189111328125,1.3699182338953018,0.22693492458239195,2.0343319909423587
1761469239414874400,0.501874267578125,0.8920511308103799,0.11346066722422837,1.3133920445531606
1761469239424857300,0.511857421875,0.3049427317619324,0.25318682556152344,0.47417000213265414
1761469239434841300,0.52184130859375,0.48887014313638205,-0.1293153850905597,0.1698509552270174
1761469239444824300,0.53182421875,1.0761860474556684,-0.6266552504085003,0.10165303279161453
1761469239454807300,0.541807373046875,1.2193977098211646,-0.5776854677952825,0.10067045149505138
1761469239464790300,0.551790283203125,1.054526588833332,-0.39485914953053,0.03746902217268944
1761469239474774300,0.561774169921875,0.9717068513274192,-0.3294758461244404,-0.08618483002483844
1761469239484757500,0.571757568359375,1.2894196328133345,-0.3061870327346027,-0.23158874173760413
1761469239494740200,0.581740234375,1.6353765120089052,-0.23077421048432586,-0.38671617508530615
1761469239504724200,0.59172412109375,1.8459952386930585,-0.264110955157876,-0.5313941106110811
1761469239514707200,0.601707275390625,1.8113234460234642,-0.2436348611012101,-0.6363993764400482
1761469239524690400,0.6116904296875,1.7778835332363843,-0.2544198744878173,-0.7293827805638313
1761469239534673200,0.621673095703125,1.777132422608137,-0.3293994198873639,-0.7406658066004514
1761469239544656400,0.631656494140625,1.8127274676024914,-0.4405401197314262,-0.6716811177015304
1761469239554640400,0.641640380859375,1.745555965605378,-0.4484177212387323,-0.503228923356533
1761469239564623400,0.651623291015625,1.8917168331652878,-0.5851636947214603,-0.0729454092234373
1761469239574606300,0.6616064453125,1.9341300337418912,-0.6279293619975447,0.2519242582798004
1761469239584590000,0.671590087890625,1.6065259728386998,-0.4860106620520353,0.44025078139603135
1761469239594573300,0.6815732421875,1.277023677098751,-0.31778935385346413,0.4489245017170906
1761469239604556300,0.691556396484375,1.1792717433989048,-0.009065057726204395,0.5234276617765427
1761469239614539300,0.701539306640625,1.1775678620904684,0.08846417313367128,0.4392728762745857
1761469239624523500,0.7115234375,0.9091448889523744,0.05811550436019897,0.0734820003181696
1761469239634506200,0.72150634765625,0.49700493427515025,0.16001929704248904,-0.3195452576100826
1761469239644489200,0.7314892578125,-0.03186696438193321,0.27535248014032837,-0.8271575106173753
1761469239654472400,0.741472412109375,-0.49084874973297116,0.4544391734853387,-0.9700906483024359
1761469239664456400,0.75145654296875,-0.5280412930518389,0.3555485911443829,-0.9646516721189021
1761469239674439200,0.761439208984375,-0.3216834386825561,0.42546003949940203,-0.7570604765623807
1761469239684422100,0.771422119140625,-0.4094102374523878,0.11237462555319071,-0.6598071400344372
1761469239694405400,0.7814052734375,-0.6972855145573615,-0.1788020311847329,-0.603996990007162
1761469239704389400,0.791389404296875,-0.7969938430219888,-0.15933160703927277,-0.20774550933539865
1761469239714372400,0.801372314453125,-1.0601567036747932,-0.05072948576211929,0.3295493497520685
1761469239724355300,0.811355224609375,-1.6367670895844697,-0.022994798879325387,0.45173546748459337
1761469239734337300,0.821337158203125,-2.143039033898711,-0.007585340562462807,0.36089024443328377
1761469239744321300,0.8313212890625,-1.9544675961107014,-0.005669277808070182,0.4023737629443407
1761469239754304500,0.841304443359375,-1.066404658153653,0.28029315141290423,0.40886020235419274
1761469239764287200,0.851287353515625,-0.4007400242626667,0.4967942141339183,0.4461088597744703
1761469239774270200,0.861270263671875,-0.3387859646528959,0.40148938132524487,0.44598201852440833
1761469239784254200,0.871254150390625,-0.5092031754605472,0.4232110915288329,0.427759548613429
1761469239794237400,0.881237548828125,-0.7668190695106982,0.44089404773563146,0.4047860847830772
1761469239804220200,0.89122021484375,-1.0272130499720573,0.39329906060695646,0.37707039486169813
1761469239814203100,0.901203125,-1.017276031716913,0.3921384923949838,0.4072048363626003
1761469239824187400,0.9111875,-0.7090431723684072,0.324320801448822,0.3352718190521002
1761469239834170400,0.92117041015625,-0.5718605610340833,0.35999329559355975,0.20538053376972673
1761469239844153300,0.9311533203125,-0.5771197967365383,0.42998920736163854,-0.0165349552154541
1761469239854136300,0.94113623046875,-0.7465145326286554,0.33108225840777156,-0.07405132463872433
1761469239864120300,0.951120361328125,-0.8913982198596,0.13466566007733344,0.035160160708427424
1761469239874103300,0.961103271484375,-0.768066293092817,-0.40916093886643645,0.3013578590124845
1761469239884086300,0.971086181640625,-0.4760504090517759,-0.989564579579234,0.40618192305564876
1761469239894069200,0.9810693359375,-0.5454419251859188,-1.3840773998901248,0.13735913694500923
1761469239904053200,0.99105322265625,-0.24094810623526572,-1.0058180875048042,-0.29459552527070043
1761469239914036200,1.0010361328125,-0.632330227304995,-1.1821908457159995,-0.4525573052614927
1761469239924019500,1.01101953125,-0.7595639838159084,-1.0044906382933259,-0.8262906646549701
1761469239934002400,1.02100244140625,-0.8393290099263191,-0.9423545001149177,-1.0698971764445304
1761469239943986400,1.030986328125,-0.4935486563414335,-1.4108835737511516,-0.8402221593737602
1761469239953969200,1.04096923828125,-0.4932597563974559,-1.5953806017071008,-0.49065468846559523
1761469239963952400,1.050952392578125,-0.8968295972585678,-0.9316799613654613,-0.4886854342192411
1761469239973936400,1.060936279296875,-0.9717974522203207,-0.8830547544062137,-0.5075432794243097
1761469239983919400,1.07091943359375,-1.1962876139990986,-1.0299556266784666,-0.43736967300176616
1761469239993902000,1.080902099609375,-1.5965779947981238,-1.162971181461215,-0.25694179418087004
1761469240003885300,1.09088525390625,-1.8030505615882575,-1.2087012515008448,-0.035793197914958
1761469240013868300,1.100868408203125,-1.651895685133338,-1.2397361489728091,-0.08747545435726642
1761469240023852300,1.110852294921875,-1.4105436742722988,-1.211840134048462,-0.25147768355607986
1761469240033835500,1.12083544921875,-1.1351356645524502,-0.9683905663862824,-0.3261088539093733
1761469240043818200,1.130818359375,-1.0132122894093394,-0.6596800065234303,-0.2686854234665632
1761469240053802200,1.14080224609375,-0.994367011424899,-0.5720771263942123,-0.3453004611134529
1761469240063785200,1.15078515625,-1.089243681949377,-0.6354688175916672,-0.385908950355649
1761469240073768400,1.1607685546875,-1.2726684044986962,-0.5689391206294298,-0.42208208749890325
1761469240083751200,1.170751220703125,-1.3404331962138414,-0.5137368733674288,-0.5060632699996233
1761469240093735200,1.180735107421875,-1.2774436560764908,-0.39080607474744317,-0.6569032352864742
1761469240103718400,1.190718505859375,-1.234654315663874,-0.2638131412550807,-0.6976730525702237
1761469240113701400,1.200701416015625,-1.27903969309628,-0.07781886047869921,-0.6580629267156124
1761469240123684400,1.210684326171875,-1.2168179224610327,0.15344342578351497,-0.6854524534225463
1761469240133668400,1.22066845703125,-1.1118874754339456,0.3246542711868882,-0.8125380336344241
1761469240143651300,1.2306513671875,-1.089383674941957,0.4058379319235682,-0.8648691093742847
1761469240153634300,1.24063427734375,-0.9286907164216041,0.38051965853273867,-0.9429261625230312
1761469240163617300,1.2506171875,-1.0272846539035438,0.43749417616426944,-1.0784820494383573
1761469240173601300,1.260601318359375,-1.1560711928144096,0.5583125126749277,-1.3848819942712782
1761469240183584300,1.270584228515625,-1.2810454799607396,0.7948845957830548,-1.3974837016910313
1761469240193567200,1.280567138671875,-1.3577546256318687,0.8833265570849179,-1.366422792994976
1761469240203550500,1.290550537109375,-1.2753782479792832,0.9274369169682264,-1.1601023480266333
1761469240213534500,1.300534423828125,-0.9342825450792908,1.024897174245119,-0.7450339386820792
1761469240223517400,1.310517333984375,-0.4986015558168292,1.0533552069664,-0.3343389221161604
1761469240233500200,1.320500244140625,-0.2901274399459362,0.8681088219478725,0.018604747226834296
1761469240243483400,1.3304833984375,0.18156389711350202,1.121629409508407,0.3468944523066282
1761469240253467400,1.34046728515625,-0.5589116476118564,1.308139238591492,0.1628670876890421
1761469240263450400,1.350450439453125,-0.8745929232701659,1.2027248074397443,-0.2311585336267948
1761469240273433000,1.36043310546875,-0.7138344982981681,1.1614987708210944,-0.26335926000773907
1761469240283417300,1.370417236328125,-0.11557809776961803,1.4487734516844153,-0.2924696191579103
1761469240293400300,1.380400390625,0.2504500940740108,2.0170444637939333,-0.22213819182515143
1761469240303383300,1.39038330078125,0.45601679806560275,2.2620973749995232,-0.0065092357635498045
1761469240313366500,1.400366455078125,0.3584370060622692,1.2446370727568865,-0.040189387047290796
1761469240323350300,1.410350341796875,0.2221265013873577,0.09067483492046594,-0.18036007428169248
1761469240333333200,1.420333251953125,-0.03819616740345955,0.25854104607105255,-0.09882686945497988
1761469240343316200,1.430316162109375,-0.2845040471062064,0.08172346670180558,-0.006062661039829254
1761469240353299500,1.440299560546875,-0.27015315793156625,-0.2291542080670595,0.4115408197402954
1761469240363283500,1.450283447265625,-0.037657822743058206,-0.40965047594904896,0.7597533689081668
1761469240373266200,1.46026611328125,-0.17489537913501263,-0.4407920486658811,1.18114572057724
1761469240383249400,1.47024951171875,-0.041921909928321836,-0.7192550620421767,0.8508744862914085
1761469240393232400,1.480232421875,0.1446276666432619,-0.7671341268092393,0.20493980426490305
1761469240403216400,1.49021630859375,0.10132219340205192,-0.8816124466434121,-0.1529635333120823
1761469240413199400,1.500199462890625,0.15197452227473257,-0.9254162247955798,-0.42452188186645506
1761469240423182300,1.510182373046875,0.30261224298775197,-0.939502325554192,-0.5528092390835285
1761469240433165300,1.520165283203125,0.6087947456777095,-1.0766986731529236,-0.6098574064731598
1761469240443149300,1.5301494140625,0.5605769504755735,-1.0911641286179423,-0.4305512251585722
1761469240453132300,1.54013232421875,0.5135837286323308,-0.45169279738664625,-0.18777005827724932
1761469240463115300,1.550115234375,0.9973813908100128,-0.1148164657473564,0.033003859457373615
1761469240473099300,1.560099365234375,1.4328048981800674,-0.11278174504935741,0.40635318796932696
1761469240483082200,1.570082275390625,1.387310682722926,0.07113719075769186,0.6006020868718623
1761469240493065500,1.5800654296875,1.3003075220525264,0.2229851640433073,0.7197510288655757
1761469240503048400,1.59004833984375,1.240715515398979,0.29925971768945453,0.7249129416733979
1761469240513032200,1.6000322265625,1.171406416851282,0.24617402419000864,0.7900801181107759
1761469240523015200,1.61001513671875,1.1215864471495152,0.25621464895009993,0.8121230230927466
1761469240532998400,1.619998291015625,1.2957722167104482,0.31054391276985405,0.8508546125471591
1761469240542981400,1.6299814453125,1.5224749399721622,0.2473506667539477,0.9498071542084217
1761469240552965400,1.63996533203125,1.5573983693152664,0.191780462962389,1.0617483567804098
1761469240562948400,1.6499482421875,1.4075789792478084,0.12128975341469049,1.13504272557199
1761469240572931300,1.659931396484375,1.129100476041436,-0.009257949949800968,1.265607964593172
1761469240582914300,1.669914306640625,1.1017843068316577,-0.22627105384618043,1.5386509987473487
1761469240592898300,1.679898193359375,0.8630410171642899,-0.3175502844005823,1.366053375160694
1761469240602881300,1.68988134765625,0.8275286820173263,-0.43128626143485305,0.9121732968628405
1761469240612864300,1.6998642578125,1.1835475210219621,-0.5909788107410073,0.7245628130614757
1761469240622847200,1.70984716796875,1.1747253321409226,-0.60211716760993,0.5616378577053547
1761469240632831200,1.719831298828125,1.2629583268672226,-0.47171208758652206,0.30242928763628
1761469240642814500,1.729814453125,1.3773077596247196,-0.4922662153154611,0.21644202601015566
1761469240652797200,1.739797119140625,1.4069476956069469,-0.5953133328139781,0.16859364864230156
1761469240662781200,1.74978125,1.2631941814497112,-0.5926242398604751,0.06407996572256087
1761469240672764400,1.759764404296875,1.1310714838534592,-0.577691166883707,-0.05556640439927578
1761469240682747400,1.769747314453125,1.2074150110825896,-0.6381795378550886,-0.11389935090243816
1761469240692730000,1.779730224609375,1.3611042283207178,-0.7549278484478592,-0.18626959058642387
1761469240702714000,1.789714111328125,1.4459154319047927,-0.9331400970458984,-0.3134673990011215
1761469240712697300,1.799697265625,1.3588327762573957,-1.1974135492891071,-0.36285131537318227
1761469240722680300,1.809680419921875,1.19989805958122,-1.3018395539253949,-0.3482499585688114
1761469240732667400,1.81966748046875,1.0935492701888083,-1.198916939589381,-0.1782604716539383
1761469240742651400,1.8296513671875,0.7982558257818222,-1.0005787255465983,-0.006826046627759933
1761469240752634600,1.839634521484375,0.37219694360643624,-0.98382808175385,0.17268588639199733
1761469240762617600,1.84961767578125,0.08362783901840448,-0.9663047000229358,0.19996552298367024
1761469240772600300,1.859600341796875,0.00454699577987194,-0.8366729424595832,0.23496610921621322
1761469240782584300,1.869584228515625,-0.16890753689706325,-0.7656769137382506,0.25083763208687304
1761469240792567600,1.879567626953125,-0.20484365041404962,-0.715962742498517,0.38428222593665123
1761469240802550500,1.889550537109375,-0.017945991057157516,-0.6274585296154022,0.6430424677163362
1761469240812534500,1.899534423828125,0.022067454901337623,-0.7462164264649153,0.7401829915195703
1761469240822517800,1.909517822265625,-0.20626579217165708,-0.7591136096999048,0.7269260350614786
1761469240832500500,1.91950048828125,-0.4839201195135712,-0.7500725173711776,0.5918880345404147
1761469240842483500,1.9294833984375,-0.5040554373085498,-0.7907292296692728,0.39290976902842517
1761469240852467500,1.939467529296875,-0.43709407093077896,-0.956183118981123,0.12365092958807944
1761469240862450700,1.94945068359375,-0.42211598976850506,-1.180625203834474,-0.11213643288314341
1761469240872433400,1.959433349609375,-0.6078703243091702,-1.1915344281226397,-0.23467618635892867
1761469240882416400,1.96941650390625,-0.7180839724361896,-1.2446084311842918,-0.18729016580581664
1761469240892400400,1.979400390625,-0.7637979681238531,-1.2879378698229789,-0.25565701506733896
1761469240902383600,1.989383544921875,-0.9662804423645138,-1.2856149798333645,-0.35266251431405543
1761469240912366600,1.99936669921875,-0.9991077762112021,-1.3017027758032083,-0.33689795894920826
1761469240922349600,2.009349609375,-0.8746265332788229,-1.2554349456250666,-0.29498189423978327
1761469240932333600,2.01933349609375,-0.72656889218688,-1.2524959695637226,-0.3236246358782053
1761469240942316500,2.029316650390625,-0.6004860592767596,-1.203117021627724,-0.4251455667227506
1761469240952299500,2.039299560546875,-0.6704013070240616,-1.2037480130076408,-0.3309866890788078
1761469240962283500,2.049283447265625,-0.7040156995952129,-1.2443614706858992,-0.312356807410717
1761469240972266500,2.0592666015625,-0.7506833427459001,-1.2101570032671094,-0.3004670476526022
1761469240982249500,2.06924951171875,-0.8195145946487784,-1.1450497403234243,-0.27492051846385
1761469240992232400,2.079232421875,-0.941667686894536,-1.0738374385029077,-0.313755568292737
1761469241002216700,2.089216796875,-1.0116843491896987,-1.0827867608949542,-0.35816929503679273
1761469241012199400,2.099199462890625,-1.059138758803904,-1.1312924331277607,-0.2909586300730705
1761469241022182400,2.109182373046875,-1.0104054152950643,-1.181510754497349,-0.1431762987911701
1761469241032165600,2.11916552734375,-0.9864970087021588,-1.3063067624673246,-0.03353518985509872
1761469241042149600,2.129149658203125,-1.0140607229322194,-1.4710221083715558,-0.04212999972105026
1761469241052132600,2.139132568359375,-1.1307815609961747,-1.7019842426434157,-0.07848959934711455
1761469241062115300,2.149115234375,-1.0945596162751317,-1.863780486230552,-0.21315350585877893
1761469241072099300,2.159099365234375,-1.0223357993245124,-1.905379447814822,-0.3209475256234407
1761469241082082600,2.16908251953125,-1.3055965683713555,-1.8387544737845658,-0.3169102329313755
1761469241092065500,2.1790654296875,-1.5266270912155508,-1.8422443617269395,-0.18174246855080126
1761469241102048500,2.189048583984375,-1.5841174494147299,-1.8418603308454156,-0.024036709147691727
1761469241112032500,2.199032470703125,-1.2827207196965813,-1.8719386582449078,0.0003232406049966812
1761469241122015500,2.209015380859375,-0.8993184914648532,-1.818065906020999,0.06988076095581054
1761469241131998500,2.21899853515625,-0.7153185993760823,-1.6935867089152334,0.24570552989542482
1761469241141981700,2.228981689453125,-0.5634346779942512,-1.4309981410190462,0.5933008239477873
1761469241151965700,2.238965576171875,-0.461423041023314,-0.9921785614699125,1.0509066447705029
1761469241161948400,2.248948486328125,-0.20371639994978905,-0.30748715554773803,2.0892425617814063
1761469241171931400,2.258931396484375,0.04552022668123245,-0.06724924340844154,2.4157512286633254
1761469241181915600,2.26891552734375,-0.20759762529730796,-0.016290478935092688,2.0467536656200886
1761469241191898600,2.278898681640625,-0.3683259473919868,0.05533142659962177,2.0655887144714593
1761469241201881300,2.28888134765625,0.2383016833797097,0.08538871121108531,2.3382728521853684
1761469241211864600,2.298864501953125,0.7900006231337785,0.22226868633702396,2.344002335748076
1761469241221848600,2.3088486328125,0.9043380731925368,0.445856784709543,1.6541963632911443
1761469241231831600,2.31883154296875,1.2425456534355879,0.6838879805848002,0.7780401362270116
1761469241241814500,2.328814453125,1.0564891210779548,0.6834012199811637,-0.153689509499073
1761469241251797500,2.338797607421875,1.3603788366556167,0.7760144756183027,-0.9810913502663373
1761469241261781500,2.348781494140625,1.918110334572196,0.9573733516789972,-1.5723521928191184
1761469241271764500,2.358764404296875,2.000249104076624,1.1950849602110682,-1.9055401913344858
1761469241281747500,2.36874755859375,1.715613247284293,1.580849972051382,-2.0169611694246528
1761469241291731700,2.378731689453125,1.4351511690452694,1.9051837791122495,-1.7996891223311424
1761469241301714400,2.38871435546875,1.1207467814549803,2.1520101297311482,-1.2697732675790785
1761469241311697400,2.398697509765625,0.8243862923383712,2.3677178501173852,-0.66438979164958
1761469241321680600,2.4086806640625,0.6084282504528761,2.4570892012238503,-0.11702069779336452
1761469241331664600,2.41866455078125,0.5034907891631126,2.383586888770014,0.2803834600448608
1761469241341647600,2.428647705078125,0.38758243652582164,2.157266442824155,0.48794309141933917
1761469241351630300,2.43863037109375,0.11898089195042848,1.94270233951509,0.7036702471584081
1761469241361613600,2.448613525390625,0.1290899057716131,1.6581358946971594,0.9062246175915002
1761469241371597600,2.45859765625,0.01456862357854843,1.2579891601525246,0.8436515493005514
1761469241381580500,2.46858056640625,-0.16006722783744334,0.813672298361361,0.7506453488230704
1761469241391563500,2.4785634765625,-0.26834815433621406,0.42039895671755073,0.6715086837440729
1761469241401547500,2.488547607421875,-0.22565146064311264,0.1838200054772198,0.5613508574575186
1761469241411530500,2.498530517578125,0.032224984039366245,0.23176848221868276,0.6853378871321678
1761469241421513500,2.508513427734375,0.5507321405485273,0.06995441071391105,0.7259843702971935
1761469241431496700,2.51849658203125,0.5751967197194695,-0.015683014561235904,0.3373831121176481
1761469241441480400,2.52848046875,0.854706027278304,0.0595705254741013,0.09121639445126056
1761469241451463400,2.53846337890625,1.0506301659166812,0.1076132563702762,0.04129471794068813
1761469241461446400,2.5484462890625,0.9389803475067019,0.1997857825025916,-0.17446575554609298
1761469241471429600,2.5584296875,0.9920897141426801,0.24576281304061412,-0.2424830607175827
1761469241481413600,2.56841357421875,0.2890346762731671,-0.07435206115096807,-0.5348112255781888
1761469241491396400,2.578396240234375,-0.17497545863389968,-0.18194938929975032,-0.9536977319061756
1761469241501379600,2.588379638671875,-0.2398158873349428,-0.3269681010872125,-1.2419202150136233
1761469241511363600,2.598363525390625,-0.4012047191649675,-0.37002047635018825,-1.5175135181725024
1761469241521346600,2.6083466796875,-0.5899836622238159,-0.4054433796480298,-1.5992939757585525
1761469241531329500,2.61832958984375,-0.6011787177160381,-0.4609802656918764,-1.6044897908359765
1761469241541312500,2.6283125,-0.8081900675579905,-0.4623682129189372,-1.4728443553626536
1761469241551296500,2.638296630859375,-0.88510379589051,-0.38392245271354913,-1.275022274148464
1761469241561279500,2.648279541015625,-1.064608714647591,-0.2743719446703791,-1.259234922429919
1761469241571262700,2.6582626953125,-1.0476531959325075,-0.2620253810554743,-1.1633061125040054
1761469241581246700,2.668246826171875,-0.8434770695164799,-0.30451924565285443,-0.9503244560807943
1761469241591229400,2.6782294921875,-0.5673138575151563,-0.38507103822678324,-0.8083966960459947
1761469241601212400,2.68821240234375,-0.40879152103215455,-0.5546984138309955,-0.647819180598855
1761469241611195600,2.698195556640625,-0.37953532367050646,-0.7335375621557235,-0.5259370142489671
1761469241621179600,2.7081796875,-0.5564712687224149,-0.8768105993196368,-0.5132528892427682
1761469241631162400,2.718162353515625,-0.7845692457348108,-1.116480356182158,-0.5360521655499935
1761469241641145300,2.728145263671875,-0.7738745409801602,-1.3832590692445634,-0.3916553850531578
1761469241651128600,2.738128662109375,-1.3064879642531275,-1.3970190067887305,-0.4594564171254635
1761469241661112600,2.748112548828125,-1.1967512859880924,-1.6259394060999155,-0.6782464675664901
1761469241671095600,2.758095458984375,-0.950084509845078,-1.8216589620769024,-0.7189549100518227
1761469241681078500,2.76807861328125,-0.7291641693770885,-1.831788141903281,-0.9079927963078022
1761469241691062500,2.7780625,-0.723213736540079,-1.8732462337121367,-0.9720271693229675
1761469241701045500,2.78804541015625,-0.8777338516443968,-1.6745529226213693,-0.9461918863207102
1761469241711028500,2.798028564453125,-0.9717398768141865,-1.580364818882942,-0.8944470860362053
1761469241721011500,2.808011474609375,-0.9367150329232216,-1.322397188785672,-0.7461363469660282
1761469241730995500,2.817995361328125,-0.8664970028370619,-0.8092518515706062,-0.5632295108109713
1761469241740976000,2.82797607421875,-1.1673431129351257,0.11632423996180295,-0.6330056423485279
1761469241750958800,2.837958740234375,-0.8470368078246712,0.11428981152474879,-0.46810558752715586
1761469241760942800,2.84794287109375,-0.6003662322893738,0.14473083475679158,-0.18533026390969753
1761469241770926000,2.857926025390625,-0.789158619351685,0.567308596818149,0.043614100798964495
1761469241780909000,2.867908935546875,-0.9086053752481937,0.7026900039494037,0.29795944874584673
1761469241790892000,2.87789208984375,-1.1716954629257321,0.6567904225617647,0.4926040689677
1761469241800875800,2.887875732421875,-1.6339385881602764,0.5936474454283714,0.48227147552371025
1761469241810859000,2.89785888671875,-1.9891458185210822,0.3453925233110785,0.2959937016308308
1761469241820842000,2.907842041015625,-2.114062530261278,0.04322422469854355,0.04061550350487232
1761469241830825200,2.9178251953125,-2.1440563942477104,-0.2315317508533597,-0.11630056682527065
1761469241840809200,2.927809326171875,-2.176770038586855,-0.3283531257048249,-0.014258242455124854
1761469241850792000,2.9377919921875,-2.168150386540592,-0.2845209982410073,0.4180804506421089
1761469241860775000,2.94777490234375,-1.8886366950675844,-0.22506080127358435,1.1718424701809882
1761469241870759000,2.957759033203125,-1.687403051844239,-0.11904781970679759,2.0113281319737433
1761469241880742100,2.9677421875,-1.0171899608686565,0.042410862489044666,2.585301155117154
1761469241890724900,2.977724853515625,0.016970131762325764,0.3747743928790092,2.87175429046452
1761469241900707800,2.987707763671875,0.35672757179588077,0.5670730344966054,3.0814357362985607
1761469241910692000,2.997692138671875,0.20858079111576078,0.782060477784276,3.042783641821146
1761469241920675000,3.007675048828125,0.2018143657207489,0.7348153270065784,2.690783975329995
1761469241930658000,3.017657958984375,0.5479764120995998,0.5471320702299476,1.9694582444936035
1761469241940642000,3.02764208984375,0.5764382442131638,0.6574155687227845,1.0792185470193625
1761469241950625000,3.037625,0.592616933336854,0.7792714315876365,0.36701311122775077
1761469241960608000,3.04760791015625,0.7000082175195217,0.8585194480866193,-0.3358364671975374
1761469241970591000,3.057591064453125,0.936943580982089,0.8992430881410837,-0.8572691557645797
1761469241980575000,3.067574951171875,1.0440221459537744,0.7889861853942275,-1.2432400654405356
1761469241990558000,3.077557861328125,1.216405250006914,0.7671791349947452,-1.514243118199706
1761469242000541000,3.087541015625,1.6373194627702234,0.7259601126387715,-1.6229846479475498
1761469242010525000,3.09752490234375,2.0588252116858956,0.6092793143242597,-1.5921914502769707
1761469242020508200,3.107508056640625,2.3159040762498972,0.18421382710039613,-1.3397691793471573
1761469242030491100,3.1174912109375,2.7317706502348185,0.5174827818974852,-1.1881044536739587
1761469242040473900,3.127473876953125,3.170575324475765,0.43274698163717984,-0.6922334918648004
1761469242050457900,3.137457763671875,3.3499247604101896,0.5011746211752295,-0.2300087790697813
1761469242060441000,3.147441162109375,3.098117991030216,0.5207555199578404,0.12952829718887804
1761469242070424000,3.157424072265625,2.726724472761154,0.361566828520596,0.4291121322661638
1761469242080408000,3.167407958984375,2.264443645864725,0.3035565381005406,0.5002613057225942
1761469242090391000,3.17739111328125,1.6726669627442956,0.24301263754963873,0.48653205557763574
1761469242100374000,3.1873740234375,1.110139170461893,0.2696259191870689,0.4580091409265995
1761469242110357000,3.19735693359375,0.6711743372231721,0.2207648576453328,0.4102852667212486
1761469242120341000,3.207341064453125,0.45505350599139927,0.1396548466667533,0.3921072204738855
1761469242130324200,3.21732421875,-0.03628945699930191,0.15433248357772827,0.2930851207077503
1761469242140307000,3.227306884765625,-0.6902227365642786,0.40197131962329147,0.37327041805684563
1761469242150291000,3.237291015625,-0.2246384842082858,0.6081435882925987,0.5224643697023391
1761469242160274000,3.24727392578125,-0.19967793821394442,0.9644254621475934,0.27760347393751145
1761469242170257200,3.257257080078125,0.2929778609409928,0.8321984273940324,-0.015606734454631805
1761469242180240000,3.267239990234375,0.47503567905127997,0.21591274143904446,-0.1936526865750551
1761469242190224000,3.277223876953125,0.13714695549905298,-0.039158290433883663,-0.23536066149175167
1761469242200207000,3.28720703125,-0.04104980326890945,-0.08195727545768022,-0.1569967343509197
1761469242210190000,3.297190185546875,0.3677329499348998,-0.2893096938222647,-0.1528320158869028
1761469242220174000,3.307174072265625,0.38737113186269995,-0.4017299120828509,-0.3167717012435198
1761469242230156800,3.31715673828125,0.36209435952603813,-0.45174686566144223,-0.40169630207419393
1761469242240140000,3.32714013671875,0.4740805702835321,-0.5959358486264944,-0.5213993708193302
1761469242250123000,3.337123046875,0.79324296605587,-0.682441288907826,-0.6903308731138705
1761469242260107000,3.34710693359375,0.9153446203753351,-0.7907844669878482,-0.8207733625382184
1761469242270090000,3.357090087890625,0.7462453602984547,-1.0419123141929507,-0.837389566296339
1761469242280073000,3.367072998046875,0.5024307587161659,-1.1794020917803048,-0.7221224341720343
1761469242290057000,3.377056884765625,0.421233946236968,-1.1971139818206429,-0.6831091051667928
1761469242300040000,3.3870400390625,0.44555473302304743,-1.2331696300640702,-0.5834603979349136
1761469242310023200,3.397023193359375,0.5574608642816543,-1.2454706009715795,-0.46902620950341223
1761469242320006100,3.407006103515625,0.6168821905434131,-1.2647089699268341,-0.397872944393754
1761469242329990000,3.416989990234375,0.4309045686408877,-1.164914424483478,-0.3652028469353914
1761469242339972900,3.426972900390625,0.11108809287399053,-1.0922621529877186,-0.34234044226408
1761469242349956000,3.4369560546875,-0.08550123167484998,-1.0327522716596722,-0.3649205228626728
1761469242359940000,3.446940185546875,-0.15127163470238447,-1.051496135096252,-0.4513894305258989
1761469242369923000,3.456923095703125,-0.2497106738835573,-1.1872922605082392,-0.4687959078788757
1761469242379906000,3.466906005859375,-0.5730377881199121,-1.3577870665967464,-0.32342706747949124
1761469242389889000,3.476888916015625,-0.6982868005543946,-1.544899830009043,-0.21417232751250265
1761469242399873000,3.486873046875,-0.7668085481166839,-1.761259730693698,-0.12684417267143724
1761469242409856000,3.49685595703125,-0.8911737634539604,-1.875878920303285,0.0720873310893774
1761469242419839000,3.5068388671875,-0.8632280641689896,-1.8520152296349406,0.09048223495781421
1761469242429823000,3.516822998046875,-0.6602604367598891,-1.685336766964197,0.11825111637115478
1761469242439806000,3.526805908203125,-0.5118316242679953,-1.6339011787593363,0.3064852850288152
1761469242449789000,3.536788818359375,-0.4229676381617784,-1.5898732364624737,0.28434301132559775
1761469242459772200,3.546772216796875,-0.7154211829677224,-1.5106982851997017,0.10025485643148421
1761469242469756200,3.556756103515625,-0.7690437598228455,-1.5933756916254758,0.36386721441745756
1761469242479739000,3.56673876953125,-0.740077193057537,-1.56447926748693,0.39135961697697635
1761469242489722000,3.57672216796875,-0.776929836897552,-1.713957296770811,0.336508667370677
1761469242499706000,3.5867060546875,-0.6258239141508937,-1.7180013114646076,0.4214356062889099
1761469242509689000,3.596689208984375,-0.47831133972108364,-1.5536279108658433,0.505772762620449
1761469242519671800,3.606671875,-0.4162617107823491,-1.4692121363401411,0.6264683495342731
1761469242529655800,3.61665576171875,-0.4147819936186075,-1.2617848991736769,0.7897644762903452
1761469242539639000,3.62663916015625,-0.4857195701509714,-1.1121525561109185,1.0304618226349354
1761469242549622000,3.6366220703125,-0.6056427113875746,-0.9935448813870549,1.3214677989810704
1761469242559605200,3.646605224609375,-0.7452128023803234,-0.858376532484591,1.4774515568971633
1761469242569589000,3.656589111328125,-0.808961344191432,-0.7453811446845531,1.5810171453118322
1761469242579572000,3.666572021484375,-0.765592450325191,-0.47286052696928377,1.5365385366380213
1761469242589555000,3.676554931640625,-0.5370896919041872,0.10747925472706556,1.5700281337857245
1761469242599539000,3.6865390625,-0.49342999839782714,1.0844241528384386,1.497629837051034
1761469242609522200,3.696522216796875,0.23515344848185776,1.0692482110165058,2.6874405101209877
1761469242619505000,3.7065048828125,0.6013546588048339,1.5637832480467855,2.8348586842656136
1761469242629487900,3.71648779296875,1.221660978578031,1.9849356534801423,2.5290233875781296
1761469242639472000,3.72647216796875,1.7670307153105735,2.029118201816827,2.3762948320657014
1761469242649455000,3.736455078125,2.172243793334067,2.092394596071541,1.9154174422264099
1761469242659438000,3.74643798828125,2.5415336173221466,2.55599088948071,1.306390056836605
1761469242669421800,3.756421875,2.173853274357319,2.5225968616619703,0.280174201208353
1761469242679405000,3.766405029296875,1.7105743763342498,1.998751266734302,-0.5571195034980774
1761469242689388000,3.776387939453125,1.3574635337308048,1.642612454611808,-1.3005015833199023
1761469242699371000,3.78637109375,1.2850661137789487,1.6321720168791711,-1.7903414482712745
1761469242709355000,3.79635498046875,1.4619737095192074,1.2950932945355773,-2.039557032114267
1761469242719338000,3.806337890625,1.2787719820708037,1.1977584172040223,-2.1531536006778476
1761469242729321000,3.816321044921875,1.1773980584815145,1.0881455114491283,-1.899420831671357
1761469242739308000,3.82630810546875,0.9780696643576026,1.0437564807549118,-1.311470136579871
1761469242749291300,3.836291259765625,0.9404662021502852,1.2118776895798742,-0.64680269703269
1761469242759274200,3.846274169921875,0.7076414888769388,0.9421157229229807,-0.40069033990204334
1761469242769257000,3.856257080078125,0.5343509145900607,0.8395764088161289,-0.07274199560582638
1761469242779241000,3.866240966796875,0.2171680021971464,0.6939212988212704,0.27336744380295275
1761469242789224200,3.87622412109375,0.20018822582364082,0.32008637874945994,0.3812678465515375
1761469242799207200,3.886207275390625,0.29565292536914345,0.10614844451472162,0.4473778567969799
1761469242809191200,3.896191162109375,0.4286261023148894,0.035192017151415345,0.501709166443348
1761469242819174400,3.90617431640625,0.7266621234282851,0.013234452365338802,0.5620283183276653
1761469242829157000,3.9161572265625,0.8504901631489395,0.1462234114021063,0.7043272497624159
1761469242839141000,3.92614111328125,0.773988522748649,0.23281360735744236,0.8393395313203335
1761469242849124000,3.9361240234375,0.8099880568906664,0.33513737901747226,0.9632844754189253
1761469242859107300,3.946107421875,0.8550362821459769,0.2883281354390085,0.9305079949766397
1761469242869090000,3.956090087890625,0.7339443893909454,0.22354893540591,0.749799545648694
1761469242879074000,3.966073974609375,0.5234548420444131,0.21915289240404962,0.4418471106767654
1761469242889057300,3.976057373046875,0.32195436457842586,0.25402809869125487,0.15717793613672257
1761469242899040300,3.986040283203125,0.1431026490330696,0.22846520288959143,-0.16622867307662964
1761469242909024300,3.996024169921875,0.0016474749460816383,0.12695128630772232,-0.5866051257014274
1761469242919005200,4.006005126953125,-0.16664806753247977,-0.10129092148095369,-0.8001198660880326
1761469242928988200,4.01598828125,-0.3163794870555401,-0.1233339725933969,-0.8854933797299861
1761469242938972200,4.02597216796875,-0.6293348448812961,-0.38591757205352184,-1.0617430960834027
1761469242948955400,4.035955322265625,-0.5404314035475254,-0.3868171512417495,-1.2556962269097567
1761469242958938000,4.045938232421875,-0.3877390883922577,-0.4665416992112994,-1.3007669562578201
1761469242968922000,4.055922119140625,-0.31053514494150875,-0.5705468480870127,-1.2450298714667558
1761469242978905000,4.065905029296875,-0.10006488681733608,-0.5663879748418927,-1.1759791315943002
1761469242988888300,4.075888427734375,0.08562515031546354,-0.5788315690904855,-1.109290444678068
1761469242998871000,4.08587109375,-0.06787701991796494,-0.6861424815133214,-1.052659625917673
1761469243008855000,4.09585498046875,-0.18778437906354664,-0.7700745641753077,-1.0350357064217328
1761469243018838300,4.10583837890625,-0.2782090386152267,-0.770916860218346,-1.2358645682364702
1761469243028821200,4.1158212890625,-0.5910121284887194,-0.8163958781063556,-1.5334610288888215
1761469243038805200,4.12580517578125,-0.7273758246555924,-0.9670292149052023,-1.820865181350708
1761469243048788000,4.1357880859375,-0.7426373989343643,-1.0526961585357784,-2.1156354786664244
1761469243058771200,4.145771240234375,-0.666983899796009,-1.100331185413897,-2.1835475698977707
1761469243068755200,4.155755126953125,-0.7427016963422298,-1.1277698119595647,-2.055869284489751
1761469243078738200,4.16573828125,-0.7069277876496315,-1.104369062627852,-1.8525082738488912
1761469243088721200,4.17572119140625,-0.47896220484524965,-0.8843594072639942,-1.6181085663437842
1761469243098704100,4.1857041015625,-0.2999360095158219,-0.5284706243798136,-1.3480080153822898
1761469243108688100,4.195688232421875,-0.30843349648714063,-0.2849292867809534,-0.8853063327252865
1761469243118671000,4.205671142578125,-0.40194063222408294,0.04454875130057335,-0.41607787864804263
1761469243128654300,4.215654296875,-0.5786655648738146,0.3546013734221458,-0.024382746106386185
1761469243138638300,4.225638427734375,-0.49202685360163445,0.5372215015903115,0.32453999715745446
1761469243148621000,4.23562109375,-0.35023499490618704,0.6767050833433866,0.5761030209094286
1761469243158604000,4.24560400390625,-0.33433950663805007,0.7264695234656333,0.7838426850259304
1761469243168587300,4.255587158203125,-0.5251590156137943,0.7657531938448547,0.8965811754554509
1761469243178571300,4.2655712890625,-0.8256243097007274,0.7095093285754323,0.8700999957650899
1761469243188554200,4.27555419921875,-0.9931856926858424,0.6893740107804537,0.7443412802428007
1761469243198537200,4.285537109375,-1.3867615244075655,0.5581769035965204,0.5280716881901025
1761469243208521200,4.295521240234375,-1.4240242103531955,0.26597704129070043,0.35908056466281413
1761469243218504200,4.305504150390625,-1.3091072068408132,-0.10929828684777021,0.07386836928725242
1761469243228487200,4.315487060546875,-1.3884236124008893,-0.7344476627379656,-0.27367490231692787
1761469243238471200,4.32547119140625,-1.855940294124186,-0.9956187650516629,-0.420752884721756
1761469243248454100,4.3354541015625,-2.1793071558490396,-1.0492375425145029,-0.4053139080494642
1761469243258437000,4.34543701171875,-2.0423387717872856,-1.2222086755886674,-0.20014614024758337
1761469243268420000,4.355420166015625,-1.7212135515093803,-1.3875444914788007,0.22295944508016108
1761469243278404400,4.365404296875,-1.5220844793498516,-1.3097440434396266,0.7709054620414972
1761469243288387300,4.37538720703125,-1.3997107300907372,-1.1745754022762178,1.4975205314576625
1761469243298370000,4.3853701171875,-1.3980509801849723,-0.8059893426433206,2.176595851063728
1761469243308354000,4.39535400390625,-0.3948375222206115,-0.5206193263575435,2.6438673258543015
1761469243318337300,4.405337158203125,-0.08791589160114527,-0.27963819463551043,2.617724584338069
1761469243328320300,4.4153203125,0.1755468287810683,-0.027682372173666953,2.6761019545048472
1761469243338303000,4.425302978515625,0.13347878838032484,0.19411387434601782,2.575301154628396
1761469243348287200,4.435287353515625,-0.05334200634807348,0.5502785515621305,2.3771137472331523
1761469243358270200,4.445270263671875,0.1899754593670368,0.6714326958984136,2.0984289077997205
1761469243368253200,4.455253173828125,0.4355301826149225,0.7968170251503587,1.7170920876652
1761469243378237200,4.4652373046875,0.7299427525341511,0.8977645400211215,1.0667495260685682
1761469243388220200,4.47522021484375,1.0332055683851242,1.0533201356530189,0.46787119424939155
1761469243398203100,4.485203125,1.2911881037905812,1.1520835844829678,-0.022113047608733175
1761469243408187100,4.495187255859375,1.5614944064572454,1.1399050709113479,-0.538990557089448
1761469243418170000,4.505170166015625,1.8212725931078195,0.9647913728505373,-0.983350527369976
1761469243428153300,4.5151533203125,2.072733617790043,0.703651834718883,-1.2646744831353425
1761469243438136000,4.525135986328125,2.410854104271531,0.5201970092922449,-1.5261720409244297
1761469243448120000,4.5351201171875,3.071116002336144,0.13685995525121689,-1.6962971369177102
1761469243458103300,4.545103271484375,3.076381375518441,0.11992255671471357,-1.6583710186272858
1761469243468086300,4.555086181640625,3.2992212858721612,0.1842114890128374,-1.3022563180327416
1761469243478070300,4.5650703125,3.2614374986618757,0.2129913010343909,-0.7861012776076793
1761469243488053000,4.575052978515625,2.8528292252421377,0.36247166840583084,-0.1625438470840454
1761469243498036200,4.5850361328125,2.69909236947,0.4755214167416095,0.3805138133138418
1761469243508020200,4.595020263671875,2.4784631209030747,0.49360652400851246,0.7478028188735246
1761469243518003200,4.605003173828125,1.817388737411797,0.6351157663702964,0.8579694129884242
1761469243527986200,4.614986083984375,1.1336562396496535,0.7530839741468429,0.916616832268238
1761469243537969200,4.62496923828125,0.7265709380134939,0.6349632061570882,0.8480489074766635
1761469243547953200,4.634953125,0.4516638635531068,0.7721972554177046,0.7332511464297771
1761469243557936000,4.64493603515625,0.06311725817024708,0.9215896522447466,0.624077655005455
1761469243567919400,4.65491943359375,0.049317280876636505,1.1172180228069424,0.5399637860357761
1761469243577903400,4.6649033203125,0.4593988417193293,0.9130836897060275,0.45362873388528824
1761469243587886000,4.674885986328125,0.7911755121320485,0.745989339710772,0.26728958519399165
1761469243597869000,4.684869140625,0.7099819145232439,0.613678426066041,0.13412147019803522
1761469243607853000,4.69485302734375,0.269094296528399,0.28694910217076536,0.1045388173609972
1761469243617836300,4.704836181640625,0.28209961631298064,0.16163199293613434,0.11930150220692157
1761469243627819300,4.7148193359375,0.7115285594433546,-0.06727817724198103,0.12917290787994862
1761469243637802200,4.72480224609375,0.8446122110262513,-0.3704436701983213,-0.05408990210592746
1761469243647786200,4.7347861328125,0.48971302370131015,-0.31484424031227826,-0.07920973031520843
1761469243657769200,4.744769287109375,0.917765710042417,-0.36818916926980017,-0.08633972832560538
1761469243667752200,4.754752197265625,1.1312877569526434,-0.464347404037416,-0.23281506866216659
1761469243677736200,4.764736083984375,1.0503381972327828,-0.54779900970608,-0.2986556143164635
1761469243687719200,4.77471923828125,0.8935825781613588,-0.786418965254724,-0.4435422241568565
1761469243697702100,4.7847021484375,0.8550117322266101,-0.9604536359071731,-0.6324006621927023
1761469243707686100,4.79468603515625,0.759620682439208,-1.0538593570962547,-0.699684976914525
1761469243717669400,4.80466943359375,0.5988473521590233,-1.1547069187238812,-0.7137146713107824
1761469243727652000,4.814652099609375,0.4501052359342575,-1.2106184832990168,-0.6041250003010035
1761469243737630700,4.824630615234375,0.3688625384867191,-1.1658011441901326,-0.3775485337674618
1761469243747614700,4.83461474609375,0.2969333205685019,-1.1142486516073344,-0.19579846643209456
1761469243757597400,4.844597412109375,0.30699265002906323,-1.0624033135578035,-0.15179273596704004
1761469243767580400,4.854580322265625,0.24627280838936566,-1.124033548040688,-0.1480395209133625
1761469243777564400,4.864564453125,0.16846330026090145,-1.1827265600278973,-0.21507482931017874
1761469243787547600,4.874547607421875,0.07356207981705665,-1.1975962123796342,-0.3027057664901018
1761469243797530400,4.8845302734375,0.0001727262184023857,-1.2505772764608263,-0.30456513062119484
1761469243807514400,4.894514404296875,-0.11661094794869423,-1.348335932162404,-0.2410708558320999
1761469243817497600,4.90449755859375,-0.39136838480532166,-1.4195967492997645,-0.37140462418496606
1761469243827480600,4.91448046875,0.32929332916438575,-1.2608543403252959,-0.35795126837193963
1761469243837463600,4.924463623046875,0.4404077255234122,-1.189780570192635,-0.3490905010461807
1761469243847447600,4.934447509765625,0.10929331841170788,-1.0425742852330206,-0.26821312977969647
1761469243857430500,4.944430419921875,-0.03346329366266727,-1.0118898086339234,-0.2257470299720764
1761469243867413500,4.95441357421875,-0.09665186350345611,-0.8954518791645765,-0.18789923761487007
1761469243877397500,4.9643974609375,-0.1277969433516264,-0.8448267305597662,-0.12864800722301006
1761469243887380500,4.97438037109375,-0.09034253422617912,-0.7493807357147335,0.00998246483206749
1761469243897363500,4.984363525390625,-0.2772431161925196,-0.692637104229629,0.011213467931747436
1761469243907347500,4.994347412109375,-0.544538838866353,-0.6839566619068383,0.11455693802833557
1761469243917330400,5.004330322265625,-0.6338029302060604,-0.7476236629143357,0.20172785648107527
1761469243927313700,5.014313720703125,-0.7054448556154966,-0.6427393931165337,0.23747546168863773
1761469243937296600,5.024296630859375,-0.6827218594148755,-0.673112319548428,0.23890870936214922
1761469243947280400,5.0342802734375,-0.6854071529760957,-0.7563873996064067,0.16891805829107762
1761469243957263400,5.044263427734375,-0.7541010422348976,-0.9521206918478011,0.10364859052300453
1761469243967246600,5.05424658203125,-0.8170242391377687,-1.0341834735065698,0.10833528703451156
1761469243977230600,5.064230712890625,-0.8537953421741723,-1.062374671985209,0.24220891995131968
1761469243987213600,5.074213623046875,-0.8355173426836728,-1.1423369742333889,0.44758302398025984
1761469243997196500,5.084196533203125,-0.9232418033659457,-1.2219634686559437,0.5417991847693919
1761469244007179500,5.094179443359375,-0.913957257670164,-1.2834119168311358,0.7032119819968938
1761469244017163500,5.10416357421875,-0.7618199460491537,-1.2013073418572544,0.8581272338986397
1761469244027146500,5.114146484375,-1.049565459294617,-1.361099113754183,0.9487333874970674
1761469244037129500,5.12412939453125,-0.584224368044734,-0.8098463103324174,1.1305103428393601
1761469244047113500,5.134113525390625,-0.5812433064073323,-0.6273942322075367,1.3503326589375733
1761469244057096400,5.144096435546875,-0.8027902543410659,-0.6712364426739513,1.530362478351593
1761469244067079400,5.154079345703125,-0.2314776825785637,-0.10351546566262841,1.7753864557236432
1761469244077063700,5.164063720703125,0.27020459585785866,0.0857876474007964,1.867991674184799
1761469244087046700,5.174046630859375,0.4479588715553283,0.20627280643433332,1.9950106189012526
1761469244097029400,5.184029296875,0.941106253619492,0.05552534173652529,1.856436260947585
1761469244107012600,5.1940126953125,1.5335709190040825,0.08422361295446754,1.657932627210021
1761469244116996600,5.20399658203125,1.8807301597267387,0.18620543930903077,1.7343582797646522
1761469244126979600,5.2139794921875,2.230666463947296,0.2231789330497384,1.5929145038545132
1761469244136962300,5.22396240234375,2.501575700943172,0.17988208150640128,1.142144666531682
1761469244146946300,5.2339462890625,2.5434949805229903,0.192666305886209,0.48375499207973477
1761469244156929500,5.243929443359375,2.4517025397494434,0.2888860615827143,-0.051040451407432554
1761469244166912500,5.25391259765625,2.1099831519931556,0.4517302067875862,-0.5322334840446711
1761469244176896500,5.263896484375,1.669298070833087,0.6842340175434947,-0.8801327294796705
1761469244186879500,5.27387939453125,1.2853145355820654,0.9700012164533137,-1.002455625334382
1761469244196862500,5.283862548828125,0.7317787357896566,1.2071098906561732,-1.0712497600972652
1761469244206845400,5.293845458984375,0.34295828190147876,1.50560519984439,-0.9055261139333247
1761469244216829400,5.303829345703125,0.19621289245188234,1.6534955215454101,-0.6199760649055243
1761469244226812700,5.313812744140625,-0.023969489130377768,1.7204500197909771,-0.3892290346890688
1761469244236795400,5.32379541015625,-0.26348084056079385,1.5918511124067007,-0.14754852252602577
1761469244246779400,5.333779296875,-0.37776393008381126,1.3504875572383404,0.1318874275356531
1761469244256762600,5.3437626953125,-0.3649512102618813,1.0200111557692288,0.4206523469567299
1761469244266745600,5.35374560546875,-0.2175777520418167,0.6715554454952478,0.6497638849258422
1761469244276729600,5.3637294921875,-0.03144435505568981,0.4038208930127322,0.8495505442112684
1761469244286712300,5.37371240234375,0.11448796444535254,0.15003887803703544,1.0547703344613313
1761469244296695600,5.383695556640625,0.28314532597362996,-0.016053455308824776,1.1060486862778662
1761469244306678500,5.393678466796875,0.6059110069349408,-0.11484174631908535,1.0778437515348196
1761469244316662500,5.40366259765625,0.806105954760313,-0.1989789961643517,1.0110650482475756
1761469244326645500,5.4136455078125,0.8769391941353678,-0.2842709690026939,0.9186322637438774
1761469244336628500,5.42362841796875,0.9679039519131183,-0.25802944328710437,0.7057166582942008
1761469244346612500,5.433612548828125,1.0812602819800377,-0.2283830775640905,0.4215881665021181
1761469244356595500,5.443595458984375,0.9832686943054199,-0.14724603244811296,0.06688099461793899
1761469244366578700,5.45357861328125,0.7760878331154585,-0.13316314655989409,-0.28290917913019653
1761469244376561400,5.4635615234375,0.618447247903049,-0.294324014852941,-0.5797457613259553
1761469244386545400,5.47354541015625,0.5856009170949459,-0.4191850508831441,-0.8560814072847366
1761469244396528400,5.4835283203125,0.3741571377635002,-0.46911286487355824,-1.119503211134672
1761469244406511600,5.49351171875,0.2667155846983194,-0.5597489752188325,-1.1908955456972121
1761469244416495600,5.50349560546875,0.13865151484310625,-0.6381313147991895,-1.2096937696695327
1761469244426478600,5.513478515625,0.07329086166024208,-0.6261614755421877,-1.1682435689061879
1761469244436461600,5.523461669921875,0.01914133832156658,-0.55006008650586,-1.060336151894927
1761469244446445600,5.533445556640625,-0.26769524338543416,-0.4433429021924734,-0.9481552953481673
1761469244456428500,5.543428466796875,-0.0999766240119934,-0.3393058968737721,-0.8027566443324089
1761469244466411500,5.55341162109375,0.1038239470899105,-0.09278788155168294,-0.669007514578104
1761469244476394500,5.56339453125,-0.17864625610113144,-0.1670472959831357,-0.7741454668760299
1761469244486378500,5.57337841796875,-0.2893321979150176,-0.19925679019242523,-0.8323474804759025
1761469244496361500,5.583361572265625,-0.383503058257699,-0.31921324917674065,-0.8422866906881332
1761469244506344400,5.593344482421875,-0.47821314004361626,-0.4268538319453597,-0.8249912724941968
1761469244516328400,5.603328369140625,-0.4601017292916775,-0.492359738817811,-0.7671013935834169
1761469244526311400,5.6133115234375,-0.38533611890375613,-0.5711310777157544,-0.6938222223609686
1761469244536294400,5.62329443359375,-0.19842939945757387,-0.6126002754405141,-0.6789250974804163
1761469244546277600,5.633277587890625,-0.16757073533535002,-0.768623196323216,-0.6935521732479334
1761469244556261600,5.64326171875,-0.08229074519574642,-0.7927206957474351,-0.708995241573453
1761469244566244600,5.65324462890625,0.12561609218120573,-0.7828864072144031,-0.7314654320567846
1761469244576227300,5.663227294921875,0.181039873239398,-0.79573273704499,-0.7534212432771921
1761469244586211300,5.67321142578125,-0.008491934013366698,-0.7145239418670535,-0.6772989575833082
1761469244596194600,5.683194580078125,0.10553542718291282,-0.558117866885662,-0.5767050784558058
1761469244606177500,5.693177490234375,0.031003625550866123,-0.4105141070410609,-0.47101475297212597
1761469244616161500,5.70316162109375,-0.18437515514194963,-0.2609223882496357,-0.311545491027832
1761469244626144500,5.71314453125,-0.39410891568511724,-0.3381155180454254,-0.23205928185880184
1761469244636127500,5.72312744140625,-0.21814532279670237,-0.34995895444378256,-0.1732137096583843
1761469244646110500,5.7331103515625,-0.1292909813016653,-0.42839346260279415,-0.06244388895332813
1761469244656094500,5.743094482421875,-0.06491466298103332,-0.4454299375995993,0.08151976082324981
1761469244666077700,5.75307763671875,-0.18930092110633848,-0.4378355369478464,0.19851123252213
1761469244676060400,5.763060302734375,-0.3774187699079513,-0.4789378010563552,0.31310031925439835
1761469244686044400,5.77304443359375,-0.5862181722104549,-0.520308652973175,0.28548984327316285
1761469244696027400,5.78302734375,-0.6755301943451166,-0.6941070306517183,0.1725993771523237
1761469244706010600,5.7930107421875,-0.7762871550798416,-0.8100530849508941,-0.028801147070527076
1761469244715993300,5.802993408203125,-0.8550339440584183,-0.8911139960907399,-0.16191022535562513
1761469244725977300,5.812977294921875,-1.114236668908596,-0.9910497035704553,-0.24901976900994777
1761469244735960600,5.822960693359375,-1.2591150954425334,-1.0501777459740638,-0.32491701377630233
1761469244745948200,5.8329482421875,-1.3604349507570266,-1.2160953072749077,-0.34372517462074753
1761469244755932200,5.84293212890625,-1.1302274342447518,-0.9336644131809473,-0.3272054169744253
1761469244765915000,5.852914794921875,-2.0656927593678236,-1.398612705720961,0.0007756605476140976
1761469244775897900,5.86289794921875,-1.8909283131361005,-1.3321530052550137,0.3588379880785942
1761469244785882000,5.872882080078125,-1.362670162463188,-1.0729710309319198,1.0694406648486852
1761469244795865000,5.882864990234375,-1.2700567606955766,-0.8546937523186207,1.8625071052938698
1761469244805848000,5.89284814453125,-0.5460170947253704,-0.26307576689124107,2.4382108977526427
1761469244815831000,5.9028310546875,-0.1719943969964981,0.24523104425147174,2.766277315470576
1761469244825815000,5.91281494140625,-0.28231998106539247,0.38337183309346434,2.865063268393278
1761469244835798000,5.922798095703125,-0.2701730316758156,0.41195100797638295,2.745898544308543
1761469244845781000,5.932781005859375,-0.009921674555540085,0.48943362223803993,2.600112939801812
1761469244855765000,5.942764892578125,0.3057423577070236,0.43952904299274087,2.3373726884752513
1761469244865748000,5.952748046875,0.13664777380526066,0.4163654634177685,1.7657956205576657
1761469244875731000,5.96273095703125,0.5151455711215734,0.7482135916315019,1.1373504179924725
1761469244885714200,5.972714111328125,1.2968740404725074,1.077918424206227,0.7041285123199224
1761469244895698200,5.9826982421875,1.6167501374721527,1.2838118759341537,0.04574292952120304
1761469244905681200,5.99268115234375,1.6759119360148906,1.435379424843192,-0.45875089920461176
1761469244915664000,6.002663818359375,1.6902099259585142,1.3888149498060345,-0.9315846842974423
1761469244925648000,6.01264794921875,1.8463421524345873,1.536998993756622,-1.1062608677238226
1761469244935631000,6.022631103515625,2.1895757441461083,1.2181750361584127,-1.200785656070709
1761469244945614000,6.032614013671875,2.2444027283549306,1.0888961836859583,-1.3216472472012042
1761469244955598000,6.04259814453125,2.3670050256729125,0.7953111506320536,-1.2627625120341777
1761469244965581000,6.0525810546875,2.3663012613177297,0.5294400539338588,-0.9448919096380471
1761469244975564000,6.06256396484375,2.768472779688239,0.6847638866364956,-0.3796721017926931
1761469244985547000,6.072547119140625,2.496539752602577,0.5625298381090164,0.12277297770977019
1761469244995531000,6.082531005859375,2.1914444606274364,0.4281644761525094,0.5066875393778085
1761469245005514000,6.092513916015625,1.9117671030253172,0.3301791720882058,0.6529805088847875
1761469245015497000,6.1024970703125,1.6246119568884372,0.3211962396875024,0.7781751607835292
1761469245025481000,6.11248095703125,1.1770628351777792,0.31492052041888235,0.8797954603493213
1761469245035464000,6.1224638671875,0.7019318790584802,0.33601036245971916,0.8949433451205492
1761469245045447200,6.132447265625,0.2921434559434652,0.3798234929621219,0.9684458037048578
1761469245055430000,6.142429931640625,0.05170213018655777,0.36341420995295043,1.0037602781921624
1761469245065414000,6.152413818359375,-0.07493629077970981,0.2663233705103397,0.9308978710770607
1761469245075397000,6.162397216796875,-0.24493162291347978,0.03575169686079025,0.6386708285033702
1761469245085380000,6.172380126953125,0.368887088406086,0.09063888682425021,0.6366033745795489
1761469245095364000,6.182364013671875,0.5577502026170492,-0.06301993527561425,0.48019174664020536
1761469245105346800,6.192346923828125,0.617865356361866,-0.1897895814061165,0.3936100262522697
1761469245115330000,6.202330078125,0.7796043168038129,-0.299620659956336,0.4210831395894289
1761469245125314000,6.21231396484375,0.803692463877797,-0.43446050755679605,0.42331835129559037
1761469245135297000,6.222297119140625,0.790180655875802,-0.5725863910906016,0.37028409572243687
1761469245145280000,6.232280029296875,0.9346165993392467,-0.6433690693221986,0.33592531452476976
1761469245155263000,6.242262939453125,1.0316922412127256,-0.7545498089157044,0.17829554296731948
1761469245165247000,6.2522470703125,1.0085913516104221,-0.8315978311523795,-0.07307108142971992
1761469245175230000,6.26222998046875,1.0248585958003997,-0.8532426767274737,-0.3585942424505949
1761469245185213200,6.272213134765625,1.1533248167157173,-0.9086622200019657,-0.5879641390949487
1761469245195197200,6.282197265625,1.0927531513750552,-0.8731798416018486,-0.7124848372548818
1761469245205180000,6.292179931640625,0.9557786298334598,-0.8610768774844706,-0.7254226447612047
1761469245215163000,6.302162841796875,1.004158337599039,-0.8412871582567691,-0.5044534967154264
1761469245225146000,6.31214599609375,0.9924106166601181,-0.6957463222913444,-0.2792997564613819
1761469245235130000,6.322130126953125,0.8550801212877035,-0.4964446700438857,-0.09618716860115528
1761469245245112800,6.33211279296875,0.6407435431241989,-0.45807563029155135,-0.005070142871141433
1761469245255096000,6.342095947265625,0.28133272359371186,-0.5365004938393831,-0.08142273018956184
1761469245265080000,6.352080078125,0.20873978106975555,-0.7137015195682644,-0.20622633694410322
1761469245275063000,6.36206298828125,0.1295475864112377,-1.0169044219255448,-0.3085352032959461
1761469245285046000,6.3720458984375,0.05587152482569217,-1.198715864059329,-0.3240817319959402
1761469245295029000,6.382029052734375,-0.012973463341593742,-1.2570058482035993,-0.2977478518217802
1761469245305013000,6.392012939453125,-0.10772563070356846,-1.330648007519543,-0.2287450427442789
1761469245314996000,6.401995849609375,-0.19020809907913208,-1.1667165054693818,-0.16389409264922142
1761469245324979000,6.41197900390625,-0.0017459668844938276,-1.163019404517114,-0.13854162472784518
1761469245334963200,6.421963134765625,0.019576807129383086,-1.0175628858342767,-0.26655250309109685
1761469245344946000,6.43194580078125,-0.1211082593679428,-0.8747928297564387,-0.3579150280147791
1761469245354929000,6.441928955078125,-0.3033493250906467,-0.7989452693507075,-0.34223464380204677
1761469245364912000,6.451912109375,-0.5304395863652229,-0.8327470011875033,-0.30961773783564567
1761469245374896000,6.461896240234375,-0.6328863998830319,-0.9340727017208933,-0.28531507122814653
1761469245384879000,6.471879150390625,-0.6509896273285151,-1.0178986936599015,-0.283195594856143
1761469245394861800,6.48186181640625,-0.5586982971221208,-1.1461197076424956,-0.14166238709688186
1761469245404846000,6.49184619140625,-0.3727273972213268,-1.2199117968231439,0.042236967226862904
1761469245414829000,6.5018291015625,-0.3379197032123804,-1.335640701240301,0.33593291330933567
1761469245424812000,6.51181201171875,-0.34165888974070546,-1.4173314347162842,0.5202426019996405
1761469245434795000,6.521794921875,-0.2077051773250103,-1.404343942849338,0.6573468874007463
1761469245444779000,6.531779052734375,-0.09348609294891357,-1.4019526637986301,0.7193675825059413
1761469245454762000,6.541761962890625,-0.17799626775979996,-1.331935124720633,0.7264706925094128
1761469245464745000,6.551744873046875,-0.3617828093588352,-1.188674654777348,0.7613274863570928
1761469245474729000,6.56172900390625,-0.49617257510423657,-0.9895639950573444,0.7950503077387809
1761469245484712200,6.571712158203125,-0.536448471391201,-0.9413874086484313,0.7575199107676744
1761469245494695000,6.58169482421875,-0.530872132563591,-0.7340013802751898,0.756196553209424
1761469245504678000,6.591677978515625,-0.8349626314103603,-0.6471805904343724,1.0045143114298583
1761469245514662100,6.601662109375,-1.0393225899606942,-0.64601943770051,1.196902677157521
1761469245524645000,6.61164501953125,-1.046525653207302,-0.459170001399517,1.2294757439821957
1761469245534627800,6.6216279296875,-1.1763503029942513,-0.4058431926205754,1.3116741347193717
1761469245544611800,6.63161181640625,-0.8739338748395442,-0.22304946145117283,1.3587152873575687
1761469245554595000,6.641594970703125,-0.6428256100952625,-0.03247662071287632,1.3511059813976287
1761469245564578000,6.651578125,-0.6740373254388571,0.00987958897948265,1.29399702373147
1761469245574562000,6.66156201171875,-0.5451414809346199,-0.1558238911792636,1.2402782930254936
1761469245584545000,6.671544921875,0.2863449987977743,0.3491808096781373,1.485683963191509
1761469245594528000,6.681528076171875,0.8209107251822948,0.49690147390067574,1.5370236898064613
1761469245604511000,6.691510986328125,1.4323217908382415,0.6653454849392175,1.2103799983680248
1761469245614495000,6.701494873046875,1.8564947131365537,0.642649376745522,0.842798147341609
1761469245624478200,6.711478271484375,2.349357140779495,0.5886261101350188,0.4288987817764282
1761469245634461000,6.7214609375,2.6559669289708134,0.5853102635852993,0.0533259319961071
1761469245644444000,6.73144384765625,2.691673617646098,0.6589929010421037,-0.2530541390925646
1761469245654428000,6.741427978515625,2.5036031151175497,0.7805633710943162,-0.38029344856142994
1761469245664411100,6.7514111328125,2.240678154873848,0.8651033565215765,-0.45688452081084246
1761469245674394000,6.76139404296875,1.9072914189159869,0.8776732074983418,-0.475543044051528
1761469245684377900,6.7713779296875,1.4118828139215707,0.945299759786576,-0.3870411692559719
1761469245694361000,6.781361083984375,0.7515057650446891,1.0979973356388508,-0.29409283644557
1761469245704344000,6.791343994140625,0.18655425274670123,1.2541975127846001,-0.12158113757669925
1761469245714328000,6.801328125,-0.19787585722804069,1.4604887316584587,0.017552023303508756
1761469245724311000,6.81131103515625,-0.5722048444271087,1.5707967800706624,0.10345511377751826
1761469245734294000,6.8212939453125,-0.7417939338475465,1.522034064336866,0.14644026902318
1761469245744276700,6.83127685546875,-0.6109025316119193,1.262089581208676,0.17644786927402017
1761469245754260700,6.8412607421875,-0.38950025284588335,0.9726204590409994,0.14005553642213345
1761469245764244000,6.851243896484375,-0.2552934424519539,0.6681741324938834,0.15729717860221862
1761469245774226700,6.861226806640625,-0.18370003235936164,0.4961624921016395,0.30152678583860393
1761469245784209700,6.871209716796875,0.022294833916425703,0.440523753118515,0.5153595061331987
1761469245794193700,6.881193603515625,0.2934159600973129,0.49103287412822244,0.7144622748076915
1761469245804177000,6.891177001953125,0.55978141618371,0.4875564301893115,0.7871896573662758
1761469245814160000,6.901159912109375,0.7260907532811165,0.46657910861223933,0.7670072855591773
1761469245824143600,6.9111435546875,0.6196504862129688,0.4158899548605084,0.6743097126394509
1761469245834126600,6.921126708984375,0.471495814487338,0.3247238292917609,0.46797582366764545
1761469245844109800,6.93110986328125,0.3606991057753563,0.21036562870591877,0.17716040145754813
1761469245854092800,6.9410927734375,0.3240729641675949,0.01831745471805334,-0.17181027260124682
1761469245864076800,6.951076904296875,0.26661796954274175,-0.2049590934872627,-0.5124678763449192
1761469245874059800,6.961059814453125,0.20891747572422026,-0.4532870808407664,-0.8258347375810146
1761469245884042800,6.971042724609375,0.15712649821043015,-0.627087650476396,-1.0266641839176416
1761469245894026800,6.98102685546875,0.0969791957616806,-0.7355503632828593,-1.0765525426805018
1761469245904009700,6.991009765625,0.1065296989172697,-0.8272937042176723,-1.1279396155685186
1761469245913993000,7.000992919921875,0.09323124140501021,-0.8766974943339824,-1.1835597959816455
1761469245923975700,7.0109755859375,0.010597381860017775,-0.87964874535501,-1.126401738476753
1761469245933959700,7.020959716796875,-0.107614571544528,-0.8714394276753068,-1.1394278087884187
1761469245943943000,7.03094287109375,-0.07185878303050995,-0.8397273615941405,-1.2724790194064377
1761469245953926000,7.04092578125,-0.0684013360530138,-0.7488219327881932,-1.2901678208321332
1761469245963910000,7.050909912109375,-0.09150982443988323,-0.6642015756011009,-1.2228308991402388
1761469245973892600,7.060892578125,-0.2110766995847225,-0.5845084456831217,-1.1182488271594047
1761469245983875800,7.070875732421875,-0.4184668196111917,-0.5956327740266919,-1.0668056401699781
1761469245993858800,7.08085888671875,-0.5325906269192695,-0.581007159563899,-1.159664541131258
1761469246003842800,7.0908427734375,-0.6463076069921255,-0.6195689454093575,-1.2839175282657145
1761469246013825500,7.100825439453125,-0.7810591917872428,-0.6338663508310913,-1.400091838362813
1761469246023808800,7.110808837890625,-0.7890086894869804,-0.6581710632652044,-1.565161404532194
1761469246033792800,7.120792724609375,-0.6284972250133752,-0.5814736080318689,-1.619358274143934
1761469246043775700,7.130775634765625,-0.3968529536962509,-0.45828708108514543,-1.4743419004440306
1761469246053759000,7.140759033203125,-0.015441314759850501,-0.3360504022091627,-1.2463999907761811
1761469246063741700,7.15074169921875,0.30593291184306143,-0.2751695247888565,-1.1358341682106257
1761469246073725700,7.1607255859375,0.2739829453527927,-0.19369681797772645,-0.9927262584805489
1761469246083708700,7.170708740234375,0.1171738425284624,-0.07913140438199043,-0.8636059575706719
1761469246093692000,7.18069189453125,-0.05262509025037288,-0.0025800796210765837,-0.7483768193691969
1761469246103676000,7.190676025390625,-0.1143418339729309,0.11782003147751093,-0.5070312382489442
1761469246113658600,7.20065869140625,0.032708675903081894,0.41687370520085093,-0.09575403788089752
1761469246123641900,7.210641845703125,-0.008446925827860831,0.5649623259529472,-0.03877893572747707
1761469246133624800,7.220624755859375,-0.5957739360630512,0.5411027269378305,-0.129478028306365
1761469246143608800,7.23060888671875,-0.8912287085115909,0.30807050839364525,-0.19545418303906917
1761469246153591800,7.240591796875,-0.9768722712665796,0.16407207956463096,-0.18333762878775595
1761469246163574800,7.25057470703125,-1.0516887350589037,-0.06828297037035226,-0.2567044782936573
1761469246173558800,7.260558837890625,-1.2243974178045987,-0.41116000372916456,-0.3521230006098747
1761469246183541800,7.270541748046875,-1.63113405213356,-0.4466638633087277,-0.37839901311695573
1761469246193524700,7.280524658203125,-1.7385294279694556,-0.5480690588191152,-0.12748013248741627
1761469246203507700,7.2905078125,-1.6328829416275024,-0.6003539573296904,0.24762276169359682
1761469246213491700,7.30049169921875,-1.736130550134182,-0.6720028970018029,0.8316577446460723
1761469246223474700,7.310474609375,-1.7026555660337208,-0.7043105908885597,1.3451286605536936
1761469246233458000,7.3204580078125,-1.516255627065897,-0.6038651803210378,1.7229238625586032
1761469246243441000,7.33044091796875,-1.2592056963354348,-0.5698515592992306,1.91150056104362
1761469246253425000,7.3404248046875,-1.4169973804563283,-0.641856765063107,1.9750193857520817
1761469246263407600,7.35040771484375,-1.382293731343746,-0.6509668309748172,1.7506261084765196
1761469246273390800,7.360390869140625,-1.117634494653344,-0.5261325368210673,1.4126537982940672
1761469246283374800,7.370374755859375,-0.5321773699432611,-0.2711076821774244,1.1196785677015781
1761469246293357800,7.38035791015625,-0.07290566173493862,0.1784413811787963,0.9499883559942245
1761469246303340800,7.3903408203125,0.1903939770400524,0.7372676885947584,0.7089315286874771
1761469246313323800,7.40032373046875,0.5090408245056868,1.119792549470067,0.431444959127903
1761469246323307800,7.410307861328125,0.7404787595957517,1.3647951917931436,0.14485563018023967
1761469246333290800,7.420290771484375,0.9448650216311216,1.5900626215547322,-0.047014849153161044
1761469246343274000,7.43027392578125,1.1612070943981407,1.7029267841905353,-0.1012923827856779
1761469246353257700,7.4402578125,1.2690730103552341,1.7665905703276394,-0.05853811368644237
1761469246363240700,7.45024072265625,1.552768371427059,1.5207222510859368,0.029107436540722845
1761469246373223700,7.4602236328125,1.8804969354927539,1.2476356700509785,0.10403495949208735
1761469246383207000,7.47020703125,2.112711115652323,0.9443222930565476,0.1818015052616596
1761469246393191000,7.48019091796875,2.4205121594548222,0.6272261821642517,0.24210253696739673
1761469246403173600,7.490173583984375,2.5921990979373453,0.394683792963624,0.3281862447053194
1761469246413156900,7.500156982421875,2.6439561731815338,0.3057625237122178,0.5225736752957105
1761469246423140900,7.510140869140625,2.6938872020423412,0.25727760200649497,0.7399632112890482
1761469246433123800,7.520123779296875,2.4767419961988923,0.2620385327979922,0.8798264400094747
1761469246443106600,7.5301064453125,2.1319559143483637,0.2787190339639783,1.0532476549386978
1761469246453089800,7.54008984375,1.7235072154045104,0.27904695074409247,1.1684732860088347
1761469246463073800,7.55007373046875,1.166160332891345,0.25090105271190405,1.2111632577002047
1761469246473056800,7.560056884765625,0.8591758661687373,0.14732786551266908,1.2611702744066715
1761469246483039700,7.570039794921875,0.7355524091094732,0.11560118638426065,1.2086989134132862
1761469246493022700,7.580022705078125,0.45811084773540495,0.09250263486951589,1.1683335852771997
1761469246503006700,7.5900068359375,0.0896329246520996,-0.041729894487559795,1.0802736090302467
1761469246512989700,7.59998974609375,-0.14364274725914,-0.14522738610208033,0.9454705863088368
1761469246522973000,7.609972900390625,-0.0063636898130178445,-0.05575140557736158,0.9768243404716253
1761469246532957000,7.61995703125,0.23884207386672496,0.05812777931988239,1.0421101748526096
1761469246542939600,7.629939697265625,0.4144973314583301,0.0190206345513463,1.1216864003926514
1761469246552922600,7.639922607421875,0.6864163300186396,-0.051914896154403686,1.0985510239988565
1761469246562905900,7.64990576171875,1.0177589929282664,-0.31309681212306023,0.9106564625591039
1761469246572889900,7.659889892578125,1.15865390278399,-0.6664341569587587,0.5640004951834678
1761469246582872800,7.669872802734375,1.2270739435374736,-1.043959309850633,0.1293207919180393
1761469246592855800,7.679855712890625,1.2579986586332321,-1.215487842901051,-0.09577624971270561
1761469246602839800,7.68983984375,1.1824328377783297,-1.4871487750470638,-0.32652035731971263
1761469246612822800,7.69982275390625,0.468207878857851,-1.585411580878496,-0.4142728750526905
1761469246622805800,7.7098056640625,0.8603601075172423,-1.0467989171907306,-0.6160024850994348
1761469246632788700,7.719788818359375,0.9789829798102379,-1.542982890471816,-0.31335224818885327
1761469246642772700,7.729772705078125,1.0586252563238143,-1.176606323581934,-0.26293372807204723
1761469246652755700,7.739755615234375,1.174670387083292,-1.058827208636701,-0.34529520041644574
1761469246662738700,7.74973876953125,0.7942115188270806,-0.8325219602599739,-0.2909153754532337
1761469246672722000,7.759721923828125,0.4662082294732332,-0.8852648316711187,-0.03493862691223621
1761469246682706000,7.769705810546875,0.36620647101998327,-1.063381510940194,0.05762333692908287
1761469246692688600,7.779688720703125,0.29411212566792966,-1.1403835020780562,0.029154198291897773
1761469246702672000,7.789671875,0.11585808375477791,-1.0907345050290227,-0.12287994521558283
1761469246712656000,7.79965576171875,0.07406418412029743,-1.2203411281511187,-0.08832651822865009
1761469246722638800,7.809638916015625,-0.03791325880885124,-1.1880652907073497,-0.10727847145795821
1761469246732621600,7.81962158203125,-0.12380407432317733,-1.2458309587165712,-0.19800269847810267
1761469246742601200,7.829601318359375,-0.2477893504321575,-1.2326485287994147,-0.06957505600750447
1761469246752585200,7.839585205078125,0.10681202298998832,-1.1323188535660504,0.11550444801151752
1761469246762568200,7.849568115234375,0.5870446861624717,-1.0582990931093692,0.2638584417015314
1761469246772551400,7.859551513671875,0.4760042318224907,-0.8724535731539129,0.292468450114131
1761469246782534400,7.869534423828125,0.07354103702902794,-0.743363375121355,0.13522913917899132
1761469246792518400,7.879518310546875,-0.33473639700114727,-0.5772486838132143,-0.06464227578043938
1761469246802501000,7.889501220703125,-0.314714184191823,-0.5635501210674643,-0.10094926843643189
1761469246812484400,7.899484375,-0.020073650735616684,-0.6226455763757228,0.07693126398921013
1761469246822468400,7.90946826171875,-0.02250584631860256,-0.6847808377712965,0.3016173867315054
1761469246832451300,7.919451416015625,-0.03509294069111347,-0.6524155684784054,0.45706046189963817
1761469246842434000,7.92943408203125,-0.12339373995661734,-0.6162164201110601,0.5581903475999832
1761469246852417300,7.939417236328125,-0.23032032923698423,-0.5923860471904278,0.6407651704341173
1761469246862401300,7.9494013671875,-0.23138006742298603,-0.573375641772151,0.6054267305493355
1761469246872384300,7.95938427734375,-0.03361351578831673,-0.4956517661005258,0.6315215412706137
1761469246882367500,7.969367431640625,0.027594693890213965,-0.2959033929988742,0.7116916410505771
1761469246892351200,7.979351318359375,-0.10378770673274994,-0.07327157243788242,0.981110639488697
1761469246902334200,7.989334228515625,0.09179799373149872,0.1716460219502449,1.2832143484324217
1761469246912317200,7.999317138671875,0.02127893487215042,0.4269499857962131,1.439032686653733
1761469246922300400,8.009300537109375,-0.18378303446769714,0.4775444470018148,1.5108903006404637
1761469246932284400,8.019284423828125,-0.26447511229515075,0.2795058004274964,1.279215049663186
1761469246942267100,8.02926708984375,-0.033766076001524925,-0.1222539222717285,0.9111322633773088
1761469246952250400,8.03925048828125,0.008946692043542861,-0.42402635343447326,0.5572352388322354
1761469246962233300,8.0492333984375,-0.14900865820646286,-0.5590494486473501,0.335022228205204
1761469246972217300,8.05921728515625,-0.2927192100048065,-0.4974775202229619,0.39006723907887936
1761469246982200000,8.069199951171875,-0.17133330273926256,-0.3317022900022566,0.5764233389049768
1761469246992183300,8.079183349609375,0.20100129577219486,-0.0765348120175302,0.7445528771668672
1761469247002167300,8.089167236328125,0.7210603578984737,0.20760303212478756,0.8104577202290296
1761469247012150300,8.099150390625,1.1444716481745243,0.43785044225603337,0.7954980515062808
1761469247022133200,8.10913330078125,1.4692717575728893,0.655771600908041,0.8010399035423994
1761469247032116200,8.1191162109375,1.6436889978021383,0.8115330943755805,0.7934580701112747
1761469247042100200,8.129100341796875,1.6151052928745746,0.8154704338245093,0.6858171950817108
1761469247052083200,8.139083251953124,1.541903278541565,0.8085143310762941,0.4727537055939436
1761469247062066400,8.14906640625,1.5900982773900032,0.8188741047881544,0.2833960858643055
1761469247072049400,8.15904931640625,1.5771464413583278,0.8889211622215807,0.1079500871092081
1761469247082033200,8.169033203125,1.5050386520028114,0.9742064130581914,-0.07520984702408313
1761469247092016000,8.17901611328125,1.4974457126557825,1.1017981892265378,-0.2388052489876747
1761469247101999400,8.188999267578126,1.2462649662196637,1.2806933055222034,-0.2853419592350721
1761469247111983400,8.1989833984375,0.7484557298243045,1.468032717297226,-0.18057459381520746
1761469247121966300,8.20896630859375,-0.026196517530083653,1.6815515493370592,0.022990999487042425
1761469247131949300,8.21894921875,-0.6847066034913063,1.7833040969803928,0.2155821943104267
1761469247141932300,8.228932373046876,-1.011238066726923,1.6860685883700846,0.24018062899410722
1761469247151916300,8.238916259765626,-0.902392492082715,1.357081694806367,0.10723229422867298
1761469247161899300,8.248899169921875,-0.5440946022301912,1.0215792818687857,-0.046015316721796984
1761469247171882200,8.25888232421875,-0.14716975234150886,0.7657211912713945,-0.12721417502760887
1761469247181865200,8.268865234375,0.08493103057146072,0.5994925181947648,-0.15045359631776808
1761469247191849200,8.27884912109375,0.3033960868418217,0.5234443206503987,-0.1206295359402895
1761469247201832200,8.288832275390625,0.4826970074594021,0.46941740077808497,-0.10690320840477943
1761469247211815400,8.2988154296875,0.7470891176462173,0.46487829604372377,-0.02639759306013584
1761469247221799400,8.30879931640625,1.0024468575060368,0.4335555215410888,0.06946925754547119
1761469247231782100,8.3187822265625,1.1768921547859907,0.4473685044467449,-0.07018646590411663
1761469247241765400,8.328765380859375,0.7315250532895327,0.2374259234584868,-0.21081308021247386
1761469247251748400,8.338748291015625,-0.6015712241649628,0.2651882290005684,-0.08487024029493331
1761469247261732400,8.348732421875,-0.3455833697080612,0.09184636291787028,-0.27899229794740676
1761469247271715000,8.358715087890625,-0.004737549915909767,-0.02640636088848114,-0.5545353322237729
1761469247281698300,8.3686982421875,-0.04676642735004425,-0.07312953361868858,-0.7181441781908273
1761469247291681300,8.378681396484374,0.13247370299100875,-0.05835822707489133,-0.8373065641880035
1761469247301665300,8.388665283203125,0.3172615305870771,0.06808715553730726,-0.9551181200981139
1761469247311648300,8.398648193359374,0.3962415437996387,0.08983078531175852,-0.9338204805254936
