time,seconds_elapsed,z,y,x
1761469080128033500,0.115033447265625,-0.025067787617444992,0.5235435366630554,0.04703749343752861
1761469080138016500,0.1250166015625,-0.04127304628491402,0.5236396789550781,0.040245652198791504
1761469080147999500,0.13499951171875,-0.03257356584072113,0.5126320123672485,0.0337643176317215
1761469080157982500,0.144982421875,-0.022280123084783554,0.4897577166557312,0.04441121593117714
1761469080167965700,0.154965576171875,-0.016982831060886383,0.47221070528030396,0.06330980360507965
1761469080177948400,0.164948486328125,-0.016857795417308807,0.4705969989299774,0.06919768452644348
1761469080187931600,0.174931640625,-0.022094901651144028,0.4631640911102295,0.06783068180084229
1761469080197914600,0.18491455078125,-0.03550717979669571,0.4457290470600128,0.06237455829977989
1761469080207897600,0.194897705078125,-0.053765542805194855,0.4337267279624939,0.04020000994205475
1761469080217879600,0.204879638671875,-0.07178988307714462,0.41582730412483215,0.021081391721963882
1761469080227862500,0.214862548828125,-0.08956142514944077,0.39553776383399963,0.011987229809165001
1761469080237845800,0.224845703125,-0.12439876049757004,0.40190955996513367,0.006921578198671341
1761469080247828500,0.234828369140625,-0.16843785345554352,0.41621020436286926,0.012321935966610909
1761469080257811500,0.2448115234375,-0.21246130764484406,0.4396856725215912,0.03051608055830002
1761469080267794700,0.254794677734375,-0.24679133296012878,0.4516347348690033,0.061842042952775955
1761469080277777700,0.264777587890625,-0.25829586386680603,0.43792563676834106,0.09823234379291534
1761469080287760400,0.274760498046875,-0.25122594833374023,0.38673168420791626,0.14202377200126648
1761469080297743600,0.28474365234375,-0.24164701998233795,0.3077056407928467,0.18978044390678406
1761469080307726600,0.2947265625,-0.22344325482845306,0.23236136138439178,0.23473645746707916
1761469080317708500,0.30470849609375,-0.21228620409965515,0.20240110158920288,0.2725461721420288
1761469080327691500,0.31469140625,-0.21267449855804443,0.1985349804162979,0.2850143015384674
1761469080337674500,0.324674560546875,-0.21606922149658203,0.19622571766376495,0.2757328748703003
1761469080347657700,0.33465771484375,-0.21613474190235138,0.19594448804855347,0.27577975392341614
1761469080357640400,0.344640380859375,-0.23482061922550201,0.19583791494369507,0.27827587723731995
1761469080367623700,0.354623779296875,-0.24506181478500366,0.20865118503570557,0.28219181299209595
1761469080377606700,0.364606689453125,-0.2484114021062851,0.24980220198631287,0.29993361234664917
1761469080387589400,0.37458935546875,-0.25689035654067993,0.32169610261917114,0.32519447803497314
1761469080397572600,0.384572509765625,-0.27986714243888855,0.4059121310710907,0.3498545289039612
1761469080407555600,0.3945556640625,-0.3030656576156616,0.4619242548942566,0.3563281297683716
1761469080417538600,0.40453857421875,-0.3289589583873749,0.486533522605896,0.36565646529197693
1761469080427520500,0.4145205078125,-0.34207528829574585,0.5011281967163086,0.3760172128677368
1761469080437503500,0.42450341796875,-0.33604896068573,0.5100550055503845,0.37962329387664795
1761469080447486700,0.43448681640625,-0.33043503761291504,0.4960364103317261,0.38919204473495483
1761469080457469400,0.444469482421875,-0.31116440892219543,0.4786669611930847,0.40072882175445557
1761469080467452400,0.454452392578125,-0.2926349341869354,0.4636951982975006,0.4306132197380066
1761469080477435600,0.464435546875,-0.2777363359928131,0.453855961561203,0.4617355167865753
1761469080487418600,0.474418701171875,-0.25201284885406494,0.45276939868927,0.4926060736179352
1761469080497401600,0.484401611328125,-0.24303805828094482,0.4250015616416931,0.5237359404563904
1761469080507384600,0.494384521484375,-0.22431524097919464,0.3811691403388977,0.5507033467292786
1761469080517367600,0.504367431640625,-0.2080824077129364,0.3246487081050873,0.5616828799247742
1761469080527350800,0.514350830078125,-0.18261779844760895,0.28763261437416077,0.5854225754737854
1761469080537332500,0.52433251953125,-0.21223001182079315,0.25151026248931885,0.6132451295852661
1761469080547315700,0.534315673828125,-0.23766186833381653,0.22282403707504272,0.6250019073486328
1761469080557298700,0.544298583984375,-0.2690712809562683,0.20556432008743286,0.6513445377349854
1761469080567281400,0.554281494140625,-0.2956538796424866,0.18125951290130615,0.680442214012146
1761469080577266700,0.5642666015625,-0.31090179085731506,0.17322874069213867,0.6867664456367493
1761469080587249700,0.574249755859375,-0.33050212264060974,0.1478232592344284,0.6744540929794312
1761469080597232600,0.584232666015625,-0.31648460030555725,0.12099162489175797,0.6520066261291504
1761469080607215600,0.594215576171875,-0.29687440395355225,0.05308448523283005,0.6619596481323242
1761469080617198600,0.604198486328125,-0.2712162435054779,0.045139409601688385,0.6646046042442322
1761469080627181800,0.614181884765625,-0.23072552680969238,0.12572214007377625,0.626215398311615
1761469080637164500,0.62416455078125,-0.19145071506500244,0.20812879502773285,0.534859299659729
1761469080647146800,0.634146728515625,-0.154799222946167,0.232047438621521,0.42314237356185913
1761469080657129700,0.644129638671875,-0.16580845415592194,0.1965668797492981,0.3439713418483734
1761469080667112700,0.65411279296875,-0.20915885269641876,0.1585976630449295,0.2938748896121979
1761469080677095700,0.664095703125,-0.2781939208507538,0.17819471657276154,0.22306083142757416
1761469080687078700,0.67407861328125,-0.35276588797569275,0.2878354787826538,0.1209685355424881
1761469080697062000,0.684061767578125,-0.4051719009876251,0.4651987552642822,0.044035617262125015
1761469080707044600,0.694044677734375,-0.4427456557750702,0.6553953289985657,0.026086710393428802
1761469080717027600,0.704027587890625,-0.45973920822143555,0.7560144066810608,0.05777518451213837
1761469080727010800,0.7140107421875,-0.4515500068664551,0.7492159008979797,0.10103663802146912
1761469080736993800,0.723993896484375,-0.4252457022666931,0.6820192337036133,0.16152715682983398
1761469080746976500,0.7339765625,-0.388719379901886,0.5572131276130676,0.22251753509044647
1761469080756959700,0.743959716796875,-0.33792388439178467,0.3567708134651184,0.25482481718063354
1761469080766941700,0.753941650390625,-0.28524044156074524,0.1649763435125351,0.24616581201553345
1761469080776924700,0.763924560546875,-0.2353706955909729,0.06334870308637619,0.21102160215377808
1761469080786907600,0.77390771484375,-0.19448184967041016,0.02616484835743904,0.1738888919353485
1761469080796890600,0.783890625,-0.15746662020683289,0.02026239223778248,0.15109026432037354
1761469080806873900,0.793873779296875,-0.13887642323970795,0.018119879066944122,0.14704705774784088
1761469080816856600,0.803856689453125,-0.1526777297258377,0.016120383515954018,0.14986015856266022
1761469080826839800,0.81383984375,-0.17681927978992462,0.03063248284161091,0.14381079375743866
1761469080836822800,0.82382275390625,-0.21718375384807587,0.06717025488615036,0.11568035930395126
1761469080846805800,0.8338056640625,-0.26238399744033813,0.11000720411539078,0.08074554800987244
1761469080856788700,0.843788818359375,-0.29781439900398254,0.13762150704860687,0.026058046147227287
1761469080866771700,0.853771728515625,-0.32696402072906494,0.1542833149433136,-0.033943768590688705
1761469080876754000,0.86375390625,-0.3433489501476288,0.16379660367965698,-0.08143410831689835
1761469080886736600,0.873736572265625,-0.34304988384246826,0.15463480353355408,-0.13029804825782776
1761469080896719600,0.8837197265625,-0.32857438921928406,0.10311845690011978,-0.18414278328418732
1761469080906702800,0.893702880859375,-0.3070874810218811,0.06871920824050903,-0.21598300337791443
1761469080916685600,0.903685546875,-0.2883400321006775,0.05897858738899231,-0.22664640843868256
1761469080926668500,0.91366845703125,-0.26137977838516235,0.04615466669201851,-0.23674511909484863
1761469080936651800,0.92365185546875,-0.22872968018054962,0.03909752890467644,-0.24419482052326202
1761469080946634800,0.933634765625,-0.19698825478553772,0.01458712574094534,-0.24646969139575958
1761469080956617500,0.943617431640625,-0.16681519150733948,-0.022843053564429283,-0.2450113147497177
1761469080966600700,0.9536005859375,-0.14214792847633362,-0.06602008640766144,-0.24837276339530945
1761469080976583700,0.963583740234375,-0.13356463611125946,-0.11034765094518661,-0.2573047876358032
1761469080986566700,0.973566650390625,-0.11581040918827057,-0.13550306856632233,-0.2743293344974518
1761469080996549600,0.983549560546875,-0.11152143031358719,-0.1502389758825302,-0.29231855273246765
1761469081006531800,0.99353173828125,-0.10105574131011963,-0.1658480316400528,-0.3260352313518524
1761469081016514800,1.003514892578125,-0.08572399616241455,-0.20197813212871552,-0.3503621816635132
1761469081026497500,1.01349755859375,-0.038084037601947784,-0.20730605721473694,-0.3628436028957367
1761469081036480800,1.023480712890625,0.01061658188700676,-0.16395063698291779,-0.34913480281829834
1761469081046463700,1.033463623046875,0.069350466132164,-0.10405401885509491,-0.3201316297054291
1761469081056446700,1.04344677734375,0.12065459787845612,-0.05195648968219757,-0.29230695962905884
1761469081066429700,1.0534296875,0.1693885773420334,0.000044925371184945107,-0.25970640778541565
1761469081076412700,1.06341259765625,0.202640101313591,0.03844664990901947,-0.22469462454319
1761469081086395600,1.073395751953125,0.22634249925613403,0.0274328775703907,-0.19080643355846405
1761469081096379000,1.08337890625,0.23942075669765472,-0.022758912295103073,-0.1712854504585266
1761469081106361600,1.093361572265625,0.2411230355501175,-0.09047430753707886,-0.16541291773319244
1761469081116344600,1.103344482421875,0.2259482741355896,-0.14795497059822083,-0.1702415496110916
1761469081126326800,1.113326904296875,0.1982458084821701,-0.1717660278081894,-0.18231578171253204
1761469081136309500,1.1233095703125,0.16055887937545776,-0.1930508017539978,-0.19636394083499908
1761469081146292700,1.133292724609375,0.12777376174926758,-0.2151118963956833,-0.19686594605445862
1761469081156275700,1.143275634765625,0.10793815553188324,-0.2186921387910843,-0.1706627458333969
1761469081166258700,1.1532587890625,0.09316453337669373,-0.20152594149112701,-0.12621964514255524
1761469081176241700,1.16324169921875,0.08667148649692535,-0.18201109766960144,-0.09692887216806412
1761469081186224600,1.173224609375,0.08714952319860458,-0.17933034896850586,-0.07401157170534134
1761469081196207900,1.183207763671875,0.09715540707111359,-0.18289458751678467,-0.04814653843641281
1761469081206190600,1.193190673828125,0.10017543286085129,-0.20192714035511017,-0.027362698689103127
1761469081216173600,1.203173583984375,0.09688443690538406,-0.237467423081398,-0.012900009751319885
1761469081226156800,1.21315673828125,0.0922502726316452,-0.2547697126865387,-0.007569959387183189
1761469081236139800,1.223139892578125,0.09814483672380447,-0.2603674530982971,-0.043122947216033936
1761469081246121700,1.233121826171875,0.11839551478624344,-0.28674420714378357,-0.13086532056331635
1761469081256104700,1.243104736328125,0.1393509954214096,-0.3623834550380707,-0.2429853230714798
1761469081266087700,1.253087646484375,0.17512737214565277,-0.45069894194602966,-0.34698817133903503
1761469081276070700,1.263070556640625,0.24399159848690033,-0.502765953540802,-0.3680192232131958
1761469081286053600,1.2730537109375,0.3305206298828125,-0.5005989074707031,-0.3320031762123108
1761469081296036600,1.28303662109375,0.38637134432792664,-0.47506558895111084,-0.3193366229534149
1761469081306019800,1.293019775390625,0.41699904203414917,-0.4274466633796692,-0.3493315279483795
1761469081316002600,1.30300244140625,0.42708393931388855,-0.3842600882053375,-0.39362233877182007
1761469081325985800,1.31298583984375,0.4097667336463928,-0.3598412871360779,-0.4551898241043091
1761469081335968800,1.32296875,0.3858378529548645,-0.35570570826530457,-0.5309698581695557
1761469081345951700,1.33295166015625,0.3668425977230072,-0.3383890390396118,-0.5988940000534058
1761469081355934700,1.342934814453125,0.3570305109024048,-0.332304447889328,-0.6506187319755554
1761469081365917700,1.352917724609375,0.3600984811782837,-0.3319196105003357,-0.6857039928436279
1761469081375900700,1.362900634765625,0.3659410774707794,-0.31783562898635864,-0.7016494870185852
1761469081385882600,1.372882568359375,0.3669551908969879,-0.27963632345199585,-0.6904879212379456
1761469081395865600,1.382865478515625,0.3578527867794037,-0.2301180362701416,-0.6776371598243713
1761469081405848800,1.392848876953125,0.34422963857650757,-0.19011415541172028,-0.6637485027313232
1761469081415831800,1.402831787109375,0.32385486364364624,-0.18163464963436127,-0.6633188724517822
1761469081425814500,1.412814453125,0.3377413749694824,-0.16317814588546753,-0.6548068523406982
1761469081435797800,1.4227978515625,0.35651108622550964,-0.14641806483268738,-0.6179577708244324
1761469081445780700,1.43278076171875,0.36596769094467163,-0.1743149310350418,-0.5660120248794556
1761469081455763500,1.442763427734375,0.37274134159088135,-0.24727077782154083,-0.5248000621795654
1761469081465746700,1.45274658203125,0.39129477739334106,-0.32289284467697144,-0.4984337091445923
1761469081475729700,1.462729736328125,0.4227276146411896,-0.3643012046813965,-0.47426360845565796
1761469081485712600,1.472712646484375,0.46188297867774963,-0.37993180751800537,-0.4380294382572174
1761469081495695600,1.482695556640625,0.4941788911819458,-0.36851856112480164,-0.40152814984321594
1761469081505678600,1.4926787109375,0.5151228308677673,-0.3456729054450989,-0.38293662667274475
1761469081515660800,1.502660888671875,0.5314459204673767,-0.3010645806789398,-0.3864944577217102
1761469081525643500,1.5126435546875,0.5262773036956787,-0.25227734446525574,-0.4172065556049347
1761469081535626800,1.522626708984375,0.5112647414207458,-0.21555720269680023,-0.46737179160118103
1761469081545609700,1.532609619140625,0.48732662200927734,-0.1953217089176178,-0.5167518258094788
1761469081555592700,1.5425927734375,0.4563359022140503,-0.1760905534029007,-0.553329348564148
1761469081565575700,1.55257568359375,0.4149831235408783,-0.14535874128341675,-0.5820510387420654
1761469081575552300,1.56255224609375,0.3806583285331726,-0.11205311119556427,-0.5959406495094299
1761469081585535200,1.57253515625,0.3533705174922943,-0.11147654056549072,-0.6010158061981201
1761469081595518500,1.5825185546875,0.34904664754867554,-0.13417139649391174,-0.5935455560684204
1761469081605501200,1.592501220703125,0.36067748069763184,-0.15718936920166016,-0.5676737427711487
1761469081615484200,1.602484130859375,0.3729740381240845,-0.15842780470848083,-0.5374097228050232
1761469081625467400,1.61246728515625,0.38466185331344604,-0.1531321108341217,-0.5056650638580322
1761469081635450400,1.622450439453125,0.39365875720977783,-0.1559697389602661,-0.4874137341976166
1761469081645433000,1.63243310546875,0.39582550525665283,-0.18604615330696106,-0.48697057366371155
1761469081655415300,1.642415283203125,0.3951129615306854,-0.20289666950702667,-0.4860539734363556
1761469081665398300,1.652398193359375,0.3862161338329315,-0.1925036758184433,-0.4756985604763031
1761469081675381200,1.66238134765625,0.3729628622531891,-0.15800143778324127,-0.4667171239852905
1761469081685364200,1.6723642578125,0.3568374216556549,-0.10518987476825714,-0.4644968509674072
1761469081695347200,1.68234716796875,0.3373411297798157,-0.06087601184844971,-0.46393415331840515
1761469081705330400,1.692330322265625,0.31868621706962585,-0.03695416823029518,-0.4542008340358734
1761469081715313200,1.702313232421875,0.300030916929245,-0.032138239592313766,-0.43106716871261597
1761469081725296400,1.71229638671875,0.2812739908695221,-0.06845790147781372,-0.40577805042266846
1761469081735279400,1.722279296875,0.26459649205207825,-0.13339188694953918,-0.37956884503364563
1761469081745262300,1.732262451171875,0.24121154844760895,-0.21408246457576752,-0.3497377038002014
1761469081755245300,1.742245361328125,0.22561772167682648,-0.2759082019329071,-0.3108650743961334
1761469081765228300,1.752228271484375,0.20470605790615082,-0.2866593897342682,-0.2469864934682846
1761469081775211300,1.762211181640625,0.19104571640491486,-0.25509849190711975,-0.17603422701358795
1761469081785194200,1.7721943359375,0.17454344034194946,-0.2046709954738617,-0.12664110958576202
1761469081795177200,1.78217724609375,0.15991418063640594,-0.15178939700126648,-0.0942767933011055
1761469081805159400,1.792159423828125,0.15147408843040466,-0.13487966358661652,-0.08469074964523315
1761469081815142400,1.802142333984375,0.13896745443344116,-0.13187815248966217,-0.08322931081056595
1761469081825125000,1.812125,0.11626879870891571,-0.13664494454860687,-0.09369447082281113
1761469081835108400,1.8221083984375,0.08422864973545074,-0.1444854885339737,-0.10810691118240356
1761469081845091300,1.83209130859375,0.04917745664715767,-0.13778923451900482,-0.11841440945863724
1761469081855074000,1.842073974609375,0.018456948921084404,-0.15791009366512299,-0.10814671218395233
1761469081865057300,1.852057373046875,0.00719550671055913,-0.20091481506824493,-0.0838371068239212
1761469081875040300,1.862040283203125,0.01752493903040886,-0.2687009572982788,-0.04269815608859062
1761469081885023200,1.872023193359375,0.04526868462562561,-0.33802518248558044,0.016683679074048996
1761469081895006200,1.882006103515625,0.08052398264408112,-0.3824779987335205,0.07712028175592422
1761469081904989200,1.8919892578125,0.11941225826740265,-0.39554721117019653,0.11716916412115097
1761469081914972400,1.901972412109375,0.15335027873516083,-0.3274155557155609,0.12413915991783142
1761469081924955400,1.911955322265625,0.17290908098220825,-0.19921816885471344,0.1091916412115097
1761469081934938000,1.921938232421875,0.1760411411523819,-0.08910024911165237,0.1034330204129219
1761469081944921300,1.93192138671875,0.19096949696540833,-0.09549183398485184,0.15185460448265076
1761469081954903300,1.9419033203125,0.20219063758850098,-0.20776145160198212,0.2879335582256317
1761469081964886300,1.95188623046875,0.21098652482032776,-0.3361801505088806,0.47330501675605774
1761469081974869200,1.961869140625,0.20843404531478882,-0.4348338842391968,0.616283118724823
1761469081984852200,1.971852294921875,0.16241781413555145,-0.47472724318504333,0.6722550392150879
1761469081994835500,1.98183544921875,0.09771086275577545,-0.4338845908641815,0.6580151915550232
1761469082004818200,1.991818115234375,0.009443849325180054,-0.39708927273750305,0.602294385433197
1761469082014801200,2.00180126953125,-0.08445083349943161,-0.35335633158683777,0.523875892162323
1761469082024784400,2.011784423828125,-0.15227170288562775,-0.30370277166366577,0.4365604519844055
1761469082034767400,2.021767333984375,-0.20414987206459045,-0.21222271025180817,0.34835943579673767
1761469082044750300,2.031750244140625,-0.23172104358673096,-0.07838981598615646,0.2658323347568512
1761469082054733300,2.0417333984375,-0.22470606863498688,0.06049557775259018,0.17966912686824799
1761469082064716300,2.05171630859375,-0.21047092974185944,0.21372881531715393,0.10971933603286743
1761469082074699300,2.06169921875,-0.19247005879878998,0.33406007289886475,0.07666134834289551
1761469082084682200,2.07168212890625,-0.18141154944896698,0.3978118896484375,0.06558472663164139
1761469082094665200,2.081665283203125,-0.17547787725925446,0.3700818419456482,0.08497638255357742
1761469082104648400,2.0916484375,-0.1567678451538086,0.26758208870887756,0.1207389086484909
1761469082114630100,2.101630126953125,-0.1582978218793869,0.11238133907318115,0.1330198049545288
1761469082124613400,2.11161328125,-0.14566591382026672,-0.05779758095741272,0.11489991843700409
1761469082134596400,2.121596435546875,-0.13325083255767822,-0.19816672801971436,0.0887601226568222
1761469082144579000,2.1315791015625,-0.13428281247615814,-0.2836179733276367,0.07814609259366989
1761469082154562300,2.141562255859375,-0.17256249487400055,-0.3246769607067108,0.08491964638233185
1761469082164545300,2.151545166015625,-0.20984461903572083,-0.3266969621181488,0.08710797131061554
1761469082174528300,2.1615283203125,-0.24583646655082703,-0.30986925959587097,0.0759890154004097
1761469082184511200,2.17151123046875,-0.29679951071739197,-0.2915214002132416,0.05054944008588791
1761469082194494200,2.181494140625,-0.32908859848976135,-0.25549376010894775,0.00969375018030405
1761469082204477200,2.191477294921875,-0.3430401086807251,-0.18992407619953156,-0.047354888170957565
1761469082214460400,2.20146044921875,-0.3471151888370514,-0.13155867159366608,-0.1056104227900505
1761469082224443100,2.211443115234375,-0.31646060943603516,-0.07565385848283768,-0.1617860645055771
1761469082234426400,2.22142626953125,-0.27749553322792053,-0.04146729037165642,-0.21118542551994324
1761469082244409300,2.231409423828125,-0.2305101752281189,-0.037648316472768784,-0.24581770598888397
1761469082254392300,2.241392333984375,-0.17797411978244781,-0.05835530906915665,-0.2556198835372925
1761469082264375300,2.251375244140625,-0.13202287256717682,-0.07780490815639496,-0.24474141001701355
1761469082274358300,2.261358154296875,-0.09922643005847931,-0.08212974667549133,-0.22981666028499603
1761469082284340500,2.271340576171875,-0.07216445356607437,-0.07702526450157166,-0.20946824550628662
1761469082294323200,2.2813232421875,-0.05617529898881912,-0.0965174064040184,-0.20266512036323547
1761469082304306200,2.29130615234375,-0.055759843438863754,-0.1499878168106079,-0.20372027158737183
1761469082314289400,2.301289306640625,-0.06921552121639252,-0.19431699812412262,-0.21356792747974396
1761469082324272400,2.3112724609375,-0.08542511612176895,-0.19469596445560455,-0.2225198745727539
1761469082334255000,2.321255126953125,-0.08905528485774994,-0.15660449862480164,-0.2234913855791092
1761469082344238300,2.33123828125,-0.08762861788272858,-0.12305453419685364,-0.23000334203243256
1761469082354221300,2.34122119140625,-0.07663179934024811,-0.0866364911198616,-0.22253525257110596
1761469082364204300,2.351204345703125,-0.05722321569919586,-0.07581580430269241,-0.1889229714870453
1761469082374187300,2.361187255859375,-0.029151249676942825,-0.10779812932014465,-0.15105080604553223
1761469082384170200,2.371170166015625,0.012023881077766418,-0.14886541664600372,-0.11508402228355408
1761469082394153500,2.381153564453125,0.061983074992895126,-0.1916009932756424,-0.09942761063575745
1761469082404136200,2.39113623046875,0.10926856845617294,-0.22968871891498566,-0.09799616038799286
1761469082414119200,2.401119140625,0.14706099033355713,-0.28197163343429565,-0.11416769027709961
1761469082424102400,2.411102294921875,0.18242110311985016,-0.30655738711357117,-0.11947270482778549
1761469082434085400,2.42108544921875,0.20945237576961517,-0.32906782627105713,-0.11193282902240753
1761469082444068000,2.431068115234375,0.24319995939731598,-0.335911363363266,-0.10652182251214981
1761469082454051300,2.44105126953125,0.28468555212020874,-0.3628665804862976,-0.12775687873363495
1761469082464034300,2.451034423828125,0.3161103427410126,-0.3999125063419342,-0.1497063785791397
1761469082474016300,2.461016357421875,0.3326476216316223,-0.44105711579322815,-0.15409831702709198
1761469082483999200,2.470999267578125,0.3461375832557678,-0.4468604028224945,-0.13326388597488403
1761469082493982200,2.480982177734375,0.3385768234729767,-0.4348863959312439,-0.10029428452253342
1761469082503965400,2.49096533203125,0.3153657615184784,-0.4028767943382263,-0.09620100259780884
1761469082513948200,2.5009482421875,0.2867175042629242,-0.33671361207962036,-0.11690828204154968
1761469082523931400,2.510931396484375,0.2612358331680298,-0.2648972272872925,-0.1283865123987198
1761469082533914400,2.520914306640625,0.2380361109972,-0.23653146624565125,-0.1478423774242401
1761469082543897300,2.5308974609375,0.226681187748909,-0.267410010099411,-0.16213449835777283
1761469082553880300,2.54088037109375,0.22150646150112152,-0.29737988114356995,-0.1472340226173401
1761469082563863300,2.55086328125,0.21229538321495056,-0.30809324979782104,-0.1075127124786377
1761469082573846300,2.56084619140625,0.1955466866493225,-0.280768483877182,-0.06137538328766823
1761469082583829000,2.5708291015625,0.15647917985916138,-0.1834794580936432,-0.03826047480106354
1761469082593812000,2.58081201171875,0.09968122839927673,-0.08006937056779861,-0.05495870113372803
1761469082603794700,2.590794677734375,0.025212319567799568,-0.08278073370456696,-0.08885994553565979
1761469082613778000,2.60077783203125,-0.03558439761400223,-0.19625262916088104,-0.10949467122554779
1761469082623761000,2.610760986328125,-0.054580725729465485,-0.3376523554325104,-0.07024899870157242
1761469082633744100,2.620744140625,-0.0428927056491375,-0.4093939960002899,-0.01467865239828825
1761469082643726800,2.630726806640625,-0.015218735672533512,-0.425268292427063,0.004154689610004425
1761469082653709800,2.640709716796875,0.0283197034150362,-0.3745843470096588,-0.020759722217917442
1761469082663692000,2.650692138671875,0.08675744384527206,-0.2973281741142273,-0.08906340599060059
1761469082673674800,2.6606748046875,0.15932786464691162,-0.23225829005241394,-0.19034069776535034
1761469082683658000,2.670657958984375,0.22031505405902863,-0.2208849936723709,-0.2884105443954468
1761469082693641000,2.680640869140625,0.2812279760837555,-0.2494015395641327,-0.3534563183784485
1761469082703624000,2.6906240234375,0.3255603015422821,-0.30977511405944824,-0.40264517068862915
1761469082713607000,2.70060693359375,0.34255120158195496,-0.35640445351600647,-0.4487874209880829
1761469082723590000,2.71058984375,0.33636975288391113,-0.33392125368118286,-0.4835890829563141
1761469082733572900,2.72057275390625,0.3208116590976715,-0.2201027125120163,-0.5000949501991272
1761469082743555800,2.730555908203125,0.29922300577163696,-0.06089761108160019,-0.49776867032051086
1761469082753538800,2.740538818359375,0.2714157998561859,0.09357818216085434,-0.47775334119796753
1761469082763521800,2.750521728515625,0.24078679084777832,0.19612853229045868,-0.46117594838142395
1761469082773505000,2.760505126953125,0.20866012573242188,0.25027337670326233,-0.4601803123950958
1761469082783487700,2.77048779296875,0.19107554852962494,0.24246712028980255,-0.47470173239707947
1761469082793471000,2.780470947265625,0.18039482831954956,0.20770874619483948,-0.4736911952495575
1761469082803454000,2.790453857421875,0.18062251806259155,0.1507357507944107,-0.4408978521823883
1761469082813437000,2.80043701171875,0.19617924094200134,0.10867098718881607,-0.3650095760822296
1761469082823420000,2.810419921875,0.20877042412757874,0.059191588312387466,-0.2818760871887207
1761469082833403000,2.82040283203125,0.2287447452545166,0.03498192876577377,-0.21375654637813568
1761469082843385900,2.8303857421875,0.27202269434928894,0.027534134685993195,-0.1856607347726822
1761469082853369000,2.840369140625,0.3218895494937897,0.02128203772008419,-0.19821999967098236
1761469082863351800,2.850351806640625,0.37743881344795227,0.01508033461868763,-0.2190413922071457
1761469082873334800,2.860334716796875,0.42631953954696655,0.011189978569746017,-0.24805545806884766
1761469082883318000,2.870318115234375,0.4657846689224243,0.02028600499033928,-0.27933987975120544
1761469082893299700,2.8802998046875,0.4698266088962555,0.04920854791998863,-0.31086525321006775
1761469082903283000,2.890282958984375,0.4534529447555542,0.1094878688454628,-0.33838769793510437
1761469082913266000,2.900265869140625,0.42267587780952454,0.14600272476673126,-0.36312979459762573
1761469082923249000,2.910248779296875,0.3788681924343109,0.15335650742053986,-0.37025561928749084
1761469082933231900,2.92023193359375,0.32653361558914185,0.17122632265090942,-0.35144516825675964
1761469082943214800,2.93021484375,0.2755572497844696,0.19405414164066315,-0.3242444396018982
1761469082953198000,2.940197998046875,0.22358547151088715,0.20906352996826172,-0.30131828784942627
1761469082963181000,2.95018115234375,0.18212538957595825,0.20655189454555511,-0.27931472659111023
1761469082973163800,2.960163818359375,0.1553267538547516,0.1775292605161667,-0.2621898651123047
1761469082983147000,2.97014697265625,0.1389579027891159,0.1501719355583191,-0.23610500991344452
1761469082993130000,2.9801298828125,0.12381963431835175,0.14931675791740417,-0.20298680663108826
1761469083003112700,2.99011279296875,0.1261128932237625,0.1737392693758011,-0.1793842762708664
1761469083013096000,3.000095947265625,0.13381054997444153,0.20673084259033203,-0.16885991394519806
1761469083023079000,3.010078857421875,0.13085736334323883,0.2171347439289093,-0.1872759461402893
1761469083033062000,3.020061767578125,0.13047000765800476,0.22400100529193878,-0.21404846012592316
1761469083043044900,3.030044921875,0.12485978752374649,0.2434532642364502,-0.23648133873939514
1761469083053027800,3.04002783203125,0.11787553876638412,0.276706725358963,-0.25398868322372437
1761469083063010800,3.0500107421875,0.11639215797185898,0.3019353747367859,-0.26302558183670044
1761469083072994000,3.059994140625,0.11643804609775543,0.3028433322906494,-0.25380611419677734
1761469083082976800,3.069976806640625,0.11385877430438995,0.28624120354652405,-0.22566500306129456
1761469083092960000,3.0799599609375,0.10901220142841339,0.2890373766422272,-0.17830222845077515
1761469083102943000,3.08994287109375,0.08860652893781662,0.3108063340187073,-0.10667651891708374
1761469083112926000,3.099926025390625,0.05398235470056534,0.3305838704109192,-0.04407770559191704
1761469083122909000,3.109908935546875,0.01681581139564514,0.3696921169757843,0.0006452894303947687
1761469083132892000,3.119891845703125,-0.030082564800977707,0.3730151057243347,0.03862129524350166
1761469083142874000,3.1298740234375,-0.08353966474533081,0.31519412994384766,0.0897049829363823
1761469083152856800,3.13985693359375,-0.1255130171775818,0.247270405292511,0.15718817710876465
1761469083162839800,3.14983984375,-0.14030954241752625,0.17695869505405426,0.21374306082725525
1761469083172823000,3.159822998046875,-0.12526516616344452,0.13758857548236847,0.24929958581924438
1761469083182806000,3.169805908203125,-0.09448248147964478,0.13185586035251617,0.2647720277309418
1761469083192788700,3.179788818359375,-0.07055218517780304,0.14820945262908936,0.27556735277175903
1761469083202772000,3.18977197265625,-0.04851159825921059,0.13730274140834808,0.2726234793663025
1761469083212755000,3.1997548828125,-0.041619714349508286,0.08802937716245651,0.27444520592689514
1761469083222737700,3.209737548828125,-0.04440857842564583,0.045488305389881134,0.2844877243041992
1761469083232721000,3.219720947265625,-0.0519929938018322,0.02952585183084011,0.28550398349761963
1761469083242704000,3.229703857421875,-0.05183346942067146,0.032203659415245056,0.2769398093223572
1761469083252687000,3.23968701171875,-0.04582054167985916,0.02158965915441513,0.2689785957336426
1761469083262669800,3.249669921875,-0.0334208682179451,0.002370423637330532,0.26814743876457214
1761469083272652800,3.25965283203125,-0.007868574932217598,-0.038607578724622726,0.29806146025657654
1761469083282636000,3.269635986328125,0.017974739894270897,-0.08194652944803238,0.37344890832901
1761469083292619000,3.279618896484375,0.03829455003142357,-0.08499355614185333,0.46563515067100525
1761469083302601700,3.289601806640625,0.0660199224948883,-0.07140983641147614,0.5221173167228699
1761469083312585000,3.2995849609375,0.09710859507322311,-0.035240110009908676,0.5352365970611572
1761469083322568000,3.30956787109375,0.13629809021949768,0.005371498875319958,0.5097783803939819
1761469083332551000,3.319551025390625,0.16038276255130768,0.00720228161662817,0.4758460819721222
1761469083342534000,3.329533935546875,0.18335385620594025,-0.00248709786683321,0.4384683668613434
1761469083352516900,3.339516845703125,0.19322672486305237,0.01635267212986946,0.3943013548851013
1761469083362499800,3.349499755859375,0.16902205348014832,0.033937521278858185,0.34476494789123535
1761469083372483000,3.359483154296875,0.14404892921447754,0.027576934546232224,0.34329459071159363
1761469083382465800,3.3694658203125,0.08975081890821457,0.00037780520506203175,0.41083741188049316
1761469083392449000,3.379448974609375,0.01419900730252266,-0.033518433570861816,0.49095800518989563
1761469083402432000,3.389431884765625,-0.08032296597957611,-0.004655091091990471,0.5247103571891785
1761469083412414000,3.3994140625,-0.17152169346809387,0.07904291152954102,0.5053844451904297
1761469083422397000,3.40939697265625,-0.2485504448413849,0.1841011494398117,0.4623033404350281
1761469083432380000,3.4193798828125,-0.3018718957901001,0.29199331998825073,0.40164464712142944
1761469083442363000,3.42936279296875,-0.31827935576438904,0.36986470222473145,0.32107284665107727
1761469083452345900,3.439345947265625,-0.30632448196411133,0.40966665744781494,0.23287978768348694
1761469083462328800,3.449328857421875,-0.2736259400844574,0.4346417784690857,0.15982742607593536
1761469083472312000,3.45931201171875,-0.24467341601848602,0.4525274932384491,0.10951783508062363
1761469083482294800,3.469294677734375,-0.23046065866947174,0.42422181367874146,0.06000487878918648
1761469083492277800,3.47927783203125,-0.21517428755760193,0.3557526171207428,0.009084846824407578
1761469083502261000,3.489260986328125,-0.20261961221694946,0.2510027587413788,-0.04437518119812012
1761469083512244000,3.499243896484375,-0.19129469990730286,0.13129453361034393,-0.07290875911712646
1761469083522226700,3.509226806640625,-0.16739335656166077,0.023422669619321823,-0.07943323999643326
1761469083532210000,3.5192099609375,-0.15145596861839294,-0.042813610285520554,-0.06751300394535065
1761469083542193000,3.52919287109375,-0.14318525791168213,-0.07482214272022247,-0.04717790707945824
1761469083552175900,3.53917578125,-0.16720159351825714,-0.08053513616323471,-0.027230940759181976
1761469083562158800,3.549158935546875,-0.1927381008863449,-0.056258026510477066,-0.017284300178289413
1761469083572141800,3.559141845703125,-0.22757990658283234,-0.038237374275922775,-0.033952247351408005
1761469083582129000,3.56912890625,-0.268647700548172,0.01363381091505289,-0.08010083436965942
1761469083592111900,3.57911181640625,-0.28020352125167847,0.08566607534885406,-0.1307418793439865
1761469083602094800,3.5890947265625,-0.2710038721561432,0.14168299734592438,-0.15504401922225952
1761469083612077800,3.599077880859375,-0.25268375873565674,0.17107948660850525,-0.15628460049629211
1761469083622061000,3.60906103515625,-0.231196328997612,0.17266300320625305,-0.14572863280773163
1761469083632043800,3.619043701171875,-0.20287171006202698,0.18104907870292664,-0.13336145877838135
1761469083642027000,3.629027099609375,-0.17834985256195068,0.18858875334262848,-0.14132271707057953
1761469083652010000,3.639010009765625,-0.15623968839645386,0.18657734990119934,-0.16136214137077332
1761469083661992700,3.64899267578125,-0.15234535932540894,0.1500861793756485,-0.18868429958820343
1761469083671976000,3.658975830078125,-0.1525234431028366,0.10621998459100723,-0.211952805519104
1761469083681959000,3.668958984375,-0.16436412930488586,0.06714528799057007,-0.2396422177553177
1761469083691942000,3.67894189453125,-0.17808331549167633,0.042862679809331894,-0.2688032388687134
1761469083701924900,3.6889248046875,-0.19151949882507324,0.026564665138721466,-0.2990301251411438
1761469083711907800,3.698907958984375,-0.20150071382522583,-0.015908190980553627,-0.3352016508579254
1761469083721890800,3.708890869140625,-0.2079617977142334,-0.04052405804395676,-0.35097795724868774
1761469083731872800,3.718872802734375,-0.20010237395763397,-0.03541242703795433,-0.34268394112586975
1761469083741855700,3.728855712890625,-0.19977188110351562,-0.052584223449230194,-0.3243502080440521
1761469083751839000,3.7388388671875,-0.1681753396987915,-0.07747894525527954,-0.3218071460723877
1761469083761822000,3.748822021484375,-0.14450037479400635,-0.09315378218889236,-0.31361687183380127
1761469083771805000,3.758804931640625,-0.09039779752492905,-0.13270099461078644,-0.30553528666496277
1761469083781788000,3.768787841796875,-0.02686089649796486,-0.18406298756599426,-0.291838675737381
1761469083791771000,3.77877099609375,0.04762449860572815,-0.24202272295951843,-0.28187257051467896
1761469083801754000,3.788754150390625,0.11829201877117157,-0.2817661464214325,-0.26742276549339294
1761469083811736800,3.79873681640625,0.18673665821552277,-0.299268901348114,-0.24867834150791168
1761469083821719800,3.8087197265625,0.24392645061016083,-0.3272624611854553,-0.23841585218906403
1761469083831703000,3.818703125,0.2891366183757782,-0.36113429069519043,-0.23227238655090332
1761469083841686000,3.82868603515625,0.31536608934402466,-0.4161594808101654,-0.21958136558532715
1761469083851668700,3.838668701171875,0.3459727466106415,-0.45048758387565613,-0.21965213119983673
1761469083861652000,3.84865185546875,0.3629344403743744,-0.4757508635520935,-0.24263335764408112
1761469083871635000,3.858635009765625,0.36979737877845764,-0.473540723323822,-0.24363629519939423
1761469083881617700,3.86861767578125,0.37265896797180176,-0.4360274374485016,-0.23195619881153107
1761469083891601000,3.878600830078125,0.36202484369277954,-0.4229450523853302,-0.23797933757305145
1761469083901584000,3.888583984375,0.34056800603866577,-0.4316568076610565,-0.24398157000541687
1761469083911566800,3.89856689453125,0.30901792645454407,-0.4516383409500122,-0.22001299262046814
1761469083921549800,3.9085498046875,0.28069868683815,-0.507538914680481,-0.15887214243412018
1761469083931532800,3.91853271484375,0.2546505630016327,-0.5960352420806885,-0.07971260696649551
1761469083941516000,3.92851611328125,0.23273886740207672,-0.668620765209198,-0.012116517871618271
1761469083951499000,3.9384990234375,0.20867234468460083,-0.6479656100273132,0.02308100461959839
1761469083961481700,3.948481689453125,0.190729022026062,-0.5154240727424622,0.03146170452237129
1761469083971465000,3.95846484375,0.2029099315404892,-0.3733983635902405,0.017700834199786186
1761469083981448000,3.968447998046875,0.22902807593345642,-0.3303220272064209,0.01880418136715889
1761469083991431000,3.978430908203125,0.23985253274440765,-0.29457008838653564,0.057084981352090836
1761469084001414000,3.988413818359375,0.229608952999115,-0.20691531896591187,0.11050666123628616
1761469084011396900,3.99839697265625,0.19178102910518646,-0.11096519231796265,0.08716604858636856
1761469084021379800,4.0083798828125,0.14699465036392212,-0.07919634133577347,-0.025148775428533554
1761469084031361800,4.01836181640625,0.11706601828336716,-0.14936591684818268,-0.16552239656448364
1761469084041344800,4.0283447265625,0.08473551273345947,-0.30980005860328674,-0.29155969619750977
1761469084051328000,4.038327880859375,0.09785892069339752,-0.47745734453201294,-0.3656417727470398
1761469084061311000,4.04831103515625,0.10019771009683609,-0.6068485975265503,-0.39107364416122437
1761469084071294000,4.0582939453125,0.1227593943476677,-0.6855096817016602,-0.358883261680603
1761469084081277000,4.06827685546875,0.14649082720279694,-0.7110155820846558,-0.2831592261791229
1761469084091260000,4.078260009765625,0.1810382902622223,-0.7249932289123535,-0.25477996468544006
1761469084101243100,4.0882431640625,0.21509400010108948,-0.6352058053016663,-0.2799883782863617
1761469084111225900,4.098225830078125,0.24157516658306122,-0.4442865252494812,-0.3138311803340912
1761469084121208800,4.108208740234375,0.25337937474250793,-0.25542470812797546,-0.3469361364841461
1761469084131191000,4.11819091796875,0.24116970598697662,-0.13496524095535278,-0.3640471398830414
1761469084141173800,4.128173828125,0.24439667165279388,-0.0843590572476387,-0.3668583631515503
1761469084151157000,4.138156982421875,0.235491082072258,-0.06672732532024384,-0.3495224714279175
1761469084161140000,4.148139892578125,0.20133844017982483,-0.03480560705065727,-0.31164753437042236
1761469084171122700,4.158122802734375,0.15176185965538025,-0.000865421025082469,-0.29254600405693054
1761469084181106000,4.16810595703125,0.10827857255935669,0.014969469048082829,-0.28772807121276855
1761469084191089000,4.1780888671875,0.0758642852306366,0.038217879831790924,-0.26907220482826233
1761469084201071900,4.18807177734375,0.06099478527903557,0.05491936206817627,-0.24701058864593506
1761469084211054800,4.198054931640625,0.03542305901646614,0.03474289923906326,-0.23283058404922485
1761469084221037800,4.208037841796875,0.05330032855272293,-0.005725963972508907,-0.1957188993692398
1761469084231020800,4.218020751953125,0.07422052323818207,-0.04116997495293617,-0.11941853910684586
1761469084241004000,4.228004150390625,0.07951409369707108,-0.09479272365570068,-0.06289613991975784
1761469084250986800,4.23798681640625,0.09928257763385773,-0.13492269814014435,-0.03307107463479042
1761469084260970000,4.247969970703125,0.15343768894672394,-0.12244817614555359,-0.02982921153306961
1761469084270953000,4.257952880859375,0.19915929436683655,-0.06526780128479004,-0.04009629413485527
1761469084280936000,4.26793603515625,0.24181541800498962,-0.005927515681833029,-0.05436018481850624
1761469084290919000,4.2779189453125,0.2579764127731323,0.04160390794277191,-0.05238291621208191
1761469084300902000,4.28790185546875,0.24641427397727966,0.09225643426179886,-0.04367437958717346
1761469084310884900,4.297884765625,0.21869252622127533,0.1572140008211136,-0.02701210230588913
1761469084320868000,4.3078681640625,0.17359589040279388,0.22234134376049042,-0.012963926419615746
1761469084330850800,4.317850830078125,0.12649810314178467,0.2973894774913788,-0.0035274357069283724
1761469084340833800,4.327833740234375,0.07888078689575195,0.34447574615478516,-0.005927742458879948
1761469084350817000,4.337817138671875,0.03335324674844742,0.31600016355514526,-0.03209889307618141
1761469084360799700,4.3477998046875,-0.006799766793847084,0.24058744311332703,-0.060036517679691315
1761469084370783000,4.357782958984375,-0.030894188210368156,0.1716701090335846,-0.07311761379241943
1761469084380766000,4.367765869140625,-0.0420437753200531,0.14084376394748688,-0.047310251742601395
1761469084390749000,4.3777490234375,-0.042257681488990784,0.13608385622501373,-0.009391703642904758
1761469084400732000,4.38773193359375,-0.040930625051259995,0.14471489191055298,0.021458620205521584
1761469084410715000,4.39771484375,-0.029056672006845474,0.1578781008720398,0.05484206601977348
1761469084420697900,4.40769775390625,-0.012201526202261448,0.14945612847805023,0.07614175975322723
1761469084430681000,4.41768115234375,-0.0004095812328159809,0.13516080379486084,0.07357234507799149
1761469084440663800,4.427663818359375,-0.002164604142308235,0.13843943178653717,0.06171701103448868
1761469084450646800,4.437646728515625,-0.020434385165572166,0.14882871508598328,0.05320296064019203
1761469084460630000,4.447630126953125,-0.04521536827087402,0.18263541162014008,0.05060477927327156
1761469084470611700,4.45761181640625,-0.06449243426322937,0.2121109664440155,0.054315824061632156
1761469084480595000,4.467594970703125,-0.0835857018828392,0.22355590760707855,0.061421673744916916
1761469084490578000,4.477577880859375,-0.10439801961183548,0.20222270488739014,0.05975240096449852
1761469084500561000,4.487560791015625,-0.12008962780237198,0.15499207377433777,0.06660524755716324
1761469084510544000,4.4975439453125,-0.1301167756319046,0.09630072116851807,0.08933126926422119
1761469084520526800,4.50752685546875,-0.13014686107635498,0.030069764703512192,0.12772126495838165
1761469084530509800,4.517509765625,-0.12615270912647247,-0.023924322798848152,0.1651488095521927
1761469084540493000,4.5274931640625,-0.12845714390277863,-0.04901289939880371,0.18949168920516968
1761469084550475800,4.537475830078125,-0.12919190526008606,-0.037072617560625076,0.19885696470737457
1761469084560459000,4.547458984375,-0.13513262569904327,-0.016662415117025375,0.1856178641319275
1761469084570442000,4.55744189453125,-0.14318248629570007,0.005129770375788212,0.15241789817810059
1761469084580424400,4.567424560546875,-0.15164440870285034,0.03555132448673248,0.12299316376447678
1761469084590407700,4.57740771484375,-0.1586351841688156,0.06708107143640518,0.10133872926235199
1761469084600390700,4.587390625,-0.1645231693983078,0.09931863844394684,0.10168760269880295
1761469084610374700,4.597374755859375,-0.16782604157924652,0.13236017525196075,0.11593472212553024
1761469084620357600,4.607357666015625,-0.16322942078113556,0.16401690244674683,0.13862697780132294
1761469084630340600,4.617340576171875,-0.15138977766036987,0.1902962028980255,0.16412389278411865
1761469084640323600,4.627323486328125,-0.13703879714012146,0.21354852616786957,0.17645087838172913
1761469084650306800,4.637306884765625,-0.1166830062866211,0.19673725962638855,0.1944267898797989
1761469084660289800,4.647289794921875,-0.10459012538194656,0.15190480649471283,0.23009157180786133
1761469084670272500,4.6572724609375,-0.08899687975645065,0.10342510789632797,0.283396452665329
1761469084680255700,4.667255859375,-0.10144928842782974,0.06583885103464127,0.35182294249534607
1761469084690238700,4.67723876953125,-0.09545773267745972,0.029889056459069252,0.41763603687286377
1761469084700221400,4.687221435546875,-0.09987857937812805,-0.0002499357797205448,0.47758936882019043
1761469084710204700,4.69720458984375,-0.10135363042354584,-0.02732040174305439,0.5347569584846497
1761469084720187600,4.707187744140625,-0.10786984860897064,-0.036616962403059006,0.5943412184715271
1761469084730170600,4.717170654296875,-0.10114061087369919,-0.002576992614194751,0.6666637659072876
1761469084740153600,4.727153564453125,-0.08294083923101425,0.06211864948272705,0.7288733720779419
1761469084750136600,4.737136474609375,-0.06833365559577942,0.09999893605709076,0.7567265033721924
1761469084760118800,4.747118896484375,-0.03645455092191696,0.10357768833637238,0.7577105760574341
1761469084770101500,4.7571015625,0.00466178497299552,0.03605489432811737,0.7539305686950684
1761469084780084700,4.767084716796875,0.041059475392103195,-0.037382837384939194,0.7438361048698425
1761469084790067700,4.777067626953125,0.08531699329614639,-0.04516877606511116,0.7112646102905273
1761469084800050700,4.78705078125,0.12913158535957336,0.04263484477996826,0.6426141858100891
1761469084810033700,4.79703369140625,0.14629411697387695,0.1569249927997589,0.5754653215408325
1761469084820016600,4.8070166015625,0.15264709293842316,0.19830039143562317,0.5182284116744995
1761469084829999600,4.81699951171875,0.15344679355621338,0.12315388023853302,0.4910995662212372
1761469084839982800,4.82698291015625,0.12334933131933212,-0.015283625572919846,0.4815230965614319
1761469084849965600,4.836965576171875,0.076914481818676,-0.11963609606027603,0.45896637439727783
1761469084859948500,4.846948486328125,0.004239476285874844,-0.1146775558590889,0.39451363682746887
1761469084869931800,4.856931884765625,-0.06188591942191124,-0.05311048775911331,0.30336564779281616
1761469084879914800,4.866914794921875,-0.11641921103000641,0.03662126511335373,0.23679381608963013
1761469084889897500,4.8768974609375,-0.17612138390541077,0.13941001892089844,0.178244486451149
1761469084899880700,4.886880615234375,-0.21041090786457062,0.23941411077976227,0.13911172747612
1761469084909863700,4.89686376953125,-0.21986427903175354,0.3131634294986725,0.10418399423360825
1761469084919846700,4.9068466796875,-0.2243884652853012,0.38965368270874023,0.08882953971624374
1761469084929829600,4.91682958984375,-0.21097563207149506,0.38307255506515503,0.08794596046209335
1761469084939812600,4.9268125,-0.2052796632051468,0.2966647148132324,0.08721252530813217
1761469084949795800,4.9367958984375,-0.18913334608078003,0.18350203335285187,0.0774223580956459
1761469084959778600,4.946778564453125,-0.16788771748542786,0.05991937965154648,0.08269168436527252
1761469084969761500,4.956761474609375,-0.16205114126205444,-0.01916849985718727,0.0972074344754219
1761469084979744800,4.966744873046875,-0.17164278030395508,-0.0523296520113945,0.10908832401037216
1761469084989727700,4.976727783203125,-0.19559802114963531,-0.05938715487718582,0.11317595094442368
1761469084999710500,4.98671044921875,-0.21671156585216522,-0.05005144327878952,0.1034892350435257
1761469085009693700,4.996693603515625,-0.242178812623024,-0.040126074105501175,0.10085003823041916
1761469085019676700,5.0066767578125,-0.26060575246810913,-0.034221842885017395,0.08710066974163055
1761469085029659600,5.01665966796875,-0.2847069203853607,-0.03399558365345001,0.05881144851446152
1761469085039642600,5.026642578125,-0.2998017370700836,-0.018303439021110535,0.0052914973348379135
1761469085049625600,5.03662548828125,-0.302346795797348,-0.018254553899168968,-0.04657217487692833
1761469085059608600,5.046608642578125,-0.2927016019821167,-0.030219070613384247,-0.07991760969161987
1761469085069591800,5.056591796875,-0.2811161279678345,-0.05838793143630028,-0.09686577320098877
1761469085079574500,5.066574462890625,-0.26328837871551514,-0.07761701196432114,-0.11855029314756393
1761469085089557800,5.076557861328125,-0.24540700018405914,-0.09618262946605682,-0.15061934292316437
1761469085099539700,5.086539794921875,-0.21539264917373657,-0.10201068967580795,-0.19022826850414276
1761469085109522700,5.096522705078125,-0.1950194537639618,-0.08952628821134567,-0.22735458612442017
1761469085119505700,5.106505615234375,-0.17600341141223907,-0.06301531940698624,-0.24694480001926422
1761469085129488600,5.116488525390625,-0.15142512321472168,-0.04822921380400658,-0.26243507862091064
1761469085139472000,5.126471923828125,-0.12346671521663666,-0.06784126907587051,-0.2831973433494568
1761469085149454600,5.13645458984375,-0.10542915761470795,-0.0807458832859993,-0.3099280893802643
1761469085159437600,5.1464375,-0.09382390230894089,-0.07149912416934967,-0.3357173502445221
1761469085169420800,5.1564208984375,-0.06989625841379166,-0.06425963342189789,-0.35817134380340576
1761469085179403500,5.166403564453125,-0.04337836429476738,-0.07186456024646759,-0.3787165582180023
1761469085189386500,5.176386474609375,-0.019265130162239075,-0.08289840817451477,-0.41019919514656067
1761469085199369700,5.18636962890625,0.002275848761200905,-0.1114557534456253,-0.4428197145462036
1761469085209352700,5.196352783203125,0.017639311030507088,-0.14338281750679016,-0.4690154194831848
1761469085219335700,5.206335693359375,0.04046846181154251,-0.1541997790336609,-0.47680944204330444
1761469085229318700,5.216318603515625,0.059119366109371185,-0.16688472032546997,-0.4816707670688629
1761469085239301600,5.226301513671875,0.08238500356674194,-0.20616793632507324,-0.48614194989204407
1761469085249284900,5.236284912109375,0.11098086833953857,-0.2383265197277069,-0.488141268491745
1761469085259267600,5.246267578125,0.13008424639701843,-0.2427726686000824,-0.4757485091686249
1761469085269250600,5.25625048828125,0.1379697471857071,-0.2016671597957611,-0.4331281781196594
1761469085279233800,5.26623388671875,0.12465261667966843,-0.1217145323753357,-0.3964647054672241
1761469085289216800,5.276216796875,0.1158757209777832,-0.03550845384597778,-0.37870562076568604
1761469085299199500,5.286199462890625,0.11626186966896057,0.015029288828372955,-0.37025967240333557
1761469085309182700,5.2961826171875,0.12968343496322632,0.03823127597570419,-0.37152299284935
1761469085319165700,5.306165771484375,0.15143825113773346,0.04851027950644493,-0.37797239422798157
1761469085329148700,5.316148681640625,0.1743171215057373,0.0587892159819603,-0.38447996973991394
1761469085339131600,5.326131591796875,0.20405690371990204,0.07295936346054077,-0.3808026909828186
1761469085349114600,5.336114501953125,0.24355490505695343,0.07944666594266891,-0.3576951026916504
1761469085359097600,5.34609765625,0.27804815769195557,0.03861667960882187,-0.34049612283706665
1761469085369080600,5.35608056640625,0.3003183603286743,-0.027274075895547867,-0.3169948160648346
1761469085379063600,5.3660634765625,0.3098820447921753,-0.03848704695701599,-0.301979124546051
1761469085389046800,5.376046875,0.30949729681015015,-0.025501210242509842,-0.3140007257461548
1761469085399029800,5.38602978515625,0.302190363407135,-0.0418572835624218,-0.3560163676738739
1761469085409012500,5.396012451171875,0.30064457654953003,-0.0496380478143692,-0.38508251309394836
1761469085418994700,5.40599462890625,0.31010037660598755,-0.034914761781692505,-0.35363271832466125
1761469085428977700,5.415977783203125,0.31658369302749634,-0.01723632402718067,-0.30368557572364807
1761469085438960600,5.425960693359375,0.31927189230918884,0.024395009502768517,-0.2579825520515442
1761469085448943600,5.435943603515625,0.3085423707962036,0.08586405217647552,-0.23215268552303314
1761469085458926600,5.445926513671875,0.2899915874004364,0.13804470002651215,-0.23249970376491547
1761469085468909800,5.455909912109375,0.2773016393184662,0.13617433607578278,-0.2447434812784195
1761469085478892500,5.465892578125,0.26369020342826843,0.08233001828193665,-0.24862530827522278
1761469085488875500,5.47587548828125,0.2533107399940491,0.0031658841762691736,-0.2360987514257431
1761469085498858800,5.485858642578125,0.24104633927345276,-0.09232202172279358,-0.22268308699131012
1761469085508841700,5.495841796875,0.22731468081474304,-0.1881866306066513,-0.2386576533317566
1761469085518824700,5.50582470703125,0.21118390560150146,-0.2575039267539978,-0.2843298017978668
1761469085528807700,5.5158076171875,0.21975107491016388,-0.32259631156921387,-0.34066230058670044
1761469085538790700,5.525790771484375,0.21477308869361877,-0.29580891132354736,-0.35609185695648193
1761469085548774000,5.53577392578125,0.2282528281211853,-0.1844489872455597,-0.40588879585266113
1761469085558756600,5.545756591796875,0.06606817990541458,-0.10610224306583405,-0.47372615337371826
1761469085568739600,5.555739501953125,-0.08553693443536758,-0.0596933551132679,-0.5527792572975159
1761469085578719500,5.565719482421875,-0.13137473165988922,-0.14691373705863953,-0.6834843158721924
1761469085588702500,5.575702392578125,-0.17606373131275177,-0.3752039968967438,-0.7416667938232422
1761469085598685400,5.585685546875,-0.16156095266342163,-0.6731800436973572,-0.6906667351722717
1761469085608668400,5.59566845703125,-0.09340646862983704,-0.8899355530738831,-0.5561169385910034
1761469085618651400,5.6056513671875,0.009849079884588718,-0.9608150124549866,-0.38983985781669617
1761469085628634400,5.61563427734375,0.1173166036605835,-0.8590869307518005,-0.2979573905467987
1761469085638617600,5.62561767578125,0.21856199204921722,-0.6379100680351257,-0.34172433614730835
1761469085648600300,5.635600341796875,0.2946563959121704,-0.3235785961151123,-0.43905630707740784
1761469085658583300,5.645583251953125,0.3320258855819702,-0.014209005981683731,-0.5246428847312927
1761469085668566500,5.65556640625,0.3331974744796753,0.1224312111735344,-0.5612132549285889
1761469085678549200,5.66554931640625,0.3182278573513031,0.033379096537828445,-0.5436688661575317
1761469085688532500,5.675532470703125,0.27997127175331116,-0.15133538842201233,-0.46918985247612
1761469085698515500,5.685515380859375,0.2408057600259781,-0.2872871160507202,-0.3618625998497009
1761469085708497400,5.695497314453125,0.18607856333255768,-0.3385534882545471,-0.2577088475227356
1761469085718480400,5.70548046875,0.1158430203795433,-0.3240025043487549,-0.17651811242103577
1761469085728463400,5.71546337890625,0.05156136304140091,-0.27341458201408386,-0.10834824293851852
1761469085738446600,5.725446533203125,0.006515324115753174,-0.20409835875034332,-0.019316641613841057
1761469085748429300,5.73542919921875,-0.01334809884428978,-0.11634265631437302,0.09054256230592728
1761469085758412300,5.745412353515625,-0.004655805882066488,-0.012417590245604515,0.20732083916664124
1761469085768395500,5.7553955078125,-0.006817563436925411,0.09081525355577469,0.32011309266090393
1761469085778378500,5.76537841796875,-0.018301647156476974,0.18465040624141693,0.44364169239997864
1761469085788361200,5.775361328125,-0.033701781183481216,0.2778228223323822,0.5658444166183472
1761469085798344400,5.785344482421875,-0.05404939502477646,0.364056259393692,0.6914281845092773
1761469085808327400,5.795327392578125,-0.09054908156394958,0.44314655661582947,0.80206698179245
1761469085818310400,5.805310302734375,-0.12210434675216675,0.5099927186965942,0.8975037932395935
1761469085828293400,5.81529345703125,-0.15654006600379944,0.5640085339546204,0.952369749546051
1761469085838276400,5.8252763671875,-0.20258797705173492,0.6187804341316223,0.9670408368110657
1761469085848259300,5.83525927734375,-0.23264995217323303,0.6735979318618774,0.9528606534004211
1761469085858242600,5.84524267578125,-0.2575606107711792,0.7456191182136536,0.9150048494338989
1761469085868225300,5.855225341796875,-0.2939181625843048,0.78131502866745,0.8582190275192261
1761469085878208500,5.86520849609375,-0.3086284101009369,0.7613687515258789,0.7999014258384705
1761469085888191500,5.87519140625,-0.32856646180152893,0.6927618980407715,0.7597067952156067
1761469085898174200,5.88517431640625,-0.3667900264263153,0.6476804614067078,0.7227612733840942
1761469085908157400,5.895157470703125,-0.40848666429519653,0.6526088714599609,0.7077340483665466
1761469085918140400,5.905140380859375,-0.4609309732913971,0.6660346388816833,0.6953316926956177
1761469085928123400,5.915123291015625,-0.4981969892978668,0.6403986811637878,0.6932291984558105
1761469085938106400,5.9251064453125,-0.5389460325241089,0.6223155856132507,0.7128322124481201
1761469085948089300,5.93508935546875,-0.5807770490646362,0.6595609188079834,0.7457072138786316
1761469085958072300,5.945072265625,-0.6234387755393982,0.745815634727478,0.7897133231163025
1761469085968055600,5.9550556640625,-0.6419920921325684,0.8394437432289124,0.8480943441390991
1761469085978037200,5.965037353515625,-0.6514623165130615,0.9065319895744324,0.9107188582420349
1761469085988020500,5.9750205078125,-0.6504781246185303,0.9180132746696472,0.9671964049339294
1761469085998003500,5.98500341796875,-0.6540853977203369,0.8675668835639954,1.0261845588684082
1761469086007986400,5.994986328125,-0.6606091856956482,0.7750775218009949,1.0965577363967896
1761469086017969400,6.004969482421875,-0.691127359867096,0.6945075988769531,1.1402982473373413
1761469086027952400,6.014952392578125,-0.7278220057487488,0.5918624997138977,1.1818838119506836
1761469086037935600,6.024935546875,-0.7562864422798157,0.4874362051486969,1.2220661640167236
1761469086047918300,6.03491845703125,-0.7800280451774597,0.41108962893486023,1.2661490440368652
1761469086057901300,6.0449013671875,-0.7916226387023926,0.3722391724586487,1.317865252494812
1761469086067884500,6.054884521484375,-0.8015571236610413,0.35518795251846313,1.3734725713729858
1761469086077867500,6.064867431640625,-0.8133421540260315,0.3549767732620239,1.433597445487976
1761469086087850200,6.074850341796875,-0.8354610800743103,0.37433260679244995,1.4942185878753662
1761469086097833500,6.08483349609375,-0.8718633055686951,0.4053994417190552,1.5499718189239502
1761469086107816400,6.09481640625,-0.9136500954627991,0.43896645307540894,1.597378134727478
1761469086117799400,6.10479931640625,-0.9447792768478394,0.48646658658981323,1.6406358480453491
1761469086127782400,6.114782470703125,-0.9692423939704895,0.5339277982711792,1.6790434122085571
1761469086137765400,6.124765380859375,-0.9869667887687683,0.5700764656066895,1.7140331268310547
1761469086147748400,6.134748291015625,-1.012453317642212,0.5922064781188965,1.7451692819595337
1761469086157731300,6.1447314453125,-1.0434200763702393,0.6143059134483337,1.7928555011749268
1761469086167714300,6.15471435546875,-1.0916959047317505,0.6576589345932007,1.836351990699768
1761469086177697500,6.164697509765625,-1.1405178308486938,0.7165523171424866,1.8494758605957031
1761469086187680500,6.174680419921875,-1.1860589981079102,0.7775698304176331,1.8150794506072998
1761469086197663200,6.184663330078125,-1.2190337181091309,0.8273957371711731,1.7560310363769531
1761469086207646500,6.194646484375,-1.2247151136398315,0.8386554718017578,1.7033295631408691
1761469086217629400,6.20462939453125,-1.2180308103561401,0.7997980713844299,1.682948350906372
1761469086227612400,6.2146123046875,-1.1843401193618774,0.7349509000778198,1.692703366279602
1761469086237594400,6.224594482421875,-1.154273271560669,0.6956982612609863,1.7075153589248657
1761469086247577300,6.234577392578125,-1.1346688270568848,0.6863494515419006,1.6982462406158447
1761469086257560600,6.244560546875,-1.1281137466430664,0.7050962448120117,1.6568495035171509
1761469086267543300,6.254543212890625,-1.1369575262069702,0.7263173460960388,1.5945910215377808
1761469086277526300,6.2645263671875,-1.1572345495224,0.7694165706634521,1.5337963104248047
1761469086287509500,6.274509521484375,-1.177995204925537,0.8168478608131409,1.4989773035049438
1761469086297492500,6.284492431640625,-1.2090027332305908,0.8561829924583435,1.4908751249313354
1761469086307475500,6.294475341796875,-1.2175798416137695,0.8967944979667664,1.4688737392425537
1761469086317458400,6.30445849609375,-1.1474361419677734,0.902790367603302,1.3936176300048828
1761469086327441400,6.31444140625,-1.2353665828704834,0.9967806935310364,1.3556525707244873
1761469086337424600,6.324424560546875,-1.2485772371292114,1.0925201177597046,1.3019962310791016
1761469086347407400,6.334407470703125,-1.264500617980957,1.1467459201812744,1.278645396232605
1761469086357390300,6.344390380859375,-1.2555757761001587,1.1446322202682495,1.3030338287353516
1761469086367373600,6.35437353515625,-1.2349334955215454,1.1083637475967407,1.3371555805206299
1761469086377356300,6.364356201171875,-1.215298056602478,1.058508038520813,1.356283187866211
1761469086387339300,6.37433935546875,-1.226301908493042,1.0007566213607788,1.3433946371078491
1761469086397322500,6.384322509765625,-1.2448163032531738,0.9462097883224487,1.3154537677764893
1761469086407305500,6.394305419921875,-1.2573691606521606,0.8845886588096619,1.2842259407043457
1761469086417288200,6.4042880859375,-1.2721507549285889,0.8148695230484009,1.2543528079986572
1761469086427271400,6.414271484375,-1.2729076147079468,0.7716535329818726,1.243150234222412
1761469086437254400,6.42425439453125,-1.2687656879425049,0.7611034512519836,1.2671549320220947
1761469086447237400,6.4342373046875,-1.2605171203613281,0.7971007227897644,1.3184373378753662
1761469086457220400,6.444220458984375,-1.2540960311889648,0.8466432690620422,1.383910059928894
1761469086467203300,6.454203369140625,-1.2425645589828491,0.8606635332107544,1.4365475177764893
1761469086477186600,6.4641865234375,-1.243106722831726,0.8664066195487976,1.4704655408859253
1761469086487169500,6.47416943359375,-1.258607268333435,0.8972413539886475,1.4863245487213135
1761469086497151500,6.4841513671875,-1.284462332725525,0.9409957528114319,1.5031914710998535
1761469086507134500,6.494134521484375,-1.3080216646194458,0.9625731706619263,1.5139402151107788
1761469086517117400,6.504117431640625,-1.3315856456756592,0.9716215133666992,1.530981421470642
1761469086527100400,6.514100341796875,-1.363754391670227,0.9740554094314575,1.5429966449737549
1761469086537083400,6.52408349609375,-1.3905287981033325,1.0122945308685303,1.5397907495498657
1761469086547066400,6.53406640625,-1.4154093265533447,1.0558172464370728,1.5078706741333008
1761469086557049600,6.544049560546875,-1.4273672103881836,1.0738247632980347,1.4621065855026245
1761469086567032300,6.5540322265625,-1.4296560287475586,1.0532833337783813,1.4128895998001099
1761469086577015300,6.564015380859375,-1.4209870100021362,1.0359169244766235,1.374531626701355
1761469086586998500,6.57399853515625,-1.3938475847244263,1.0359421968460083,1.3434661626815796
1761469086596981200,6.583981201171875,-1.3717894554138184,1.041107416152954,1.317597508430481
1761469086606964200,6.593964111328125,-1.3504912853240967,1.0420045852661133,1.3034394979476929
1761469086616947500,6.603947509765625,-1.3178528547286987,1.0219924449920654,1.30268132686615
1761469086626930400,6.613930419921875,-1.284936785697937,0.9954827427864075,1.3027334213256836
1761469086636913400,6.623913330078125,-1.2524770498275757,0.9747732281684875,1.3001658916473389
1761469086646896400,6.633896484375,-1.2316203117370605,0.9932805895805359,1.2859501838684082
1761469086656879400,6.64387939453125,-1.2200051546096802,1.0126370191574097,1.2478257417678833
1761469086666862600,6.653862548828125,-1.2047855854034424,1.0150108337402344,1.1981910467147827
1761469086676845300,6.66384521484375,-1.1787431240081787,0.9867679476737976,1.1518707275390625
1761469086686828300,6.673828369140625,-1.1590341329574585,0.9180605411529541,1.116108775138855
1761469086696811500,6.6838115234375,-1.1443487405776978,0.8559430837631226,1.0859005451202393
1761469086706794500,6.69379443359375,-1.1225059032440186,0.8072385787963867,1.0679543018341064
1761469086716777200,6.703777099609375,-1.092883586883545,0.7531782984733582,1.0631706714630127
1761469086726760400,6.713760498046875,-1.0603328943252563,0.6947062611579895,1.0628916025161743
1761469086736742400,6.723742431640625,-1.0245158672332764,0.6536940932273865,1.061398983001709
1761469086746725400,6.733725341796875,-0.9824808835983276,0.6310786604881287,1.0548388957977295
1761469086756708400,6.743708251953125,-0.950398862361908,0.6107627153396606,1.0381890535354614
1761469086766691300,6.75369140625,-0.908571720123291,0.60601407289505,1.0165224075317383
1761469086776674600,6.763674560546875,-0.8756449222564697,0.6036723852157593,1.0001769065856934
1761469086786657300,6.7736572265625,-0.828426718711853,0.5919914841651917,0.9624435305595398
1761469086796640500,6.783640625,-0.7796229720115662,0.5446849465370178,0.9017783403396606
1761469086806623500,6.79362353515625,-0.7376505136489868,0.4805978536605835,0.8438795804977417
1761469086816606200,6.803606201171875,-0.6983675360679626,0.4171464443206787,0.8075026869773865
1761469086826589400,6.81358935546875,-0.6506277322769165,0.3713371455669403,0.7861119508743286
1761469086836572400,6.823572509765625,-0.6096752285957336,0.348979651927948,0.7673494815826416
1761469086846555400,6.833555419921875,-0.573688805103302,0.3333399295806885,0.7471644878387451
1761469086856538400,6.843538330078125,-0.5520855188369751,0.3075115382671356,0.7272600531578064
1761469086866521300,6.853521240234375,-0.5221328735351562,0.2827061116695404,0.7134406566619873
1761469086876504300,6.86350439453125,-0.4958733022212982,0.25769954919815063,0.7046128511428833
1761469086886487600,6.873487548828125,-0.4674891531467438,0.23102952539920807,0.6989785432815552
1761469086896470300,6.88347021484375,-0.4400346279144287,0.20852874219417572,0.7015447616577148
1761469086906453200,6.893453369140625,-0.42286160588264465,0.21148821711540222,0.7010183930397034
1761469086916436500,6.9034365234375,-0.4172138273715973,0.2302938550710678,0.7018418312072754
1761469086926419500,6.91341943359375,-0.40374940633773804,0.25414031744003296,0.7080910205841064
1761469086936402400,6.92340234375,-0.39272207021713257,0.27095070481300354,0.7025388479232788
1761469086946385400,6.933385498046875,-0.3796670138835907,0.30785414576530457,0.6967645287513733
1761469086956368400,6.943368408203125,-0.367472380399704,0.3723655045032501,0.713615894317627
1761469086966350300,6.953350341796875,-0.35223013162612915,0.40548470616340637,0.7420051693916321
1761469086976333300,6.963333251953125,-0.3421168029308319,0.3653668463230133,0.7838290333747864
1761469086986316500,6.973316650390625,-0.3492235243320465,0.3212437927722931,0.8484556078910828
1761469086996299500,6.983299560546875,-0.3657905161380768,0.30134227871894836,0.9061902761459351
1761469087006282200,6.9932822265625,-0.3992350995540619,0.29694265127182007,0.9479389190673828
1761469087016265500,7.003265380859375,-0.4296838343143463,0.2785889208316803,0.9724962115287781
1761469087026248400,7.01324853515625,-0.4553726017475128,0.24798022210597992,0.9705538153648376
1761469087036231400,7.0232314453125,-0.48125505447387695,0.2338193953037262,0.9585900902748108
1761469087046214400,7.03321435546875,-0.5041053891181946,0.21903842687606812,0.9253461956977844
1761469087056197400,7.043197265625,-0.5131992697715759,0.20743636786937714,0.8900713324546814
1761469087066180400,7.053180419921875,-0.5058923363685608,0.21362614631652832,0.8562329411506653
1761469087076163300,7.063163330078125,-0.5007436275482178,0.2322765290737152,0.8173081874847412
1761469087086146300,7.073146240234375,-0.4881657660007477,0.2669714093208313,0.7900713086128235
1761469087096129500,7.083129638671875,-0.47192952036857605,0.2969479560852051,0.7625824213027954
1761469087106112500,7.093112548828125,-0.4604001045227051,0.3205212950706482,0.7259451150894165
1761469087116095200,7.10309521484375,-0.45386284589767456,0.3097812831401825,0.6757285594940186
1761469087126078500,7.113078369140625,-0.4344276487827301,0.2857281565666199,0.6240333914756775
1761469087136061400,7.1230615234375,-0.4158478379249573,0.2580150365829468,0.5873875021934509
1761469087146044400,7.13304443359375,-0.4110056757926941,0.19792424142360687,0.5654462575912476
1761469087156027400,7.14302734375,-0.4058111608028412,0.13485340774059296,0.5749886631965637
1761469087166010400,7.15301025390625,-0.4111478626728058,0.09413528442382812,0.6021715402603149
1761469087175993300,7.162993408203125,-0.4285809099674225,0.1009465828537941,0.6405860781669617
1761469087185976600,7.1729765625,-0.45171883702278137,0.15765133500099182,0.6684641242027283
1761469087195959300,7.182959228515625,-0.4708022475242615,0.24657481908798218,0.6828896999359131
1761469087205941500,7.19294140625,-0.49199870228767395,0.34055739641189575,0.686133623123169
1761469087215924500,7.202924560546875,-0.5019413232803345,0.4192277193069458,0.6907661557197571
1761469087225907200,7.2129072265625,-0.5062686204910278,0.4808514714241028,0.7003153562545776
1761469087235890400,7.222890380859375,-0.4989513158798218,0.5021016597747803,0.721132218837738
1761469087245873400,7.232873291015625,-0.471422016620636,0.5090298056602478,0.7514718770980835
1761469087255856600,7.242856689453125,-0.4505731761455536,0.5079395174980164,0.781697154045105
1761469087265839400,7.25283935546875,-0.42024508118629456,0.49945127964019775,0.7994805574417114
1761469087275822300,7.262822265625,-0.37931254506111145,0.4918130338191986,0.8112378716468811
1761469087285805600,7.2728056640625,-0.3445146977901459,0.4745367765426636,0.8178309202194214
1761469087295788300,7.282788330078125,-0.3147408366203308,0.4540213942527771,0.8320186138153076
1761469087305771300,7.292771240234375,-0.30225870013237,0.4366750121116638,0.851411759853363
1761469087315754500,7.30275439453125,-0.29491955041885376,0.4304272532463074,0.8832874298095703
1761469087325737500,7.312737548828125,-0.3044096529483795,0.43171045184135437,0.907364547252655
1761469087335720200,7.32272021484375,-0.3166505992412567,0.41933608055114746,0.9060119390487671
1761469087345703400,7.332703369140625,-0.3287588357925415,0.40790826082229614,0.8783667683601379
1761469087355686400,7.342686279296875,-0.34567975997924805,0.42042484879493713,0.8325899839401245
1761469087365669400,7.35266943359375,-0.3657597005367279,0.45073220133781433,0.7978945970535278
1761469087375652400,7.36265234375,-0.3869909644126892,0.47756141424179077,0.7840355038642883
1761469087385635300,7.37263525390625,-0.40220534801483154,0.5041688084602356,0.7703040242195129
1761469087395618600,7.38261865234375,-0.4149389863014221,0.5347967147827148,0.7492402791976929
1761469087405601500,7.3926015625,-0.43057113885879517,0.5578550100326538,0.7296157479286194
1761469087415583500,7.40258349609375,-0.4454403519630432,0.5750352740287781,0.7332190275192261
1761469087425566500,7.41256640625,-0.4600260257720947,0.590964138507843,0.7509913444519043
1761469087435549400,7.422549560546875,-0.46872979402542114,0.5991266965866089,0.7749515175819397
1761469087445532400,7.432532470703125,-0.48391035199165344,0.6319906115531921,0.8054808378219604
1761469087455515400,7.442515380859375,-0.5004842877388,0.6734344959259033,0.8249599933624268
1761469087465498400,7.452498291015625,-0.514637291431427,0.6950149536132812,0.8212722539901733
1761469087475481600,7.462481689453125,-0.5366044044494629,0.7004832029342651,0.8152798414230347
1761469087485464300,7.47246435546875,-0.5587361454963684,0.6970561146736145,0.8084880709648132
1761469087495447300,7.482447265625,-0.58632892370224,0.6740719676017761,0.8133395910263062
1761469087505430500,7.492430419921875,-0.599529504776001,0.6627632975578308,0.8241297602653503
1761469087515413200,7.502413330078125,-0.6151939034461975,0.6280615329742432,0.8315163254737854
1761469087525396200,7.512396240234375,-0.6368853449821472,0.6060560941696167,0.8509384989738464
1761469087535379500,7.52237939453125,-0.6481516361236572,0.6065024137496948,0.8776212334632874
1761469087545362400,7.532362548828125,-0.6639679074287415,0.6031830310821533,0.896253228187561
1761469087555345400,7.542345458984375,-0.6733638048171997,0.6032072901725769,0.9055881500244141
1761469087565328400,7.552328369140625,-0.6819171905517578,0.6116898059844971,0.9217313528060913
1761469087575311400,7.562311279296875,-0.6938367486000061,0.6338539719581604,0.9405660033226013
1761469087585298000,7.5722978515625,-0.7142301797866821,0.6744455695152283,0.9665070176124573
1761469087595281000,7.582281005859375,-0.7328872084617615,0.695900022983551,0.9858084917068481
1761469087605264000,7.592263916015625,-0.7561876177787781,0.6863950490951538,0.9896600246429443
1761469087615247000,7.6022470703125,-0.7774162292480469,0.689224898815155,0.9863632917404175
1761469087625229800,7.612229736328125,-0.8030637502670288,0.7043365240097046,0.9698524475097656
1761469087635212800,7.622212890625,-0.8320951461791992,0.7050023078918457,0.9414677023887634
1761469087645195000,7.632195068359375,-0.8534243702888489,0.6975763440132141,0.907705545425415
1761469087655177700,7.642177734375,-0.8643057942390442,0.6875447630882263,0.8736011385917664
1761469087665161000,7.652160888671875,-0.8582091331481934,0.6643924713134766,0.837770402431488
1761469087675144000,7.66214404296875,-0.8480827212333679,0.6419244408607483,0.8078580498695374
1761469087685127000,7.672126953125,-0.8286282420158386,0.6385985016822815,0.7877355217933655
1761469087695110000,7.68210986328125,-0.802970290184021,0.630124032497406,0.7680256962776184
1761469087705092900,7.6920927734375,-0.7823279500007629,0.6150869727134705,0.7609724998474121
1761469087715076000,7.702076171875,-0.7692499756813049,0.601523756980896,0.7571071982383728
1761469087725058800,7.712058837890625,-0.7550452351570129,0.5941774845123291,0.745214581489563
1761469087735041800,7.722041748046875,-0.7457765936851501,0.5878745913505554,0.7262089252471924
1761469087745025000,7.73202490234375,-0.7300885319709778,0.5699090957641602,0.7124190330505371
1761469087755008000,7.742008056640625,-0.7178710103034973,0.5759126543998718,0.7125937342643738
1761469087764990700,7.75199072265625,-0.705731213092804,0.5966248512268066,0.7176918983459473
1761469087774974000,7.761973876953125,-0.6955187916755676,0.6180428266525269,0.7249372601509094
1761469087784957000,7.77195703125,-0.6962468028068542,0.6250402927398682,0.7297639846801758
1761469087794940000,7.78193994140625,-0.6976867914199829,0.6247721314430237,0.7478487491607666
1761469087804923000,7.7919228515625,-0.6969277858734131,0.6197571158409119,0.7685847282409668
1761469087814905900,7.80190576171875,-0.6920579075813293,0.584326446056366,0.7835460901260376
1761469087824888800,7.811888916015625,-0.6817073225975037,0.543165385723114,0.7916267514228821
1761469087834870800,7.821870849609375,-0.6603552103042603,0.5164815783500671,0.7931391596794128
1761469087844853800,7.831853759765625,-0.642056405544281,0.49925509095191956,0.7954438924789429
1761469087854837000,7.8418369140625,-0.6146652102470398,0.47777804732322693,0.7876661419868469
1761469087864820000,7.851820068359375,-0.5960797667503357,0.4614039957523346,0.7724083662033081
1761469087874803000,7.861802978515625,-0.5894085168838501,0.45843830704689026,0.7860938310623169
1761469087884786000,7.871785888671875,-0.5817046761512756,0.4501493275165558,0.810413122177124
1761469087894769000,7.881768798828125,-0.563818097114563,0.45025771856307983,0.828715980052948
1761469087904752000,7.891752197265625,-0.5613949298858643,0.4300900399684906,0.8383842706680298
1761469087914734800,7.90173486328125,-0.5544512867927551,0.39907726645469666,0.8318459391593933
1761469087924717800,7.9117177734375,-0.5527499318122864,0.36162829399108887,0.8273256421089172
1761469087934701000,7.921701171875,-0.5527214407920837,0.32028672099113464,0.8453674912452698
1761469087944683800,7.931683837890625,-0.5488628149032593,0.28732210397720337,0.8723410367965698
1761469087954666800,7.941666748046875,-0.5504194498062134,0.25493061542510986,0.9028371572494507
1761469087964650000,7.95164990234375,-0.5570861101150513,0.23555901646614075,0.9352166652679443
1761469087974633000,7.961633056640625,-0.5557060837745667,0.2625589370727539,0.9674065709114075
1761469087984615700,7.97161572265625,-0.5441396236419678,0.3352081775665283,0.9881494641304016
1761469087994599000,7.981598876953125,-0.5268692970275879,0.4189041256904602,0.9809280633926392
1761469088004582000,7.991581787109375,-0.49138861894607544,0.48672544956207275,0.9434165954589844
1761469088014564900,8.00156494140625,-0.4429776668548584,0.514811098575592,0.9198473691940308
1761469088024546800,8.011546875,-0.3916904032230377,0.5072529315948486,0.9315378665924072
1761469088034530000,8.021530029296875,-0.3406144380569458,0.4502841830253601,0.899043083190918
1761469088044513000,8.031512939453124,-0.30728843808174133,0.39146456122398376,0.8565720319747925
1761469088054495700,8.041495849609374,-0.2980784475803375,0.35107743740081787,0.8380899429321289
1761469088064478000,8.05147802734375,-0.33108487725257874,0.35165584087371826,0.8632152676582336
1761469088074461000,8.0614609375,-0.409594863653183,0.375394731760025,0.8933015465736389
1761469088084444000,8.07144384765625,-0.5124956369400024,0.400653213262558,0.9078216552734375
1761469088094427000,8.081427001953125,-0.618174135684967,0.45312973856925964,0.9180119633674622
1761469088104409900,8.091409912109375,-0.6868715882301331,0.5318803787231445,0.9174154996871948
1761469088114393000,8.10139306640625,-0.7544479370117188,0.5919098854064941,0.8562061786651611
