time,seconds_elapsed,z,y,x
1761469152444910800,0.123910888671875,0.1862448900938034,-0.3798004388809204,0.575284481048584
1761469152454893800,0.133893798828125,0.1713183969259262,-0.4603445529937744,0.616458535194397
1761469152464876800,0.143876708984375,0.14964358508586884,-0.4792502522468567,0.5766313076019287
1761469152474860800,0.15386083984375,0.12859024107456207,-0.4466305077075958,0.49081259965896606
1761469152484844000,0.163843994140625,0.11113441735506058,-0.37584373354911804,0.40667077898979187
1761469152494826800,0.17382666015625,0.09558874368667603,-0.29362156987190247,0.3289472162723541
1761469152504810000,0.18381005859375,0.07476581633090973,-0.19158291816711426,0.25529882311820984
1761469152514793000,0.19379296875,0.05560490861535072,-0.03599786385893822,0.18734481930732727
1761469152524776000,0.20377587890625,0.03790055215358734,0.14391286671161652,0.12318508327007294
1761469152534759000,0.213759033203125,0.029435697942972183,0.2908855378627777,0.08196254074573517
1761469152544743000,0.223742919921875,-0.00016292696818709373,0.3828228712081909,0.06715366244316101
1761469152554726000,0.233725830078125,-0.0301144327968359,0.4131312370300293,0.0690104216337204
1761469152564708900,0.243708984375,-0.05700070410966873,0.42110636830329895,0.08199390023946762
1761469152574691800,0.25369189453125,-0.08883479982614517,0.38349801301956177,0.07304567843675613
1761469152584674800,0.2636748046875,-0.11691907048225403,0.24315908551216125,0.04657861962914467
1761469152594657800,0.27365771484375,-0.14261245727539062,0.06712173670530319,0.0020194081589579582
1761469152604641000,0.28364111328125,-0.16816888749599457,-0.06081423535943031,-0.026203962042927742
1761469152614625000,0.293625,-0.1989811360836029,-0.11008618026971817,-0.024614587426185608
1761469152624607700,0.303607666015625,-0.21284401416778564,-0.12330466508865356,-0.0018600188195705414
1761469152634591000,0.313591064453125,-0.20335274934768677,-0.14014942944049835,0.03700455650687218
1761469152644578000,0.323578125,-0.1927347034215927,-0.14035825431346893,0.06343052536249161
1761469152654561000,0.33356103515625,-0.17288802564144135,-0.11903459578752518,0.07029775530099869
1761469152664544000,0.3435439453125,-0.14695359766483307,-0.0814189612865448,0.05334886908531189
1761469152674527000,0.35352685546875,-0.12580330669879913,-0.05446084961295128,0.012051763944327831
1761469152684511000,0.363510986328125,-0.10693159699440002,-0.053452420979738235,-0.04585499316453934
1761469152694494000,0.373493896484375,-0.09537507593631744,-0.06363768130540848,-0.10554442554712296
1761469152704477200,0.383477294921875,-0.08317574858665466,-0.06151673570275307,-0.16865374147891998
1761469152714460200,0.393460205078125,-0.07362726330757141,-0.06363261491060257,-0.22369489073753357
1761469152724443000,0.40344287109375,-0.07395962625741959,-0.07719820737838745,-0.2591733932495117
1761469152734426000,0.413426025390625,-0.07216119021177292,-0.08660156279802322,-0.28109389543533325
1761469152744409000,0.4234091796875,-0.07466734200716019,-0.08324633538722992,-0.2939477860927582
1761469152754392000,0.43339208984375,-0.07611823827028275,-0.0823776125907898,-0.3092140853404999
1761469152764375800,0.443375732421875,-0.07801361382007599,-0.08335784822702408,-0.322639137506485
1761469152774359000,0.453359130859375,-0.07441515475511551,-0.07794417440891266,-0.32012245059013367
1761469152784342000,0.463342041015625,-0.07570204138755798,-0.07113519310951233,-0.2985807955265045
1761469152794325000,0.473324951171875,-0.07093817740678787,-0.0809798389673233,-0.2659493386745453
1761469152804308000,0.483307861328125,-0.05996771156787872,-0.1004047691822052,-0.22392190992832184
1761469152814291000,0.493291015625,-0.052510060369968414,-0.11087871342897415,-0.18898923695087433
1761469152824274200,0.503274169921875,-0.04188067838549614,-0.11435525864362717,-0.16737525165081024
1761469152834258200,0.513258056640625,-0.01978735812008381,-0.12473279982805252,-0.1546059250831604
1761469152844241200,0.5232412109375,0.012518031522631645,-0.1685013324022293,-0.13862547278404236
1761469152854224000,0.533223876953125,0.0474640317261219,-0.2085890918970108,-0.10432902723550797
1761469152864207000,0.54320703125,0.08727634698152542,-0.2112254500389099,-0.07655365765094757
1761469152874190000,0.553190185546875,0.13034898042678833,-0.21247154474258423,-0.061640750616788864
1761469152884172800,0.5631728515625,0.1804920881986618,-0.20861341059207916,-0.04185127466917038
1761469152894156000,0.573156005859375,0.21942590177059174,-0.18090321123600006,-0.013796201907098293
1761469152904139000,0.583138916015625,0.2544249892234802,-0.14301364123821259,0.013490564189851284
1761469152914123000,0.593123046875,0.28508758544921875,-0.13661886751651764,0.02318420633673668
1761469152924106200,0.603106201171875,0.30553364753723145,-0.12366092205047607,0.03269236907362938
1761469152934089000,0.6130888671875,0.33109068870544434,-0.14956815540790558,0.017888393253087997
1761469152944072000,0.623072021484375,0.35004207491874695,-0.20444342494010925,0.0014180277939885855
1761469152954055200,0.63305517578125,0.36081695556640625,-0.2538791298866272,-0.007776269689202309
1761469152964038100,0.6430380859375,0.35942959785461426,-0.26620614528656006,-0.00468090083450079
1761469152974020900,0.653020751953125,0.3389514684677124,-0.2502908408641815,-0.014580936171114445
1761469152984004900,0.6630048828125,0.3003355860710144,-0.22525654733181,-0.03785202279686928
1761469152993988000,0.672988037109375,0.2610403895378113,-0.2038005143404007,-0.07216392457485199
1761469153003971000,0.68297119140625,0.2295359969139099,-0.1793355792760849,-0.0954229012131691
1761469153013954000,0.6929541015625,0.20465834438800812,-0.1466791033744812,-0.09901763498783112
1761469153023937000,0.70293701171875,0.19438208639621735,-0.12646988034248352,-0.08642427623271942
1761469153033920000,0.712919921875,0.19755816459655762,-0.12230869382619858,-0.06536959111690521
1761469153043903200,0.7229033203125,0.19709910452365875,-0.1288607120513916,-0.044363632798194885
1761469153053886000,0.732885986328125,0.19889673590660095,-0.11730338633060455,-0.023780059069395065
1761469153063870000,0.742869873046875,0.1990014910697937,-0.06477148830890656,0.011360104195773602
1761469153073853000,0.75285302734375,0.2056143879890442,-0.019415725022554398,0.023161903023719788
1761469153083836200,0.762836181640625,0.20167483389377594,-0.04506469890475273,0.008194522000849247
1761469153093819100,0.772819091796875,0.18632276356220245,-0.10992944985628128,-0.020143376663327217
1761469153103801900,0.7828017578125,0.14992913603782654,-0.14283215999603271,-0.02803068794310093
1761469153113785000,0.79278515625,0.1035669669508934,-0.13089187443256378,-0.04385439306497574
1761469153123768000,0.80276806640625,0.05759481340646744,-0.13324898481369019,-0.08812728524208069
1761469153133752000,0.812751953125,0.03341304510831833,-0.13919848203659058,-0.15206100046634674
1761469153143735000,0.822735107421875,0.027412377297878265,-0.15655304491519928,-0.18650339543819427
1761469153153718000,0.832718017578125,0.041420601308345795,-0.1856406182050705,-0.17024587094783783
1761469153163701000,0.842700927734375,0.050953932106494904,-0.22224265336990356,-0.14049936830997467
1761469153173684200,0.852684326171875,0.048128582537174225,-0.2530663311481476,-0.12563493847846985
1761469153183667000,0.8626669921875,0.031095996499061584,-0.2815726399421692,-0.13537417352199554
1761469153193650000,0.87264990234375,0.018212156370282173,-0.30973076820373535,-0.14385101199150085
1761469153203634000,0.882634033203125,-0.00029457593336701393,-0.3525438606739044,-0.1462576538324356
1761469153213617200,0.8926171875,-0.010188219137489796,-0.39927247166633606,-0.14015315473079681
1761469153223600000,0.90260009765625,-0.010983312502503395,-0.3926917612552643,-0.12550078332424164
1761469153233582800,0.912582763671875,-0.020242324098944664,-0.35133448243141174,-0.11911505460739136
1761469153243566000,0.922566162109375,-0.03390389308333397,-0.27616679668426514,-0.12829376757144928
1761469153253549000,0.932549072265625,-0.053762286901474,-0.17488063871860504,-0.1459723562002182
1761469153263532000,0.942531982421875,-0.0685846209526062,-0.05445340648293495,-0.16802817583084106
1761469153273515000,0.952514892578125,-0.08754739165306091,0.050519611686468124,-0.19205547869205475
1761469153283499000,0.9624990234375,-0.09565187245607376,0.13928616046905518,-0.21032172441482544
1761469153293482000,0.97248193359375,-0.094027079641819,0.20305556058883667,-0.2084340751171112
1761469153303465200,0.98246533203125,-0.09896587580442429,0.2237348109483719,-0.19005398452281952
1761469153313448000,0.992447998046875,-0.11594406515359879,0.2105654776096344,-0.1557559370994568
1761469153323431000,1.002430908203125,-0.12184631824493408,0.1847636103630066,-0.12107804417610168
1761469153333414100,1.0124140625,-0.11720922589302063,0.14202120900154114,-0.09022293239831924
1761469153343397000,1.022397216796875,-0.10145772248506546,0.12696655094623566,-0.07062766700983047
1761469153353379800,1.0323798828125,-0.06708323955535889,0.0963287428021431,-0.061405934393405914
1761469153363364000,1.042364013671875,-0.022232014685869217,0.056527022272348404,-0.05146097391843796
1761469153373347000,1.05234716796875,0.013875923119485378,0.014695687219500542,-0.037119850516319275
1761469153383330000,1.062330078125,0.04853413254022598,-0.013443564996123314,-0.02729116939008236
1761469153393313000,1.07231298828125,0.08256613463163376,-0.012476305477321148,-0.004165611229836941
1761469153403296000,1.0822958984375,0.11724171787500381,-0.012146507389843464,0.02596052549779415
1761469153413279000,1.092279052734375,0.15268759429454803,-0.0077291214838624,0.06131611764431
1761469153423262200,1.10226220703125,0.17509673535823822,0.019977187737822533,0.08627930283546448
1761469153433246200,1.11224609375,0.18681864440441132,0.0686669647693634,0.09466373175382614
1761469153443229000,1.12222900390625,0.18770939111709595,0.14947651326656342,0.10293091833591461
1761469153453212000,1.1322119140625,0.1847546100616455,0.2296307384967804,0.11121094971895218
1761469153463195100,1.142195068359375,0.17431528866291046,0.2883979082107544,0.11634526401758194
1761469153473178000,1.15217822265625,0.14981234073638916,0.3284529149532318,0.11249645799398422
1761469153483161000,1.1621611328125,0.10339299589395523,0.35158172249794006,0.10716450959444046
1761469153493144000,1.17214404296875,0.05123845487833023,0.36330974102020264,0.10269146412611008
1761469153503127000,1.182126953125,-0.010194718837738037,0.38565173745155334,0.09968147426843643
1761469153513111000,1.192111083984375,-0.06272956728935242,0.40908515453338623,0.08735556155443192
1761469153523094000,1.202093994140625,-0.10648800432682037,0.4292639195919037,0.0627421960234642
1761469153533077000,1.212076904296875,-0.133357435464859,0.4518214166164398,0.05045037716627121
1761469153543060000,1.22206005859375,-0.15513408184051514,0.47231510281562805,0.043689094483852386
1761469153553043200,1.232043212890625,-0.16684027016162872,0.486215204000473,0.04462279751896858
1761469153563026000,1.24202587890625,-0.172154039144516,0.49923408031463623,0.0517398938536644
1761469153573009000,1.2520087890625,-0.17437458038330078,0.5132769346237183,0.05409519374370575
1761469153582992100,1.2619921875,-0.17602413892745972,0.5208738446235657,0.05685518682003021
1761469153592976100,1.27197607421875,-0.16833291947841644,0.5124510526657104,0.06417489051818848
1761469153602958800,1.281958740234375,-0.17153532803058624,0.47800543904304504,0.07173193246126175
1761469153612942000,1.291942138671875,-0.17970165610313416,0.42582613229751587,0.08861317485570908
1761469153622925000,1.301925048828125,-0.1982203722000122,0.3829420208930969,0.1251324862241745
1761469153632908000,1.311907958984375,-0.2203376591205597,0.3401290476322174,0.17343850433826447
1761469153642887200,1.32188720703125,-0.24173930287361145,0.30421411991119385,0.2272254228591919
1761469153652870100,1.3318701171875,-0.27444103360176086,0.284554123878479,0.27954909205436707
1761469153662853000,1.34185302734375,-0.3077048063278198,0.27523118257522583,0.31825798749923706
1761469153672837400,1.35183740234375,-0.32778266072273254,0.2498706877231598,0.3480595648288727
1761469153682820000,1.361820068359375,-0.3483498990535736,0.20287872850894928,0.374006986618042
1761469153692803000,1.371802978515625,-0.36533793807029724,0.16759929060935974,0.4006199538707733
1761469153702786300,1.381786376953125,-0.37016332149505615,0.14914092421531677,0.41757816076278687
1761469153712769300,1.391769287109375,-0.3804425895214081,0.15975388884544373,0.4238152801990509
1761469153722752000,1.401751953125,-0.38671353459358215,0.18796369433403015,0.4136697053909302
1761469153732735200,1.4117353515625,-0.3862227201461792,0.2087925374507904,0.39610084891319275
1761469153742718200,1.42171826171875,-0.3750625252723694,0.2106984704732895,0.37712305784225464
1761469153752702200,1.4317021484375,-0.3668709099292755,0.16820640861988068,0.3688656687736511
1761469153762685200,1.441685302734375,-0.34794530272483826,0.12742199003696442,0.3685356378555298
1761469153772668200,1.451668212890625,-0.33297407627105713,0.11659197509288788,0.3784694969654083
1761469153782651100,1.461651123046875,-0.3186986446380615,0.11054440587759018,0.37714314460754395
1761469153792634400,1.47163427734375,-0.30330318212509155,0.08286430686712265,0.3795383870601654
1761469153802617000,1.4816171875,-0.2918176054954529,0.04608112573623657,0.39746496081352234
1761469153812600000,1.49160009765625,-0.27539414167404175,0.01071887370198965,0.43342775106430054
1761469153822583300,1.501583251953125,-0.2497500628232956,-0.00010566087439656258,0.4674748182296753
1761469153832567300,1.5115673828125,-0.22079432010650635,0.008627377450466156,0.4990535080432892
1761469153842550000,1.521550048828125,-0.19267919659614563,0.02451440691947937,0.5232552289962769
1761469153852533000,1.531532958984375,-0.1637285053730011,0.029073474928736687,0.5349579453468323
1761469153862516200,1.54151611328125,-0.1299603432416916,0.02234133891761303,0.5469991564750671
1761469153872499200,1.551499267578125,-0.09856459498405457,0.0020853353198617697,0.5788135528564453
1761469153882482200,1.561482177734375,-0.07568936794996262,-0.028131475672125816,0.6248829364776611
1761469153892465200,1.571465087890625,-0.06500902771949768,-0.047081731259822845,0.661364734172821
1761469153902449200,1.58144921875,-0.07666078209877014,-0.05938350409269333,0.6655979156494141
1761469153912432000,1.59143212890625,-0.09072227776050568,-0.066028892993927,0.6506898403167725
1761469153922415400,1.601415283203125,-0.10878322273492813,-0.09165027737617493,0.6163311004638672
1761469153932398000,1.611398193359375,-0.13370534777641296,-0.17085854709148407,0.5604271292686462
1761469153942381000,1.621381103515625,-0.1570596694946289,-0.2605903744697571,0.51380455493927
1761469153952364300,1.6313642578125,-0.17120026051998138,-0.33835920691490173,0.47227412462234497
1761469153962347300,1.64134716796875,-0.18633374571800232,-0.3786521255970001,0.43295222520828247
1761469153972330000,1.651330078125,-0.20269086956977844,-0.3551289439201355,0.3829074501991272
1761469153982314000,1.66131396484375,-0.21840916574001312,-0.25458210706710815,0.31479117274284363
1761469153992297200,1.671297119140625,-0.2589925527572632,-0.08534408360719681,0.23977738618850708
1761469154002280200,1.6812802734375,-0.29043182730674744,0.13770754635334015,0.16621056199073792
1761469154012263200,1.69126318359375,-0.3171428143978119,0.3727045953273773,0.11349701881408691
1761469154022246100,1.70124609375,-0.34236031770706177,0.5341594219207764,0.0863141268491745
1761469154032229000,1.71122900390625,-0.36884012818336487,0.5852596163749695,0.1060207188129425
1761469154042212400,1.72121240234375,-0.3885091543197632,0.5207332968711853,0.15537847578525543
1761469154052195000,1.731195068359375,-0.3780258893966675,0.3840812146663666,0.16757094860076904
1761469154062179000,1.741178955078125,-0.3563093841075897,0.194526806473732,0.1242181584239006
1761469154072162000,1.751162109375,-0.3475252091884613,0.01891797035932541,0.0585496723651886
1761469154082145300,1.761145263671875,-0.36158090829849243,-0.09321378171443939,0.017952699214220047
1761469154092128000,1.7711279296875,-0.3580716550350189,-0.2010531723499298,0.01032380759716034
1761469154102111000,1.781111083984375,-0.35808613896369934,-0.29751333594322205,0.029278408735990524
1761469154112094200,1.79109423828125,-0.35870984196662903,-0.34504035115242004,0.07583419233560562
1761469154122077200,1.8010771484375,-0.3692212998867035,-0.3479992747306824,0.12785468995571136
1761469154132060200,1.81106005859375,-0.3759889006614685,-0.2951080799102783,0.1577066034078598
1761469154142044200,1.821044189453125,-0.38640734553337097,-0.20672385394573212,0.15248869359493256
1761469154152027100,1.831027099609375,-0.38507071137428284,-0.09687486290931702,0.12301468104124069
1761469154162010000,1.841010009765625,-0.37850701808929443,0.010709982365369797,0.07777680456638336
1761469154171993300,1.850993408203125,-0.3732241094112396,0.08728092163801193,0.03547701984643936
1761469154181976000,1.86097607421875,-0.3644430637359619,0.13396351039409637,0.006243458949029446
1761469154191959000,1.870958984375,-0.36603057384490967,0.17291542887687683,-0.01072939857840538
1761469154201942300,1.8809423828125,-0.3669675290584564,0.20099124312400818,-0.0002944993320852518
1761469154211925200,1.89092529296875,-0.37628111243247986,0.2223852127790451,0.028118766844272614
1761469154221909000,1.900908935546875,-0.3740188181400299,0.2553587555885315,0.058448534458875656
1761469154231892200,1.910892333984375,-0.3727506101131439,0.2864280045032501,0.06563694030046463
1761469154241875200,1.920875244140625,-0.36538058519363403,0.29246869683265686,0.06934667378664017
1761469154251858200,1.930858154296875,-0.3589346706867218,0.28027328848838806,0.07615797221660614
1761469154261841200,1.940841064453125,-0.344732403755188,0.26370859146118164,0.11020661890506744
1761469154271824100,1.95082421875,-0.3366912603378296,0.25564587116241455,0.1462959200143814
1761469154281807000,1.96080712890625,-0.32240164279937744,0.27462533116340637,0.18305236101150513
1761469154291790300,1.970790283203125,-0.3054943084716797,0.2948184907436371,0.19873544573783875
1761469154301774300,1.9807744140625,-0.29826489090919495,0.2975353002548218,0.19691960513591766
1761469154311757000,1.990757080078125,-0.28593766689300537,0.2816692590713501,0.1716131716966629
1761469154321740000,2.000739990234375,-0.24916715919971466,0.27050986886024475,0.149607852101326
1761469154331723300,2.01072314453125,-0.2093672752380371,0.27001556754112244,0.14793485403060913
1761469154341706000,2.0207060546875,-0.1725362092256546,0.32902833819389343,0.188058540225029
1761469154351689200,2.030689208984375,-0.13594864308834076,0.375686377286911,0.2324555665254593
1761469154361672200,2.040672119140625,-0.1241370141506195,0.3833620250225067,0.2605952024459839
1761469154371655200,2.0506552734375,-0.1120704934000969,0.3588484525680542,0.2912748157978058
1761469154381638100,2.06063818359375,-0.12305004894733429,0.3217464089393616,0.3237350583076477
1761469154391622100,2.0706220703125,-0.14201442897319794,0.25951552391052246,0.328389972448349
1761469154401605000,2.080605224609375,-0.17377644777297974,0.23540037870407104,0.3070821166038513
1761469154411588000,2.090588134765625,-0.21346980333328247,0.23857566714286804,0.27435508370399475
1761469154421571300,2.1005712890625,-0.2304406613111496,0.2274910807609558,0.22655817866325378
1761469154431554000,2.110553955078125,-0.24926547706127167,0.19828152656555176,0.1861894428730011
1761469154441537000,2.120537109375,-0.24999302625656128,0.16228348016738892,0.16646789014339447
1761469154451520300,2.130520263671875,-0.24327228963375092,0.16949211061000824,0.18929091095924377
1761469154461503200,2.140503173828125,-0.23465454578399658,0.19537444412708282,0.23553095757961273
1761469154471487000,2.150487060546875,-0.22989892959594727,0.18179337680339813,0.2693139314651489
1761469154481470200,2.16047021484375,-0.22912758588790894,0.1442805975675583,0.28156983852386475
1761469154491453200,2.170453125,-0.21795909106731415,0.11347181349992752,0.2753191292285919
1761469154501436200,2.180436279296875,-0.1935768574476242,0.10742101818323135,0.2567445933818817
1761469154511419100,2.190419189453125,-0.18378335237503052,0.06375742703676224,0.24523785710334778
1761469154521402000,2.200402099609375,-0.1838991492986679,0.008478672243654728,0.2515675127506256
1761469154531385000,2.210385009765625,-0.17985832691192627,-0.056793276220560074,0.2548496127128601
1761469154541368300,2.220368408203125,-0.1983550488948822,-0.06013740599155426,0.20479415357112885
1761469154551352300,2.230352294921875,-0.2248431146144867,0.008964432403445244,0.1375967264175415
1761469154561335000,2.2403349609375,-0.21756966412067413,0.04109755530953407,0.0717899426817894
1761469154571318300,2.250318359375,-0.1815810352563858,0.018242573365569115,0.02746003121137619
1761469154581301200,2.26030126953125,-0.12917263805866241,-0.03565046563744545,0.02666470967233181
1761469154591284000,2.270283935546875,-0.0451352633535862,-0.12563654780387878,0.057497188448905945
1761469154601267200,2.28026708984375,0.029343586415052414,-0.24100039899349213,0.1010567769408226
1761469154611250200,2.290250244140625,0.08250081539154053,-0.3520273268222809,0.12294901907444
1761469154621233200,2.300233154296875,0.1219918355345726,-0.42310434579849243,0.10158361494541168
1761469154631217200,2.310217041015625,0.12414686381816864,-0.3948684334754944,0.006054431200027466
1761469154641200000,2.3202001953125,0.123340904712677,-0.2697685956954956,-0.13671615719795227
1761469154651183600,2.33018359375,0.12852422893047333,-0.12422685325145721,-0.28033509850502014
1761469154661166600,2.34016650390625,0.143375426530838,-0.02792220376431942,-0.39539042115211487
1761469154671149800,2.35014990234375,0.14949750900268555,0.022887712344527245,-0.45192691683769226
1761469154681132500,2.360132568359375,0.16383568942546844,0.018689841032028198,-0.4482041299343109
1761469154691115500,2.370115478515625,0.17570672929286957,-0.007035229820758104,-0.4130381643772125
1761469154701098800,2.3800986328125,0.17903991043567657,-0.013217568397521973,-0.3778389096260071
1761469154711082800,2.390082763671875,0.17399242520332336,0.00017067440785467625,-0.3661404252052307
1761469154721065700,2.400065673828125,0.16736072301864624,0.03491576761007309,-0.37417274713516235
1761469154731048700,2.410048583984375,0.16358701884746552,0.05764371529221535,-0.3774590790271759
1761469154741031700,2.42003173828125,0.16292734444141388,0.07439214736223221,-0.3617613911628723
1761469154751014700,2.4300146484375,0.16801612079143524,0.06321166455745697,-0.3173036575317383
1761469154760998000,2.439997802734375,0.1895204335451126,0.024385182186961174,-0.26212283968925476
1761469154770980600,2.449980712890625,0.2175653725862503,-0.011087323538959026,-0.20828674733638763
1761469154780963600,2.459963623046875,0.24831153452396393,-0.036636367440223694,-0.1590297967195511
1761469154790947600,2.469947509765625,0.28251662850379944,-0.06845874339342117,-0.11155441403388977
1761469154800930800,2.479930908203125,0.31633275747299194,-0.07625433057546616,-0.07216320931911469
1761469154810913500,2.48991357421875,0.3455673158168793,-0.06943237781524658,-0.030233602970838547
1761469154820896500,2.499896484375,0.3603106141090393,-0.03964191675186157,-0.0034198265057057142
1761469154830879700,2.509879638671875,0.3557707369327545,0.01091553270816803,-0.007255843840539455
1761469154840862700,2.51986279296875,0.33330512046813965,0.06015491485595703,-0.024967672303318977
1761469154850845700,2.529845703125,0.3020545244216919,0.10485740751028061,-0.062311314046382904
1761469154860828700,2.53982861328125,0.2822819650173187,0.11798261851072311,-0.10541797429323196
1761469154870811600,2.549811767578125,0.2736935317516327,0.11441557854413986,-0.15233221650123596
1761469154880795600,2.559795654296875,0.2683117985725403,0.09464254230260849,-0.19121022522449493
1761469154890778600,2.569778564453125,0.26640310883522034,0.05523841083049774,-0.2188841849565506
1761469154900761600,2.57976171875,0.26774561405181885,0.030290845781564713,-0.24061733484268188
1761469154910744600,2.58974462890625,0.26872512698173523,0.008426825515925884,-0.2580578327178955
1761469154920727800,2.599727783203125,0.26366204023361206,0.01279343944042921,-0.2892662584781647
1761469154930710500,2.60971044921875,0.25406187772750854,0.04153081029653549,-0.3195740878582001
1761469154940693500,2.619693603515625,0.2436649054288864,0.07253500074148178,-0.3455297350883484
1761469154950676700,2.6296767578125,0.23771807551383972,0.08623988926410675,-0.36952507495880127
1761469154960660700,2.63966064453125,0.23276153206825256,0.08566489070653915,-0.3845351040363312
1761469154970643700,2.649643798828125,0.22058343887329102,0.08277615904808044,-0.3980810046195984
1761469154980626700,2.659626708984375,0.200197234749794,0.07830452173948288,-0.4162661135196686
1761469154990609700,2.669609619140625,0.17778167128562927,0.07427702844142914,-0.4287145435810089
1761469155000592600,2.679592529296875,0.14737601578235626,0.08116687089204788,-0.43012505769729614
1761469155010576000,2.689575927734375,0.1255069375038147,0.07114139944314957,-0.41560524702072144
1761469155020558600,2.69955859375,0.10472844541072845,0.05933893099427223,-0.38451990485191345
1761469155030541600,2.70954150390625,0.09669342637062073,0.054538849741220474,-0.3382166028022766
1761469155040525600,2.719525634765625,0.09936398267745972,0.05925910174846649,-0.28862759470939636
1761469155050508800,2.7295087890625,0.10018769651651382,0.08695916831493378,-0.2432020604610443
1761469155060491500,2.739491455078125,0.11214278638362885,0.0896163061261177,-0.19606098532676697
1761469155070474800,2.749474853515625,0.12401142716407776,0.02987920492887497,-0.15440303087234497
1761469155080457700,2.759457763671875,0.14337091147899628,-0.07014688849449158,-0.10819299519062042
1761469155090440700,2.769440673828125,0.15419745445251465,-0.1675988733768463,-0.075339175760746
1761469155100423700,2.779423583984375,0.15875546634197235,-0.22863778471946716,-0.04807357117533684
1761469155110406700,2.78940673828125,0.17780505120754242,-0.24269793927669525,-0.036990825086832047
1761469155120389600,2.7993896484375,0.18634791672229767,-0.22697392106056213,-0.04190915822982788
1761469155130373600,2.80937353515625,0.1912262886762619,-0.22304494678974152,-0.0506853386759758
1761469155140356600,2.819356689453125,0.1931103765964508,-0.2586664855480194,-0.03244222328066826
1761469155150339600,2.829339599609375,0.18608255684375763,-0.2840370833873749,0.023784296587109566
1761469155160322600,2.839322509765625,0.17407149076461792,-0.2638799548149109,0.09233631193637848
1761469155170305800,2.849305908203125,0.1592555195093155,-0.1767415851354599,0.13889555633068085
1761469155180288500,2.85928857421875,0.15285739302635193,-0.002145723905414343,0.13602960109710693
1761469155190271500,2.869271484375,0.15421107411384583,0.22316674888134003,0.09423474222421646
1761469155200254700,2.879254638671875,0.14945848286151886,0.4249657392501831,0.03631318733096123
1761469155210238700,2.88923876953125,0.1429142951965332,0.5032908916473389,0.01665213704109192
1761469155220221700,2.8992216796875,0.16214366257190704,0.43362703919410706,0.06325501203536987
1761469155230204700,2.90920458984375,0.18440422415733337,0.2344561219215393,0.171024352312088
1761469155240187600,2.919187744140625,0.1962917447090149,-0.018570885062217712,0.29865339398384094
1761469155250170600,2.929170654296875,0.18814833462238312,-0.19063346087932587,0.39140596985816956
1761469155260153900,2.93915380859375,0.14629949629306793,-0.26454803347587585,0.40445348620414734
1761469155270136600,2.949136474609375,0.08306300640106201,-0.28247055411338806,0.3693072199821472
1761469155280119600,2.95911962890625,0.031024882569909096,-0.2700563073158264,0.3246300220489502
1761469155290102800,2.969102783203125,-0.02213474176824093,-0.26579150557518005,0.29186221957206726
1761469155300086800,2.979086669921875,-0.051685165613889694,-0.246200829744339,0.28024822473526
1761469155310069500,2.989069580078125,-0.08085476607084274,-0.18684162199497223,0.2760457694530487
1761469155320052700,2.999052734375,-0.11257357150316238,-0.07230877876281738,0.2720775306224823
1761469155330035700,3.00903564453125,-0.1438521295785904,0.0785912498831749,0.24294626712799072
1761469155340018700,3.019018798828125,-0.16925117373466492,0.23554959893226624,0.1956552118062973
1761469155350001700,3.029001708984375,-0.18069371581077576,0.3698509633541107,0.15010662376880646
1761469155359984600,3.038984619140625,-0.18805257976055145,0.45798173546791077,0.12758833169937134
1761469155369967600,3.048967529296875,-0.21309322118759155,0.48632654547691345,0.14061278104782104
1761469155379951600,3.05895166015625,-0.23711496591567993,0.4767029285430908,0.16076751053333282
1761469155389934600,3.0689345703125,-0.2644941210746765,0.46477141976356506,0.1638421267271042
1761469155399917600,3.07891748046875,-0.28026026487350464,0.40809279680252075,0.16589251160621643
1761469155409900500,3.088900634765625,-0.297301322221756,0.3554255962371826,0.156846284866333
1761469155419883800,3.0988837890625,-0.3414112627506256,0.3083399534225464,0.15735340118408203
1761469155429866500,3.108866455078125,-0.3882797062397003,0.27032890915870667,0.16033373773097992
1761469155439849700,3.118849609375,-0.43211424350738525,0.23419298231601715,0.1607954353094101
1761469155449832700,3.128832763671875,-0.4683164656162262,0.2282983362674713,0.160300612449646
1761469155459815700,3.138815673828125,-0.5009368658065796,0.265385240316391,0.15931212902069092
1761469155469799700,3.148799560546875,-0.5213038921356201,0.32588163018226624,0.16261418163776398
1761469155479782700,3.15878271484375,-0.5228292346000671,0.38900652527809143,0.16516616940498352
1761469155489765600,3.168765625,-0.5215535759925842,0.45817866921424866,0.15010200440883636
1761469155499748600,3.17874853515625,-0.5115264058113098,0.5378032326698303,0.11945589631795883
1761469155509731800,3.18873193359375,-0.48873719573020935,0.5982790589332581,0.09051239490509033
1761469155519714600,3.198714599609375,-0.4655592739582062,0.5973806977272034,0.06481745094060898
1761469155529697500,3.208697509765625,-0.45556896924972534,0.5570859909057617,0.04474148154258728
1761469155539680800,3.2186806640625,-0.4535651206970215,0.5121538043022156,0.02350257709622383
1761469155549664800,3.228664794921875,-0.4561220109462738,0.4461306035518646,-0.0024714975152164698
1761469155559647500,3.2386474609375,-0.46057403087615967,0.3409155011177063,-0.02361060306429863
1761469155569630700,3.248630615234375,-0.4666074216365814,0.24097053706645966,-0.028657294809818268
1761469155579613700,3.25861376953125,-0.4713464379310608,0.1671077162027359,-0.032292287796735764
1761469155589596700,3.2685966796875,-0.4794778525829315,0.11640751361846924,-0.034277673810720444
1761469155599579600,3.27857958984375,-0.46332067251205444,0.10655345022678375,-0.020838288590312004
1761469155609562600,3.288562744140625,-0.42847082018852234,0.11384518444538116,0.0053256722167134285
1761469155619545600,3.298545654296875,-0.39541253447532654,0.12095965445041656,0.02687745727598667
1761469155629528800,3.30852880859375,-0.3590249717235565,0.13779349625110626,0.05338389798998833
1761469155639512600,3.3185126953125,-0.2962140738964081,0.15927761793136597,0.09402362257242203
1761469155649495000,3.3284951171875,-0.24399693310260773,0.17768511176109314,0.13104742765426636
1761469155659478000,3.33847802734375,-0.1883469671010971,0.1773262619972229,0.1708826720714569
1761469155669461000,3.3484609375,-0.12910015881061554,0.15465344488620758,0.20190636813640594
1761469155679444000,3.35844384765625,-0.0672989934682846,0.12470125406980515,0.20990939438343048
1761469155689427200,3.36842724609375,-0.009605337865650654,0.08995792269706726,0.2133273035287857
1761469155699410000,3.378409912109375,0.03526868671178818,0.06904821842908859,0.22622500360012054
1761469155709393200,3.38839306640625,0.07257744669914246,0.05321333184838295,0.23906676471233368
1761469155719377200,3.398377197265625,0.09583799540996552,0.049920789897441864,0.2521660625934601
1761469155729360100,3.408360107421875,0.11196370422840118,0.07333503663539886,0.2590721547603607
1761469155739342800,3.4183427734375,0.12657907605171204,0.07789488881826401,0.22290928661823273
1761469155749326000,3.428326171875,0.1396021991968155,0.07641150802373886,0.17827896773815155
1761469155759309000,3.43830908203125,0.16142258048057556,0.047546397894620895,0.1548592448234558
1761469155769292000,3.4482919921875,0.16143296658992767,-0.028582725673913956,0.13572576642036438
1761469155779275000,3.45827490234375,0.14757151901721954,-0.1057981625199318,0.12275665998458862
1761469155789258000,3.468258056640625,0.13060931861400604,-0.1428331434726715,0.11654935777187347
1761469155799241000,3.478240966796875,0.08928368240594864,-0.12590110301971436,0.09365346282720566
1761469155809225000,3.488224853515625,0.042073823511600494,-0.06476610153913498,0.044716015458106995
1761469155819208200,3.498208251953125,0.00012211361899971962,-0.027136433869600296,0.005075130611658096
1761469155829191000,3.50819091796875,-0.016048867255449295,0.015373209491372108,-0.0004037907347083092
1761469155839174100,3.518174072265625,-0.012153565883636475,-0.007697918452322483,0.02302715927362442
1761469155849157000,3.5281572265625,0.0047018458135426044,-0.01715293899178505,0.07631488889455795
1761469155859139800,3.538139892578125,-0.0014067101292312145,-0.005544576793909073,0.1058555543422699
1761469155869123000,3.548123046875,-0.0258803628385067,0.051845744252204895,0.09873240441083908
1761469155879106000,3.55810595703125,-0.03445754200220108,0.1069418415427208,0.05900859460234642
1761469155889090000,3.568090087890625,-0.025208115577697754,0.1586228758096695,0.020105404779314995
1761469155899073000,3.578072998046875,-0.02144394814968109,0.1241585835814476,-0.015270842239260674
1761469155909056000,3.588055908203125,-0.025192612782120705,0.023273255676031113,-0.03036350943148136
1761469155919039000,3.5980390625,-0.019388606771826744,-0.11249232292175293,-0.00990762747824192
1761469155929022000,3.60802197265625,-0.004422440659254789,-0.20596501231193542,0.025947576388716698
1761469155939005200,3.618005126953125,0.026193033903837204,-0.22685803472995758,0.036015983670949936
1761469155948988000,3.62798779296875,0.07043612748384476,-0.19718775153160095,0.00007289787754416466
1761469155958971100,3.63797119140625,0.08545395731925964,-0.12113053351640701,-0.06874477863311768
1761469155968954000,3.6479541015625,0.08295990526676178,-0.030887462198734283,-0.13525137305259705
1761469155978938000,3.657938232421875,0.07064474374055862,0.037087343633174896,-0.1966179460287094
1761469155988920800,3.6679208984375,0.05520932748913765,0.06457863003015518,-0.22478805482387543
1761469155998904000,3.677904052734375,0.0465557724237442,0.0569722019135952,-0.22326593101024628
1761469156008887000,3.687886962890625,0.061552561819553375,0.06245538592338562,-0.20085622370243073
1761469156018870000,3.6978701171875,0.07556164264678955,0.11863631755113602,-0.17960220575332642
1761469156028853000,3.70785302734375,0.07491076737642288,0.19788293540477753,-0.17416642606258392
1761469156038836000,3.7178359375,0.06126765161752701,0.2850426137447357,-0.1691659837961197
1761469156048819000,3.72781884765625,0.04442582279443741,0.3409266471862793,-0.15031293034553528
1761469156058802200,3.73780224609375,0.025471525266766548,0.34814339876174927,-0.11755296587944031
1761469156068786200,3.7477861328125,0.006670139729976654,0.32938435673713684,-0.052552931010723114
1761469156078769000,3.757768798828125,-0.007176432758569717,0.22566774487495422,0.028336480259895325
1761469156088752000,3.767752197265625,0.011371951550245285,0.1837027221918106,0.1156839057803154
1761469156098735000,3.777735107421875,0.031225092709064484,0.15878920257091522,0.17091473937034607
1761469156108717800,3.7877177734375,0.05490591749548912,0.06709868460893631,0.18082170188426971
1761469156118701000,3.797701171875,0.09676115214824677,-0.04952414706349373,0.16965392231941223
1761469156128684000,3.80768408203125,0.1385280340909958,-0.08177050203084946,0.1812077760696411
1761469156138667000,3.8176669921875,0.1572982221841812,-0.04364842548966408,0.19574512541294098
1761469156148651000,3.827651123046875,0.15704680979251862,0.057088837027549744,0.19800402224063873
1761469156158634000,3.837634033203125,0.12491745501756668,0.18668925762176514,0.2017868459224701
1761469156168617000,3.847616943359375,0.07837418466806412,0.3276634216308594,0.2147258073091507
1761469156178600200,3.85760009765625,0.02157098427414894,0.43407493829727173,0.22632060945034027
1761469156188583200,3.867583251953125,-0.020348768681287766,0.5088762044906616,0.2342461794614792
1761469156198566000,3.87756591796875,-0.05215253308415413,0.5363546013832092,0.24391956627368927
1761469156208549000,3.887549072265625,-0.07978282868862152,0.5293997526168823,0.2589528560638428
1761469156218532000,3.897531982421875,-0.10684309154748917,0.4853900372982025,0.2941186726093292
1761469156228515000,3.90751513671875,-0.13787902891635895,0.40270501375198364,0.3395724594593048
1761469156238498800,3.917498779296875,-0.16861331462860107,0.3416091203689575,0.3830239772796631
1761469156248482000,3.92748193359375,-0.18174590170383453,0.33921971917152405,0.41845813393592834
1761469156258465000,3.937465087890625,-0.18766118586063385,0.37490737438201904,0.441508412361145
1761469156268448000,3.947447998046875,-0.1946631669998169,0.4093950390815735,0.4458051323890686
1761469156278431000,3.957430908203125,-0.1936035454273224,0.4183158278465271,0.45248082280158997
1761469156288414000,3.9674140625,-0.18617545068264008,0.39032042026519775,0.44431158900260925
1761469156298397200,3.977397216796875,-0.1828167885541916,0.34159088134765625,0.4341863989830017
1761469156308380200,3.987380126953125,-0.17943218350410461,0.2869872748851776,0.4313647747039795
1761469156318363000,3.99736279296875,-0.1785992830991745,0.24184779822826385,0.42208996415138245
1761469156328347000,4.007346923828125,-0.18223795294761658,0.21306994557380676,0.4113811254501343
1761469156338329000,4.0173291015625,-0.1763564646244049,0.19035354256629944,0.3999481201171875
1761469156348312000,4.02731201171875,-0.16441644728183746,0.1838759332895279,0.403763085603714
1761469156358295000,4.037294921875,-0.16069862246513367,0.18324199318885803,0.4151531755924225
1761469156368278000,4.047278076171875,-0.15980885922908783,0.16517457365989685,0.42468780279159546
1761469156378261000,4.057260986328125,-0.15461322665214539,0.10651027411222458,0.425298810005188
1761469156388244000,4.067243896484375,-0.16792236268520355,0.020016664639115334,0.4366457462310791
1761469156398227000,4.07722705078125,-0.13532516360282898,-0.024075066670775414,0.4769727885723114
1761469156408211000,4.0872109375,-0.11463132500648499,-0.08269044756889343,0.4938740134239197
1761469156418194200,4.097194091796875,-0.10678565502166748,-0.11381959915161133,0.5177127122879028
1761469156428177200,4.10717724609375,-0.09472019970417023,-0.0914975181221962,0.5338722467422485
1761469156438160000,4.117159912109375,-0.0968390554189682,-0.03889184072613716,0.5402787327766418
1761469156448143000,4.12714306640625,-0.11486998945474625,0.03132133558392525,0.5286476612091064
1761469156458126000,4.1371259765625,-0.13706617057323456,0.1010618656873703,0.5208638906478882
1761469156468109000,4.147109130859375,-0.1609744280576706,0.167752206325531,0.5146787166595459
1761469156478092000,4.157092041015625,-0.17676661908626556,0.20443913340568542,0.5244762897491455
1761469156488075000,4.167074951171875,-0.1873103380203247,0.21522226929664612,0.5595242977142334
1761469156498059000,4.17705908203125,-0.18515150249004364,0.21269641816616058,0.6084422469139099
1761469156508042000,4.1870419921875,-0.17308072745800018,0.20317800343036652,0.6485007405281067
1761469156518025000,4.19702490234375,-0.1426324099302292,0.20046474039554596,0.6761385202407837
1761469156528008000,4.207008056640625,-0.10870160907506943,0.20053398609161377,0.6972153186798096
1761469156537991200,4.2169912109375,-0.09030083566904068,0.19628962874412537,0.703248143196106
1761469156547974100,4.22697412109375,-0.09374456852674484,0.18556934595108032,0.7203895449638367
1761469156557956900,4.236956787109375,-0.10483340919017792,0.1734401136636734,0.759408175945282
1761469156567940000,4.246940185546875,-0.13392232358455658,0.18686537444591522,0.8012187480926514
1761469156577923000,4.256923095703125,-0.1532192975282669,0.24321600794792175,0.8140843510627747
1761469156587907000,4.266906982421875,-0.17515601217746735,0.3338353931903839,0.792008101940155
1761469156597890000,4.27689013671875,-0.17653948068618774,0.41607666015625,0.751324474811554
1761469156607873000,4.286873046875,-0.14306220412254333,0.4189976155757904,0.7223479151725769
1761469156617856000,4.29685595703125,-0.07826580852270126,0.27415731549263,0.7351465821266174
1761469156627839000,4.3068388671875,-0.010273436084389687,0.14670108258724213,0.7501236796379089
1761469156637822000,4.316822021484375,0.03905119374394417,0.12355261296033859,0.7581490278244019
1761469156647805200,4.32680517578125,0.028131166473031044,0.17642328143119812,0.7634944915771484
1761469156657788200,4.3367880859375,-0.0015777265653014183,0.2024085372686386,0.7874043583869934
1761469156667771100,4.346771240234375,-0.04711751267313957,0.19063390791416168,0.8095656037330627
1761469156677755100,4.356755126953125,-0.10334881395101547,0.17450174689292908,0.8155436515808105
1761469156687738000,4.366738037109375,-0.17254014313220978,0.21822047233581543,0.7913062572479248
1761469156697721000,4.37672119140625,-0.2626511752605438,0.2604617178440094,0.7504183053970337
1761469156707704000,4.3867041015625,-0.3430626392364502,0.3033578097820282,0.7010342478752136
1761469156717687000,4.39668701171875,-0.4109421372413635,0.3333364427089691,0.6501865983009338
1761469156727670300,4.406670166015625,-0.4592241942882538,0.3474631905555725,0.5913385152816772
1761469156737653000,4.416653076171875,-0.47888433933258057,0.3450971841812134,0.5098846554756165
1761469156747636000,4.426635986328125,-0.48583200573921204,0.3232342302799225,0.4312375485897064
1761469156757619200,4.436619140625,-0.47034695744514465,0.27817845344543457,0.3797013461589813
1761469156767603200,4.446603271484375,-0.44889041781425476,0.23757773637771606,0.35829591751098633
1761469156777586200,4.456586181640625,-0.4372350573539734,0.1880158632993698,0.357499361038208
1761469156787569200,4.466569091796875,-0.43421369791030884,0.1503198742866516,0.3616323173046112
1761469156797552000,4.47655224609375,-0.4427124857902527,0.11760358512401581,0.3745211660861969
1761469156807535000,4.48653515625,-0.4564107060432434,0.1006629541516304,0.38987746834754944
1761469156817518000,4.49651806640625,-0.4712032079696655,0.07943283021450043,0.39678847789764404
1761469156827501000,4.5065009765625,-0.5043178200721741,0.06739214807748795,0.40917885303497314
1761469156837484000,4.516484130859375,-0.5321061611175537,0.10822782665491104,0.45052748918533325
1761469156847468000,4.526468017578125,-0.5594903826713562,0.16048385202884674,0.495784729719162
1761469156857451300,4.536451171875,-0.5825866460800171,0.2165355235338211,0.5548449158668518
1761469156867434000,4.54643408203125,-0.5893273949623108,0.28002339601516724,0.6069885492324829
1761469156877417000,4.5564169921875,-0.5792708396911621,0.32975703477859497,0.6275086402893066
1761469156887400200,4.566400146484375,-0.5745894908905029,0.37845906615257263,0.6106905341148376
1761469156897383200,4.576383056640625,-0.5651115775108337,0.4201962351799011,0.5612318515777588
1761469156907366100,4.5863662109375,-0.5537358522415161,0.45400717854499817,0.5036402344703674
1761469156917349000,4.59634912109375,-0.545358419418335,0.4691619575023651,0.44531890749931335
1761469156927332000,4.60633203125,-0.5392379760742188,0.48376166820526123,0.38145309686660767
1761469156937316000,4.616316162109375,-0.5361655950546265,0.49195200204849243,0.3097529113292694
1761469156947299000,4.626299072265625,-0.5386518836021423,0.48519235849380493,0.24366071820259094
1761469156957282000,4.636281982421875,-0.5350273847579956,0.47102269530296326,0.1921389102935791
1761469156967265000,4.64626513671875,-0.5251699686050415,0.4299396872520447,0.15936525166034698
1761469156977248300,4.656248291015625,-0.5142597556114197,0.35869839787483215,0.14041276276111603
1761469156987231000,4.66623095703125,-0.4996238350868225,0.2953798770904541,0.1421605944633484
1761469156997214000,4.6762138671875,-0.4806770384311676,0.2587392330169678,0.15149620175361633
1761469157007197200,4.686197265625,-0.4686691164970398,0.2447642982006073,0.16590256989002228
1761469157017180200,4.69618017578125,-0.45287245512008667,0.24311575293540955,0.17508096992969513
1761469157027163100,4.7061630859375,-0.4225617051124573,0.24055592715740204,0.19511033594608307
1761469157037147100,4.716147216796875,-0.38158878684043884,0.22648504376411438,0.22352245450019836
1761469157047130000,4.726130126953125,-0.33374109864234924,0.20536883175373077,0.24975033104419708
1761469157057113000,4.736113037109375,-0.2876051068305969,0.16487523913383484,0.2683731019496918
1761469157067096000,4.746095947265625,-0.2468837946653366,0.10175619274377823,0.2814928889274597
1761469157077079000,4.7560791015625,-0.20159782469272614,0.03747726231813431,0.28467535972595215
1761469157087062000,4.76606201171875,-0.1606362760066986,-0.007018829695880413,0.29355061054229736
1761469157097045200,4.776045166015625,-0.12540492415428162,-0.03232608363032341,0.3131102919578552
1761469157107028000,4.786028076171875,-0.09308799356222153,-0.05337011441588402,0.2984567880630493
1761469157117012000,4.796011962890625,-0.06289279460906982,-0.05738622695207596,0.2634170949459076
1761469157126995200,4.8059951171875,-0.04089295491576195,-0.05259120464324951,0.21027372777462006
1761469157136978200,4.815978271484375,-0.023772306740283966,-0.0607864148914814,0.14046591520309448
1761469157146961200,4.825961181640625,0.005602093879133463,-0.08908011019229889,0.07771652936935425
1761469157156944100,4.835944091796875,0.043244458734989166,-0.12941601872444153,0.02419975772500038
1761469157166927000,4.845927001953125,0.07677978277206421,-0.17319679260253906,-0.006260945461690426
1761469157176910000,4.85591015625,0.0937032476067543,-0.17660874128341675,-0.02357759140431881
1761469157186893300,4.865893310546875,0.10003171861171722,-0.14649532735347748,-0.03619964420795441
1761469157196876000,4.8758759765625,0.10438033938407898,-0.11954918503761292,-0.056428179144859314
1761469157206860000,4.885860107421875,0.10248284041881561,-0.11002412438392639,-0.06964864581823349
1761469157216843000,4.895843017578125,0.09165860712528229,-0.10192195326089859,-0.07315453886985779
1761469157226826200,4.905826171875,0.09030412137508392,-0.09536418318748474,-0.07106875628232956
1761469157236809000,4.91580908203125,0.08019669353961945,-0.0901244580745697,-0.06568612158298492
1761469157246792200,4.925792236328125,0.07223144173622131,-0.10793701559305191,-0.05236206203699112
1761469157256775200,4.935775146484375,0.06386164575815201,-0.1513448804616928,-0.012394461780786514
1761469157266758100,4.945758056640625,0.05200551450252533,-0.18710793554782867,0.03485560789704323
1761469157276741000,4.9557412109375,0.033329933881759644,-0.163178488612175,0.07091648131608963
1761469157286724000,4.96572412109375,-0.0013257795944809914,-0.11013949662446976,0.06966932117938995
1761469157296707000,4.97570703125,-0.03505370765924454,-0.11722365021705627,0.020377662032842636
1761469157306691000,4.985691162109375,-0.06327229738235474,-0.20073212683200836,-0.04896705970168114
1761469157316674300,4.99567431640625,-0.07814208418130875,-0.3351683020591736,-0.09752607345581055
1761469157326657000,5.005656982421875,-0.20537114143371582,-0.5591345429420471,-0.062497518956661224
1761469157336640000,5.015639892578125,-0.14643099904060364,-0.555526077747345,-0.021957848221063614
1761469157346623200,5.025623291015625,-0.021480005234479904,-0.4543169140815735,0.019303839653730392
1761469157356606000,5.03560595703125,0.08379904180765152,-0.3633154630661011,0.04471131041646004
1761469157366589200,5.045589111328125,0.11689601093530655,-0.3325785994529724,0.0967010036110878
1761469157376572200,5.055572265625,0.12974415719509125,-0.31038275361061096,0.11347758769989014
1761469157386555100,5.06555517578125,0.1330033391714096,-0.262410432100296,0.09936576336622238
1761469157396539100,5.0755390625,0.1257765293121338,-0.2073819488286972,0.09000234305858612
1761469157406522000,5.085522216796875,0.08999988436698914,-0.15852759778499603,0.0788964331150055
1761469157416505000,5.095505126953125,0.030761301517486572,-0.10910773277282715,0.07357745617628098
1761469157426488000,5.105488037109375,-0.023981571197509766,-0.056015752255916595,0.047867562621831894
1761469157436471300,5.11547119140625,-0.08837074041366577,0.028698990121483803,0.013827824965119362
1761469157446454000,5.1254541015625,-0.1436251997947693,0.15822236239910126,-0.01734420843422413
1761469157456437000,5.13543701171875,-0.18406401574611664,0.27349981665611267,-0.013583939522504807
1761469157466420200,5.145420166015625,-0.20976725220680237,0.34703394770622253,0.013791759498417377
1761469157476403000,5.15540283203125,-0.2192823886871338,0.3619212210178375,0.06985487788915634
1761469157486387000,5.165386962890625,-0.19810466468334198,0.3234899342060089,0.14640319347381592
1761469157496370200,5.1753701171875,-0.16858693957328796,0.23830662667751312,0.23031838238239288
1761469157506353200,5.185353271484375,-0.13984183967113495,0.12985950708389282,0.287557989358902
1761469157516336000,5.195336181640625,-0.10817206650972366,0.04870260879397392,0.3331254720687866
1761469157526319000,5.205319091796875,-0.12149399518966675,0.016351861879229546,0.36510470509529114
1761469157536302000,5.215302001953125,-0.1611805260181427,0.04180486500263214,0.36413922905921936
1761469157546285000,5.22528515625,-0.1814836710691452,0.07628188282251358,0.36607110500335693
1761469157556268300,5.235268310546875,-0.20700059831142426,0.10230273753404617,0.38267603516578674
1761469157566251000,5.2452509765625,-0.23537099361419678,0.15037810802459717,0.42026281356811523
1761469157576234000,5.25523388671875,-0.26153889298439026,0.22651883959770203,0.4751031696796417
1761469157586218200,5.26521826171875,-0.28978171944618225,0.31255972385406494,0.540658712387085
1761469157596201200,5.275201171875,-0.3186180293560028,0.379605770111084,0.6184999942779541
1761469157606184000,5.285183837890625,-0.35523223876953125,0.43461334705352783,0.6972088813781738
1761469157616167200,5.295167236328125,-0.4036223292350769,0.47088155150413513,0.765924870967865
1761469157626150100,5.305150146484375,-0.4612365961074829,0.5195929408073425,0.8261405229568481
1761469157636133000,5.315133056640625,-0.5223499536514282,0.594657838344574,0.8729504942893982
1761469157646116000,5.3251162109375,-0.5758147239685059,0.6733103394508362,0.8933460712432861
1761469157656103000,5.33510302734375,-0.614059567451477,0.7183029055595398,0.8943855166435242
1761469157666086000,5.3450859375,-0.6313895583152771,0.7339529991149902,0.8882951736450195
1761469157676070000,5.35506982421875,-0.6392695307731628,0.7217589616775513,0.8952395915985107
1761469157686053000,5.36505322265625,-0.6335656046867371,0.6916071772575378,0.9261796474456787
1761469157696036000,5.3750361328125,-0.6207124590873718,0.6531610488891602,0.9660196900367737
1761469157706018800,5.385018798828125,-0.6072219610214233,0.6337830424308777,1.0039907693862915
1761469157716002000,5.395001953125,-0.597172737121582,0.6285340785980225,1.0402594804763794
1761469157725985000,5.404985107421875,-0.5930879712104797,0.6363219618797302,1.0807198286056519
1761469157735968000,5.414968017578125,-0.5974332094192505,0.6424201130867004,1.1221446990966797
1761469157745951000,5.424950927734375,-0.61391681432724,0.6350184082984924,1.1761294603347778
1761469157755934000,5.434933837890625,-0.629086971282959,0.6150761246681213,1.2339683771133423
1761469157765918000,5.44491796875,-0.6473330855369568,0.5734535455703735,1.3019869327545166
1761469157775901200,5.454901123046875,-0.6792622208595276,0.5207438468933105,1.370810866355896
1761469157785884000,5.4648837890625,-0.7138462662696838,0.4611516296863556,1.439423680305481
1761469157795867000,5.474866943359375,-0.749204695224762,0.4144056439399719,1.5010052919387817
1761469157805850000,5.48485009765625,-0.7861387729644775,0.3950793445110321,1.5386320352554321
1761469157815833000,5.4948330078125,-0.8216765522956848,0.3962944746017456,1.5502376556396484
1761469157825815800,5.50481591796875,-0.8523998856544495,0.41136878728866577,1.5495166778564453
1761469157835799000,5.514799072265625,-0.8877143859863281,0.446319043636322,1.5463244915008545
1761469157845782000,5.524781982421875,-0.9356997609138489,0.5044435858726501,1.5438586473464966
1761469157855766000,5.53476611328125,-0.9870418310165405,0.5896519422531128,1.5268703699111938
1761469157865749000,5.5447490234375,-1.02618408203125,0.6816617250442505,1.5155836343765259
1761469157875732000,5.55473193359375,-1.0526587963104248,0.7329921722412109,1.5228110551834106
1761469157885715000,5.56471484375,-1.0725188255310059,0.748234748840332,1.546700358390808
1761469157895698200,5.5746982421875,-1.0648094415664673,0.7505311369895935,1.6099941730499268
1761469157905681000,5.584680908203125,-1.050764560699463,0.7540196180343628,1.6994785070419312
1761469157915664000,5.594663818359375,-1.0255062580108643,0.7468917965888977,1.8111035823822021
1761469157925647000,5.604647216796875,-1.0080441236495972,0.72789067029953,1.9184582233428955
1761469157935630000,5.614630126953125,-0.9933895468711853,0.7063701152801514,1.9991482496261597
1761469157945612800,5.62461279296875,-0.998047947883606,0.707815408706665,2.032512903213501
1761469157955596800,5.6345966796875,-1.0246033668518066,0.7596884369850159,1.9898459911346436
1761469157965580000,5.644580078125,-1.0739452838897705,0.8570679426193237,1.8907276391983032
1761469157975563000,5.65456298828125,-1.1355149745941162,1.0163236856460571,1.7538572549819946
1761469157985546000,5.6645458984375,-1.1895943880081177,1.1679744720458984,1.608365535736084
1761469157995529000,5.674529052734375,-1.2150522470474243,1.2602174282073975,1.4966355562210083
1761469158005512000,5.684511962890625,-1.2114325761795044,1.2745718955993652,1.4171785116195679
1761469158015495200,5.6944951171875,-1.2007817029953003,1.2328078746795654,1.3826125860214233
1761469158025478000,5.704477783203125,-1.1927107572555542,1.1730871200561523,1.371444582939148
1761469158035460900,5.7144609375,-1.1937367916107178,1.114559292793274,1.3634827136993408
1761469158045444900,5.72444482421875,-1.2013124227523804,1.0598715543746948,1.3563952445983887
1761469158055428000,5.734427978515625,-1.220325231552124,1.0371108055114746,1.3574925661087036
1761469158065411000,5.7444111328125,-1.2437351942062378,1.0285418033599854,1.3730467557907104
1761469158075393800,5.754393798828125,-1.2723743915557861,1.0361911058425903,1.4023046493530273
1761469158085377000,5.764376953125,-1.3190803527832031,1.0493049621582031,1.440231442451477
1761469158095360000,5.774360107421875,-1.3640023469924927,1.0649927854537964,1.4949634075164795
1761469158105343000,5.784343017578125,-1.4144607782363892,1.048425555229187,1.5461230278015137
1761469158115326000,5.794325927734375,-1.4074701070785522,1.1325956583023071,1.6001231670379639
1761469158125309000,5.804308837890625,-1.4155069589614868,1.17599618434906,1.6395478248596191
1761469158135292200,5.814292236328125,-1.4083900451660156,1.177554965019226,1.6747628450393677
1761469158145276200,5.824276123046875,-1.3770512342453003,1.1521198749542236,1.7075881958007812
1761469158155259000,5.8342587890625,-1.3303133249282837,1.112085223197937,1.7336965799331665
1761469158165241900,5.844241943359375,-1.2839397192001343,1.05656898021698,1.754205584526062
1761469158175225000,5.85422509765625,-1.2412993907928467,1.0074557065963745,1.7692877054214478
1761469158185208000,5.8642080078125,-1.2056561708450317,0.9666759967803955,1.761569619178772
1761469158195190800,5.874190673828125,-1.1717727184295654,0.9386990070343018,1.729964256286621
1761469158205174000,5.884174072265625,-1.1417431831359863,0.9248958826065063,1.6960922479629517
1761469158215157000,5.894156982421875,-1.122509241104126,0.9126350283622742,1.658044695854187
1761469158225140000,5.904139892578125,-1.1058764457702637,0.8771313428878784,1.6295530796051025
1761469158235124000,5.9141240234375,-1.0951521396636963,0.8433594703674316,1.616652011871338
1761469158245107000,5.92410693359375,-1.0862705707550049,0.8369840979576111,1.6234647035598755
1761469158255090000,5.93408984375,-1.0832734107971191,0.8433586955070496,1.6411988735198975
1761469158265073200,5.9440732421875,-1.0774749517440796,0.8494954109191895,1.6713850498199463
1761469158275055900,5.954055908203125,-1.0738049745559692,0.8603177666664124,1.697324275970459
1761469158285038800,5.964038818359375,-1.0684845447540283,0.8724548816680908,1.7233179807662964
1761469158295022000,5.97402197265625,-1.059445858001709,0.8791243433952332,1.7470062971115112
1761469158305005000,5.984005126953125,-1.0426154136657715,0.900800347328186,1.7659486532211304
1761469158314987800,5.99398779296875,-1.0223088264465332,0.9259228110313416,1.779064416885376
1761469158324971000,6.003970947265625,-1.0071163177490234,0.9505506753921509,1.781667947769165
1761469158334955000,6.013955078125,-0.9936468005180359,0.9715483784675598,1.7897157669067383
1761469158344938000,6.02393798828125,-0.9762063026428223,0.9779479503631592,1.7909573316574097
1761469158354921200,6.033921142578125,-0.9704495668411255,0.9575299024581909,1.7697166204452515
1761469158364904000,6.043904052734375,-0.9594951868057251,0.9326674342155457,1.7414097785949707
1761469158374887000,6.053886962890625,-0.9462379813194275,0.911271333694458,1.7035287618637085
1761469158384870100,6.0638701171875,-0.9310712814331055,0.8776925802230835,1.652601957321167
1761469158394852900,6.073852783203125,-0.916808545589447,0.8329652547836304,1.5940544605255127
1761469158404835800,6.0838359375,-0.8977200984954834,0.7904641032218933,1.5269492864608765
1761469158414819000,6.093819091796875,-0.8797347545623779,0.7532153725624084,1.4650335311889648
1761469158424802000,6.103802001953125,-0.8666126132011414,0.7145721316337585,1.4164252281188965
1761469158434786000,6.1137861328125,-0.849644124507904,0.6835781931877136,1.3733001947402954
1761469158444769000,6.12376904296875,-0.82648766040802,0.6723729372024536,1.3245824575424194
1761469158454752000,6.133751953125,-0.7987037301063538,0.6807922720909119,1.2744604349136353
1761469158464735000,6.14373486328125,-0.7692300081253052,0.6970106959342957,1.238773226737976
1761469158474718200,6.15371826171875,-0.7379137873649597,0.7000036239624023,1.2157493829727173
1761469158484701000,6.163700927734375,-0.7047614455223083,0.6881077885627747,1.204477310180664
1761469158494684000,6.173683837890625,-0.6705349683761597,0.6737829446792603,1.2126034498214722
1761469158504667100,6.183667236328125,-0.6477534770965576,0.6450256109237671,1.2344459295272827
1761469158514650000,6.193650146484375,-0.621300458908081,0.6186383366584778,1.2712888717651367
1761469158524632800,6.2036328125,-0.598739743232727,0.6028984785079956,1.3064695596694946
1761469158534616800,6.213616943359375,-0.5744391083717346,0.5925368070602417,1.335113763809204
1761469158544600000,6.22360009765625,-0.553347110748291,0.5794225931167603,1.3375588655471802
1761469158554583000,6.2335830078125,-0.5354239344596863,0.5674391984939575,1.3193162679672241
1761469158564566000,6.24356591796875,-0.5191261768341064,0.5658873319625854,1.296545147895813
1761469158574549000,6.253549072265625,-0.5062199831008911,0.5502732396125793,1.2771682739257812
1761469158584532000,6.263531982421875,-0.47968506813049316,0.5048141479492188,1.2532129287719727
1761469158594515200,6.27351513671875,-0.4279422461986542,0.45271390676498413,1.221648097038269
1761469158604498000,6.283497802734375,-0.38142159581184387,0.3909333646297455,1.196471929550171
1761469158614481000,6.29348095703125,-0.329461932182312,0.33626019954681396,1.1986583471298218
1761469158624464100,6.303464111328125,-0.27949491143226624,0.2656797468662262,1.2207380533218384
1761469158634448100,6.3134482421875,-0.22299695014953613,0.18699684739112854,1.2356446981430054
1761469158644430800,6.323430908203125,-0.1877199113368988,0.11705904453992844,1.2340031862258911
1761469158654409500,6.333409423828125,-0.1593286395072937,0.05608838051557541,1.2035387754440308
1761469158664392400,6.343392333984375,-0.13696101307868958,0.005835861898958683,1.1617534160614014
1761469158674375200,6.353375244140625,-0.11562785506248474,-0.03633691743016243,1.1164511442184448
1761469158684358400,6.3633583984375,-0.1032891571521759,-0.08190759271383286,1.0803264379501343
1761469158694341400,6.37334130859375,-0.09812591224908829,-0.15296867489814758,1.0443851947784424
1761469158704324400,6.383324462890625,-0.09439775347709656,-0.20730994641780853,0.9993468523025513
1761469158714307300,6.393307373046875,-0.0988268330693245,-0.23644284904003143,0.9494720697402954
1761469158724290300,6.403290283203125,-0.11755338311195374,-0.2315671294927597,0.8901554942131042
1761469158734274300,6.4132744140625,-0.13692331314086914,-0.21540214121341705,0.8365740180015564
1761469158744257500,6.423257568359375,-0.14684171974658966,-0.19813527166843414,0.787432849407196
1761469158754240300,6.433240234375,-0.16207484900951385,-0.1903047412633896,0.7552828192710876
1761469158764223200,6.44322314453125,-0.16651780903339386,-0.17525841295719147,0.7334854006767273
1761469158774206500,6.45320654296875,-0.16368256509304047,-0.13656052947044373,0.719151496887207
1761469158784189400,6.463189453125,-0.16605624556541443,-0.07417730987071991,0.7020683884620667
1761469158794172200,6.473172119140625,-0.16103188693523407,0.007976096123456955,0.6963967084884644
1761469158804155400,6.4831552734375,-0.15056779980659485,0.0961190015077591,0.7023906707763672
1761469158814138400,6.493138427734375,-0.14265741407871246,0.19224539399147034,0.7147697806358337
1761469158824121600,6.50312158203125,-0.1413026601076126,0.2927219271659851,0.7206287384033203
1761469158834105300,6.513105224609375,-0.12978602945804596,0.3685036599636078,0.7284294366836548
1761469158844088300,6.52308837890625,-0.12323624640703201,0.41057148575782776,0.7275021076202393
1761469158854071300,6.5330712890625,-0.1229422315955162,0.4416638910770416,0.7215880155563354
1761469158864054500,6.543054443359375,-0.13288968801498413,0.43933284282684326,0.7200655341148376
1761469158874037200,6.553037353515625,-0.13444948196411133,0.4421105980873108,0.7246396541595459
1761469158884020200,6.563020263671875,-0.1461804360151291,0.4511626660823822,0.7276260852813721
1761469158894003500,6.57300341796875,-0.16570810973644257,0.461857408285141,0.7233754396438599
1761469158903986400,6.582986328125,-0.18021327257156372,0.4754360616207123,0.7279062867164612
1761469158913969200,6.59296923828125,-0.19358187913894653,0.48430609703063965,0.7331165075302124
1761469158923953400,6.602953369140625,-0.19729912281036377,0.4828490912914276,0.7359412908554077
1761469158933936400,6.612936279296875,-0.18550515174865723,0.4726831316947937,0.74086594581604
1761469158943919400,6.62291943359375,-0.17398297786712646,0.4790813624858856,0.740801215171814
1761469158953902600,6.632902587890625,-0.16141068935394287,0.49339374899864197,0.7355200052261353
1761469158963885300,6.64288525390625,-0.15210452675819397,0.5086964964866638,0.723886251449585
1761469158973868300,6.652868408203125,-0.13636994361877441,0.522087812423706,0.7017905712127686
1761469158983851500,6.6628515625,-0.1202639490365982,0.5282605290412903,0.6670927405357361
1761469158993834200,6.672834228515625,-0.10405241698026657,0.5150299072265625,0.6245797872543335
1761469159003817200,6.682817138671875,-0.08586249500513077,0.49320584535598755,0.5754274129867554
1761469159013800400,6.692800537109375,-0.0606619231402874,0.4786136746406555,0.5135049819946289
1761469159023783400,6.702783447265625,-0.04423341900110245,0.4652099609375,0.44673392176628113
1761469159033767400,6.712767333984375,-0.03604321926832199,0.4475463330745697,0.39336228370666504
1761469159043750400,6.72275048828125,-0.0410880446434021,0.42802298069000244,0.36032629013061523
1761469159053733400,6.7327333984375,-0.0566447377204895,0.4100464880466461,0.33993256092071533
1761469159063716400,6.74271630859375,-0.08088962733745575,0.4041252136230469,0.346386194229126
1761469159073699600,6.752699462890625,-0.10600955784320831,0.41985806822776794,0.3633418381214142
1761469159083682300,6.762682373046875,-0.13463056087493896,0.45424267649650574,0.3956550359725952
1761469159093665300,6.772665283203125,-0.1539839208126068,0.4655492603778839,0.4293692409992218
1761469159103648500,6.7826484375,-0.17206145823001862,0.4734298288822174,0.4504319131374359
1761469159113631200,6.79263134765625,-0.18691790103912354,0.4689810872077942,0.45044052600860596
1761469159123615200,6.802615234375,-0.2053065001964569,0.4694679081439972,0.43318086862564087
1761469159133598200,6.81259814453125,-0.20788465440273285,0.46420109272003174,0.41296324133872986
1761469159143581400,6.82258154296875,-0.20830810070037842,0.44428810477256775,0.3889186382293701
1761469159153564400,6.832564453125,-0.20710323750972748,0.4178916811943054,0.37409019470214844
1761469159163547400,6.84254736328125,-0.18815644085407257,0.395804762840271,0.3653545081615448
1761469159173530400,6.8525302734375,-0.16186116635799408,0.365261435508728,0.3567674458026886
1761469159183513300,6.862513427734375,-0.14079849421977997,0.3369959890842438,0.34961286187171936
1761469159193496600,6.87249658203125,-0.11486146599054337,0.29484260082244873,0.3340248465538025
1761469159203479300,6.882479248046875,-0.10651112347841263,0.24817070364952087,0.32780158519744873
1761469159213462300,6.892462158203125,-0.10108236968517303,0.22405914962291718,0.32256022095680237
1761469159223445500,6.902445556640625,-0.10319744795560837,0.20493152737617493,0.3209362328052521
1761469159233429500,6.912429443359375,-0.10963590443134308,0.19133935868740082,0.3146270513534546
1761469159243412200,6.922412109375,-0.12373308092355728,0.1844380497932434,0.309143602848053
1761469159253395200,6.932395263671875,-0.13853654265403748,0.18792124092578888,0.2901317775249481
1761469159263378400,6.94237841796875,-0.1479894369840622,0.19718317687511444,0.2796599566936493
1761469159273361400,6.952361328125,-0.1649256944656372,0.21191808581352234,0.26767128705978394
1761469159283344400,6.962344482421875,-0.17192794382572174,0.21425767242908478,0.2626935839653015
1761469159293327400,6.972327392578125,-0.1819714456796646,0.20356351137161255,0.26491957902908325
1761469159303310300,6.982310302734375,-0.1853129118680954,0.1919979304075241,0.2803909182548523
1761469159313293600,6.99229345703125,-0.18374639749526978,0.1640928089618683,0.3055810332298279
1761469159323276300,7.0022763671875,-0.1777375042438507,0.12513449788093567,0.3415169417858124
1761469159333260300,7.01226025390625,-0.16603386402130127,0.08167153596878052,0.386377215385437
1761469159343243300,7.0222431640625,-0.15428213775157928,0.021097132936120033,0.44168388843536377
1761469159353226500,7.0322265625,-0.14634887874126434,-0.03264351561665535,0.48979100584983826
1761469159363209200,7.042209228515625,-0.14108140766620636,-0.06935838609933853,0.521448016166687
1761469159373192200,7.052192138671875,-0.143435537815094,-0.0985354408621788,0.5239995718002319
1761469159383175400,7.062175537109375,-0.13939444720745087,-0.11594745516777039,0.4972776770591736
1761469159393158400,7.072158447265625,-0.12979865074157715,-0.13394798338413239,0.47293704748153687
1761469159403141400,7.082141357421875,-0.118433877825737,-0.1661013960838318,0.46549615263938904
1761469159413124400,7.092124267578125,-0.11509305983781815,-0.20856206119060516,0.4733457863330841
1761469159423107300,7.102107421875,-0.10182039439678192,-0.2435099333524704,0.4896281063556671
1761469159433091300,7.11209130859375,-0.10427346080541611,-0.25778692960739136,0.5022687911987305
1761469159443074600,7.122074462890625,-0.10682583600282669,-0.20404566824436188,0.4951717257499695
1761469159453057300,7.132057373046875,-0.1167062446475029,-0.07007716596126556,0.466295063495636
1761469159463040300,7.142040283203125,-0.11710545420646667,0.13215050101280212,0.4292800724506378
1761469159473023500,7.1520234375,-0.0979536771774292,0.36395907402038574,0.3786904513835907
1761469159483006500,7.16200634765625,-0.055938318371772766,0.5367105603218079,0.3396511673927307
1761469159492989200,7.1719892578125,0.013588692992925644,0.5586233139038086,0.3513806164264679
1761469159502972400,7.181972412109375,0.11278318613767624,0.4034148156642914,0.45597973465919495
1761469159512955400,7.191955322265625,0.21980638802051544,0.15526576340198517,0.6239845752716064
1761469159522938400,7.2019384765625,0.2702706456184387,-0.027134941890835762,0.7572209239006042
1761469159532922400,7.21192236328125,0.2695746421813965,-0.10502458363771439,0.7793228626251221
1761469159542905300,7.2219052734375,0.23004774749279022,-0.1275988668203354,0.7224392890930176
1761469159552888300,7.231888427734375,0.15554670989513397,-0.11686988919973373,0.6116522550582886
1761469159562871600,7.24187158203125,0.07688626646995544,-0.09061458706855774,0.4783996641635895
1761469159572854300,7.251854248046875,-0.007990619167685509,-0.056853506714105606,0.3710553050041199
1761469159582837200,7.261837158203125,-0.07413528114557266,-0.012929459102451801,0.2805480659008026
1761469159592820500,7.271820556640625,-0.13460001349449158,0.033976271748542786,0.21595364809036255
1761469159602803500,7.281803466796875,-0.18685869872570038,0.056532181799411774,0.15696650743484497
1761469159612786200,7.2917861328125,-0.22315731644630432,0.07244779914617538,0.1256566196680069
1761469159622769400,7.301769287109375,-0.23785077035427094,0.08374013751745224,0.09442254155874252
1761469159632753400,7.31175341796875,-0.2579024136066437,0.10155519843101501,0.07711967825889587
1761469159642736400,7.321736328125,-0.26782456040382385,0.10806050151586533,0.07880652695894241
1761469159652723200,7.33172314453125,-0.26968082785606384,0.0433124378323555,0.08208555728197098
1761469159662706200,7.3417060546875,-0.2702459692955017,-0.038303859531879425,0.09450440853834152
1761469159672689200,7.351689208984375,-0.26024314761161804,-0.11248575150966644,0.11496174335479736
1761469159682672400,7.36167236328125,-0.2502453923225403,-0.16061200201511383,0.13928145170211792
1761469159692655400,7.3716552734375,-0.26070842146873474,-0.16652248799800873,0.15876564383506775
1761469159702638000,7.38163818359375,-0.2713530659675598,-0.14912192523479462,0.1713847666978836
1761469159712621300,7.391621337890625,-0.28464043140411377,-0.11018979549407959,0.1802665889263153
1761469159722604300,7.401604248046875,-0.31126484274864197,-0.04738899692893028,0.19208836555480957
1761469159732588300,7.41158837890625,-0.3444863259792328,0.03399304300546646,0.20506954193115234
1761469159742571300,7.4215712890625,-0.38299137353897095,0.12307152152061462,0.22381474077701569
1761469159752554200,7.43155419921875,-0.41224920749664307,0.20101423561573029,0.24755117297172546
1761469159762537200,7.441537109375,-0.44341403245925903,0.27969175577163696,0.26755231618881226
1761469159772520200,7.451520263671875,-0.46841320395469666,0.34066712856292725,0.2653452455997467
1761469159782503200,7.461503173828125,-0.4830975830554962,0.3752959370613098,0.24395263195037842
1761469159792486100,7.471486083984375,-0.4866458475589752,0.3780032992362976,0.21738703548908234
1761469159802469400,7.481469482421875,-0.4748499095439911,0.33779463171958923,0.19372139871120453
1761469159812452400,7.491452392578125,-0.4668084681034088,0.2863007187843323,0.1619889736175537
1761469159822435000,7.50143505859375,-0.4436589479446411,0.25621527433395386,0.1288059949874878
1761469159832419000,7.511419189453125,-0.4219604730606079,0.22851768136024475,0.09518179297447205
1761469159842402300,7.52140234375,-0.39952653646469116,0.18780194222927094,0.05789993703365326
1761469159852385300,7.53138525390625,-0.3644160032272339,0.15503741800785065,0.03028593212366104
1761469159862368300,7.5413681640625,-0.343860924243927,0.12759460508823395,0.017142701894044876
1761469159872351200,7.551351318359375,-0.3201531767845154,0.09277349710464478,0.014220042154192924
1761469159882334200,7.561334228515625,-0.2866109311580658,0.05897798389196396,0.018730105832219124
1761469159892317200,7.571317138671875,-0.25859150290489197,0.04427840933203697,0.01239530649036169
1761469159902300400,7.581300537109375,-0.2242172807455063,0.05130063369870186,-0.009734762832522392
1761469159912283100,7.591283203125,-0.20421157777309418,0.058793805539608,-0.050182145088911057
1761469159922266400,7.601266357421875,-0.17991235852241516,0.05892536789178848,-0.09086326509714127
1761469159932250400,7.61125048828125,-0.15298937261104584,0.060752950608730316,-0.10025682300329208
1761469159942233300,7.6212333984375,-0.12353136390447617,0.06305258721113205,-0.08681797981262207
1761469159952216000,7.631216064453125,-0.09123964607715607,0.05123129114508629,-0.04728786274790764
1761469159962199300,7.64119921875,-0.050608061254024506,0.017826730385422707,0.004267740994691849
1761469159972182300,7.651182373046875,-0.005022009834647179,-0.01923949457705021,0.04112369194626808
1761469159982165200,7.661165283203125,0.03246863931417465,-0.05325978249311447,0.06503221392631531
1761469159992148200,7.671148193359375,0.06164254993200302,-0.07410299777984619,0.06954687088727951
1761469160002131200,7.681131103515625,0.08541019260883331,-0.10127522796392441,0.035704486072063446
1761469160012114200,7.6911142578125,0.09685207903385162,-0.1286180019378662,-0.011136651039123535
1761469160022097400,7.701097412109375,0.102240189909935,-0.10588259249925613,-0.03998614102602005
1761469160032081200,7.7110810546875,0.10730227082967758,-0.10332557559013367,-0.043652258813381195
1761469160042064100,7.721064208984375,0.13842397928237915,-0.16797059774398804,-0.04161467403173447
1761469160052047400,7.73104736328125,0.18016599118709564,-0.24849125742912292,-0.034546297043561935
1761469160062030300,7.7410302734375,0.21496151387691498,-0.3101561963558197,-0.04052828997373581
1761469160072013000,7.751012939453125,0.23849360644817352,-0.3700416088104248,-0.047665905207395554
1761469160081996300,7.760996337890625,0.2527279257774353,-0.39841148257255554,-0.05114319548010826
1761469160091979300,7.770979248046875,0.25222623348236084,-0.4000066816806793,-0.05157669633626938
1761469160101962200,7.780962158203125,0.24101220071315765,-0.3701007068157196,-0.0458596870303154
1761469160111945200,7.7909453125,0.2335350066423416,-0.33403080701828003,-0.03940916061401367
1761469160121928200,7.80092822265625,0.23556673526763916,-0.332427054643631,-0.02904440462589264
1761469160131912200,7.810912109375,0.2312004119157791,-0.3766113817691803,-0.003909025341272354
1761469160141895200,7.820895263671875,0.21253538131713867,-0.4801175594329834,0.0658535435795784
1761469160151878400,7.83087841796875,0.19176946580410004,-0.5875332355499268,0.16924184560775757
1761469160161861000,7.840861083984375,0.180080845952034,-0.6557729840278625,0.2323736846446991
1761469160171844400,7.85084423828125,0.16282698512077332,-0.6456847786903381,0.20934167504310608
1761469160181827300,7.860827392578125,0.14063513278961182,-0.5636157393455505,0.13194170594215393
1761469160191810000,7.87081005859375,0.12948231399059296,-0.4554238021373749,0.02295636013150215
1761469160201793300,7.880793212890625,0.12455440312623978,-0.38380953669548035,-0.07046733051538467
1761469160211776300,7.8907763671875,0.13238243758678436,-0.3733397424221039,-0.1494676172733307
1761469160221759200,7.90075927734375,0.15988890826702118,-0.4031359851360321,-0.20950005948543549
1761469160231743200,7.9107431640625,0.21171514689922333,-0.4371218681335449,-0.22956542670726776
1761469160241726200,7.920726318359375,0.28694039583206177,-0.4652126133441925,-0.2302147001028061
1761469160251709200,7.930709228515625,0.3317825496196747,-0.49445199966430664,-0.21825174987316132
1761469160261692200,7.940692138671875,0.3268764913082123,-0.5075973272323608,-0.22975634038448334
1761469160271675400,7.95067529296875,0.3062339127063751,-0.5241231918334961,-0.2738412320613861
1761469160281658000,7.960658203125,0.25656357407569885,-0.5041268467903137,-0.34753888845443726
1761469160291641300,7.970641357421875,0.22075237333774567,-0.44860053062438965,-0.4223056733608246
1761469160301624300,7.980624267578125,0.19611333310604095,-0.38547244668006897,-0.4796890914440155
1761469160311607000,7.99060693359375,0.19601581990718842,-0.33342331647872925,-0.5029208064079285
1761469160321591000,8.000591064453126,0.20505300164222717,-0.2923416495323181,-0.4865594506263733
1761469160331574300,8.01057421875,0.21592913568019867,-0.26151275634765625,-0.4379620850086212
1761469160341557200,8.02055712890625,0.21692702174186707,-0.2329319715499878,-0.37860527634620667
1761469160351540200,8.030540283203125,0.20849569141864777,-0.19622470438480377,-0.309688925743103
1761469160361523200,8.040523193359375,0.1909545212984085,-0.14263151586055756,-0.2477845400571823
1761469160371506200,8.050506103515625,0.16762584447860718,-0.08012231439352036,-0.19926133751869202
1761469160381489200,8.0604892578125,0.1556333601474762,-0.03772531822323799,-0.17776457965373993
1761469160391472400,8.070472412109375,0.15700805187225342,-0.024195596575737,-0.16119833290576935
1761469160401455000,8.080455078125,0.16716107726097107,-0.04566813260316849,-0.16130192577838898
1761469160411438300,8.090438232421874,0.18855351209640503,-0.08806151896715164,-0.14919652044773102
1761469160421422300,8.10042236328125,0.20538361370563507,-0.1334788054227829,-0.12696285545825958
1761469160431405300,8.1104052734375,0.19073930382728577,-0.11921095848083496,-0.08487924188375473
1761469160441388000,8.120387939453124,0.2031746655702591,-0.0791546180844307,-0.04382740706205368
1761469160451371300,8.130371337890624,0.1986539214849472,-0.029188059270381927,-0.02181270904839039
1761469160461354200,8.140354248046876,0.19279390573501587,0.024258920922875404,-0.015346555039286613
1761469160471337200,8.150337158203126,0.18915092945098877,0.09713486582040787,-0.00021857675164937973
1761469160481320200,8.1603203125,0.17496080696582794,0.16856856644153595,0.012099875137209892
1761469160491303200,8.17030322265625,0.14978444576263428,0.2335553616285324,0.045301467180252075
1761469160501286100,8.1802861328125,0.12003694474697113,0.2765968441963196,0.07139857858419418
1761469160511270400,8.1902705078125,0.08246687799692154,0.3006398379802704,0.09695660322904587
1761469160521253400,8.20025341796875,0.04025072231888771,0.3015887439250946,0.12270137667655945
1761469160531236000,8.210236083984375,0.001997519750148058,0.264398455619812,0.151738241314888
1761469160541219300,8.22021923828125,-0.02501838468015194,0.21614065766334534,0.1833808571100235
1761469160551202300,8.230202392578125,-0.04888160899281502,0.18692858517169952,0.20703597366809845
1761469160561185000,8.24018505859375,-0.07527593523263931,0.19096407294273376,0.22075045108795166
1761469160571168300,8.250168212890625,-0.09590869396924973,0.20688286423683167,0.225765660405159
1761469160581151200,8.260151123046874,-0.08948355168104172,0.20736810564994812,0.22967544198036194
1761469160591134200,8.27013427734375,-0.1283189207315445,0.25733304023742676,0.2653687298297882
1761469160601118200,8.2801181640625,-0.12458464503288269,0.27687716484069824,0.2831312119960785
1761469160611101200,8.29010107421875,-0.12191468477249146,0.2756503224372864,0.2785044014453888
1761469160621084200,8.300084228515624,-0.11227697879076004,0.26409244537353516,0.2685180902481079
1761469160631067400,8.3100673828125,-0.1084667295217514,0.23592513799667358,0.2582013010978699
1761469160641050400,8.32005029296875,-0.10740732401609421,0.18764948844909668,0.24970366060733795
1761469160651033300,8.330033447265626,-0.11622738838195801,0.13395710289478302,0.24834972620010376
1761469160661016600,8.3400166015625,-0.12257876247167587,0.07054031640291214,0.25733286142349243
1761469160670999600,8.34999951171875,-0.12899580597877502,0.016665326431393623,0.2606707513332367
1761469160680982500,8.359982421875,-0.13954299688339233,-0.03587564453482628,0.265616238117218
1761469160690966500,8.369966552734375,-0.15503601729869843,-0.09427493065595627,0.27695876359939575
1761469160700949500,8.379949462890625,-0.16628201305866241,-0.1626870036125183,0.28940290212631226
1761469160710932500,8.389932373046875,-0.17683999240398407,-0.23018918931484222,0.305716335773468
1761469160720915500,8.39991552734375,-0.18618182837963104,-0.27773165702819824,0.33426034450531006
1761469160730898400,8.4098984375,-0.20557281374931335,-0.3074990212917328,0.3626469373703003
1761469160740881400,8.41988134765625,-0.23486651480197906,-0.2939930558204651,0.40029817819595337
1761469160750864400,8.429864501953125,-0.265484094619751,-0.24460846185684204,0.4263031482696533
1761469160760847600,8.43984765625,-0.2987065017223358,-0.2020687311887741,0.43280738592147827
1761469160770830300,8.449830322265624,-0.30983442068099976,-0.19562572240829468,0.42502960562705994
1761469160780814300,8.459814453125,-0.29860493540763855,-0.22074784338474274,0.4018198847770691
1761469160790797600,8.469797607421874,-0.2695026099681854,-0.26239487528800964,0.3853875398635864
1761469160800780500,8.479780517578124,-0.23660697042942047,-0.3030083477497101,0.38216087222099304
1761469160810763500,8.489763427734376,-0.17983578145503998,-0.34660327434539795,0.3797442615032196
1761469160820746500,8.49974658203125,-0.12977208197116852,-0.35758933424949646,0.37203362584114075
1761469160830729500,8.5097294921875,-0.07415466755628586,-0.35471922159194946,0.3639349937438965
1761469160840712400,8.51971240234375,-0.038515180349349976,-0.34818461537361145,0.36703118681907654
1761469160850695400,8.5296953125,-0.02499466761946678,-0.32297855615615845,0.37538498640060425
1761469160860679400,8.539679443359375,-0.030316464602947235,-0.2962974011898041,0.3740334212779999
1761469160870662400,8.549662353515625,-0.05265951156616211,-0.26650774478912354,0.36432331800460815
1761469160880645600,8.559645751953125,-0.08369039744138718,-0.2435491532087326,0.3694254159927368
1761469160890628600,8.569628662109375,-0.13752320408821106,-0.2637195587158203,0.40095898509025574
1761469160900611300,8.579611328125,-0.17560242116451263,-0.29564499855041504,0.45030710101127625
1761469160910594600,8.589594482421875,-0.19473344087600708,-0.2986992597579956,0.5255002975463867
1761469160920577500,8.59957763671875,-0.2035980373620987,-0.25975823402404785,0.576878547668457
1761469160930560500,8.609560546875,-0.22153201699256897,-0.15800610184669495,0.5843355655670166
1761469160940543500,8.61954345703125,-0.23079821467399597,-0.08562565594911575,0.5760470032691956
1761469160950527500,8.629527587890625,-0.20881646871566772,-0.11733677983283997,0.5946138501167297
1761469160960510500,8.639510498046874,-0.18472924828529358,-0.19428054988384247,0.6369088292121887
1761469160970493400,8.649493408203124,-0.15823425352573395,-0.293044775724411,0.6652441024780273
1761469160980476400,8.659476318359374,-0.14218257367610931,-0.35196614265441895,0.6545227766036987
1761469160990459400,8.66945947265625,-0.143954336643219,-0.38740745186805725,0.618261456489563
1761469161000442600,8.679442626953126,-0.13476429879665375,-0.37589675188064575,0.5736013054847717
1761469161010425600,8.689425537109376,-0.15678638219833374,-0.31772181391716003,0.50190669298172
1761469161020408300,8.699408203125,-0.18808598816394806,-0.20812609791755676,0.40680357813835144
1761469161030392300,8.709392333984376,-0.23169945180416107,-0.05177009850740433,0.322853147983551
1761469161040375600,8.71937548828125,-0.27284926176071167,0.11741466820240021,0.2519925534725189
1761469161050358500,8.729358642578125,-0.29898351430892944,0.2397097945213318,0.1888640969991684
1761469161060341500,8.739341552734375,-0.3191750645637512,0.2665911912918091,0.143313929438591
1761469161070324500,8.749324462890625,-0.32296863198280334,0.2056388109922409,0.14601178467273712
1761469161080307500,8.759307373046875,-0.31699782609939575,0.09203580766916275,0.18034818768501282
1761469161090290400,8.76929052734375,-0.29247498512268066,-0.04383256658911705,0.20892885327339172
1761469161100273400,8.7792734375,-0.27062854170799255,-0.17056520283222198,0.22057217359542847
1761469161110256400,8.78925634765625,-0.250753253698349,-0.24923136830329895,0.2079639434814453
1761469161120240400,8.799240478515625,-0.24133260548114777,-0.2747287452220917,0.19160096347332
1761469161130223600,8.8092236328125,-0.23434114456176758,-0.2554911673069,0.17028945684432983
1761469161140206600,8.81920654296875,-0.2285487800836563,-0.22191907465457916,0.13660818338394165
1761469161150189300,8.829189208984374,-0.22817130386829376,-0.15405458211898804,0.10582276433706284
1761469161160172500,8.839172607421874,-0.24791011214256287,-0.032802730798721313,0.06456374377012253
1761469161170155500,8.849155517578126,-0.26648345589637756,0.08706536889076233,0.005006001330912113
1761469161180138500,8.859138427734376,-0.2685133218765259,0.14745919406414032,-0.05407596006989479
1761469161190121500,8.86912158203125,-0.24881038069725037,0.1559998095035553,-0.13210055232048035
1761469161200105500,8.87910546875,-0.22411009669303894,0.13743118941783905,-0.21908286213874817
1761469161210088400,8.88908837890625,-0.19545376300811768,0.10248374193906784,-0.3087620437145233
1761469161220071700,8.89907177734375,-0.1656079739332199,0.05428451672196388,-0.3776226043701172
1761469161230054400,8.909054443359375,-0.14295227825641632,0.004395437426865101,-0.4188971221446991
1761469161240037400,8.919037353515625,-0.12427712976932526,-0.048151660710573196,-0.4480915069580078
1761469161250020600,8.9290205078125,-0.10108424723148346,-0.08666696399450302,-0.45818719267845154
1761469161260003600,8.939003662109375,-0.08798176795244217,-0.09688311815261841,-0.4417927861213684
1761469161269986300,8.948986328125,-0.060631707310676575,-0.0817926675081253,-0.40943437814712524
1761469161279970300,8.95897021484375,-0.048426974564790726,-0.06780068576335907,-0.3706297278404236
1761469161289953500,8.96895361328125,-0.0302121639251709,-0.059950925409793854,-0.33446356654167175
1761469161299936500,8.9789365234375,-0.017444439232349396,-0.0458015501499176,-0.3011855185031891
1761469161309919500,8.98891943359375,-0.013115511275827885,-0.03170890733599663,-0.273000031709671
1761469161319902500,8.99890234375,-0.021466653794050217,-0.03455769270658493,-0.2627204954624176
1761469161329885400,9.008885498046874,-0.031609825789928436,-0.02889135479927063,-0.2701815664768219
1761469161339868700,9.01886865234375,-0.038579314947128296,-0.02624071016907692,-0.2892162501811981
1761469161349851600,9.0288515625,-0.04107705503702164,-0.04935874417424202,-0.30046552419662476
1761469161359835400,9.03883544921875,-0.03834092244505882,-0.08556308597326279,-0.29763591289520264
1761469161369818400,9.048818359375,-0.02007787674665451,-0.10780595988035202,-0.2913614809513092
1761469161379801600,9.058801513671876,0.008069870993494987,-0.10335821658372879,-0.3007509708404541
1761469161389784600,9.06878466796875,0.0513932891190052,-0.09608887135982513,-0.3097965121269226
1761469161399767300,9.078767333984375,0.08636219054460526,-0.07498065382242203,-0.31433773040771484
1761469161409750500,9.08875048828125,0.1250486671924591,-0.013743790797889233,-0.3045927882194519
1761469161419733500,9.0987333984375,0.14736782014369965,0.07106776535511017,-0.2728588283061981
1761469161429716500,9.108716552734375,0.14914989471435547,0.17623265087604523,-0.2496080845594406
1761469161439700500,9.118700439453125,0.1461397260427475,0.3176249563694,-0.26387807726860046
1761469161449683500,9.128683349609375,0.13125334680080414,0.45203670859336853,-0.2961325943470001
1761469161459666400,9.13866650390625,0.10281956940889359,0.39288604259490967,-0.28978654742240906
1761469161469649700,9.148649658203125,0.07620392739772797,0.19640156626701355,-0.2483009248971939
1761469161479632400,9.15863232421875,0.057301875203847885,0.1162521243095398,-0.21118737757205963
1761469161489615400,9.168615478515624,0.05965598300099373,0.11497083306312561,-0.2038557231426239
1761469161499598600,9.1785986328125,0.05428944528102875,0.1043461486697197,-0.2140742689371109
1761469161509581600,9.18858154296875,0.05389944091439247,0.08022314310073853,-0.23199455440044403
1761469161519565600,9.198565673828124,0.05309330299496651,0.0405348502099514,-0.2303772121667862
1761469161529548300,9.20854833984375,0.05021148547530174,0.005853372626006603,-0.22282135486602783
1761469161539531500,9.218531494140626,0.06503863632678986,-0.030110221356153488,-0.2050095945596695
1761469161549514500,9.228514404296876,0.09568113833665848,-0.07924867421388626,-0.18217182159423828
1761469161559497500,9.23849755859375,0.13072727620601654,-0.19184553623199463,-0.1504514515399933
1761469161569480400,9.24848046875,0.14321359992027283,-0.3001152276992798,-0.08573827147483826
1761469161579463400,9.25846337890625,0.12394615262746811,-0.2664770781993866,-0.003952860366553068
1761469161589447400,9.268447509765625,0.06216103583574295,-0.13955621421337128,0.04959408566355705
1761469161599430700,9.2784306640625,-0.02100655436515808,0.02058551274240017,0.05739661678671837
1761469161609413400,9.288413330078125,-0.0847311019897461,0.18379507958889008,0.01651706174015999
1761469161619396400,9.298396240234375,-0.11697372049093246,0.2642558515071869,-0.054807983338832855
1761469161629379600,9.308379638671875,-0.12025415897369385,0.20224756002426147,-0.1192445382475853
1761469161639362600,9.318362548828125,-0.0797320231795311,0.07126183807849884,-0.1485220044851303
1761469161649345300,9.32834521484375,0.0013842717744410038,-0.051933642476797104,-0.13158592581748962
1761469161659325700,9.33832568359375,0.08264689892530441,-0.16687941551208496,-0.10368664562702179
1761469161669309400,9.348309326171876,0.15842723846435547,-0.23294894397258759,-0.09218139201402664
1761469161679292400,9.35829248046875,0.22861644625663757,-0.2802123427391052,-0.10390330106019974
1761469161689275400,9.368275390625,0.2730281949043274,-0.31391531229019165,-0.1406709849834442
1761469161699258600,9.378258544921875,0.29629355669021606,-0.32506704330444336,-0.18757592141628265
1761469161709241300,9.388241455078125,0.2959275245666504,-0.30623263120651245,-0.24298334121704102
1761469161719224600,9.398224609375,0.2841060161590576,-0.26735660433769226,-0.2904618978500366
1761469161729207600,9.40820751953125,0.2762972116470337,-0.23370294272899628,-0.329620897769928
1761469161739190500,9.4181904296875,0.25985005497932434,-0.18523606657981873,-0.3348207175731659
1761469161749174500,9.428174560546875,0.24851344525814056,-0.12263200432062149,-0.33280640840530396
1761469161759157500,9.438157470703125,0.2338402271270752,-0.05649532750248909,-0.32823801040649414
1761469161769140500,9.448140380859375,0.21033887565135956,0.006297861225903034,-0.3425879180431366
1761469161779123500,9.45812353515625,0.19079367816448212,0.05750565603375435,-0.36224761605262756
1761469161789106700,9.468106689453125,0.17626957595348358,0.08273039013147354,-0.3706510066986084
1761469161799089400,9.47808935546875,0.1649245172739029,0.09049243479967117,-0.35503023862838745
1761469161809072400,9.488072265625,0.1572083830833435,0.07848893851041794,-0.3254035413265228
1761469161819056400,9.498056396484374,0.14602044224739075,0.0512370802462101,-0.2778589427471161
1761469161829039600,9.50803955078125,0.11937566101551056,0.005334475543349981,-0.22437293827533722
1761469161839022300,9.518022216796876,0.10820236802101135,-0.05010561645030975,-0.1898173689842224
1761469161849005600,9.528005615234376,0.11973966658115387,-0.09718650579452515,-0.17550939321517944
1761469161858988500,9.537988525390626,0.14696969091892242,-0.13936938345432281,-0.1864166408777237
1761469161868971500,9.547971435546875,0.1864790916442871,-0.15566764771938324,-0.2082885205745697
1761469161878954500,9.55795458984375,0.2214706391096115,-0.1522742509841919,-0.21754805743694305
1761469161888937500,9.5679375,0.2547532320022583,-0.13349024951457977,-0.20179328322410583
1761469161898921500,9.57792138671875,0.28133532404899597,-0.11105816811323166,-0.17969223856925964
1761469161908904400,9.587904541015625,0.28972411155700684,-0.06783691793680191,-0.14458978176116943
1761469161918887400,9.597887451171875,0.2813359498977661,-0.0015513740945607424,-0.1144489273428917
1761469161928870400,9.607870361328125,0.26173391938209534,0.04255087673664093,-0.11673286557197571
1761469161938853400,9.617853271484375,0.23449191451072693,0.08492842316627502,-0.15188047289848328
1761469161948836600,9.627836669921875,0.20405691862106323,0.1365717649459839,-0.21190783381462097
1761469161958819300,9.6378193359375,0.18486538529396057,0.2221657633781433,-0.25168079137802124
1761469161968803300,9.64780322265625,0.16613472998142242,0.29983431100845337,-0.27230146527290344
1761469161978786600,9.65778662109375,0.13609986007213593,0.3457312285900116,-0.2659333050251007
1761469161988769500,9.66776953125,0.13180115818977356,0.3747493624687195,-0.21464437246322632
1761469161998752500,9.67775244140625,0.12733210623264313,0.3890095353126526,-0.15226249396800995
1761469162008735500,9.687735595703124,0.12092866003513336,0.3896799087524414,-0.11565704643726349
1761469162018718500,9.697718505859376,0.11654216796159744,0.36416950821876526,-0.11142262071371078
1761469162028701400,9.707701416015626,0.1234145313501358,0.29943838715553284,-0.13561704754829407
1761469162038685400,9.717685546875,0.12054097652435303,0.2488124966621399,-0.16992361843585968
1761469162048668400,9.72766845703125,0.09871359914541245,0.21566037833690643,-0.19232919812202454
1761469162058651400,9.7376513671875,0.05547238886356354,0.1797495186328888,-0.20104944705963135
1761469162068634600,9.747634521484375,0.025522299110889435,0.13016146421432495,-0.1871526837348938
1761469162078617600,9.75761767578125,-0.007194900885224342,0.0718877762556076,-0.13470199704170227
1761469162088600300,9.767600341796875,-0.05634929984807968,-0.05940396338701248,-0.022008182480931282
1761469162098583600,9.77758349609375,-0.032164067029953,-0.24529339373111725,0.09159640222787857
1761469162108567600,9.787567626953125,0.025600319728255272,-0.37971025705337524,0.09610160440206528
1761469162118550500,9.797550537109375,0.07701317220926285,-0.469837486743927,0.08450407534837723
1761469162128533500,9.807533447265625,0.11465482413768768,-0.5652156472206116,0.06782309710979462
1761469162138516500,9.8175166015625,0.1626279503107071,-0.5949317216873169,0.06838768720626831
1761469162148499500,9.82749951171875,0.23241259157657623,-0.5760660767555237,0.04424511268734932
1761469162158482400,9.837482421875,0.295206218957901,-0.5537706017494202,0.011706878431141376
1761469162168465400,9.84746533203125,0.3112128973007202,-0.51939857006073,0.029704948887228966
1761469162178449400,9.857449462890624,0.2957037091255188,-0.46497151255607605,0.0964360460639
1761469162188432400,9.867432373046874,0.2506493628025055,-0.4285014867782593,0.1511528193950653
1761469162198415600,9.87741552734375,0.20485125482082367,-0.4216177463531494,0.18025104701519012
1761469162208398600,9.887398681640626,0.1742817610502243,-0.4389096796512604,0.18585388362407684
1761469162218381300,9.89738134765625,0.1543613225221634,-0.4395887851715088,0.18679770827293396
1761469162228364500,9.907364501953126,0.15283356606960297,-0.4164031744003296,0.2092537134885788
1761469162238347500,9.917347412109375,0.16593526303768158,-0.40488818287849426,0.23082691431045532
1761469162248331500,9.92733154296875,0.18494665622711182,-0.412602961063385,0.24074962735176086
1761469162258314500,9.937314453125,0.21679779887199402,-0.3915559947490692,0.2565980851650238
1761469162268297500,9.94729736328125,0.22534997761249542,-0.35038307309150696,0.2821425795555115
1761469162278280400,9.957280517578125,0.18579165637493134,-0.26773399114608765,0.328278124332428
1761469162288263700,9.967263671875,0.12981493771076202,-0.17741023004055023,0.3622680604457855
1761469162298246400,9.977246337890625,0.08406928181648254,-0.09767413139343262,0.36503827571868896
1761469162308229400,9.9872294921875,0.06360017508268356,-0.04687816649675369,0.3473541736602783
1761469162318213400,9.99721337890625,0.07920709252357483,-0.07801079005002975,0.37027600407600403
1761469162328196600,10.007196533203125,0.12014129757881165,-0.19988875091075897,0.4308459758758545
1761469162338179600,10.0171796875,0.17993219196796417,-0.3321352005004883,0.5130103826522827
1761469162348162300,10.027162353515624,0.21592235565185547,-0.4246877431869507,0.5976587533950806
1761469162358145500,10.0371455078125,0.20899973809719086,-0.4534837007522583,0.6737862825393677
1761469162368128500,10.04712841796875,0.14678390324115753,-0.460369348526001,0.7265105247497559
1761469162378111500,10.057111572265624,0.06386825442314148,-0.47872012853622437,0.7375669479370117
1761469162388095500,10.067095458984374,-0.008993852883577347,-0.473318874835968,0.6890906095504761
1761469162398078500,10.077078369140626,-0.08481351286172867,-0.4156443774700165,0.5905001163482666
1761469162408061400,10.0870615234375,-0.1436031311750412,-0.2529006898403168,0.45234033465385437
1761469162418044700,10.097044677734376,-0.1933954507112503,0.00981084629893303,0.34209558367729187
1761469162428027400,10.10702734375,-0.2358018457889557,0.30019718408584595,0.2613561749458313
1761469162438010400,10.11701025390625,-0.2623237371444702,0.5161528587341309,0.32827049493789673
1761469162447993600,10.12699365234375,-0.30531632900238037,0.5059522986412048,0.21012388169765472
1761469162457977600,10.1369775390625,-0.32626956701278687,0.3544474244117737,0.11060155928134918
1761469162467960600,10.146960693359375,-0.3388475477695465,0.19132748246192932,0.06904338300228119
1761469162477943300,10.156943359375,-0.34588363766670227,0.11236688494682312,0.07948403805494308
1761469162487926500,10.166926513671875,-0.36164507269859314,0.05816258490085602,0.08005596697330475
1761469162497909500,10.176909423828125,-0.3782392144203186,0.03378773853182793,0.09845522046089172
1761469162507892500,10.186892578125,-0.3868264853954315,0.03217804804444313,0.13123810291290283
