time,seconds_elapsed,z,y,x
1761469256785132500,0.122132568359375,-0.16221189498901367,0.02605677954852581,0.13784223794937134
1761469256795115800,0.13211572265625,-0.21657206118106842,0.03640103340148926,0.13049830496311188
1761469256805098800,0.1420986328125,-0.2583523094654083,0.013699565082788467,0.14926287531852722
1761469256815082800,0.152082763671875,-0.3014771640300751,-0.014924355782568455,0.16484344005584717
1761469256825065700,0.162065673828125,-0.33869796991348267,-0.006840169429779053,0.15493276715278625
1761469256835048700,0.172048583984375,-0.3593640923500061,0.0522223524749279,0.12526117265224457
1761469256845031700,0.18203173828125,-0.35905399918556213,0.10752534866333008,0.07996653765439987
1761469256855015000,0.192014892578125,-0.33866775035858154,0.15785962343215942,0.019328752532601357
1761469256864999000,0.2019990234375,-0.3253309726715088,0.2078520655632019,-0.024263497442007065
1761469256874981600,0.211981689453125,-0.31553372740745544,0.2580992579460144,-0.03857026621699333
1761469256884964600,0.221964599609375,-0.3102751672267914,0.29657483100891113,-0.023346759378910065
1761469256894948600,0.231948486328125,-0.301182359457016,0.3211049437522888,-0.007064458914101124
1761469256904931800,0.241931884765625,-0.3056754469871521,0.3321837782859802,0.014241283759474754
1761469256914914600,0.25191455078125,-0.3127378821372986,0.35042428970336914,0.043358154594898224
1761469256924897800,0.261897705078125,-0.29803523421287537,0.37976986169815063,0.08146202564239502
1761469256934880800,0.271880859375,-0.27520740032196045,0.4233817756175995,0.12911050021648407
1761469256944864800,0.28186474609375,-0.2419518679380417,0.45609933137893677,0.1794251799583435
1761469256954847700,0.29184765625,-0.2150840312242508,0.4573124051094055,0.21684099733829498
1761469256964830700,0.301830810546875,-0.19596710801124573,0.4427095651626587,0.25703102350234985
1761469256974814700,0.311814697265625,-0.18548835813999176,0.4453229308128357,0.30769607424736023
1761469256984797700,0.321797607421875,-0.18942007422447205,0.47109922766685486,0.3689550459384918
1761469256994780700,0.33178076171875,-0.194294735789299,0.49536409974098206,0.41778305172920227
1761469257004763600,0.341763671875,-0.1999952644109726,0.5156504511833191,0.4590905010700226
1761469257014746600,0.35174658203125,-0.21614494919776917,0.5134387016296387,0.4814019501209259
1761469257024730600,0.361730712890625,-0.24948158860206604,0.5060108304023743,0.5013812780380249
1761469257034713900,0.3717138671875,-0.2897464632987976,0.5055224299430847,0.5184600949287415
1761469257044696800,0.38169677734375,-0.3360523581504822,0.5065211653709412,0.5294902324676514
1761469257054679600,0.391679443359375,-0.3756530284881592,0.510578989982605,0.5190735459327698
1761469257064663600,0.40166357421875,-0.4090172052383423,0.5352569222450256,0.49376246333122253
1761469257074646800,0.411646728515625,-0.44219353795051575,0.5816273093223572,0.47121959924697876
1761469257084629800,0.421629638671875,-0.4820050299167633,0.6282122731208801,0.46754324436187744
1761469257094613800,0.43161376953125,-0.5182589292526245,0.6806544661521912,0.4771961271762848
1761469257104596700,0.4415966796875,-0.5456929206848145,0.7113491892814636,0.48710545897483826
1761469257114579700,0.451579833984375,-0.5628402233123779,0.7174019813537598,0.49050310254096985
1761469257124562700,0.461562744140625,-0.5769680738449097,0.7100662589073181,0.4867868721485138
1761469257134546700,0.471546630859375,-0.5831258296966553,0.7127912044525146,0.4832043945789337
1761469257144530000,0.481530029296875,-0.5765038132667542,0.706271231174469,0.47992509603500366
1761469257154512600,0.4915126953125,-0.5685151219367981,0.6829624772071838,0.47317346930503845
1761469257164495600,0.50149560546875,-0.562126100063324,0.6326706409454346,0.45315125584602356
1761469257174478800,0.511478759765625,-0.552625834941864,0.5859955549240112,0.41874295473098755
1761469257184462800,0.521462890625,-0.5578833818435669,0.5672957897186279,0.37698817253112793
1761469257194445600,0.531445556640625,-0.5643389225006104,0.5307571887969971,0.3223249316215515
1761469257204428800,0.5414287109375,-0.563125729560852,0.5032618641853333,0.276083767414093
1761469257214411800,0.551411865234375,-0.5614897608757019,0.49985751509666443,0.24199874699115753
1761469257224395800,0.561395751953125,-0.5829493999481201,0.5389639139175415,0.23429328203201294
1761469257234378800,0.571378662109375,-0.6181532144546509,0.5607150197029114,0.22594693303108215
1761469257244361700,0.58136181640625,-0.6242569088935852,0.5453745722770691,0.21949082612991333
1761469257254345700,0.591345703125,-0.6154346466064453,0.501525342464447,0.2212754189968109
1761469257264328700,0.60132861328125,-0.590559184551239,0.46375733613967896,0.2186284363269806
1761469257274311700,0.611311767578125,-0.5654159784317017,0.4287892282009125,0.2144206464290619
1761469257284294700,0.621294677734375,-0.5341929197311401,0.40022388100624084,0.21416787803173065
1761469257294278700,0.631278564453125,-0.4987694323062897,0.3780061900615692,0.20928604900836945
1761469257304261600,0.64126171875,-0.48804357647895813,0.4028370678424835,0.2154163420200348
1761469257314244900,0.651244873046875,-0.49356722831726074,0.42112550139427185,0.20386701822280884
1761469257324227800,0.661227783203125,-0.48515772819519043,0.4278779923915863,0.1759539395570755
1761469257334211800,0.6712119140625,-0.4891466200351715,0.4339151084423065,0.13519905507564545
1761469257344194600,0.681194580078125,-0.4961376488208771,0.4437561631202698,0.09965973347425461
1761469257354177800,0.691177734375,-0.4985078275203705,0.4627663493156433,0.08235611021518707
1761469257364160800,0.701160888671875,-0.4893277883529663,0.4811494052410126,0.07774791866540909
1761469257374144800,0.711144775390625,-0.4631284177303314,0.4740619361400604,0.0762256532907486
1761469257384127700,0.721127685546875,-0.41277357935905457,0.4617345929145813,0.08508392423391342
1761469257394110700,0.73111083984375,-0.36237192153930664,0.45601436495780945,0.10055901855230331
1761469257404093700,0.74109375,-0.30540990829467773,0.43601149320602417,0.0937117338180542
1761469257414077700,0.75107763671875,-0.2521911561489105,0.40769675374031067,0.06916244328022003
1761469257424061000,0.76106103515625,-0.19408899545669556,0.36075109243392944,0.03661508113145828
1761469257434043600,0.771043701171875,-0.1521141231060028,0.28114786744117737,-0.008907929062843323
1761469257444026600,0.781026611328125,-0.11507478356361389,0.20390945672988892,-0.042896710336208344
1761469257454010600,0.7910107421875,-0.08094770461320877,0.15637682378292084,-0.06232660263776779
1761469257463993900,0.800993896484375,-0.06454028189182281,0.1140233501791954,-0.05890500545501709
1761469257473976600,0.8109765625,-0.052207186818122864,0.09907954931259155,-0.028886117041110992
1761469257483959600,0.82095947265625,-0.031002789735794067,0.06723441183567047,0.01235086377710104
1761469257493943800,0.83094384765625,0.0014462308026850224,0.010406551882624626,0.07342833280563354
1761469257503926800,0.8409267578125,0.03726606070995331,-0.06745492666959763,0.13481180369853973
1761469257513909800,0.85090966796875,0.0731620118021965,-0.12962588667869568,0.17458851635456085
1761469257523892700,0.860892822265625,0.11249388009309769,-0.13344624638557434,0.17388752102851868
1761469257533876700,0.870876708984375,0.15805578231811523,-0.06998871266841888,0.11059775948524475
1761469257543859700,0.880859619140625,0.21347379684448242,-0.013591332361102104,0.04103924706578255
1761469257553842700,0.8908427734375,0.2836659550666809,0.014492234215140343,-0.03501424193382263
1761469257563825700,0.90082568359375,0.3603477478027344,-0.009573660790920258,-0.11719979345798492
1761469257573809700,0.9108095703125,0.425116628408432,-0.04484749585390091,-0.19852261245250702
1761469257583792600,0.920792724609375,0.42602142691612244,-0.05437752604484558,-0.27821072936058044
1761469257593775900,0.93077587890625,0.36899489164352417,-0.07880537211894989,-0.3702434301376343
1761469257603759900,0.940759765625,0.31224122643470764,-0.07615519315004349,-0.4476339519023895
1761469257613742800,0.950742919921875,0.27693435549736023,-0.12507134675979614,-0.4913334846496582
1761469257623725600,0.9607255859375,0.2261691391468048,-0.18994301557540894,-0.5447033047676086
1761469257633708800,0.970708740234375,0.23222702741622925,-0.2405066043138504,-0.5922284722328186
1761469257643692800,0.98069287109375,0.2537493109703064,-0.2871219217777252,-0.639037549495697
1761469257653675800,0.99067578125,0.2678805887699127,-0.2824725806713104,-0.6417702436447144
1761469257663658500,1.000658447265625,0.31168559193611145,-0.21377448737621307,-0.6406359672546387
1761469257673641700,1.010641845703125,0.38934096693992615,-0.09990197420120239,-0.6330060362815857
1761469257683625700,1.020625732421875,0.48790743947029114,0.0020281958859413862,-0.6269952654838562
1761469257693608700,1.030608642578125,0.5869022011756897,0.039456795901060104,-0.6451241970062256
1761469257703592000,1.040592041015625,0.6732025146484375,0.027193794026970863,-0.6721959710121155
1761469257713574700,1.05057470703125,0.7582497596740723,-0.028056412935256958,-0.7382740378379822
1761469257723558700,1.06055859375,0.8103691935539246,-0.09630976617336273,-0.8351249694824219
1761469257733541600,1.070541748046875,0.8480169177055359,-0.1709563136100769,-0.9481878280639648
1761469257743524900,1.08052490234375,0.8854765295982361,-0.24748699367046356,-1.0807100534439087
1761469257753511400,1.090511474609375,0.9200329184532166,-0.31487801671028137,-1.212498426437378
1761469257763495400,1.100495361328125,0.9612436294555664,-0.38636353611946106,-1.330633521080017
1761469257773478100,1.11047802734375,1.0036818981170654,-0.4635331630706787,-1.4273473024368286
1761469257783461400,1.12046142578125,1.0414854288101196,-0.519232451915741,-1.4877097606658936
1761469257793445400,1.1304453125,1.0728380680084229,-0.5659890174865723,-1.5201929807662964
1761469257803428400,1.140428466796875,1.0808078050613403,-0.5932070016860962,-1.5400943756103516
1761469257813411300,1.150411376953125,1.0700547695159912,-0.6143527626991272,-1.5617066621780396
1761469257823394300,1.160394287109375,1.0457056760787964,-0.6206917762756348,-1.5949844121932983
1761469257833377300,1.170377197265625,1.0208536386489868,-0.6215639710426331,-1.643675446510315
1761469257843361300,1.180361328125,0.9997254014015198,-0.609744131565094,-1.698378086090088
1761469257853344500,1.190344482421875,0.9753752946853638,-0.5921592712402344,-1.7468348741531372
1761469257863327200,1.2003271484375,0.9534404277801514,-0.5657756328582764,-1.7833588123321533
1761469257873311200,1.210311279296875,0.9574493169784546,-0.5509223937988281,-1.7996371984481812
1761469257883294500,1.22029443359375,0.9725162982940674,-0.5730412602424622,-1.802331566810608
1761469257893277400,1.23027734375,1.0041708946228027,-0.6233515739440918,-1.812471866607666
1761469257903260200,1.24026025390625,1.0386444330215454,-0.6799938678741455,-1.84324312210083
1761469257913244200,1.250244140625,1.0713353157043457,-0.7213008403778076,-1.9060676097869873
1761469257923227400,1.260227294921875,1.0990866422653198,-0.7311758399009705,-1.9802842140197754
1761469257933210400,1.27021044921875,1.1114131212234497,-0.7293617129325867,-2.0668275356292725
1761469257943193300,1.280193359375,1.1208229064941406,-0.7277041077613831,-2.16861891746521
1761469257953177300,1.29017724609375,1.1333104372024536,-0.7083733081817627,-2.2484092712402344
1761469257963160300,1.300160400390625,1.1421750783920288,-0.7026273608207703,-2.296269416809082
1761469257973143300,1.310143310546875,1.144325613975525,-0.6898084878921509,-2.3153791427612305
1761469257983126500,1.32012646484375,1.146109938621521,-0.6781108379364014,-2.3127245903015137
1761469257993110500,1.330110595703125,1.1623607873916626,-0.6789031624794006,-2.287862539291382
1761469258003093200,1.34009326171875,1.181207299232483,-0.6860885620117188,-2.2495672702789307
1761469258013076200,1.350076171875,1.2145735025405884,-0.7138714790344238,-2.217036485671997
1761469258023060200,1.360060302734375,1.2525920867919922,-0.7183530330657959,-2.1975488662719727
1761469258033043500,1.37004345703125,1.284051537513733,-0.6970386505126953,-2.1817593574523926
1761469258043026400,1.3800263671875,1.300999402999878,-0.6778885126113892,-2.176900863647461
1761469258053009200,1.390009033203125,1.3068900108337402,-0.6794949173927307,-2.1762807369232178
1761469258062993400,1.399993408203125,1.311434268951416,-0.7104641795158386,-2.1651129722595215
1761469258072976400,1.409976318359375,1.3142399787902832,-0.7454325556755066,-2.144782066345215
1761469258082959400,1.41995947265625,1.3174997568130493,-0.773347795009613,-2.11112380027771
1761469258092942300,1.4299423828125,1.331113576889038,-0.8000494837760925,-2.077850580215454
1761469258102926300,1.43992626953125,1.3216828107833862,-0.7884199023246765,-2.0227627754211426
1761469258112909300,1.449909423828125,1.3036540746688843,-0.7727376222610474,-1.9679791927337646
1761469258122892300,1.459892333984375,1.271851897239685,-0.7364537715911865,-1.9170035123825073
1761469258132876300,1.469876220703125,1.2354060411453247,-0.6934106945991516,-1.8705334663391113
1761469258142859500,1.479859619140625,1.1798820495605469,-0.6552520394325256,-1.8056654930114746
1761469258152842200,1.48984228515625,1.1697529554367065,-0.6544091105461121,-1.7352863550186157
1761469258162825500,1.499825439453125,1.1540234088897705,-0.6699081063270569,-1.6669503450393677
1761469258172809500,1.5098095703125,1.1287693977355957,-0.7146838307380676,-1.6232854127883911
1761469258182792400,1.51979248046875,1.1287131309509277,-0.7381083369255066,-1.5759960412979126
1761469258192775200,1.529775146484375,1.141114354133606,-0.8140986561775208,-1.5487418174743652
1761469258202758400,1.53975830078125,1.1723089218139648,-0.9274250268936157,-1.5558717250823975
1761469258212742400,1.549742431640625,1.2229180335998535,-1.041439175605774,-1.579061508178711
1761469258222725400,1.559725341796875,1.2880138158798218,-1.1085429191589355,-1.5958664417266846
1761469258232708400,1.569708251953125,1.3278331756591797,-1.0889090299606323,-1.5962592363357544
1761469258242691300,1.57969140625,1.3725252151489258,-1.016404151916504,-1.5835068225860596
1761469258252675300,1.58967529296875,1.4328910112380981,-0.9459052085876465,-1.559126615524292
1761469258262658300,1.599658203125,1.481151819229126,-0.8644114136695862,-1.5295270681381226
1761469258272641500,1.6096416015625,1.4902763366699219,-0.7833921909332275,-1.4864531755447388
1761469258282625500,1.61962548828125,1.4666000604629517,-0.6971668601036072,-1.4476282596588135
1761469258292608300,1.629608154296875,1.4127932786941528,-0.596311628818512,-1.4120380878448486
1761469258302591200,1.63959130859375,1.3093388080596924,-0.4803706705570221,-1.3678951263427734
1761469258312574500,1.649574462890625,1.17123544216156,-0.3298698365688324,-1.3436390161514282
1761469258322558500,1.659558349609375,1.0096955299377441,-0.13433709740638733,-1.379868507385254
1761469258332541200,1.669541259765625,0.854890763759613,0.05880466103553772,-1.464074969291687
1761469258342524400,1.6795244140625,0.7354807257652283,0.08699140697717667,-1.5662866830825806
1761469258352507400,1.68950732421875,0.6818811297416687,-0.008857887238264084,-1.6041953563690186
1761469258362491400,1.699491455078125,0.7023736834526062,-0.16656413674354553,-1.5746346712112427
1761469258372474400,1.709474365234375,0.7764479517936707,-0.33014217019081116,-1.524709939956665
1761469258382457300,1.719457275390625,0.8584778904914856,-0.41164880990982056,-1.495898723602295
1761469258392441300,1.72944140625,0.9360922574996948,-0.4314419627189636,-1.490860104560852
1761469258402424300,1.73942431640625,0.9821145534515381,-0.4424894452095032,-1.5058116912841797
1761469258412407300,1.7494072265625,1.0131014585494995,-0.47104546427726746,-1.5173605680465698
1761469258422390500,1.759390625,1.0258110761642456,-0.5244895815849304,-1.5379784107208252
1761469258432374300,1.769374267578125,1.0272570848464966,-0.5675981640815735,-1.5793514251708984
1761469258442357200,1.779357177734375,1.0251376628875732,-0.5634313225746155,-1.628032922744751
1761469258452340500,1.789340576171875,1.0261422395706177,-0.5245142579078674,-1.6999521255493164
1761469258462323500,1.799323486328125,1.013146162033081,-0.47037824988365173,-1.7959742546081543
1761469258472307500,1.809307373046875,0.9996376037597656,-0.3948797583580017,-1.8933680057525635
1761469258482290200,1.819290283203125,0.9890806674957275,-0.31929105520248413,-1.9942017793655396
1761469258492273400,1.8292734375,0.9811106324195862,-0.2836877703666687,-2.09206485748291
1761469258502257400,1.83925732421875,0.970210075378418,-0.2714959383010864,-2.160839319229126
1761469258512240400,1.849240478515625,0.9572663307189941,-0.2717801034450531,-2.195209503173828
1761469258522223400,1.859223388671875,0.9458162784576416,-0.28698796033859253,-2.1956543922424316
1761469258532206300,1.869206298828125,0.9291456937789917,-0.2974725663661957,-2.1622869968414307
1761469258542190300,1.8791904296875,0.9250637888908386,-0.30858051776885986,-2.1035358905792236
1761469258552173300,1.88917333984375,0.9382248520851135,-0.34017467498779297,-2.0555593967437744
1761469258562156500,1.899156494140625,0.9789245128631592,-0.40734216570854187,-2.0160131454467773
1761469258572140500,1.909140625,1.0350983142852783,-0.4807223677635193,-1.9877009391784668
1761469258582123300,1.919123291015625,1.1060612201690674,-0.5337757468223572,-1.9518036842346191
1761469258592106200,1.929106201171875,1.1861085891723633,-0.5697550177574158,-1.926803708076477
1761469258602089500,1.93908935546875,1.2515853643417358,-0.6058201789855957,-1.9192888736724854
1761469258612073500,1.949073486328125,1.2946492433547974,-0.6240513324737549,-1.9142751693725586
1761469258622056200,1.95905615234375,1.3184502124786377,-0.623083233833313,-1.897368311882019
1761469258632039400,1.969039306640625,1.3086146116256714,-0.6218405961990356,-1.8633322715759277
1761469258642022400,1.9790224609375,1.2790416479110718,-0.6074687838554382,-1.798504114151001
1761469258652006400,1.98900634765625,1.2406439781188965,-0.5757638216018677,-1.7132501602172852
1761469258661989400,1.9989892578125,1.1992127895355225,-0.5664754509925842,-1.6232575178146362
1761469258671972400,2.008972412109375,1.152108073234558,-0.5721967220306396,-1.5389213562011719
1761469258681956400,2.018956298828125,1.1057548522949219,-0.571696400642395,-1.4669197797775269
1761469258691939300,2.028939208984375,1.0586800575256348,-0.5526670217514038,-1.410730242729187
1761469258701922300,2.03892236328125,1.004392147064209,-0.5264646410942078,-1.3669931888580322
1761469258711905300,2.0489052734375,0.9515537619590759,-0.4848199784755707,-1.3345234394073486
1761469258721889300,2.05888916015625,0.9104107618331909,-0.42517298460006714,-1.3112516403198242
1761469258731872300,2.068872314453125,0.8687692880630493,-0.3640265166759491,-1.2906835079193115
1761469258741855500,2.07885546875,0.8316593766212463,-0.30435124039649963,-1.2744848728179932
1761469258751835100,2.088835205078125,0.807113528251648,-0.2623729109764099,-1.2751387357711792
1761469258761819100,2.098819091796875,0.7891182899475098,-0.2381071299314499,-1.29719078540802
1761469258771802000,2.108802001953125,0.7804243564605713,-0.2385215163230896,-1.3408277034759521
1761469258781785000,2.11878515625,0.7786346077919006,-0.2445688247680664,-1.4003570079803467
1761469258791769000,2.12876904296875,0.7711777687072754,-0.25378817319869995,-1.464744210243225
1761469258801752000,2.138751953125,0.7758743166923523,-0.2693656086921692,-1.5257145166397095
1761469258811735000,2.148735107421875,0.773292601108551,-0.2883718013763428,-1.5707502365112305
1761469258821718000,2.158718017578125,0.7798154950141907,-0.31089842319488525,-1.6083133220672607
1761469258831702000,2.168701904296875,0.794655442237854,-0.3551761209964752,-1.6349811553955078
1761469258841685000,2.17868505859375,0.8121402859687805,-0.4014795124530792,-1.6469900608062744
1761469258851668200,2.188668212890625,0.8306463360786438,-0.4329428970813751,-1.6494454145431519
1761469258861652200,2.19865234375,0.8508679270744324,-0.4647141695022583,-1.6675152778625488
1761469258871635200,2.20863525390625,0.869941234588623,-0.503953218460083,-1.6929665803909302
1761469258881618000,2.218617919921875,0.8879581689834595,-0.5517229437828064,-1.730317234992981
1761469258891601200,2.22860107421875,0.9169445633888245,-0.6214972138404846,-1.7681429386138916
1761469258901585200,2.238585205078125,0.9428977966308594,-0.6906594038009644,-1.7772877216339111
1761469258911568100,2.248568115234375,0.9649143815040588,-0.776299238204956,-1.7346961498260498
1761469258921551000,2.258551025390625,0.9822004437446594,-0.9026870131492615,-1.6506856679916382
1761469258931535000,2.26853515625,0.9878109097480774,-1.034306526184082,-1.540221929550171
1761469258941518000,2.27851806640625,1.0103158950805664,-1.1559504270553589,-1.4025554656982422
1761469258951501000,2.2885009765625,1.0465396642684937,-1.2873289585113525,-1.256572961807251
1761469258961484300,2.298484375,1.0765653848648071,-1.3151692152023315,-1.1363270282745361
1761469258971468300,2.30846826171875,1.0986655950546265,-1.157712697982788,-1.1009104251861572
1761469258981451000,2.318450927734375,1.1132451295852661,-0.8630552291870117,-1.1465418338775635
1761469258991434000,2.32843408203125,1.160568118095398,-0.6145697832107544,-1.1856017112731934
1761469259001418200,2.338418212890625,1.1962809562683105,-0.5481386184692383,-1.1495120525360107
1761469259011401200,2.348401123046875,1.230768084526062,-0.7013319134712219,-1.0506168603897095
1761469259021384000,2.358384033203125,1.2223713397979736,-0.8407171964645386,-0.9446327090263367
1761469259031367200,2.3683671875,1.1487094163894653,-0.8568545579910278,-0.8833810687065125
1761469259041351200,2.37835107421875,1.011021375656128,-0.7981410026550293,-0.8808061480522156
1761469259051334100,2.388334228515625,0.8506283164024353,-0.7119672298431396,-0.9137324094772339
1761469259061317000,2.398317138671875,0.6783524751663208,-0.6605808138847351,-0.9573129415512085
1761469259071300900,2.40830078125,0.5198003649711609,-0.6389327645301819,-0.9986798167228699
1761469259081284000,2.4182841796875,0.39299166202545166,-0.6544249057769775,-1.032700777053833
1761469259091267000,2.42826708984375,0.30222606658935547,-0.6598497629165649,-1.038536548614502
1761469259101250000,2.43825,0.2589847445487976,-0.6247816681861877,-1.0097160339355469
1761469259111234300,2.448234375,0.2713165283203125,-0.532555341720581,-0.9549509882926941
1761469259121217000,2.458217041015625,0.3596931993961334,-0.3948694169521332,-0.8908596038818359
1761469259131200000,2.468199951171875,0.45711031556129456,-0.21138188242912292,-0.8369649648666382
1761469259141184000,2.47818408203125,0.5581361651420593,-0.03601660951972008,-0.8157069683074951
1761469259151167200,2.488167236328125,0.6344938278198242,0.07563614845275879,-0.8425644040107727
1761469259161150000,2.49814990234375,0.7287871241569519,0.0822254940867424,-0.9060537815093994
1761469259171133000,2.5081328125,0.8105791807174683,-0.050012439489364624,-1.0033442974090576
1761469259181117200,2.5181171875,0.8789564371109009,-0.257367879152298,-1.1282117366790771
1761469259191100200,2.52810009765625,0.9207462072372437,-0.46080780029296875,-1.2664140462875366
1761469259201083100,2.538083251953125,0.9299674034118652,-0.6112701296806335,-1.3804545402526855
1761469259211067100,2.548067138671875,0.9121817946434021,-0.7275482416152954,-1.4678099155426025
1761469259221050000,2.558050048828125,0.8752396702766418,-0.808224618434906,-1.5289479494094849
1761469259231033000,2.568033203125,0.8294806480407715,-0.8420824408531189,-1.5618484020233154
1761469259241016000,2.57801611328125,0.7797741293907166,-0.8494117856025696,-1.5750173330307007
1761469259251000000,2.588,0.739558219909668,-0.8133221864700317,-1.5841392278671265
1761469259260983000,2.597983154296875,0.6954671740531921,-0.7467464208602905,-1.575929880142212
1761469259270966000,2.607966064453125,0.6617193222045898,-0.6517472267150879,-1.5529390573501587
1761469259280950000,2.617949951171875,0.6501399278640747,-0.5658497214317322,-1.51195228099823
1761469259290933200,2.627933349609375,0.6500744223594666,-0.4974088668823242,-1.4544122219085693
1761469259300916200,2.637916259765625,0.6607991456985474,-0.4501212537288666,-1.3961074352264404
1761469259310899000,2.64789892578125,0.6661196351051331,-0.4000074863433838,-1.332481026649475
1761469259320883000,2.657883056640625,0.6654998064041138,-0.3468494117259979,-1.2826651334762573
1761469259330866200,2.6678662109375,0.6478710174560547,-0.30173972249031067,-1.260867714881897
1761469259340849200,2.67784912109375,0.618515133857727,-0.26743507385253906,-1.2526010274887085
1761469259350833200,2.687833251953125,0.5735082626342773,-0.24424879252910614,-1.2459050416946411
1761469259360816000,2.697816162109375,0.5294458270072937,-0.24979490041732788,-1.2394678592681885
1761469259370799000,2.707799072265625,0.4890297055244446,-0.23916995525360107,-1.2325958013534546
1761469259380783000,2.717783203125,0.4435082674026489,-0.2282080054283142,-1.2165172100067139
1761469259390766000,2.72776611328125,0.4005879759788513,-0.22382284700870514,-1.180707335472107
1761469259400749300,2.737749267578125,0.3754855692386627,-0.21220198273658752,-1.1306406259536743
1761469259410732000,2.74773193359375,0.3595942258834839,-0.1997722089290619,-1.0632944107055664
1761469259420716000,2.757716064453125,0.3495582044124603,-0.19755694270133972,-0.981837272644043
1761469259430699000,2.767698974609375,0.3397039771080017,-0.1831873208284378,-0.8811553716659546
1761469259440682200,2.77768212890625,0.3307849168777466,-0.1610192358493805,-0.7982044219970703
1761469259450666200,2.787666259765625,0.3205951452255249,-0.16240806877613068,-0.7414157390594482
1761469259460649000,2.79764892578125,0.3110412359237671,-0.18395254015922546,-0.7006148099899292
1761469259470632200,2.807632080078125,0.29986849427223206,-0.21135567128658295,-0.6709296107292175
1761469259480615200,2.817615234375,0.292921245098114,-0.23893675208091736,-0.6462414860725403
1761469259490599200,2.82759912109375,0.2799662947654724,-0.2561865746974945,-0.6221385598182678
1761469259500582000,2.837581787109375,0.2595909535884857,-0.24798458814620972,-0.5858513116836548
1761469259510565000,2.847565185546875,0.22746020555496216,-0.21803468465805054,-0.5444114804267883
1761469259520549000,2.857549072265625,0.18824316561222076,-0.16836757957935333,-0.49334022402763367
1761469259530532000,2.867531982421875,0.14813223481178284,-0.13245032727718353,-0.4422631859779358
1761469259540515000,2.87751513671875,0.1097538098692894,-0.11978668719530106,-0.3984188735485077
1761469259550499300,2.887499267578125,0.09805534034967422,-0.14211063086986542,-0.36675041913986206
1761469259560482000,2.89748193359375,0.11670811474323273,-0.1911025494337082,-0.34274548292160034
1761469259570465000,2.907465087890625,0.15528561174869537,-0.26928335428237915,-0.33551499247550964
1761469259580448300,2.9174482421875,0.2117912322282791,-0.3446509540081024,-0.32695773243904114
1761469259590432300,2.927432373046875,0.2745821475982666,-0.4010556638240814,-0.31642597913742065
1761469259600415000,2.9374150390625,0.35339388251304626,-0.445771187543869,-0.3134533762931824
1761469259610398000,2.94739794921875,0.44464921951293945,-0.4603365361690521,-0.32940196990966797
1761469259620382000,2.9573818359375,0.5343728065490723,-0.4677833616733551,-0.34148070216178894
1761469259630365200,2.967365234375,0.5953975319862366,-0.46218568086624146,-0.3283361494541168
1761469259640348200,2.97734814453125,0.617667555809021,-0.4445977210998535,-0.3020419776439667
1761469259650331100,2.9873310546875,0.5890125036239624,-0.4143258333206177,-0.2556667625904083
1761469259660315100,2.997315185546875,0.519487202167511,-0.31440532207489014,-0.18622761964797974
1761469259670298000,3.007298095703125,0.42933279275894165,-0.13622599840164185,-0.13683263957500458
1761469259680281000,3.017281005859375,0.3147248327732086,0.06943812221288681,-0.16768334805965424
1761469259690265000,3.02726513671875,0.20354266464710236,0.21982762217521667,-0.24758003652095795
1761469259700248000,3.037248046875,0.15221591293811798,0.23181483149528503,-0.3063979744911194
1761469259710231000,3.04723095703125,0.17214009165763855,0.12884263694286346,-0.30331218242645264
1761469259720215000,3.057215087890625,0.23577770590782166,-0.024131303653120995,-0.2483261376619339
1761469259730198300,3.0671982421875,0.2938937544822693,-0.17872487008571625,-0.1841263771057129
1761469259740181200,3.07718115234375,0.35556602478027344,-0.3187611401081085,-0.16707056760787964
1761469259750164000,3.0871640625,0.41025882959365845,-0.3833047151565552,-0.22655066847801208
1761469259760148700,3.097148681640625,0.4488222301006317,-0.39773133397102356,-0.34736141562461853
1761469259770131700,3.107131591796875,0.502711296081543,-0.376924604177475,-0.45385774970054626
1761469259780114700,3.11711474609375,0.5155442357063293,-0.3077661097049713,-0.5543045401573181
1761469259790098700,3.1270986328125,0.5141208171844482,-0.2236480414867401,-0.6310358047485352
1761469259800081700,3.13708154296875,0.4886096119880676,-0.13838054239749908,-0.6584053635597229
1761469259810065000,3.14706494140625,0.42408016324043274,-0.043443117290735245,-0.6224276423454285
1761469259820049000,3.157048828125,0.3591979444026947,0.05454476177692413,-0.5537685751914978
1761469259830031600,3.167031494140625,0.3084753751754761,0.1264551728963852,-0.45720580220222473
1761469259840014600,3.1770146484375,0.26395100355148315,0.17692430317401886,-0.34937894344329834
1761469259849997800,3.186997802734375,0.2056560069322586,0.18960173428058624,-0.26039978861808777
1761469259859981800,3.19698193359375,0.1724938452243805,0.1622893214225769,-0.17350536584854126
1761469259869964500,3.206964599609375,0.15126046538352966,0.10193542391061783,-0.09148505330085754
1761469259879947800,3.21694775390625,0.14662589132785797,0.050447553396224976,-0.05110210180282593
1761469259889931800,3.226931884765625,0.1569397896528244,0.036671288311481476,-0.035929545760154724
1761469259899914800,3.236914794921875,0.1802847981452942,0.041004907339811325,-0.041777029633522034
1761469259909897700,3.246897705078125,0.20891137421131134,0.0592704638838768,-0.04301965981721878
1761469259919881700,3.2568818359375,0.23920688033103943,0.08486192673444748,-0.03917333856225014
1761469259929864700,3.26686474609375,0.2679881751537323,0.10954490303993225,-0.036927759647369385
1761469259939847700,3.27684765625,0.28265345096588135,0.1427643746137619,-0.0484626367688179
1761469259949830700,3.28683056640625,0.2809748351573944,0.16596902906894684,-0.04533208906650543
1761469259959815000,3.29681494140625,0.2630491852760315,0.17931193113327026,-0.03215000033378601
1761469259969797600,3.306797607421875,0.21749074757099152,0.21216681599617004,-0.009178103879094124
1761469259979780600,3.316780517578125,0.17157359421253204,0.2349109798669815,0.008971101604402065
1761469259989764600,3.3267646484375,0.1278655230998993,0.26275700330734253,0.021880775690078735
1761469259999747800,3.336747802734375,0.08266275376081467,0.2863108813762665,0.007125138770788908
1761469260009730800,3.346730712890625,0.041494544595479965,0.3025612235069275,-0.019249476492404938
1761469260019713500,3.356713623046875,0.007519222795963287,0.30281591415405273,-0.05183568224310875
1761469260029697500,3.366697509765625,-0.035645026713609695,0.2899605631828308,-0.07228104025125504
1761469260039680800,3.3766806640625,-0.06835911422967911,0.27994439005851746,-0.07888419926166534
1761469260049663700,3.386663818359375,-0.09936682879924774,0.26133662462234497,-0.06283066421747208
1761469260059647700,3.396647705078125,-0.12189852446317673,0.22067303955554962,-0.032589081674814224
1761469260069630700,3.406630615234375,-0.1355203092098236,0.18020790815353394,-0.0026471614837646484
1761469260079613700,3.41661376953125,-0.1385234147310257,0.13889798521995544,0.023918766528367996
1761469260089597700,3.42659765625,-0.13725228607654572,0.11454496532678604,0.04874901473522186
1761469260099580700,3.43658056640625,-0.14251145720481873,0.10694112628698349,0.07624433189630508
1761469260109564000,3.44656396484375,-0.14755015075206757,0.10260976105928421,0.09813738614320755
1761469260119546600,3.456546630859375,-0.16325366497039795,0.09898059070110321,0.10616316646337509
1761469260129530600,3.466530517578125,-0.18921256065368652,0.09060228615999222,0.10359800606966019
1761469260139513900,3.476513916015625,-0.22049717605113983,0.08343881368637085,0.09819775819778442
1761469260149496800,3.486496826171875,-0.24727579951286316,0.05643356218934059,0.0982065424323082
1761469260159480800,3.496480712890625,-0.2963303327560425,0.0397636704146862,0.11858861893415451
1761469260169463600,3.506463623046875,-0.33649319410324097,0.01891165040433407,0.16253024339675903
1761469260179446800,3.51644677734375,-0.37174567580223083,-0.011507468298077583,0.21168076992034912
1761469260189430800,3.5264306640625,-0.3782038390636444,-0.040928471833467484,0.24319209158420563
1761469260199413800,3.536413818359375,-0.40436607599258423,-0.035972271114587784,0.28594183921813965
1761469260209396500,3.546396484375,-0.40791818499565125,-0.050289422273635864,0.3118133842945099
1761469260219380700,3.556380615234375,-0.40498030185699463,-0.0803695023059845,0.33127376437187195
1761469260229363700,3.56636376953125,-0.40059781074523926,-0.09478998929262161,0.3574869930744171
1761469260239346700,3.5763466796875,-0.40204739570617676,-0.0803198367357254,0.38316282629966736
1761469260249330000,3.586329833984375,-0.4024071991443634,-0.053562261164188385,0.4175114631652832
1761469260259314000,3.59631396484375,-0.39391854405403137,-0.040259040892124176,0.4591502249240875
1761469260269296600,3.606296630859375,-0.37119993567466736,-0.07150111347436905,0.49920254945755005
1761469260279279600,3.616279541015625,-0.35702207684516907,-0.14344017207622528,0.5309160351753235
1761469260289263600,3.626263671875,-0.3294287919998169,-0.22415073215961456,0.5502010583877563
1761469260299246800,3.636246826171875,-0.3043252229690552,-0.28155046701431274,0.5526469945907593
1761469260309229600,3.6462294921875,-0.3021603524684906,-0.3029734790325165,0.5647707581520081
1761469260319213600,3.656213623046875,-0.28677207231521606,-0.36674582958221436,0.5726814270019531
1761469260329196800,3.66619677734375,-0.28956037759780884,-0.42523789405822754,0.5921829342842102
1761469260339179800,3.6761796875,-0.27942395210266113,-0.41550686955451965,0.6304016709327698
1761469260349162800,3.686162841796875,-0.2720445990562439,-0.3998919725418091,0.6600586771965027
1761469260359146800,3.696146728515625,-0.2651274502277374,-0.3790063261985779,0.6590297222137451
1761469260369129700,3.706129638671875,-0.23655171692371368,-0.3714759647846222,0.6387396454811096
1761469260379112700,3.71611279296875,-0.1983347088098526,-0.4009716510772705,0.6282341480255127
1761469260389096700,3.7260966796875,-0.10840721428394318,-0.5071752667427063,0.5993087291717529
1761469260399079700,3.73607958984375,0.0067414045333862305,-0.6192171573638916,0.5666846632957458
1761469260409062700,3.746062744140625,0.1154622882604599,-0.6566596031188965,0.5532301068305969
1761469260419046700,3.756046630859375,0.23168395459651947,-0.6546867489814758,0.5319490432739258
1761469260429029600,3.766029541015625,0.3011149764060974,-0.6104487180709839,0.5365371108055115
1761469260439012900,3.776012939453125,0.34789255261421204,-0.6239351034164429,0.5440608263015747
1761469260448996900,3.785996826171875,0.3639785647392273,-0.6078158020973206,0.5344571471214294
1761469260458979600,3.7959794921875,0.34418484568595886,-0.5092700719833374,0.5022016763687134
1761469260468962600,3.805962646484375,0.29106783866882324,-0.34975549578666687,0.4335629940032959
1761469260478945800,3.81594580078125,0.21786539256572723,-0.18625707924365997,0.332010954618454
1761469260488929800,3.8259296875,0.1353718489408493,-0.03914458304643631,0.23677870631217957
1761469260498912800,3.835912841796875,0.06890467554330826,0.08416388928890228,0.16876904666423798
1761469260508895700,3.845895751953125,0.029951415956020355,0.1856183558702469,0.1198481097817421
1761469260518879700,3.855879638671875,-0.0003039073199033737,0.2583397328853607,0.09720166772603989
1761469260528862700,3.86586279296875,-0.021846748888492584,0.2871204912662506,0.08972298353910446
1761469260538845700,3.875845703125,-0.041582636535167694,0.2719796299934387,0.08965879678726196
1761469260548829700,3.88582958984375,-0.06350311636924744,0.22782175242900848,0.09128119796514511
1761469260558812700,3.895812744140625,-0.09233245253562927,0.18062599003314972,0.07322274148464203
1761469260568795600,3.905795654296875,-0.1121429055929184,0.11417505145072937,0.03460051491856575
1761469260578778600,3.915778564453125,-0.1420639157295227,0.03213100507855415,-0.009228894487023354
1761469260588763000,3.925762939453125,-0.16725262999534607,-0.055780474096536636,-0.04423108696937561
1761469260598745900,3.935745849609375,-0.19292430579662323,-0.16128897666931152,-0.06684786826372147
1761469260608728600,3.945728515625,-0.21937614679336548,-0.27720358967781067,-0.06330586969852448
1761469260618712600,3.955712646484375,-0.23912681639194489,-0.35300591588020325,-0.021122528240084648
1761469260628695800,3.96569580078125,-0.25678253173828125,-0.3822396993637085,0.03424325957894325
1761469260638678800,3.9756787109375,-0.25738757848739624,-0.3909915089607239,0.0769028291106224
1761469260648662800,3.985662841796875,-0.24727235734462738,-0.38164007663726807,0.10804183781147003
1761469260658645500,3.9956455078125,-0.2351091355085373,-0.36912456154823303,0.12192174792289734
1761469260668628700,4.005628662109375,-0.22275446355342865,-0.36397185921669006,0.1185310110449791
1761469260678612700,4.01561279296875,-0.20691616833209991,-0.3422516882419586,0.10733692348003387
1761469260688595700,4.025595703125,-0.18958644568920135,-0.2985004782676697,0.07194457948207855
1761469260698579000,4.035578857421875,-0.16551686823368073,-0.2359846532344818,0.022845620289444923
1761469260708561700,4.045561767578125,-0.14862097799777985,-0.16464921832084656,-0.016873829066753387
1761469260718545700,4.055545654296875,-0.1429460644721985,-0.07437899708747864,-0.03731329366564751
1761469260728528600,4.065528564453125,-0.1413194090127945,0.014012911356985569,-0.050784360617399216
1761469260738512000,4.075511962890625,-0.13443085551261902,0.06746602803468704,-0.06980016082525253
1761469260748496000,4.085495849609375,-0.13287903368473053,0.07185172289609909,-0.08981195092201233
1761469260758478000,4.09547802734375,-0.13243341445922852,0.04871726036071777,-0.10234997421503067
1761469260768461000,4.1054609375,-0.1432700753211975,0.026954973116517067,-0.09927216172218323
1761469260778445000,4.115445068359375,-0.16621732711791992,0.004557888489216566,-0.08839652687311172
1761469260788428000,4.125427978515625,-0.195123553276062,-0.02452995441854,-0.09225624799728394
1761469260798411000,4.135410888671875,-0.22525042295455933,-0.05646584555506706,-0.1248694583773613
1761469260808394200,4.145394287109375,-0.24640871584415436,-0.09054844826459885,-0.16360007226467133
1761469260818378200,4.155378173828125,-0.26036104559898376,-0.1125565841794014,-0.20504046976566315
1761469260828361000,4.16536083984375,-0.2548629641532898,-0.11072539538145065,-0.241250142455101
1761469260838344200,4.17534423828125,-0.25339043140411377,-0.10968630015850067,-0.2750094532966614
1761469260848328200,4.185328125,-0.24658074975013733,-0.12241221219301224,-0.28293344378471375
1761469260858311200,4.195311279296875,-0.22658675909042358,-0.12769567966461182,-0.2693861126899719
1761469260868294000,4.2052939453125,-0.19468474388122559,-0.13716746866703033,-0.24087296426296234
1761469260878278100,4.215278076171875,-0.16001582145690918,-0.15717452764511108,-0.21779967844486237
1761469260888261000,4.22526123046875,-0.11922390013933182,-0.16567160189151764,-0.20862269401550293
1761469260898244000,4.235244140625,-0.05884856730699539,-0.17830447852611542,-0.22269634902477264
1761469260908227300,4.245227294921875,-0.009531352669000626,-0.18616053462028503,-0.24953249096870422
1761469260918211000,4.255211181640625,0.03742997720837593,-0.16700273752212524,-0.2858726680278778
1761469260928194000,4.265194091796875,0.07871216535568237,-0.12072925269603729,-0.31541377305984497
1761469260938177000,4.275177001953125,0.09988638758659363,-0.05196790769696236,-0.337429404258728
1761469260948161000,4.2851611328125,0.11344294250011444,-0.0018136623548343778,-0.34844261407852173
1761469260958144300,4.295144287109375,0.13072921335697174,0.024984925985336304,-0.3358888030052185
1761469260968127000,4.305126953125,0.14685280621051788,-0.004177752882242203,-0.2949512302875519
1761469260978111000,4.315111083984375,0.15771032869815826,-0.054090674966573715,-0.23825271427631378
1761469260988094200,4.32509423828125,0.1688213050365448,-0.05548990145325661,-0.16942864656448364
1761469260998077200,4.3350771484375,0.16505976021289825,-0.03428708016872406,-0.15514428913593292
1761469261008060000,4.345059814453125,0.16392791271209717,-0.01202438585460186,-0.21314767003059387
1761469261018044000,4.3550439453125,0.15707506239414215,0.013877661898732185,-0.3077378273010254
1761469261028027100,4.365027099609375,0.1355402171611786,0.0304409246891737,-0.38272392749786377
1761469261038010000,4.375010009765625,0.12563081085681915,0.009842666797339916,-0.40756645798683167
1761469261047994000,4.384994140625,0.11095891892910004,-0.06362835317850113,-0.4083070755004883
1761469261057977000,4.39497705078125,0.10764849185943604,-0.12124188989400864,-0.3965595066547394
1761469261067960000,4.4049599609375,0.10657789558172226,-0.15791282057762146,-0.39297276735305786
1761469261077944000,4.414944091796875,0.11345972120761871,-0.15951275825500488,-0.3880733847618103
1761469261087927000,4.424927001953125,0.12450758367776871,-0.1395089328289032,-0.37253543734550476
1761469261097910300,4.43491015625,0.1428050994873047,-0.11319715529680252,-0.36720699071884155
1761469261107894300,4.444894287109375,0.17521284520626068,-0.11258888989686966,-0.3758050203323364
1761469261117877000,4.454876953125,0.21194146573543549,-0.12017656862735748,-0.3834901750087738
1761469261127860000,4.46485986328125,0.2415986955165863,-0.14475195109844208,-0.37825867533683777
1761469261137843200,4.47484326171875,0.27326226234436035,-0.1574641764163971,-0.36770838499069214
1761469261147827200,4.4848271484375,0.29976099729537964,-0.19548054039478302,-0.35198402404785156
1761469261157810000,4.494809814453125,0.3227054476737976,-0.26910653710365295,-0.34925082325935364
1761469261167793200,4.504793212890625,0.3344244360923767,-0.3787241280078888,-0.35261279344558716
1761469261177777200,4.514777099609375,0.335080087184906,-0.4396989345550537,-0.34028342366218567
1761469261187760000,4.524760009765625,0.30934518575668335,-0.4424015283584595,-0.34646379947662354
1761469261197743000,4.5347431640625,0.25249072909355164,-0.390516996383667,-0.3810851573944092
1761469261207727000,4.54472705078125,0.2019101083278656,-0.3012060225009918,-0.4521081745624542
1761469261217710000,4.5547099609375,0.1782659888267517,-0.2736395299434662,-0.5376905202865601
1761469261227693000,4.564693115234375,0.19811798632144928,-0.2851310670375824,-0.6034950613975525
1761469261237676000,4.574676025390625,0.2738768756389618,-0.3493269979953766,-0.6226067543029785
1761469261247662000,4.584662109375,0.3806629776954651,-0.44807353615760803,-0.5913284420967102
1761469261257646000,4.59464599609375,0.5146389603614807,-0.5375816822052002,-0.514248788356781
1761469261267629000,4.604629150390625,0.6486654877662659,-0.5790001749992371,-0.4098363518714905
1761469261277612300,4.6146123046875,0.7469462752342224,-0.5473744869232178,-0.34979772567749023
1761469261287596000,4.624595947265625,0.8050926923751831,-0.46908584237098694,-0.37868398427963257
1761469261297579000,4.6345791015625,0.8380624055862427,-0.3644513785839081,-0.46872133016586304
1761469261307562200,4.644562255859375,0.846099317073822,-0.2455553561449051,-0.566075325012207
1761469261317546200,4.654546142578125,0.818927526473999,-0.13505308330059052,-0.6151423454284668
1761469261327529200,4.664529296875,0.7603973746299744,-0.04058410972356796,-0.624316930770874
1761469261337512000,4.674511962890625,0.6842094659805298,-0.0010197763331234455,-0.6172305345535278
1761469261347496000,4.684495849609375,0.6007829904556274,-0.01131688803434372,-0.6029085516929626
1761469261357479200,4.694479248046875,0.5170068740844727,-0.03067663311958313,-0.5708072781562805
1761469261367462100,4.704462158203125,0.4398460388183594,-0.06360741704702377,-0.528270959854126
1761469261377444900,4.71444482421875,0.35777539014816284,-0.06964972615242004,-0.4600771367549896
1761469261387429000,4.72442919921875,0.29217401146888733,-0.059116389602422714,-0.3897917866706848
1761469261397412000,4.734412109375,0.23594799637794495,-0.0554235465824604,-0.32825005054473877
1761469261407395000,4.74439501953125,0.2066047638654709,-0.05793863534927368,-0.2670207917690277
1761469261417379000,4.754379150390625,0.19297169148921967,-0.07431044429540634,-0.2202952355146408
1761469261427362300,4.7643623046875,0.19072158634662628,-0.09244683384895325,-0.17629529535770416
1761469261437345000,4.774344970703125,0.1964142620563507,-0.10007564723491669,-0.1341407150030136
1761469261447329000,4.7843291015625,0.22099070250988007,-0.0870615765452385,-0.09979739785194397
1761469261457312000,4.79431201171875,0.23893247544765472,-0.07938937842845917,-0.08310040831565857
1761469261467295200,4.804295166015625,0.2789909243583679,-0.02264673262834549,-0.03380316495895386
1761469261477278000,4.81427783203125,0.2979789972305298,0.05453220754861832,0.03734397888183594
1761469261487262000,4.824261962890625,0.2914920747280121,0.15469369292259216,0.1104368269443512
1761469261497245200,4.8342451171875,0.2877984941005707,0.24532420933246613,0.16232720017433167
1761469261507228200,4.844228271484375,0.27785664796829224,0.29526087641716003,0.17465204000473022
1761469261517212200,4.854212158203125,0.24271950125694275,0.3077159821987152,0.16237379610538483
1761469261527195000,4.86419482421875,0.1889023333787918,0.30510449409484863,0.13455601036548615
1761469261537178000,4.87417822265625,0.1247449666261673,0.32964423298835754,0.10574382543563843
1761469261547162000,4.884162109375,0.0695970207452774,0.3804650604724884,0.0704854354262352
1761469261557145000,4.89414501953125,0.017798269167542458,0.42952167987823486,0.031093336641788483
1761469261567128000,4.904128173828125,-0.019089972600340843,0.4636913537979126,-0.010721754282712936
1761469261577111000,4.914111083984375,-0.037628185003995895,0.4578450918197632,-0.04167540743947029
1761469261587095000,4.924094970703125,-0.041462335735559464,0.42168736457824707,-0.054935820400714874
1761469261597078000,4.934078125,-0.02935570478439331,0.3676745295524597,-0.05693696811795235
1761469261607061200,4.944061279296875,-0.013720020651817322,0.33357489109039307,-0.04875333979725838
1761469261617045200,4.954045166015625,-0.01540917158126831,0.3186986744403839,-0.03134923428297043
1761469261627028000,4.964028076171875,-0.04006551578640938,0.33898743987083435,0.000146371778100729
1761469261637011000,4.974010986328125,-0.07057180255651474,0.3784141540527344,0.037275053560733795
1761469261646995000,4.983994873046875,-0.09740741550922394,0.42173874378204346,0.09005065262317657
1761469261656978200,4.993978271484375,-0.12035809457302094,0.4341529905796051,0.1378639191389084
1761469261666961200,5.003961181640625,-0.14537343382835388,0.4255238175392151,0.18371956050395966
1761469261676945200,5.013945068359375,-0.17432473599910736,0.398894727230072,0.22587858140468597
1761469261686928100,5.02392822265625,-0.20058085024356842,0.3530668020248413,0.2607007622718811
1761469261696911000,5.0339111328125,-0.2265370488166809,0.28517401218414307,0.29724258184432983
1761469261706894000,5.04389404296875,-0.24954089522361755,0.22631444036960602,0.32724815607070923
1761469261716878000,5.053878173828125,-0.26234301924705505,0.20658531785011292,0.35920098423957825
1761469261726861000,5.063861083984375,-0.2655411958694458,0.20955607295036316,0.38124796748161316
1761469261736844000,5.073843994140625,-0.2413555234670639,0.207242950797081,0.3729955554008484
1761469261746828000,5.083828125,-0.20241610705852509,0.19844093918800354,0.32726535201072693
1761469261756814800,5.09381494140625,-0.14069455862045288,0.16401326656341553,0.2608499526977539
1761469261766798000,5.103798095703125,-0.06415531039237976,0.10320690274238586,0.21425020694732666
1761469261776781000,5.113781005859375,0.005731051322072744,0.033541519194841385,0.21448372304439545
1761469261786764800,5.123764892578125,0.06234293431043625,-0.008970255963504314,0.25658270716667175
1761469261796748000,5.133748046875,0.0846979022026062,0.04793703183531761,0.2904699742794037
1761469261806731000,5.14373095703125,0.07419200241565704,0.21197709441184998,0.3056207001209259
1761469261816715000,5.153715087890625,0.05254325270652771,0.37869182229042053,0.31322064995765686
1761469261826698000,5.163697998046875,0.0439620167016983,0.4341566562652588,0.3538639545440674
1761469261836681000,5.173680908203125,0.0650152713060379,0.3577286899089813,0.4503145217895508
1761469261846665000,5.1836650390625,0.07648550719022751,0.2373034805059433,0.5376797914505005
1761469261856648000,5.19364794921875,0.05776273086667061,0.15223589539527893,0.5835173726081848
1761469261866631000,5.203630859375,-0.005910519044846296,0.11409861594438553,0.5750948190689087
1761469261876614000,5.21361376953125,-0.11169322580099106,0.13225242495536804,0.5342663526535034
1761469261886598000,5.223597900390625,-0.2378769963979721,0.17207840085029602,0.46860262751579285
1761469261896580900,5.233580810546875,-0.34886741638183594,0.2533114552497864,0.43261805176734924
1761469261906564000,5.243564208984375,-0.43787264823913574,0.3534378111362457,0.44912829995155334
1761469261916548000,5.253548095703125,-0.5112124085426331,0.44657573103904724,0.5069732069969177
1761469261926531000,5.263531005859375,-0.5392126441001892,0.5066528916358948,0.5456529855728149
1761469261936513800,5.273513671875,-0.5274547338485718,0.5442690253257751,0.5610851049423218
1761469261946497800,5.283497802734375,-0.49949130415916443,0.5795375108718872,0.5457000732421875
1761469261956481000,5.29348095703125,-0.46709978580474854,0.6097941398620605,0.5081745386123657
1761469261966464000,5.303464111328125,-0.4305731952190399,0.6098982691764832,0.45595261454582214
1761469261976447000,5.313447021484375,-0.40537527203559875,0.5597617626190186,0.3953933119773865
1761469261986431000,5.323430908203125,-0.4079952836036682,0.4777020514011383,0.3319810628890991
1761469261996414000,5.3334140625,-0.42901554703712463,0.3902074992656708,0.26867175102233887
1761469262006397000,5.34339697265625,-0.4681682884693146,0.3173953592777252,0.20940150320529938
1761469262016381000,5.353380859375,-0.523094117641449,0.22600284218788147,0.153956800699234
1761469262026364000,5.363364013671875,-0.5665987133979797,0.12420138716697693,0.09535127878189087
1761469262036347000,5.373346923828125,-0.6001131534576416,0.04822717234492302,0.058395735919475555
1761469262046331000,5.383330810546875,-0.6266494393348694,0.03113846853375435,0.08518633246421814
1761469262056314000,5.393314208984375,-0.6300172209739685,0.06959572434425354,0.14409232139587402
1761469262066297000,5.403297119140625,-0.6112515330314636,0.13543438911437988,0.22754380106925964
1761469262076279800,5.41327978515625,-0.5761889815330505,0.1944834291934967,0.3311835527420044
1761469262086263800,5.423263916015625,-0.5359049439430237,0.23175357282161713,0.4436317980289459
1761469262096247000,5.4332470703125,-0.4909217357635498,0.2747338116168976,0.5467499494552612
1761469262106230000,5.44322998046875,-0.46407973766326904,0.3162841796875,0.6212117075920105
1761469262116214000,5.453214111328125,-0.4602336883544922,0.38351112604141235,0.6526494026184082
1761469262126196700,5.46319677734375,-0.4554698169231415,0.46833866834640503,0.643710732460022
1761469262136180000,5.473179931640625,-0.45037874579429626,0.5399696826934814,0.612497091293335
1761469262146163000,5.483162841796875,-0.43966910243034363,0.6167880296707153,0.5863440632820129
1761469262156147000,5.49314697265625,-0.4723759591579437,0.5929006338119507,0.5162572860717773
1761469262166130200,5.503130126953125,-0.48209115862846375,0.603188157081604,0.46514540910720825
1761469262176113000,5.51311279296875,-0.5203080177307129,0.5624358654022217,0.41737768054008484
1761469262186097000,5.523096923828125,-0.555276095867157,0.520431637763977,0.37012040615081787
1761469262196079900,5.533079833984375,-0.5826181173324585,0.4555428624153137,0.3348076343536377
1761469262206063000,5.54306298828125,-0.6009203791618347,0.4189385175704956,0.30995211005210876
1761469262216047000,5.553047119140625,-0.5996747016906738,0.44542309641838074,0.3065566420555115
1761469262226029800,5.56302978515625,-0.5834168791770935,0.44731923937797546,0.2993094027042389
1761469262236013000,5.573012939453125,-0.5676941871643066,0.4334799647331238,0.287541925907135
1761469262245996000,5.58299609375,-0.5394635796546936,0.4175545275211334,0.2895808517932892
1761469262255980000,5.59297998046875,-0.5015206336975098,0.4190863072872162,0.29201772809028625
1761469262265963000,5.602962890625,-0.472736656665802,0.38993269205093384,0.2833006680011749
1761469262275946000,5.612946044921875,-0.44186100363731384,0.3707128167152405,0.2839563488960266
1761469262285930000,5.622929931640625,-0.3930197060108185,0.35534369945526123,0.27745798230171204
1761469262295913000,5.632912841796875,-0.3322148621082306,0.3342617452144623,0.24246789515018463
1761469262305896000,5.64289599609375,-0.266885906457901,0.30411848425865173,0.18289244174957275
1761469262315879000,5.65287890625,-0.20089904963970184,0.260962575674057,0.1141776591539383
1761469262325863000,5.66286279296875,-0.14068977534770966,0.20695368945598602,0.07941195368766785
1761469262335846000,5.672845947265625,-0.09337698668241501,0.144144669175148,0.09103362262248993
1761469262345829000,5.6828291015625,-0.05988214164972305,0.06923047453165054,0.13812655210494995
1761469262355813000,5.692813232421875,-0.04308628663420677,0.028366196900606155,0.21850243210792542
1761469262365795800,5.7027958984375,-0.025979207828640938,0.027949679642915726,0.31157830357551575
1761469262375778800,5.71277880859375,-0.020461900159716606,0.07637527585029602,0.39943018555641174
1761469262385762800,5.7227626953125,-0.01182287186384201,0.13039536774158478,0.4595169723033905
1761469262395746000,5.73274609375,0.014916421845555305,0.1494549810886383,0.4843100309371948
1761469262405729000,5.74272900390625,0.06075315177440643,0.14193394780158997,0.4894120991230011
1761469262415712000,5.7527119140625,0.10211267322301865,0.0932459831237793,0.46288254857063293
1761469262425696000,5.762696044921875,0.1377050280570984,0.016270507127046585,0.41668763756752014
1761469262435679000,5.772678955078125,0.14247922599315643,-0.052014172077178955,0.37926751375198364
1761469262445662000,5.782661865234375,0.10403729975223541,-0.11043247580528259,0.34275904297828674
1761469262455646000,5.79264599609375,0.05777370557188988,-0.18975482881069183,0.31167757511138916
1761469262465629000,5.80262890625,0.01705477200448513,-0.291266530752182,0.3174566328525543
1761469262475612000,5.81261181640625,-0.03220292925834656,-0.39926356077194214,0.3829604685306549
1761469262485595000,5.822594970703125,-0.09512490779161453,-0.43225425481796265,0.45628127455711365
1761469262495579000,5.832578857421875,-0.17981423437595367,-0.2841920852661133,0.44341424107551575
1761469262505562000,5.84256201171875,-0.22255291044712067,-0.09184901416301727,0.34953513741493225
1761469262515544800,5.852544921875,-0.1925727128982544,-0.040148381143808365,0.23795810341835022
1761469262525528800,5.86252880859375,-0.10287823528051376,-0.14569371938705444,0.22572937607765198
1761469262535512000,5.872511962890625,0.029481032863259315,-0.31109580397605896,0.2627110779285431
1761469262545495000,5.8824951171875,0.15604616701602936,-0.4124099314212799,0.25248533487319946
1761469262555477800,5.892477783203125,0.2582700550556183,-0.43439242243766785,0.15835195779800415
1761469262565461800,5.902461669921875,0.30544981360435486,-0.4125864505767822,-0.010471414774656296
1761469262575445000,5.912445068359375,0.2864382863044739,-0.359438419342041,-0.2156120240688324
1761469262585428000,5.922427978515625,0.23052097856998444,-0.2877352237701416,-0.4174213111400604
1761469262595412000,5.932411865234375,0.17618969082832336,-0.1941576451063156,-0.5591479539871216
1761469262605395200,5.942395263671875,0.13304542005062103,-0.10979828983545303,-0.612914502620697
1761469262615378000,5.9523779296875,0.10653240978717804,-0.07587836682796478,-0.6069486737251282
1761469262625362000,5.96236181640625,0.09414098411798477,-0.07636412233114243,-0.5460461974143982
1761469262635345000,5.972344970703125,0.10967601090669632,-0.09785221517086029,-0.4322810471057892
1761469262645328100,5.982328125,0.12410768121480942,-0.0845625028014183,-0.2852817475795746
1761469262655310800,5.992310791015625,0.12811586260795593,-0.03467652201652527,-0.13790465891361237
1761469262665294800,6.002294921875,0.13112390041351318,-0.009211908094584942,0.0005778535269200802
1761469262675277800,6.01227783203125,0.12110274285078049,-0.008543433621525764,0.11827603727579117
1761469262685261000,6.022260986328125,0.11411940306425095,-0.009613226167857647,0.21623215079307556
1761469262695245000,6.0322451171875,0.12001590430736542,-0.02457554079592228,0.28302690386772156
1761469262705227800,6.042227783203125,0.13976803421974182,-0.022845285013318062,0.3268977105617523
1761469262715211000,6.0522109375,0.16325850784778595,-0.00817960873246193,0.3567104637622833
1761469262725194000,6.062194091796875,0.1967991441488266,-0.005757729522883892,0.37267422676086426
1761469262735178000,6.072177978515625,0.24993546307086945,-0.0014046237338334322,0.38124367594718933
1761469262745161000,6.082160888671875,0.2765617370605469,0.04315698519349098,0.4156282842159271
1761469262755140400,6.092140380859375,0.2784007489681244,0.11590208858251572,0.45470839738845825
1761469262765124400,6.102124267578125,0.2745159864425659,0.183997243642807,0.49570801854133606
1761469262775107300,6.112107421875,0.23448489606380463,0.2633347809314728,0.5248968005180359
1761469262785090600,6.122090576171875,0.16779083013534546,0.35236769914627075,0.5467645525932312
1761469262795074300,6.13207421875,0.07080947607755661,0.4334122836589813,0.5561401844024658
1761469262805057300,6.142057373046875,-0.04184223338961601,0.5077115297317505,0.543276846408844
1761469262815040300,6.152040283203125,-0.14580006897449493,0.5615513324737549,0.519194483757019
1761469262825023500,6.1620234375,-0.2174694538116455,0.5845088362693787,0.498242050409317
1761469262835007500,6.172007568359375,-0.2689705789089203,0.569629430770874,0.4837561547756195
1761469262844990200,6.181990234375,-0.29366955161094666,0.5400283932685852,0.4762982130050659
1761469262854973400,6.191973388671875,-0.29002073407173157,0.4926404058933258,0.4773179590702057
1761469262864957400,6.20195751953125,-0.25738105177879333,0.4445658028125763,0.4820953905582428
1761469262874940400,6.2119404296875,-0.2247122824192047,0.40768688917160034,0.4894055724143982
1761469262884923400,6.22192333984375,-0.1912669688463211,0.37828025221824646,0.49990588426589966
1761469262894906400,6.23190625,-0.17747081816196442,0.344443142414093,0.5070702433586121
1761469262904890400,6.241890380859375,-0.17325715720653534,0.32533469796180725,0.5143222808837891
1761469262914873300,6.251873291015625,-0.17781104147434235,0.31837180256843567,0.5277212858200073
1761469262924856300,6.261856201171875,-0.20174992084503174,0.28522130846977234,0.537614643573761
1761469262934840300,6.27184033203125,-0.21430659294128418,0.23944127559661865,0.5452865362167358
1761469262944823300,6.2818232421875,-0.22818192839622498,0.18511997163295746,0.5552488565444946
1761469262954806300,6.29180615234375,-0.25986793637275696,0.11459865421056747,0.5481210350990295
1761469262964789500,6.30178955078125,-0.28432345390319824,0.07676951587200165,0.5297931432723999
1761469262974773500,6.3117734375,-0.291913241147995,0.08579763025045395,0.5151054859161377
1761469262984756200,6.321756103515625,-0.28905487060546875,0.0906379222869873,0.48325860500335693
1761469262994739200,6.3317392578125,-0.2768920063972473,0.09120767563581467,0.4407227635383606
1761469263004723200,6.34172314453125,-0.24590720236301422,0.10342413187026978,0.4185583293437958
1761469263014706400,6.35170654296875,-0.22748059034347534,0.12154024839401245,0.4232718348503113
1761469263024689400,6.361689453125,-0.2065233737230301,0.137412428855896,0.4425685703754425
1761469263034672400,6.37167236328125,-0.1858091652393341,0.10867207497358322,0.45328179001808167
1761469263044656400,6.381656494140625,-0.15984521806240082,0.052008796483278275,0.4543931186199188
1761469263054639400,6.391639404296875,-0.12325138598680496,-0.009369833394885063,0.44934073090553284
1761469263064622300,6.401622314453125,-0.09706345945596695,-0.03322296962141991,0.44763684272766113
1761469263074606300,6.4116064453125,-0.07684779167175293,-0.043375127017498016,0.44610482454299927
1761469263084589300,6.42158935546875,-0.08275628089904785,-0.047627661377191544,0.4504100978374481
1761469263094572300,6.431572265625,-0.09671439975500107,-0.037418536841869354,0.4687478542327881
1761469263104555300,6.44155517578125,-0.11696348339319229,-0.03782360255718231,0.4951933026313782
1761469263114539300,6.451539306640625,-0.16293469071388245,-0.0720280334353447,0.525398313999176
1761469263124522500,6.4615224609375,-0.2141035944223404,-0.14471875131130219,0.586820662021637
1761469263134505200,6.471505126953125,-0.267868310213089,-0.22103498876094818,0.6961849927902222
1761469263144489200,6.4814892578125,-0.3040390908718109,-0.23708638548851013,0.8196659684181213
1761469263154472400,6.491472412109375,-0.316948801279068,-0.1703687310218811,0.8980246186256409
1761469263164455400,6.501455322265625,-0.2853056490421295,-0.08272331207990646,0.9152816534042358
1761469263174438100,6.511438232421875,-0.2152378112077713,-0.032365042716264725,0.8789458870887756
1761469263184422100,6.521422119140625,-0.11284938454627991,-0.0004454599693417549,0.8266070485115051
1761469263194405400,6.5314052734375,-0.024889785796403885,0.05756215751171112,0.7754726409912109
1761469263204388400,6.541388427734375,0.021014325320720673,0.14705875515937805,0.7313442826271057
1761469263214372400,6.551372314453125,0.02722720056772232,0.2606917917728424,0.7011454105377197
1761469263224355600,6.56135546875,-0.014344478026032448,0.36028948426246643,0.7077641487121582
1761469263234338300,6.57133837890625,-0.10657157003879547,0.40006473660469055,0.709702730178833
1761469263244321300,6.5813212890625,-0.22712275385856628,0.40054571628570557,0.6831645965576172
1761469263254305300,6.59130517578125,-0.35398054122924805,0.41245222091674805,0.6140507459640503
1761469263264288500,6.60128857421875,-0.4668479859828949,0.45565617084503174,0.5293179750442505
1761469263274271200,6.611271240234375,-0.551516056060791,0.4820626676082611,0.4522460997104645
1761469263284255200,6.621255126953125,-0.619579553604126,0.49358323216438293,0.38167738914489746
1761469263294238200,6.63123828125,-0.6492441892623901,0.4840909540653229,0.3319431245326996
1761469263304221400,6.641221435546875,-0.626522421836853,0.4556151032447815,0.3149105906486511
1761469263314204400,6.651204345703125,-0.5797858834266663,0.3804495930671692,0.33226627111434937
1761469263324188200,6.661188232421875,-0.5242072939872742,0.2704538404941559,0.345894992351532
1761469263334171400,6.67117138671875,-0.43957796692848206,0.13349021971225739,0.31942370533943176
1761469263344154400,6.681154296875,-0.36960822343826294,-0.01902235671877861,0.28055673837661743
1761469263354138400,6.691138427734375,-0.3110802173614502,-0.12975604832172394,0.26921263337135315
1761469263364121300,6.701121337890625,-0.2776642143726349,-0.15498150885105133,0.28653809428215027
1761469263374104300,6.711104248046875,-0.2581807076931,-0.12521757185459137,0.305441290140152
1761469263384087300,6.72108740234375,-0.25709253549575806,-0.06163753196597099,0.3080841898918152
1761469263394071300,6.7310712890625,-0.2694554626941681,0.025491511449217796,0.29286929965019226
1761469263404054500,6.741054443359375,-0.2821005880832672,0.09530562907457352,0.27006295323371887
1761469263414037200,6.751037353515625,-0.2993007004261017,0.13381795585155487,0.23436397314071655
1761469263424021200,6.761021240234375,-0.3114668130874634,0.13670295476913452,0.19157949090003967
1761469263434004200,6.771004150390625,-0.33605512976646423,0.12295737862586975,0.1428845375776291
1761469263443987500,6.780987548828125,-0.3564506769180298,0.10896193236112595,0.08296580612659454
1761469263453970400,6.790970458984375,-0.37520068883895874,0.0703735500574112,0.0240984708070755
1761469263463954400,6.800954345703125,-0.38467222452163696,0.02749878168106079,-0.038936153054237366
1761469263473937200,6.810937255859375,-0.3759470283985138,-0.023531299084424973,-0.09528693556785583
1761469263483920400,6.82092041015625,-0.3685636818408966,-0.04402885213494301,-0.13069365918636322
1761469263493904400,6.830904296875,-0.34301745891571045,-0.02652719058096409,-0.14369377493858337
1761469263503887400,6.840887451171875,-0.31883782148361206,0.004850972443819046,-0.13756264746189117
1761469263513870300,6.850870361328125,-0.29777640104293823,0.025308335199952126,-0.12249594926834106
1761469263523853300,6.860853271484375,-0.26839479804039,0.030710821971297264,-0.11129789054393768
1761469263533837300,6.87083740234375,-0.2344709187746048,0.026238344609737396,-0.09369898587465286
1761469263543820300,6.8808203125,-0.19352082908153534,0.022315509617328644,-0.07979834824800491
1761469263553803500,6.890803466796875,-0.16464094817638397,0.01723528280854225,-0.06433598697185516
1761469263563787500,6.90078759765625,-0.13975903391838074,0.0030491570942103863,-0.061951663345098495
1761469263573770200,6.910770263671875,-0.10601113736629486,-0.033527616411447525,-0.08073141425848007
1761469263583753500,6.92075341796875,-0.06714310497045517,-0.07104836404323578,-0.10852176696062088
1761469263593736400,6.930736328125,-0.008537676185369492,-0.10950353741645813,-0.13522319495677948
1761469263603720400,6.940720458984375,0.05972233787178993,-0.13668189942836761,-0.15566322207450867
1761469263613703200,6.950703125,0.12249686568975449,-0.1798895001411438,-0.15222369134426117
1761469263623686400,6.960686279296875,0.17331717908382416,-0.21442538499832153,-0.1270829141139984
1761469263633670400,6.97067041015625,0.21062082052230835,-0.23811526596546173,-0.07744300365447998
1761469263643653400,6.9806533203125,0.2295638918876648,-0.2498723268508911,-0.03230748325586319
1761469263653636400,6.99063623046875,0.22645899653434753,-0.2304055094718933,0.0032104055862873793
1761469263663619300,7.000619384765625,0.21414107084274292,-0.16298812627792358,0.03101407177746296
1761469263673603300,7.010603271484375,0.20044559240341187,-0.09685207903385162,0.03340596705675125
1761469263683586300,7.02058642578125,0.19064383208751678,-0.06860419362783432,0.03401343151926994
1761469263693569500,7.030569580078125,0.161519855260849,-0.028544064611196518,0.04859936609864235
1761469263703553500,7.040553466796875,0.11125481873750687,0.00778597965836525,0.059347886592149734
1761469263713536300,7.050536376953125,0.050493694841861725,0.03457856923341751,0.04574998468160629
1761469263723519200,7.060519287109375,-0.005313641857355833,0.04642936959862709,0.008783980272710323
1761469263733502500,7.07050244140625,-0.04606347531080246,0.04235551506280899,-0.03530009463429451
1761469263743486500,7.080486572265625,-0.08167179673910141,0.01821688562631607,-0.0951429232954979
1761469263753469200,7.09046923828125,-0.08007461577653885,-0.017206700518727303,-0.16320018470287323
1761469263763452400,7.100452392578125,-0.04163854196667671,-0.05220862850546837,-0.20881906151771545
1761469263773436400,7.1104365234375,0.009283003397285938,-0.09641588479280472,-0.244248628616333
1761469263783419100,7.120419189453125,0.04031388834118843,-0.13761365413665771,-0.2547239363193512
1761469263793402000,7.130402099609375,0.042561691254377365,-0.10029978305101395,-0.2289002537727356
1761469263803385300,7.14038525390625,-0.003086754120886326,0.017356008291244507,-0.20970365405082703
1761469263813369300,7.150369384765625,-0.09794341772794724,0.15457260608673096,-0.26415637135505676
1761469263823352000,7.16035205078125,-0.20275664329528809,0.24547001719474792,-0.32563889026641846
1761469263833335000,7.1703349609375,-0.2682970464229584,0.24780867993831635,-0.3346366584300995
1761469263843318300,7.180318359375,-0.324402391910553,0.17474937438964844,-0.2896510660648346
1761469263853302300,7.19030224609375,-0.3372442424297333,0.07369386404752731,-0.2384861409664154
1761469263863285200,7.20028515625,-0.25548920035362244,-0.035394810140132904,-0.2115573287010193
1761469263873268200,7.210268310546875,-0.10402991622686386,-0.16532084345817566,-0.1991693675518036
1761469263883252200,7.220252197265625,0.058976318687200546,-0.2911403179168701,-0.20071879029273987
1761469263893235200,7.230235107421875,0.1796303391456604,-0.36161404848098755,-0.2302350401878357
1761469263903218200,7.24021826171875,0.2375897765159607,-0.3586787283420563,-0.30151134729385376
1761469263913201400,7.250201416015625,0.262849360704422,-0.32165077328681946,-0.3906635642051697
1761469263923185200,7.26018505859375,0.2840028405189514,-0.3018605709075928,-0.47524023056030273
1761469263933168000,7.270168212890625,0.2974703311920166,-0.3116247355937958,-0.5374619364738464
1761469263943151400,7.2801513671875,0.27702417969703674,-0.31629669666290283,-0.5605118274688721
1761469263953135400,7.29013525390625,0.23655158281326294,-0.2899667024612427,-0.5587072372436523
1761469263963118300,7.300118408203125,0.18519598245620728,-0.23463846743106842,-0.5421706438064575
1761469263973101000,7.31010107421875,0.12824921309947968,-0.14868460595607758,-0.4995170533657074
1761469263983084300,7.320084228515625,0.07549198716878891,-0.06789441406726837,-0.4352421760559082
1761469263993068300,7.330068359375,0.03342776745557785,-0.019622664898633957,-0.3596070110797882
1761469264003051300,7.34005126953125,0.015411216765642166,0.009300327859818935,-0.2740609347820282
1761469264013034000,7.350033935546875,0.013089681975543499,-0.00767219252884388,-0.1953035295009613
1761469264023018200,7.360018310546875,0.02510187029838562,-0.042367056012153625,-0.13984932005405426
1761469264033001200,7.370001220703125,0.052524082362651825,-0.05585627257823944,-0.11010695993900299
1761469264042984200,7.379984130859375,0.10188524425029755,-0.07895626872777939,-0.0901055559515953
1761469264052967400,7.389967529296875,0.16950160264968872,-0.1132388710975647,-0.07897079735994339
1761469264062951400,7.399951416015625,0.2348417341709137,-0.17095036804676056,-0.0778631940484047
1761469264072934100,7.40993408203125,0.3039783835411072,-0.19800131022930145,-0.09492061287164688
1761469264082917000,7.419917236328125,0.3595676124095917,-0.16087017953395844,-0.11673962324857712
1761469264092901000,7.429901123046875,0.3862745463848114,-0.07681402564048767,-0.1434730589389801
1761469264102884400,7.43988427734375,0.4149394929409027,0.009900625795125961,-0.14181071519851685
1761469264112867000,7.4498671875,0.41576334834098816,0.10358334332704544,-0.09951499849557877
1761469264122850300,7.459850341796875,0.39464765787124634,0.19850081205368042,-0.042353175580501556
1761469264132834300,7.469834228515625,0.3534230887889862,0.28834858536720276,0.017934178933501244
1761469264142817300,7.4798173828125,0.28999218344688416,0.3550274968147278,0.0586957223713398
1761469264152800300,7.48980029296875,0.20865000784397125,0.38322681188583374,0.061539288610219955
1761469264162783200,7.499783203125,0.13303886353969574,0.37592896819114685,0.04137143865227699
1761469264172767200,7.509767333984375,0.08098702132701874,0.34549668431282043,0.026267224922776222
1761469264182750200,7.519750244140625,0.042120855301618576,0.3205420672893524,0.017397034913301468
1761469264192733200,7.529733154296875,0.02267560176551342,0.3014673590660095,0.015977412462234497
1761469264202717200,7.53971728515625,0.01349728275090456,0.2836169898509979,0.016253849491477013
1761469264212700200,7.5497001953125,0.00344056636095047,0.30335044860839844,0.03423994407057762
1761469264222683100,7.55968310546875,0.003119655651971698,0.32271188497543335,0.05872957408428192
1761469264232666400,7.569666259765625,-0.0021017822436988354,0.3268008828163147,0.07673942297697067
1761469264242650400,7.579650390625,-0.006342599634081125,0.3192284405231476,0.09182862192392349
1761469264252633300,7.58963330078125,-0.012287171557545662,0.3058741092681885,0.10741009563207626
1761469264262616000,7.599615966796875,-0.02538459748029709,0.28609535098075867,0.12515419721603394
1761469264272600000,7.60960009765625,-0.05028040334582329,0.26181289553642273,0.14299920201301575
1761469264282583300,7.619583251953125,-0.07877835631370544,0.24921372532844543,0.15935580432415009
1761469264292566300,7.629566162109375,-0.11151734739542007,0.21906320750713348,0.16452473402023315
1761469264302549200,7.63954931640625,-0.13245564699172974,0.1816316694021225,0.16781187057495117
1761469264312533200,7.649533203125,-0.14511264860630035,0.13900837302207947,0.18323533236980438
1761469264322516200,7.65951611328125,-0.1609203815460205,0.11205612868070602,0.21167922019958496
1761469264332499200,7.669499267578125,-0.16745872795581818,0.07761811465024948,0.24269700050354004
1761469264342482400,7.679482421875,-0.19541314244270325,0.08655887842178345,0.2722053527832031
1761469264352466200,7.689466064453125,-0.2096737027168274,0.12755952775478363,0.2950245141983032
1761469264362449200,7.69944921875,-0.22409018874168396,0.166575625538826,0.2965851128101349
1761469264372432100,7.70943212890625,-0.22803282737731934,0.19035226106643677,0.28969573974609375
1761469264382416100,7.719416015625,-0.23370324075222015,0.1728973686695099,0.27303844690322876
1761469264392399400,7.7293994140625,-0.22666382789611816,0.12130311131477356,0.2607901394367218
1761469264402382000,7.739382080078125,-0.2245335578918457,0.06314979493618011,0.2514205873012543
1761469264412365300,7.749365234375,-0.21541152894496918,0.029780467972159386,0.25306689739227295
1761469264422349300,7.759349365234375,-0.19258397817611694,0.008103669621050358,0.2702600061893463
1761469264432332300,7.769332275390625,-0.1551639437675476,-0.05010039359331131,0.28500375151634216
1761469264442315000,7.77931494140625,-0.0777120292186737,-0.11156188696622849,0.3224602937698364
1761469264452299000,7.789299072265625,0.020476406440138817,-0.14697672426700592,0.36976802349090576
1761469264462282200,7.7992822265625,0.10157924890518188,-0.15956495702266693,0.40140822529792786
1761469264472265200,7.80926513671875,0.15314355492591858,-0.1822979748249054,0.4204699397087097
1761469264482248200,7.819248291015625,0.1720844954252243,-0.20623819530010223,0.46471092104911804
1761469264492232400,7.829232421875,0.15446612238883972,-0.24873797595500946,0.548940122127533
1761469264502215200,7.839215087890625,0.10264047980308533,-0.26843735575675964,0.6388598680496216
1761469264512198100,7.8491982421875,0.04260386526584625,-0.24384582042694092,0.6856173276901245
1761469264522181400,7.859181396484375,-0.007227341178804636,-0.1372259110212326,0.6862133741378784
1761469264532165400,7.869165283203125,-0.03847123309969902,-0.019187651574611664,0.6586978435516357
1761469264542148000,7.879148193359375,-0.027123238891363144,0.050134431570768356,0.6192665696144104
1761469264552131000,7.889131103515625,0.016118688508868217,0.07966511696577072,0.5826554298400879
1761469264562115000,7.899114990234375,0.0726112574338913,0.12228795140981674,0.5597224235534668
1761469264572098300,7.909098388671875,0.1197361946105957,0.1822226345539093,0.5576913356781006
1761469264582081300,7.919081298828125,0.13381046056747437,0.2701586186885834,0.5702435970306396
1761469264592064300,7.929064208984375,0.12078255414962769,0.30858924984931946,0.5857945680618286
1761469264602048300,7.93904833984375,0.07481133937835693,0.2732405662536621,0.5733368396759033
1761469264612031200,7.94903125,0.014376753941178322,0.19512887299060822,0.5613036751747131
1761469264622014200,7.95901416015625,-0.06793089956045151,0.17064642906188965,0.532099187374115
1761469264631998200,7.968998291015625,-0.1544148474931717,0.1707453727722168,0.46626994013786316
1761469264641981200,7.978981201171875,-0.22601287066936493,0.15823064744472504,0.37619730830192566
1761469264651964200,7.988964111328125,-0.27800220251083374,0.1467353105545044,0.293287068605423
1761469264661945000,7.998945068359375,-0.3023131191730499,0.1313456892967224,0.22991126775741577
1761469264671928000,8.008927978515626,-0.306301087141037,0.09526260197162628,0.20372478663921356
1761469264681911300,8.018911376953126,-0.28700435161590576,0.05019685626029968,0.19836890697479248
1761469264691894300,8.028894287109376,-0.2605055868625641,0.0062475306913256645,0.181376114487648
1761469264701878300,8.038878173828126,-0.2272498905658722,-0.06611455231904984,0.14455604553222656
1761469264711861200,8.048861328125,-0.19709181785583496,-0.16394980251789093,0.10617873817682266
1761469264721844200,8.05884423828125,-0.16528567671775818,-0.2601034939289093,0.07945045828819275
1761469264731828200,8.068828125,-0.14755453169345856,-0.31337347626686096,0.07562543451786041
1761469264741811200,8.078811279296875,-0.15078255534172058,-0.3320273160934448,0.08960144221782684
1761469264751794200,8.088794189453125,-0.15998150408267975,-0.30293822288513184,0.0982574075460434
1761469264761777400,8.09877734375,-0.16759468615055084,-0.24955222010612488,0.09417477995157242
1761469264771761400,8.108761474609375,-0.18387509882450104,-0.2136128544807434,0.08424016833305359
1761469264781744000,8.118744140625,-0.17784303426742554,-0.187550351023674,0.07283757627010345
1761469264791727400,8.128727294921875,-0.1617141216993332,-0.1604999303817749,0.05578051880002022
1761469264801710300,8.13871044921875,-0.14295081794261932,-0.15051867067813873,0.04224606603384018
1761469264811694300,8.1486943359375,-0.12272007763385773,-0.1666269153356552,0.01773865520954132
1761469264821677600,8.158677490234375,-0.106207937002182,-0.1778673231601715,-0.028812333941459656
1761469264831660300,8.168660400390625,-0.09823287278413773,-0.20671243965625763,-0.08797318488359451
1761469264841644300,8.178644287109375,-0.0900748148560524,-0.24280306696891785,-0.16246259212493896
1761469264851627300,8.188627197265625,-0.07963208109140396,-0.267776221036911,-0.24461741745471954
1761469264861610500,8.198610595703125,-0.055455368012189865,-0.29038992524147034,-0.31831908226013184
1761469264871593200,8.20859326171875,-0.028487220406532288,-0.3066401779651642,-0.3610040545463562
1761469264881577200,8.2185771484375,-0.01002378948032856,-0.31714820861816406,-0.37025880813598633
1761469264891560200,8.228560302734374,-0.009703410789370537,-0.32472702860832214,-0.35501623153686523
1761469264901543400,8.23854345703125,-0.010589445009827614,-0.3604682385921478,-0.33710965514183044
1761469264911527400,8.24852734375,-0.012435073032975197,-0.38414764404296875,-0.3314426839351654
1761469264921510400,8.258510498046874,-0.02039739117026329,-0.39313051104545593,-0.3328528106212616
1761469264931493400,8.268493408203126,-0.021701665595173836,-0.3912952244281769,-0.3539399206638336
1761469264941476400,8.278476318359376,-0.014891428872942924,-0.3862330913543701,-0.37537384033203125
1761469264951460400,8.28846044921875,-0.0035614119842648506,-0.38013598322868347,-0.3768059313297272
1761469264961443300,8.298443359375,0.01579231210052967,-0.35238638520240784,-0.3570854961872101
1761469264971426300,8.30842626953125,0.05125802382826805,-0.3279997706413269,-0.3176455497741699
1761469264981409300,8.3184091796875,0.0878240317106247,-0.3299771547317505,-0.27248793840408325
1761469264991393300,8.328393310546875,0.13076777756214142,-0.32225993275642395,-0.21658740937709808
1761469265001376500,8.33837646484375,0.1518285870552063,-0.28193941712379456,-0.15263612568378448
1761469265011359500,8.348359375,0.16250862181186676,-0.23246456682682037,-0.10707242786884308
1761469265021343200,8.35834326171875,0.1586238592863083,-0.2114381194114685,-0.08585688471794128
1761469265031326200,8.368326171875,0.15249769389629364,-0.2515552341938019,-0.09484724700450897
1761469265041309400,8.378309326171875,0.14201176166534424,-0.26453840732574463,-0.06590002030134201
1761469265051292400,8.38829248046875,0.12151315063238144,-0.2547633945941925,-0.02174828201532364
1761469265061276400,8.3982763671875,0.09329163283109665,-0.25507205724716187,0.001853183377534151
1761469265071259100,8.408259033203125,0.063306525349617,-0.29253560304641724,-0.011073284782469273
1761469265081242400,8.418242431640625,0.04620823264122009,-0.33094024658203125,-0.034158363938331604
1761469265091225300,8.428225341796875,0.03733537346124649,-0.3557559549808502,-0.03657170385122299
1761469265101209300,8.438209228515625,0.01821281388401985,-0.37380820512771606,-0.018661146983504295
1761469265111192300,8.4481923828125,0.00986473448574543,-0.39170458912849426,0.009243594482541084
1761469265121175300,8.45817529296875,0.013796358369290829,-0.4390273690223694,0.03388902172446251
1761469265131159300,8.4681591796875,0.019876979291439056,-0.4430874288082123,0.05087979882955551
1761469265141142300,8.478142333984374,-0.01060929149389267,-0.3916732370853424,0.05749961733818054
1761469265151125500,8.48812548828125,-0.05503929406404495,-0.3092317581176758,0.01785796508193016
1761469265161108200,8.498108154296874,-0.08777167648077011,-0.2693463861942291,-0.04923318326473236
1761469265171092200,8.50809228515625,-0.09054651111364365,-0.3289777934551239,-0.10333486646413803
1761469265181075500,8.518075439453124,-0.05059483274817467,-0.45973047614097595,-0.12081053107976913
1761469265191058400,8.528058349609376,0.0056734951213002205,-0.5853819251060486,-0.09656640887260437
1761469265201041400,8.53804150390625,0.06056710332632065,-0.6369710564613342,-0.045289378613233566
1761469265211025200,8.548025146484376,0.10516471415758133,-0.5965628623962402,0.019514374434947968
1761469265221008400,8.55800830078125,0.15353785455226898,-0.5040337443351746,0.04949038475751877
1761469265230991400,8.567991455078126,0.19947656989097595,-0.43166300654411316,-0.0077837794087827206
1761469265240977400,8.577977294921874,0.2536042332649231,-0.3510672450065613,-0.10503043979406357
1761469265250961400,8.58796142578125,0.2871606647968292,-0.2635619640350342,-0.21190579235553741
1761469265260944400,8.5979443359375,0.3102225661277771,-0.17820578813552856,-0.31305983662605286
1761469265270927400,8.60792724609375,0.30610960721969604,-0.07657931745052338,-0.3789365291595459
1761469265280910300,8.617910400390626,0.27580174803733826,0.008299882523715496,-0.42136386036872864
1761469265290894300,8.627894287109376,0.22291536629199982,0.06099187210202217,-0.4438859820365906
1761469265300877300,8.637877197265626,0.15658055245876312,0.08653184771537781,-0.45349013805389404
1761469265310860300,8.6478603515625,0.09976502507925034,0.1129475012421608,-0.43895262479782104
1761469265320843500,8.657843505859375,0.05346516892313957,0.10907739400863647,-0.3983607292175293
1761469265330827300,8.6678271484375,0.014821011573076248,0.06328310072422028,-0.3438586890697479
1761469265340810200,8.677810302734375,0.0018703257665038109,0.03175340220332146,-0.27982643246650696
1761469265350793500,8.68779345703125,0.001518662553280592,0.0016749566420912743,-0.22603821754455566
1761469265360777500,8.697777587890625,0.012258658185601234,-0.012538334354758263,-0.1722884327173233
1761469265370760400,8.707760498046875,0.023930493742227554,-0.0198654904961586,-0.11623609811067581
1761469265380743200,8.7177431640625,0.05870658531785011,-0.038544367998838425,-0.04556112363934517
1761469265390726400,8.727726318359375,0.10868682712316513,-0.07729770988225937,0.03259998559951782
1761469265400710400,8.73771044921875,0.15833400189876556,-0.08681771159172058,0.1191902682185173
1761469265410693400,8.747693359375,0.19841255247592926,-0.07380198687314987,0.18783171474933624
1761469265420676400,8.75767626953125,0.219950869679451,-0.059382304549217224,0.22168022394180298
1761469265430659300,8.767659423828125,0.22964271903038025,-0.044464707374572754,0.22370485961437225
1761469265440643300,8.777643310546875,0.21512636542320251,-0.008230537176132202,0.21763499081134796
1761469265450626300,8.787626220703125,0.18532991409301758,0.061112258583307266,0.20825287699699402
1761469265460609500,8.797609619140625,0.15415415167808533,0.14775501191616058,0.19262251257896423
1761469265470593500,8.807593505859375,0.112047478556633,0.22754383087158203,0.17794089019298553
1761469265480576300,8.817576171875,0.06680489331483841,0.27376431226730347,0.16117896139621735
1761469265490559200,8.827559326171874,0.01990543305873871,0.2902385890483856,0.14747819304466248
1761469265500542500,8.83754248046875,-0.019770074635744095,0.2752644121646881,0.1290011703968048
1761469265510526500,8.8475263671875,-0.051269590854644775,0.2550651729106903,0.11954624205827713
1761469265520509200,8.85750927734375,-0.07391338050365448,0.22778776288032532,0.08656726032495499
1761469265530492400,8.867492431640626,-0.07978720963001251,0.2231108844280243,0.04797861725091934
1761469265540475400,8.877475341796876,-0.07093166559934616,0.2038317322731018,0.007100424729287624
1761469265550459400,8.88745947265625,-0.06490359455347061,0.16345062851905823,-0.02747940458357334
1761469265560442400,8.8974423828125,-0.051327597349882126,0.1447587013244629,-0.03594586253166199
1761469265570425300,8.90742529296875,-0.04796532541513443,0.14672011137008667,-0.025123463943600655
1761469265580409300,8.917409423828126,-0.030110694468021393,0.14441725611686707,-0.0026154934894293547
1761469265590392300,8.927392333984375,-0.014673227444291115,0.15705302357673645,0.020488888025283813
1761469265600375300,8.937375244140625,-0.007973246276378632,0.16280624270439148,0.05241139978170395
1761469265610358300,8.947358154296875,-0.0037147612310945988,0.13630343973636627,0.06617069989442825
1761469265620342300,8.95734228515625,0.004965545609593391,0.10937941819429398,0.06354642659425735
1761469265630325200,8.9673251953125,0.014110845513641834,0.0910763293504715,0.062201760709285736
1761469265640308500,8.97730859375,0.02061082236468792,0.05716709792613983,0.06031730771064758
1761469265650291500,8.98729150390625,0.019770989194512367,0.020160656422376633,0.05069121718406677
1761469265660275500,8.997275390625,0.01744711585342884,-0.02113698236644268,0.054373301565647125
1761469265670258200,9.007258056640625,0.0067723155952990055,-0.05326979607343674,0.06799324601888657
1761469265680241400,9.017241455078125,-0.012780880555510521,-0.08157200366258621,0.07881499826908112
1761469265690225400,9.027225341796875,-0.030965115875005722,-0.10649727284908295,0.06317085772752762
1761469265700208400,9.03720849609375,-0.04354775324463844,-0.11975076049566269,0.035216450691223145
1761469265710191400,9.04719140625,-0.056389160454273224,-0.08625093847513199,0.03283859044313431
1761469265720174300,9.05717431640625,-0.07755330204963684,-0.02861347794532776,0.053826432675123215
1761469265730158300,9.067158447265625,-0.11023512482643127,0.02194061502814293,0.08676863461732864
1761469265740141300,9.077141357421874,-0.12970469892024994,0.04978209733963013,0.11705303937196732
1761469265750124500,9.08712451171875,-0.13703201711177826,0.04682299494743347,0.1339135617017746
1761469265760107000,9.09710693359375,-0.13742616772651672,0.025397062301635742,0.14317017793655396
1761469265770091000,9.107091064453124,-0.1369369626045227,-0.007213093340396881,0.15305425226688385
1761469265780074200,9.11707421875,-0.1409093290567398,-0.012621707282960415,0.18132904171943665
1761469265790057200,9.12705712890625,-0.14563025534152985,-0.003650279715657234,0.22642064094543457
1761469265800040000,9.1370400390625,-0.1609588861465454,0.021398348733782768,0.26575765013694763
1761469265810024000,9.14702392578125,-0.17998340725898743,0.05564580485224724,0.3106314539909363
1761469265820007200,9.157007080078126,-0.20128843188285828,0.0600016713142395,0.343712717294693
1761469265829990100,9.166990234375,-0.21834354102611542,0.034057583659887314,0.36974674463272095
1761469265839974100,9.17697412109375,-0.23345297574996948,-0.012445202097296715,0.38326919078826904
1761469265849956900,9.186956787109375,-0.2325962334871292,-0.03590138256549835,0.42520228028297424
1761469265859940000,9.196940185546875,-0.21404996514320374,-0.032068829983472824,0.5103794932365417
1761469265869923000,9.206923095703125,-0.1843172162771225,-0.010119913145899773,0.630147397518158
1761469265879907000,9.216906982421875,-0.14353355765342712,0.12536680698394775,0.9361522793769836
1761469265889890300,9.226890380859375,-0.14516998827457428,0.030224498361349106,0.9848434925079346
1761469265899873000,9.236873046875,-0.1185799166560173,-0.2625748813152313,0.7133912444114685
1761469265909856000,9.24685595703125,-0.041062213480472565,-0.2523951828479767,0.5428380370140076
1761469265919840000,9.256840087890625,-0.0077639129012823105,-0.19748932123184204,0.49327823519706726
1761469265929823200,9.2668232421875,0.008950387127697468,-0.17601972818374634,0.4699269235134125
1761469265939806000,9.276805908203125,0.035502634942531586,-0.16956502199172974,0.4632098972797394
1761469265949789000,9.286788818359375,0.04247665777802467,-0.1417943835258484,0.5010124444961548
1761469265959773200,9.296773193359375,0.01021406427025795,-0.1170039251446724,0.5463137626647949
