time,seconds_elapsed,z,y,x
1761469122826251800,0.119251708984375,-0.38002145290374756,0.24480745196342468,0.09316021203994751
1761469122836234500,0.129234375,-0.3890555202960968,0.30237531661987305,0.14046534895896912
1761469122846217700,0.1392177734375,-0.40096035599708557,0.41223523020744324,0.1998533010482788
1761469122856200700,0.14920068359375,-0.4010883569717407,0.5402017831802368,0.2253609299659729
1761469122866183700,0.15918359375,-0.3969239592552185,0.6413750052452087,0.20748445391654968
1761469122876166700,0.169166748046875,-0.4040461778640747,0.7088905572891235,0.16801175475120544
1761469122886149600,0.179149658203125,-0.43803396821022034,0.7691059112548828,0.1253332644701004
1761469122896132600,0.189132568359375,-0.46261927485466003,0.8147892951965332,0.09135545045137405
1761469122906115800,0.19911572265625,-0.46337082982063293,0.8195510506629944,0.10298813879489899
1761469122916098600,0.2090986328125,-0.42624327540397644,0.7312405109405518,0.14161376655101776
1761469122926081500,0.21908154296875,-0.3716772198677063,0.5912581086158752,0.19232860207557678
1761469122936064800,0.229064697265625,-0.3523353636264801,0.46734219789505005,0.2605721652507782
1761469122946047700,0.2390478515625,-0.36253100633621216,0.3611643612384796,0.3101807236671448
1761469122956030700,0.24903076171875,-0.38583722710609436,0.31134358048439026,0.30067673325538635
1761469122966013700,0.259013671875,-0.40534114837646484,0.3273893892765045,0.26874008774757385
1761469122975996700,0.26899658203125,-0.41736453771591187,0.4201492369174957,0.2354419231414795
1761469122985979600,0.278979736328125,-0.39266878366470337,0.5222122073173523,0.23364081978797913
1761469122995962600,0.288962646484375,-0.34111854434013367,0.5264145135879517,0.2866987884044647
1761469123005945600,0.298945556640625,-0.28330451250076294,0.48156264424324036,0.36000123620033264
1761469123015928800,0.3089287109375,-0.23873107135295868,0.461463987827301,0.3832019567489624
1761469123025911600,0.31891162109375,-0.30264854431152344,0.17429903149604797,0.6068068146705627
1761469123035894500,0.32889453125,-0.37579604983329773,0.15677505731582642,0.5333933234214783
1761469123045877800,0.338877685546875,-0.3704065978527069,0.16959097981452942,0.31612253189086914
1761469123055860700,0.34886083984375,-0.3656719923019409,0.07400863617658615,0.29968753457069397
1761469123065843500,0.358843505859375,-0.2795746624469757,0.06479329615831375,0.4259259104728699
1761469123075826700,0.36882666015625,-0.2009003907442093,-0.03371599689126015,0.5490363836288452
1761469123085809700,0.3788095703125,-0.14626191556453705,-0.11506731063127518,0.6452353596687317
1761469123095793000,0.38879296875,-0.11209864169359207,-0.09884419292211533,0.7000570297241211
1761469123105775600,0.398775634765625,-0.08718796819448471,-0.018194355070590973,0.7136405110359192
1761469123115758600,0.408758544921875,-0.0020829946734011173,0.06378192454576492,0.7010042667388916
1761469123125741800,0.418741943359375,-0.09241369366645813,0.1401216983795166,0.7506424188613892
1761469123135724800,0.428724853515625,-0.15411168336868286,0.22453881800174713,0.7886510491371155
1761469123145707500,0.43870751953125,-0.04759270325303078,0.35822951793670654,0.7553008198738098
1761469123155690800,0.448690673828125,0.08889006078243256,0.7181666493415833,0.7616931796073914
1761469123165673700,0.458673828125,0.4880571663379669,1.4074516296386719,0.852567195892334
1761469123175656400,0.468656494140625,0.5639074444770813,2.068511962890625,1.3319543600082397
1761469123185639700,0.4786396484375,0.5576618313789368,1.8134912252426147,1.4968724250793457
1761469123195622700,0.48862255859375,0.240094855427742,0.9102767705917358,1.2378175258636475
1761469123205605600,0.498605712890625,0.08321282267570496,0.620808482170105,0.9491345882415771
1761469123215588600,0.508588623046875,0.14977097511291504,0.5397998094558716,0.8658974170684814
1761469123225571600,0.518571533203125,0.07512123137712479,0.36250630021095276,0.8774704337120056
1761469123235554800,0.528554931640625,0.0051673767156898975,0.07796875387430191,0.8033660650253296
1761469123245537800,0.538537841796875,-0.10246162116527557,-0.07814042270183563,0.7086171507835388
1761469123255520500,0.5485205078125,-0.2526646852493286,-0.08761584013700485,0.6126460433006287
1761469123265503700,0.558503662109375,-0.36057090759277344,-0.00669622328132391,0.5291972160339355
1761469123275486700,0.56848681640625,-0.409147173166275,0.07538510859012604,0.494987428188324
1761469123285469700,0.5784697265625,-0.44930365681648254,0.17418038845062256,0.5268089771270752
1761469123295452700,0.58845263671875,-0.49848857522010803,0.2913343906402588,0.5889714360237122
1761469123305435600,0.598435546875,-0.5602373480796814,0.36814501881599426,0.6452261805534363
1761469123315418600,0.608418701171875,-0.5966191291809082,0.4196571707725525,0.6748644709587097
1761469123325401900,0.61840185546875,-0.5911529660224915,0.4653993546962738,0.6939380168914795
1761469123335384600,0.628384521484375,-0.5679576396942139,0.5540078282356262,0.7137342095375061
1761469123345367600,0.638367431640625,-0.5534241795539856,0.6508640646934509,0.7091767191886902
1761469123355350800,0.648350830078125,-0.5551994442939758,0.7169764637947083,0.7077934741973877
1761469123365333500,0.65833349609375,-0.5779985189437866,0.6929369568824768,0.6828343272209167
1761469123375316700,0.668316650390625,-0.6310193538665771,0.6002587676048279,0.6326598525047302
1761469123385299700,0.6782998046875,-0.6711859107017517,0.4764532446861267,0.5922642350196838
1761469123395282700,0.68828271484375,-0.6905890107154846,0.3305222988128662,0.5564298033714294
1761469123405265700,0.698265625,-0.693546712398529,0.19766275584697723,0.5276471376419067
1761469123415248600,0.70824853515625,-0.7355974316596985,0.1030832901597023,0.5196656584739685
1761469123425231600,0.718231689453125,-0.7820839881896973,0.01993647590279579,0.5389653444290161
1761469123435214800,0.72821484375,-0.8315932154655457,-0.02370782382786274,0.5782886147499084
1761469123445197600,0.738197509765625,-0.8511530756950378,-0.05802611634135246,0.5925487875938416
1761469123455180500,0.7481806640625,-0.8123217225074768,-0.10092537105083466,0.5702462196350098
1761469123465163800,0.758163818359375,-0.6663338541984558,-0.16288381814956665,0.5382078886032104
1761469123475146800,0.768146728515625,-0.4772171676158905,-0.2618439495563507,0.5833898782730103
1761469123485129500,0.77812939453125,-0.43904048204421997,-0.20308715105056763,0.5226479768753052
1761469123495112700,0.78811279296875,-0.41243162751197815,-0.09831347316503525,0.45548853278160095
1761469123505095700,0.798095703125,-0.43797826766967773,-0.027212660759687424,0.4456252455711365
1761469123515078700,0.80807861328125,-0.46421781182289124,0.004706813022494316,0.4508036971092224
1761469123525061600,0.8180615234375,-0.48671647906303406,0.014341063797473907,0.43427717685699463
1761469123535044600,0.828044677734375,-0.5018401145935059,-0.005799527280032635,0.4094860851764679
1761469123545027800,0.83802783203125,-0.5111804008483887,-0.018958739936351776,0.3908037543296814
1761469123555010600,0.848010498046875,-0.520774781703949,-0.009974585846066475,0.36595332622528076
1761469123564993500,0.85799365234375,-0.5232946872711182,0.04400262609124184,0.3251001834869385
1761469123574976800,0.867976806640625,-0.4931320548057556,0.1248464435338974,0.25140756368637085
1761469123584959700,0.877959716796875,-0.4508599638938904,0.17791125178337097,0.19805753231048584
1761469123594942500,0.8879423828125,-0.4374268651008606,0.17090246081352234,0.1849905252456665
1761469123604925700,0.89792578125,-0.43170613050460815,0.11748397350311279,0.1796703338623047
1761469123614905000,0.907905029296875,-0.4309003949165344,0.05280099809169769,0.15889966487884521
1761469123624888000,0.91788818359375,-0.4113732874393463,0.007279588840901852,0.13168908655643463
1761469123634871300,0.927871337890625,-0.37624824047088623,0.0085615124553442,0.11308431625366211
1761469123644854300,0.937854248046875,-0.33565181493759155,0.07408592849969864,0.09897861629724503
1761469123654837200,0.947837158203125,-0.2978696823120117,0.14622357487678528,0.08256728202104568
1761469123664820200,0.9578203125,-0.27517157793045044,0.21011707186698914,0.07049065083265305
1761469123674803200,0.96780322265625,-0.2574785351753235,0.24782800674438477,0.07908473163843155
1761469123684786400,0.977786376953125,-0.23609095811843872,0.24094852805137634,0.06671541929244995
1761469123694769200,0.98776904296875,-0.2326575368642807,0.19849862158298492,0.05182681977748871
1761469123704752000,0.997752197265625,-0.2375020980834961,0.13624829053878784,0.04132304713129997
1761469123714735400,1.0077353515625,-0.2599787414073944,0.07439520955085754,0.06470047682523727
1761469123724718000,1.017718017578125,-0.27638036012649536,-0.012940228916704655,0.12309693545103073
1761469123734701000,1.027701171875,-0.280597448348999,-0.09602557867765427,0.21482691168785095
1761469123744684300,1.037684326171875,-0.27045106887817383,-0.12852120399475098,0.30201056599617004
1761469123754667300,1.047667236328125,-0.26215124130249023,-0.07935168594121933,0.3533395826816559
1761469123764650000,1.05764990234375,-0.2458534985780716,0.008080421946942806,0.37930646538734436
1761469123774633200,1.06763330078125,-0.22205406427383423,0.08555907011032104,0.3901536166667938
1761469123784616200,1.0776162109375,-0.19423840939998627,0.14344154298305511,0.3935408890247345
1761469123794599200,1.08759912109375,-0.1989315152168274,0.16192173957824707,0.4099370241165161
1761469123804582100,1.09758203125,-0.23693376779556274,0.1709842085838318,0.4586308002471924
1761469123814565000,1.107565185546875,-0.20772111415863037,0.06273139268159866,0.47567522525787354
1761469123824548400,1.11754833984375,-0.21699103713035583,-0.10653619468212128,0.546174168586731
1761469123834531300,1.12753125,-0.2532525360584259,-0.24837972223758698,0.6823027729988098
1761469123844514000,1.13751416015625,-0.3067091107368469,-0.29542818665504456,0.8293585181236267
1761469123854497300,1.147497314453125,-0.33976107835769653,-0.2558462917804718,0.9227151870727539
1761469123864480300,1.157480224609375,-0.3603784739971161,-0.1845177859067917,0.9120319485664368
1761469123874463200,1.167463134765625,-0.34836456179618835,-0.10218676179647446,0.817937433719635
1761469123884446200,1.1774462890625,-0.34151092171669006,-0.06744103133678436,0.6919345259666443
1761469123894429200,1.18742919921875,-0.29963183403015137,-0.13118557631969452,0.622911274433136
1761469123904412200,1.197412109375,-0.29107216000556946,-0.23650161921977997,0.6301345825195312
1761469123914395100,1.20739501953125,-0.27786457538604736,-0.30957964062690735,0.6469624638557434
1761469123924378000,1.217378173828125,-0.2683674991130829,-0.3272888660430908,0.624121904373169
1761469123934361300,1.227361328125,-0.2484147846698761,-0.31000369787216187,0.5679484009742737
1761469123944344300,1.23734423828125,-0.24940097332000732,-0.2744872570037842,0.4808630645275116
1761469123954327000,1.2473271484375,-0.2299160361289978,-0.24317854642868042,0.4008798897266388
1761469123964310300,1.257310302734375,-0.21197085082530975,-0.20889966189861298,0.3285793364048004
1761469123974293200,1.267293212890625,-0.18811167776584625,-0.17618583142757416,0.24723786115646362
1761469123984276200,1.277276123046875,-0.16404815018177032,-0.13707545399665833,0.1662364900112152
1761469123994259200,1.28725927734375,-0.15063470602035522,-0.07364410161972046,0.09045210480690002
1761469124004242200,1.2972421875,-0.14651933312416077,0.0011638305149972439,0.023566285148262978
1761469124014225200,1.30722509765625,-0.14635437726974487,0.07228852063417435,-0.03496939688920975
1761469124024208400,1.31720849609375,-0.1453695297241211,0.11406978964805603,-0.07123126089572906
1761469124034191000,1.327191162109375,-0.14899972081184387,0.14654596149921417,-0.07450541853904724
1761469124044174000,1.337174072265625,-0.16898487508296967,0.18850992619991302,-0.053298935294151306
1761469124054157300,1.3471572265625,-0.20510512590408325,0.2151230126619339,-0.023382581770420074
1761469124064140300,1.357140380859375,-0.2373669296503067,0.23081010580062866,0.01551847904920578
1761469124074123300,1.367123291015625,-0.25956034660339355,0.2320975512266159,0.05227835476398468
1761469124084106200,1.377106201171875,-0.2721584439277649,0.2083355039358139,0.09021162986755371
1761469124094089200,1.387089111328125,-0.25868770480155945,0.17292474210262299,0.12221895158290863
1761469124104072200,1.397072265625,-0.22199629247188568,0.14544810354709625,0.15537823736667633
1761469124114055200,1.40705517578125,-0.17854401469230652,0.1436404138803482,0.18326707184314728
1761469124124038100,1.4170380859375,-0.12724274396896362,0.15219555795192719,0.23237469792366028
1761469124134021400,1.427021484375,-0.08059287071228027,0.1524730771780014,0.2981692850589752
1761469124144004000,1.437004150390625,-0.027220193296670914,0.14774064719676971,0.3488982319831848
1761469124153987000,1.446987060546875,0.030750300735235214,0.1364048570394516,0.3687439262866974
1761469124163970300,1.45697021484375,0.08177593350410461,0.12273377925157547,0.3615373969078064
1761469124173953300,1.466953369140625,0.11976373195648193,0.10972815006971359,0.3289346396923065
1761469124183936000,1.47693603515625,0.14230206608772278,0.0801960900425911,0.260449081659317
1761469124193919200,1.486919189453125,0.14292344450950623,0.08356000483036041,0.19739453494548798
1761469124203903200,1.4969033203125,0.12967342138290405,0.10954659432172775,0.12614698708057404
1761469124213886200,1.50688623046875,0.12067235261201859,0.14668233692646027,0.05939079448580742
1761469124223869400,1.516869384765625,0.0987904891371727,0.2075456827878952,0.007558755576610565
1761469124233852200,1.52685205078125,0.07717948406934738,0.2716458737850189,-0.03999544680118561
1761469124243835100,1.536835205078125,0.05519109591841698,0.32820236682891846,-0.06694158166646957
1761469124253818400,1.546818359375,0.042950667440891266,0.38560670614242554,-0.0797714814543724
1761469124263801000,1.556801025390625,0.04539544880390167,0.4369407296180725,-0.092587411403656
1761469124273784000,1.5667841796875,0.04603473097085953,0.4577711820602417,-0.10076791793107986
1761469124283767300,1.576767333984375,0.03933155536651611,0.45261505246162415,-0.09835642576217651
1761469124293750300,1.586750244140625,0.03396661952137947,0.4357644319534302,-0.11090710759162903
1761469124303733000,1.59673291015625,0.03466969355940819,0.4086609184741974,-0.13238602876663208
1761469124313716200,1.60671630859375,0.045102767646312714,0.38230401277542114,-0.1455935835838318
1761469124323699200,1.61669921875,0.058473434299230576,0.35255491733551025,-0.15826916694641113
1761469124333682200,1.62668212890625,0.06564575433731079,0.3422073721885681,-0.18009789288043976
1761469124343665200,1.6366650390625,0.07156942039728165,0.3343893885612488,-0.20711593329906464
1761469124353648000,1.646648193359375,0.06745687872171402,0.32777801156044006,-0.22837600111961365
1761469124363631400,1.65663134765625,0.0671737864613533,0.3340478837490082,-0.24070404469966888
1761469124373614300,1.6666142578125,0.07203275710344315,0.3309879004955292,-0.2562406063079834
1761469124383597000,1.67659716796875,0.07050544023513794,0.3137143850326538,-0.28060081601142883
1761469124393580300,1.686580322265625,0.07437660545110703,0.3042002320289612,-0.29271286725997925
1761469124403563300,1.696563232421875,0.07649808377027512,0.2945934236049652,-0.2822040319442749
1761469124413546200,1.706546142578125,0.06783679127693176,0.2905213236808777,-0.25514838099479675
1761469124423529200,1.716529296875,0.05638572573661804,0.2974095940589905,-0.2119273841381073
1761469124433512200,1.72651220703125,0.040151793509721756,0.3198535144329071,-0.16424836218357086
1761469124443495200,1.7364951171875,0.02820271998643875,0.334360808134079,-0.11167223006486893
1761469124453478100,1.74647802734375,0.02097085490822792,0.34042662382125854,-0.06618737429380417
1761469124463461000,1.756461181640625,0.009195953607559204,0.35065504908561707,-0.009933419525623322
1761469124473444000,1.766444091796875,-0.0074857501313090324,0.36862242221832275,0.049546487629413605
1761469124483427300,1.77642724609375,-0.025181923061609268,0.3762425184249878,0.11403971910476685
1761469124493410000,1.78641015625,-0.05136552080512047,0.36748212575912476,0.16427554190158844
1761469124503393300,1.796393310546875,-0.0727512314915657,0.3557834029197693,0.21504338085651398
1761469124513376300,1.806376220703125,-0.09469399601221085,0.3378080427646637,0.2572818994522095
1761469124523359200,1.816359130859375,-0.11204715818166733,0.3225119113922119,0.2803685665130615
1761469124533342200,1.82634228515625,-0.1254870593547821,0.3135942220687866,0.29250654578208923
1761469124543325200,1.8363251953125,-0.1221192330121994,0.31207889318466187,0.2907443344593048
1761469124553308200,1.84630810546875,-0.12910988926887512,0.3324441909790039,0.2942923307418823
1761469124563291400,1.85629150390625,-0.13089953362941742,0.3743727505207062,0.31707513332366943
1761469124573274000,1.866274169921875,-0.14696873724460602,0.41497114300727844,0.3663918077945709
1761469124583257000,1.876257080078125,-0.15774548053741455,0.4195464551448822,0.41675645112991333
1761469124593240300,1.886240234375,-0.17002426087856293,0.37360021471977234,0.43536293506622314
1761469124603223300,1.896223388671875,-0.16771823167800903,0.3585629463195801,0.43587401509284973
1761469124613206300,1.906206298828125,-0.16350333392620087,0.37109437584877014,0.4249038100242615
1761469124623189800,1.916189697265625,-0.1675896793603897,0.36409321427345276,0.3956758677959442
1761469124633172700,1.9261728515625,-0.1535300463438034,0.31298956274986267,0.38545918464660645
1761469124643155500,1.936155517578125,-0.0990002229809761,0.24175801873207092,0.46656495332717896
1761469124653138700,1.946138671875,-0.0946117416024208,0.09125544130802155,0.4753260910511017
1761469124663121700,1.95612158203125,-0.0551530122756958,-0.01630857028067112,0.5123350024223328
1761469124673104600,1.966104736328125,-0.023083707317709923,-0.04512464627623558,0.5396866798400879
1761469124683087600,1.976087646484375,-0.02691040188074112,-0.0004381369799375534,0.5328764915466309
1761469124693070600,1.986070556640625,-0.04948710650205612,0.08527956902980804,0.4922518730163574
1761469124703053800,1.9960537109375,-0.05398944020271301,0.17744199931621552,0.4625573754310608
1761469124713036800,2.006036865234375,-0.055113740265369415,0.25010353326797485,0.4548987150192261
1761469124723019500,2.01601953125,-0.07379528135061264,0.3051545321941376,0.42520713806152344
1761469124733002800,2.026002685546875,-0.0677855908870697,0.3132249712944031,0.37528032064437866
1761469124742985700,2.03598583984375,-0.0856865644454956,0.33412331342697144,0.2965508997440338
1761469124752968400,2.045968505859375,-0.08850912004709244,0.33688533306121826,0.20620599389076233
1761469124762951700,2.05595166015625,-0.0943121537566185,0.3508797287940979,0.15035711228847504
1761469124772934700,2.0659345703125,-0.0875786691904068,0.4219222366809845,0.11913888156414032
1761469124782917600,2.075917724609375,-0.07271131128072739,0.4792736768722534,0.13394871354103088
1761469124792900600,2.085900634765625,-0.08231372386217117,0.5131063461303711,0.1603437066078186
1761469124802884600,2.095884521484375,-0.09062065929174423,0.5235259532928467,0.15890879929065704
1761469124812867600,2.10586767578125,-0.1055765226483345,0.47547203302383423,0.13437435030937195
1761469124822850800,2.115850830078125,-0.11496017128229141,0.39985185861587524,0.09251958876848221
1761469124832833800,2.125833740234375,-0.13911065459251404,0.32586669921875,0.05140397325158119
1761469124842816500,2.13581640625,-0.156092569231987,0.25362393260002136,0.00730335945263505
1761469124852799700,2.1457998046875,-0.17650209367275238,0.17801834642887115,-0.045755527913570404
1761469124862782700,2.15578271484375,-0.20209747552871704,0.13812045753002167,-0.0956629067659378
1761469124872765700,2.165765625,-0.21768462657928467,0.16337472200393677,-0.12122918665409088
1761469124882748700,2.175748779296875,-0.23327957093715668,0.1948053538799286,-0.10776716470718384
1761469124892731600,2.185731689453125,-0.25008219480514526,0.17860457301139832,-0.053442079573869705
1761469124902714600,2.195714599609375,-0.2564364969730377,0.13875702023506165,0.026811746880412102
1761469124912697600,2.205697509765625,-0.2654411494731903,0.13617108762264252,0.11651640385389328
1761469124922680600,2.2156806640625,-0.2873251438140869,0.1731906235218048,0.18463951349258423
1761469124932663600,2.22566357421875,-0.3019115626811981,0.22320351004600525,0.2190408557653427
1761469124942646800,2.235646728515625,-0.30810871720314026,0.2949586510658264,0.2129637748003006
1761469124952629500,2.24562939453125,-0.3043379485607147,0.379401296377182,0.1727791428565979
1761469124962612700,2.25561279296875,-0.2959684431552887,0.45090582966804504,0.11183509230613708
1761469124972595700,2.265595703125,-0.2950201630592346,0.49282875657081604,0.04850931838154793
1761469124982578700,2.27557861328125,-0.2881627678871155,0.4851066470146179,-0.006884165108203888
1761469124992561700,2.285561767578125,-0.28177833557128906,0.4152022898197174,-0.037360113114118576
1761469125002544600,2.295544677734375,-0.2777300775051117,0.3185628354549408,-0.03997240588068962
1761469125012527600,2.305527587890625,-0.27808505296707153,0.23966525495052338,-0.027172058820724487
1761469125022510800,2.3155107421875,-0.2856028974056244,0.19731007516384125,-0.0087784044444561
1761469125032493600,2.32549365234375,-0.2895778715610504,0.1614762544631958,0.013364449143409729
1761469125042476500,2.3354765625,-0.2865394651889801,0.12690363824367523,0.020965909585356712
1761469125052459800,2.345459716796875,-0.2716207206249237,0.0973169282078743,0.03206344693899155
1761469125062442800,2.35544287109375,-0.2603291869163513,0.06729724258184433,0.043007172644138336
1761469125072425700,2.36542578125,-0.2412646859884262,0.05585312843322754,0.05845655873417854
1761469125082408700,2.37540869140625,-0.23352447152137756,0.05519133061170578,0.07109352946281433
1761469125092391700,2.3853916015625,-0.22005952894687653,0.06740245968103409,0.07693996280431747
1761469125102374700,2.395374755859375,-0.20879143476486206,0.0642804354429245,0.0796113833785057
1761469125112357600,2.405357666015625,-0.19251826405525208,0.036850910633802414,0.08738794177770615
1761469125122340600,2.415340576171875,-0.1667758971452713,-0.012834353372454643,0.1008792519569397
1761469125132323800,2.42532373046875,-0.1350334882736206,-0.07273978739976883,0.10532313585281372
1761469125142306600,2.435306640625,-0.09376222640275955,-0.1066703274846077,0.08289772272109985
1761469125152289500,2.44528955078125,-0.04896583408117294,-0.09868935495615005,0.05144791677594185
1761469125162272800,2.455272705078125,-0.02745414897799492,-0.07358293235301971,0.018803421407938004
1761469125172255700,2.465255859375,0.0018280614167451859,-0.04765051230788231,-0.010296863503754139
1761469125182238500,2.475238525390625,0.04126415029168129,-0.045279499143362045,-0.01989249885082245
1761469125192221700,2.4852216796875,0.08547082543373108,-0.05884876102209091,0.0032301973551511765
1761469125202204700,2.49520458984375,0.1255921572446823,-0.08969641476869583,0.035959914326667786
1761469125212187600,2.505187744140625,0.24985025823116302,-0.11116001754999161,0.06816332042217255
1761469125222172000,2.515171875,0.23718585073947906,-0.1409139186143875,0.07750515639781952
1761469125232154600,2.525154541015625,0.11822019517421722,-0.17664699256420135,0.05355893820524216
1761469125242137600,2.5351376953125,0.1040005162358284,-0.11004266142845154,0.0676334798336029
1761469125252120800,2.545120849609375,0.07178882509469986,-0.08150564879179001,0.07530146092176437
1761469125262103600,2.555103515625,0.04459049180150032,-0.05610468238592148,0.07317465543746948
1761469125272086500,2.56508642578125,0.01664081960916519,-0.02755901776254177,0.08034128695726395
1761469125282069800,2.57506982421875,0.0014320388436317444,-0.015800096094608307,0.08167899399995804
1761469125292052700,2.585052734375,0.011876517906785011,-0.059063736349344254,0.06541454046964645
1761469125302035500,2.595035400390625,0.03004220500588417,-0.1243434026837349,0.048034749925136566
1761469125312018700,2.605018798828125,0.06959936022758484,-0.1569949984550476,0.05560364946722984
1761469125322001700,2.615001708984375,0.10730093717575073,-0.16730648279190063,0.07994706928730011
1761469125331984600,2.624984619140625,0.1351797878742218,-0.22406259179115295,0.10305272787809372
1761469125341967600,2.634967529296875,0.14898455142974854,-0.3194860517978668,0.14950811862945557
1761469125351950600,2.64495068359375,0.1506870985031128,-0.4489423334598541,0.20226027071475983
1761469125361933800,2.654933837890625,0.1468833088874817,-0.538417637348175,0.22067204117774963
1761469125371916800,2.664916748046875,0.13517028093338013,-0.5397834181785583,0.1783113330602646
1761469125381899500,2.6748994140625,0.09065260738134384,-0.47580498456954956,0.15661455690860748
1761469125391882800,2.6848828125,0.12359169870615005,-0.49777019023895264,0.025961270555853844
1761469125401865700,2.69486572265625,0.14346952736377716,-0.5752087831497192,-0.06511590629816055
1761469125411848700,2.7048486328125,0.1840021014213562,-0.6335372924804688,-0.11820116639137268
1761469125421831700,2.714831787109375,0.22744572162628174,-0.673499345779419,-0.1584484577178955
1761469125431814700,2.724814697265625,0.26702409982681274,-0.6653478145599365,-0.19475765526294708
1761469125441797600,2.734797607421875,0.2775244116783142,-0.6225974559783936,-0.2095448523759842
1761469125451780600,2.744780517578125,0.2889339327812195,-0.5898633003234863,-0.2537374794483185
1761469125461763600,2.754763671875,0.30583593249320984,-0.5729138851165771,-0.3384217321872711
1761469125471746600,2.76474658203125,0.31018489599227905,-0.5400135517120361,-0.42989081144332886
1761469125481729800,2.774729736328125,0.3138022720813751,-0.49194350838661194,-0.5009090304374695
1761469125491712500,2.78471240234375,0.32933422923088074,-0.45810550451278687,-0.5658581852912903
1761469125501695700,2.79469580078125,0.33607468008995056,-0.40755897760391235,-0.6168667674064636
1761469125511678700,2.8046787109375,0.3371689021587372,-0.33895447850227356,-0.6482353210449219
1761469125521661700,2.81466162109375,0.33086466789245605,-0.25240465998649597,-0.6712591648101807
1761469125531644700,2.824644775390625,0.3361448645591736,-0.16193647682666779,-0.6707112193107605
1761469125541627600,2.834627685546875,0.3220921754837036,-0.08431652188301086,-0.6092785000801086
1761469125551611600,2.844611572265625,0.3148607015609741,-0.04304143786430359,-0.5285183191299438
1761469125561594600,2.8545947265625,0.3195606470108032,-0.0529278926551342,-0.45292821526527405
1761469125571577600,2.86457763671875,0.35179564356803894,-0.11690109968185425,-0.38111642003059387
1761469125581560600,2.874560546875,0.392063707113266,-0.21081748604774475,-0.32361316680908203
1761469125591543600,2.88454345703125,0.4373481571674347,-0.28961363434791565,-0.2505589425563812
1761469125601526800,2.89452685546875,0.47373998165130615,-0.32870057225227356,-0.17237438261508942
1761469125611509500,2.904509521484375,0.49511852860450745,-0.331093966960907,-0.10171666741371155
1761469125621492500,2.914492431640625,0.4924415349960327,-0.30366259813308716,-0.03488250821828842
1761469125631475500,2.924475341796875,0.4774158000946045,-0.24466095864772797,-0.010138741694390774
1761469125641458400,2.93445849609375,0.4617454707622528,-0.19830277562141418,-0.04564240947365761
1761469125651441400,2.94444140625,0.4441533386707306,-0.16925060749053955,-0.11147753894329071
1761469125661424400,2.95442431640625,0.42326241731643677,-0.13377463817596436,-0.17241306602954865
1761469125671407400,2.964407470703125,0.3920310437679291,-0.07693801075220108,-0.19798147678375244
1761469125681390600,2.974390625,0.35491055250167847,-0.026793353259563446,-0.19716042280197144
1761469125691373300,2.984373291015625,0.3122928738594055,-0.00023789098486304283,-0.19249896705150604
1761469125701356300,2.994356201171875,0.26237937808036804,0.030174877494573593,-0.16950629651546478
1761469125711339500,3.004339599609375,0.21158500015735626,0.06317216157913208,-0.1285407394170761
1761469125721322500,3.014322509765625,0.16688010096549988,0.06488829851150513,-0.08764311671257019
1761469125731305500,3.024305419921875,0.12349492311477661,0.0501774400472641,-0.04544419050216675
1761469125741288400,3.034288330078125,0.09043018519878387,0.048486337065696716,0.010285384021699429
1761469125751271400,3.044271484375,0.06064457818865776,0.060355931520462036,0.0534994937479496
1761469125761254400,3.05425439453125,0.03440392017364502,0.06257621198892593,0.05740661546587944
1761469125771237400,3.0642373046875,0.024164650589227676,0.05465333163738251,0.04202266409993172
1761469125781220400,3.074220458984375,0.02629144862294197,0.038396865129470825,0.019936272874474525
1761469125791203600,3.08420361328125,0.03245074674487114,0.01471926923841238,0.0033936542458832264
1761469125801186300,3.094186279296875,0.03390936180949211,-0.008504827506840229,0.010783926583826542
1761469125811169300,3.104169189453125,0.029474830254912376,-0.022566286846995354,0.03600698336958885
1761469125821152500,3.114152587890625,0.031208546832203865,-0.034799519926309586,0.060879044234752655
1761469125831135500,3.124135498046875,0.02608550526201725,-0.02929617464542389,0.08248420804738998
1761469125841119500,3.134119384765625,0.01893065683543682,-0.03280169516801834,0.08854929357767105
1761469125851102500,3.1441025390625,0.004686120897531509,-0.048731591552495956,0.09974610060453415
1761469125861085400,3.15408544921875,-0.016924366354942322,-0.06383970379829407,0.12081143260002136
1761469125871068400,3.164068359375,-0.04204592853784561,-0.08593951165676117,0.15961700677871704
1761469125881051400,3.174051513671875,-0.06810655444860458,-0.10942832380533218,0.2017708569765091
1761469125891034400,3.184034423828125,-0.10562855750322342,-0.1372825801372528,0.261194109916687
1761469125901017300,3.194017333984375,-0.1291426569223404,-0.15337713062763214,0.31015339493751526
1761469125911000600,3.20400048828125,-0.15004988014698029,-0.1783619076013565,0.33785977959632874
1761469125920983300,3.2139833984375,-0.15806466341018677,-0.17518103122711182,0.366231769323349
1761469125930966300,3.22396630859375,-0.16108019649982452,-0.15771354734897614,0.38124093413352966
1761469125940949500,3.233949462890625,-0.15670010447502136,-0.12145406752824783,0.38175174593925476
1761469125950932500,3.243932373046875,-0.15062469244003296,-0.07631577551364899,0.36571043729782104
1761469125960915200,3.253915283203125,-0.13820211589336395,-0.03181754797697067,0.335264652967453
1761469125970898400,3.2638984375,-0.12694422900676727,-0.011039691045880318,0.3052537143230438
1761469125980881400,3.27388134765625,-0.09908942878246307,-0.046413131058216095,0.28939297795295715
1761469125990864600,3.28386474609375,-0.06500910222530365,-0.12359355390071869,0.3040245473384857
1761469126000847400,3.293847412109375,-0.05125813186168671,-0.20673079788684845,0.3320111632347107
1761469126010830300,3.303830322265625,-0.028776921331882477,-0.27738502621650696,0.3469182848930359
1761469126020813600,3.3138134765625,-0.011758791282773018,-0.30072659254074097,0.3536960184574127
1761469126030796500,3.323796630859375,-0.0010163267143070698,-0.2716540992259979,0.34214675426483154
1761469126040779300,3.333779296875,0.0074823531322181225,-0.19036270678043365,0.30909132957458496
1761469126050762500,3.343762451171875,0.024087825790047646,-0.09102088958024979,0.28087133169174194
1761469126060745500,3.353745361328125,0.045865561813116074,0.026972593739628792,0.2606736719608307
1761469126070728200,3.363728271484375,0.08364059776067734,0.05117282643914223,0.2729959785938263
1761469126080711400,3.37371142578125,0.10173437744379044,0.015241988003253937,0.30451154708862305
1761469126090695400,3.3836953125,0.13412582874298096,-0.07221046090126038,0.3769034445285797
1761469126100678400,3.393678466796875,0.1529407948255539,-0.20397807657718658,0.47811368107795715
1761469126110661600,3.40366162109375,0.12605123221874237,-0.2634235918521881,0.5106825828552246
1761469126120644400,3.413644287109375,0.09790588170289993,-0.2565571665763855,0.48838257789611816
1761469126130627300,3.42362744140625,0.06288910657167435,-0.2633368670940399,0.48403623700141907
1761469126140610600,3.433610595703125,-0.01467172708362341,-0.20089426636695862,0.44192740321159363
1761469126150593500,3.443593505859375,-0.07163362950086594,-0.1606760174036026,0.37996751070022583
1761469126160576300,3.453576171875,-0.09457489848136902,-0.2243252992630005,0.3491398096084595
1761469126170559500,3.4635595703125,-0.11705874651670456,-0.2783096134662628,0.32834070920944214
1761469126180542500,3.47354248046875,-0.13222917914390564,-0.22014911472797394,0.24596300721168518
1761469126190525400,3.483525390625,-0.13632403314113617,-0.10877060145139694,0.16393473744392395
1761469126200508400,3.49350830078125,-0.14341896772384644,-0.01710939221084118,0.11365318298339844
1761469126210491400,3.503491455078125,-0.14876535534858704,0.04410836845636368,0.09053707867860794
1761469126220474400,3.513474365234375,-0.15614604949951172,0.06594202667474747,0.10032898932695389
1761469126230457300,3.523457275390625,-0.16963157057762146,0.0522906593978405,0.11465400457382202
1761469126240440300,3.5334404296875,-0.15158306062221527,-0.08402643352746964,0.16990742087364197
1761469126250423600,3.543423583984375,-0.19908280670642853,-0.08371300995349884,0.1254124492406845
1761469126260406500,3.553406494140625,-0.19797492027282715,-0.09949730336666107,0.07758953422307968
1761469126270389200,3.56338916015625,-0.1961035132408142,-0.17065158486366272,0.031573958694934845
1761469126280372500,3.57337255859375,-0.19959093630313873,-0.23989003896713257,0.0001827480737119913
1761469126290355500,3.58335546875,-0.2137197107076645,-0.30163201689720154,-0.015753066167235374
1761469126300338400,3.59333837890625,-0.23145078122615814,-0.3460812270641327,-0.025519143790006638
1761469126310322400,3.603322509765625,-0.2514556050300598,-0.363118052482605,-0.025877011939883232
1761469126320305400,3.613305419921875,-0.25081270933151245,-0.3689122796058655,-0.0013421066105365753
1761469126330288400,3.623288330078125,-0.25328686833381653,-0.36724069714546204,0.020337821915745735
1761469126340271400,3.633271240234375,-0.2404770702123642,-0.3355637490749359,0.040496353060007095
1761469126350254600,3.643254638671875,-0.2391882836818695,-0.2710117697715759,0.034836139529943466
1761469126360237300,3.6532373046875,-0.22462186217308044,-0.18716853857040405,-0.00005766167305409908
1761469126370220500,3.663220458984375,-0.22228223085403442,-0.13109198212623596,-0.05325184389948845
1761469126380203500,3.67320361328125,-0.21317875385284424,-0.10779543966054916,-0.1153343915939331
1761469126390186200,3.683186279296875,-0.1976245790719986,-0.10116874426603317,-0.17743930220603943
1761469126400169500,3.69316943359375,-0.1920045167207718,-0.12537714838981628,-0.21887356042861938
1761469126410152400,3.70315234375,-0.18641051650047302,-0.17224906384944916,-0.2494298219680786
1761469126420135400,3.713135498046875,-0.1781051903963089,-0.20408742129802704,-0.2633586823940277
1761469126430118400,3.723118408203125,-0.18165035545825958,-0.20477546751499176,-0.2519526779651642
1761469126440101400,3.733101318359375,-0.18087005615234375,-0.17588816583156586,-0.22686517238616943
1761469126450084400,3.74308447265625,-0.18872027099132538,-0.14949552714824677,-0.19748930633068085
1761469126460067600,3.753067626953125,-0.19641761481761932,-0.1548362374305725,-0.1823236644268036
1761469126470050300,3.76305029296875,-0.20479294657707214,-0.19143891334533691,-0.1812845766544342
1761469126480033300,3.773033203125,-0.21378590166568756,-0.2303202599287033,-0.18003901839256287
1761469126490016500,3.7830166015625,-0.21572616696357727,-0.2586562931537628,-0.1963423490524292
1761469126499999500,3.79299951171875,-0.22864489257335663,-0.22340244054794312,-0.20043455064296722
1761469126509982500,3.802982421875,-0.21967260539531708,-0.16241425275802612,-0.18038807809352875
1761469126519966500,3.812966552734375,-0.18471062183380127,-0.10274481028318405,-0.13873064517974854
1761469126529949400,3.822949462890625,-0.13164769113063812,-0.054926417768001556,-0.11284167319536209
1761469126539932400,3.832932373046875,-0.07493887841701508,-0.017244553193449974,-0.09487386047840118
1761469126549915400,3.842915283203125,-0.017320608720183372,0.0037901089526712894,-0.07972659915685654
1761469126559898400,3.8528984375,0.035370834171772,0.004078795667737722,-0.057749927043914795
1761469126569881300,3.86288134765625,0.07461182028055191,0.008385732769966125,-0.04251483082771301
1761469126579864600,3.872864501953125,0.0979301929473877,0.028960781171917915,-0.03101396933197975
1761469126589847300,3.882847412109375,0.10120490938425064,0.08275322616100311,-0.027046527713537216
1761469126599830300,3.892830322265625,0.10071835666894913,0.14313986897468567,-0.03553561866283417
1761469126609813500,3.9028134765625,0.09643331915140152,0.19165928661823273,-0.05495890974998474
1761469126619799800,3.9127998046875,0.10182275623083115,0.1857137680053711,-0.06948192417621613
1761469126629783000,3.922782958984375,0.10249049961566925,0.1778850555419922,-0.06702125072479248
1761469126639766000,3.93276611328125,0.10605274140834808,0.17864219844341278,-0.045930612832307816
1761469126649749000,3.9427490234375,0.0865597277879715,0.21392756700515747,-0.03745631128549576
1761469126659732000,3.95273193359375,0.05383294075727463,0.275716096162796,-0.06402986496686935
1761469126669715000,3.96271484375,0.02063026838004589,0.31018146872520447,-0.09524574875831604
1761469126679698000,3.972697998046875,-0.005889489781111479,0.2997780740261078,-0.12033939361572266
1761469126689681200,3.98268115234375,-0.02529018186032772,0.25153985619544983,-0.1215895488858223
1761469126699665200,3.9926650390625,-0.02173619344830513,0.20358537137508392,-0.12250754237174988
1761469126709648000,4.00264794921875,-0.022051390260457993,0.17858584225177765,-0.11542978882789612
1761469126719630800,4.012630859375,-0.03309818357229233,0.18049798905849457,-0.11601968109607697
1761469126729614000,4.022614013671875,-0.04586314409971237,0.18594315648078918,-0.12938088178634644
1761469126739596800,4.0325966796875,-0.05555571988224983,0.17310485243797302,-0.139910489320755
1761469126749580000,4.042580078125,-0.05513235554099083,0.13904328644275665,-0.15556389093399048
1761469126759563000,4.05256298828125,-0.03664202615618706,0.1114334985613823,-0.17396420240402222
1761469126769546000,4.0625458984375,-0.02232307568192482,0.09154938161373138,-0.19502395391464233
1761469126779529000,4.072529052734375,0.004425181075930595,0.0726286843419075,-0.20878663659095764
1761469126789512000,4.082511962890625,0.023161988705396652,0.04696609079837799,-0.2065778523683548
1761469126799495000,4.092494873046875,0.03458615019917488,0.010358010418713093,-0.19568365812301636
1761469126809478100,4.10247802734375,0.05256585404276848,-0.06301577389240265,-0.17457279562950134
1761469126819460900,4.1124609375,0.0757281631231308,-0.16225792467594147,-0.13233959674835205
1761469126829443800,4.12244384765625,0.0925760418176651,-0.250328928232193,-0.0829029232263565
1761469126839427000,4.132427001953125,0.11699856072664261,-0.29707005620002747,-0.039525356143713
1761469126849410000,4.14241015625,0.14236630499362946,-0.27214065194129944,-0.03323516622185707
1761469126859394000,4.15239404296875,0.17494502663612366,-0.24330183863639832,-0.07145445793867111
1761469126869376000,4.1623759765625,0.22649981081485748,-0.24682427942752838,-0.12635387480258942
1761469126879360000,4.172360107421875,0.2856808602809906,-0.2674725651741028,-0.19571271538734436
1761469126889343000,4.182343017578125,0.3577856719493866,-0.3303374946117401,-0.2699400782585144
1761469126899326000,4.192325927734375,0.4314769506454468,-0.39348554611206055,-0.3165096938610077
1761469126909309000,4.202308837890625,0.47182485461235046,-0.3932487368583679,-0.3472752869129181
1761469126919292000,4.2122919921875,0.49242228269577026,-0.3170093595981598,-0.3747633695602417
1761469126929275100,4.222275146484375,0.4957367479801178,-0.19998888671398163,-0.4150788187980652
1761469126939257900,4.2322578125,0.48190560936927795,-0.06578180193901062,-0.4597626328468323
1761469126949240800,4.24224072265625,0.465280681848526,0.047628749161958694,-0.5075407028198242
1761469126959224000,4.25222412109375,0.44233623147010803,0.11080612242221832,-0.5370407700538635
1761469126969207000,4.26220703125,0.4229409396648407,0.15429554879665375,-0.539020299911499
1761469126979189800,4.272189697265625,0.38728734850883484,0.18163342773914337,-0.533627450466156
1761469126989173000,4.282173095703125,0.34081584215164185,0.20323677361011505,-0.5282629132270813
1761469126999156000,4.292156005859375,0.29025891423225403,0.20391054451465607,-0.5209253430366516
1761469127009139000,4.302138916015625,0.24790731072425842,0.19178137183189392,-0.5007702112197876
1761469127019122000,4.312121826171875,0.2177872210741043,0.17175200581550598,-0.4534985423088074
1761469127029106000,4.32210595703125,0.20236845314502716,0.14626601338386536,-0.38214021921157837
1761469127039089000,4.3320888671875,0.19944722950458527,0.12190155684947968,-0.2893948554992676
1761469127049072000,4.342072021484375,0.1961960643529892,0.11349685490131378,-0.1905623972415924
1761469127059054800,4.352054931640625,0.1890939474105835,0.11278978735208511,-0.10287144035100937
1761469127069037800,4.362037841796875,0.18038947880268097,0.1185486912727356,-0.0262178685516119
1761469127079021000,4.37202099609375,0.1647769659757614,0.12526969611644745,0.024676203727722168
1761469127089004000,4.382004150390625,0.13698247075080872,0.14003632962703705,0.04231306165456772
1761469127098986800,4.39198681640625,0.09557190537452698,0.16590015590190887,0.03731510788202286
1761469127108970000,4.401969970703125,0.07199589163064957,0.2216247320175171,0.042825113981962204
1761469127118953000,4.411952880859375,0.05851469933986664,0.2921260595321655,0.054555270820856094
1761469127128936000,4.42193603515625,0.04397425428032875,0.3603575825691223,0.08680756390094757
1761469127138919000,4.4319189453125,0.04229699447751045,0.434198260307312,0.11640433967113495
1761469127148902000,4.44190185546875,0.04033685848116875,0.50569748878479,0.13668622076511383
1761469127158885000,4.451885009765625,0.04923900589346886,0.5805411338806152,0.14583630859851837
1761469127168868000,4.4618681640625,0.06328500807285309,0.6582785844802856,0.14587560296058655
1761469127178851800,4.471851806640625,0.06182239577174187,0.7484005689620972,0.1269618272781372
1761469127188834800,4.481834716796875,0.05661460757255554,0.8067375421524048,0.08144181221723557
1761469127198818000,4.491818115234375,0.04795853793621063,0.7902840375900269,0.03960089385509491
1761469127208801000,4.501801025390625,0.03937482833862305,0.7239876389503479,0.026173491030931473
1761469127218783700,4.51178369140625,0.03168708086013794,0.6490111351013184,0.03552917391061783
1761469127228767000,4.52176708984375,0.022747503593564034,0.573585033416748,0.04533900320529938
1761469127238750000,4.53175,0.013843489810824394,0.5284002423286438,0.04076449200510979
1761469127248733000,4.54173291015625,0.0015718392096459866,0.5119938850402832,0.02308364026248455
1761469127258716000,4.5517158203125,-0.01643512398004532,0.502820611000061,-0.014566266909241676
1761469127268699000,4.561698974609375,-0.030323412269353867,0.48858827352523804,-0.04365350678563118
1761469127278682000,4.57168212890625,-0.0385347381234169,0.4826986789703369,-0.059517957270145416
1761469127288665000,4.5816650390625,-0.05146610364317894,0.46116238832473755,-0.05561176314949989
1761469127298647800,4.591647705078125,-0.061481721699237823,0.4168979823589325,-0.027116473764181137
1761469127308631800,4.6016318359375,-0.07440543919801712,0.34701794385910034,0.02048019878566265
1761469127318615000,4.611614990234375,-0.0952388122677803,0.25327014923095703,0.07264379411935806
1761469127328598000,4.621597900390625,-0.10719611495733261,0.14204052090644836,0.14603552222251892
1761469127338580700,4.631580810546875,-0.11850176751613617,0.00023253168910741806,0.2280624806880951
1761469127348564700,4.641564697265625,-0.1172889843583107,-0.12346071004867554,0.3138527572154999
1761469127358548000,4.6515478515625,-0.11598057299852371,-0.19365842640399933,0.3997143805027008
1761469127368531000,4.661531005859375,-0.10818848013877869,-0.22028890252113342,0.4690387547016144
1761469127378514200,4.67151416015625,-0.1104750707745552,-0.22214193642139435,0.5078346133232117
1761469127388497000,4.681496826171875,-0.11028358340263367,-0.18165549635887146,0.5082759261131287
1761469127398480000,4.69147998046875,-0.11781048029661179,-0.11127959936857224,0.4610431492328644
1761469127408463000,4.701463134765625,-0.12764407694339752,-0.04640968516469002,0.3827836215496063
1761469127418446000,4.711446044921875,-0.1329035609960556,-0.009934499859809875,0.30152764916419983
1761469127428428800,4.7214287109375,-0.1237441673874855,-0.0028866706416010857,0.248446524143219
1761469127438412000,4.731412109375,-0.09672027826309204,-0.019037144258618355,0.2458515465259552
1761469127448395000,4.74139501953125,-0.05660256743431091,-0.04973087087273598,0.2952805459499359
1761469127458378000,4.7513779296875,-0.01831669732928276,-0.07440824806690216,0.35597318410873413
1761469127468361000,4.76136083984375,0.024219313636422157,-0.0693231150507927,0.3949354290962219
1761469127478345000,4.771344970703125,0.07393760234117508,-0.012632139958441257,0.4098200798034668
1761469127488328000,4.781327880859375,0.11921373754739761,0.09395013749599457,0.4066193103790283
1761469127498311200,4.791311279296875,0.15533791482448578,0.21861988306045532,0.3887159526348114
1761469127508294000,4.8012939453125,0.19581475853919983,0.33606967329978943,0.3573400378227234
1761469127518276900,4.81127685546875,0.22534574568271637,0.4286124110221863,0.316567063331604
1761469127528260000,4.821260009765625,0.2542126476764679,0.4588194191455841,0.2785117030143738
1761469127538243000,4.8312431640625,0.2676294147968292,0.3943277895450592,0.2669426500797272
1761469127548225800,4.841225830078125,0.2688016891479492,0.3108943700790405,0.2959429919719696
1761469127558209000,4.851208984375,0.23430629074573517,0.23482514917850494,0.3233218789100647
1761469127568192000,4.86119189453125,0.1938672959804535,0.18874256312847137,0.3120337426662445
1761469127578175000,4.871175048828125,0.13906902074813843,0.14995336532592773,0.29687824845314026
1761469127588158000,4.881157958984375,0.10179971158504486,0.12076074630022049,0.31245315074920654
1761469127598141000,4.891140869140625,0.05045077204704285,0.128482848405838,0.3706701099872589
1761469127608124000,4.9011240234375,0.006504860240966082,0.17636285722255707,0.4172496497631073
1761469127618108200,4.911108154296875,-0.02618597447872162,0.2337164282798767,0.45916834473609924
1761469127628091100,4.921091064453125,-0.06248115375638008,0.3021097481250763,0.4517742395401001
1761469127638074000,4.93107421875,-0.10288609564304352,0.38500168919563293,0.4087889492511749
1761469127648057300,4.941057373046875,-0.13083352148532867,0.40291085839271545,0.36225324869155884
1761469127658040300,4.951040283203125,-0.12168238312005997,0.29779136180877686,0.35630083084106445
1761469127668023000,4.96102294921875,-0.14756064116954803,0.24583518505096436,0.3341938555240631
1761469127678006300,4.97100634765625,-0.1911666989326477,0.266669362783432,0.2651048004627228
1761469127687989200,4.9809892578125,-0.231647327542305,0.29198452830314636,0.213852196931839
1761469127697972000,4.990971923828125,-0.26925647258758545,0.2858201265335083,0.15361309051513672
1761469127707955200,5.000955078125,-0.30067136883735657,0.24448895454406738,0.09588461369276047
1761469127717938200,5.010938232421875,-0.32057103514671326,0.19708308577537537,0.06002967804670334
1761469127727921200,5.020921142578125,-0.3310708999633789,0.17724595963954926,0.05555180832743645
1761469127737904000,5.030904052734375,-0.34762832522392273,0.18249665200710297,0.09184722602367401
1761469127747888000,5.04088818359375,-0.37521448731422424,0.18759730458259583,0.15032023191452026
1761469127757871000,5.05087109375,-0.39779913425445557,0.18098361790180206,0.21115322411060333
1761469127767854300,5.060854248046875,-0.41837817430496216,0.1700756847858429,0.26945480704307556
1761469127777837300,5.07083740234375,-0.4225921034812927,0.16983440518379211,0.30070701241493225
1761469127787820000,5.080820068359375,-0.41781067848205566,0.17632675170898438,0.2987251579761505
1761469127797803300,5.09080322265625,-0.4016950726509094,0.19654732942581177,0.2819006145000458
1761469127807786200,5.1007861328125,-0.3866114914417267,0.2308572679758072,0.24802884459495544
1761469127817769000,5.11076904296875,-0.3611766993999481,0.25370290875434875,0.20857836306095123
1761469127827752200,5.120752197265625,-0.33444973826408386,0.27011165022850037,0.15967921912670135
1761469127837735200,5.130735107421875,-0.3005703389644623,0.2922811508178711,0.11393197625875473
1761469127847718100,5.14071826171875,-0.2661285698413849,0.26832205057144165,0.05693064630031586
1761469127857701000,5.150701171875,-0.22956418991088867,0.21926048398017883,-0.0005251877009868622
1761469127867685000,5.16068505859375,-0.20554706454277039,0.17854627966880798,-0.04874720796942711
1761469127877668000,5.170668212890625,-0.18712890148162842,0.12313149124383926,-0.08223512023687363
1761469127887651300,5.1806513671875,-0.17818288505077362,0.053774647414684296,-0.12164796143770218
1761469127897634300,5.19063427734375,-0.17453168332576752,-0.027232587337493896,-0.16741357743740082
1761469127907617000,5.200616943359375,-0.1796344518661499,-0.08486472815275192,-0.19353367388248444
1761469127917600300,5.210600341796875,-0.20076876878738403,-0.1055806577205658,-0.19207799434661865
1761469127927583200,5.220583251953125,-0.2123766839504242,-0.11011415719985962,-0.17448142170906067
1761469127937566200,5.230566162109375,-0.22287647426128387,-0.12404035776853561,-0.16613827645778656
1761469127947549200,5.240549072265625,-0.22675180435180664,-0.11698773503303528,-0.15959715843200684
1761469127957532200,5.2505322265625,-0.21183569729328156,-0.1106528788805008,-0.13981999456882477
1761469127967515100,5.26051513671875,-0.1833622008562088,-0.12802284955978394,-0.13143028318881989
1761469127977498000,5.270498046875,-0.149146169424057,-0.14744502305984497,-0.11164326220750809
1761469127987482000,5.280482177734375,-0.10308149456977844,-0.16068674623966217,-0.09839463233947754
1761469127997465000,5.290465087890625,-0.049251019954681396,-0.15806299448013306,-0.07638467103242874
1761469128007448300,5.3004482421875,-0.0003631790168583393,-0.13935355842113495,-0.0625179186463356
1761469128017431300,5.310431396484375,0.044147297739982605,-0.10644728690385818,-0.056411292403936386
1761469128027414000,5.3204140625,0.08367341756820679,-0.04979187995195389,-0.06643904745578766
1761469128037397200,5.330397216796875,0.11326087266206741,-0.008812757208943367,-0.0887904241681099
1761469128047380200,5.340380126953125,0.1405239850282669,0.015991905704140663,-0.10190051048994064
1761469128057363200,5.35036328125,0.15953655540943146,0.0288563035428524,-0.10387657582759857
1761469128067346200,5.36034619140625,0.1736997663974762,0.01152033731341362,-0.09809523075819016
1761469128077329200,5.3703291015625,0.19728657603263855,-0.013080613687634468,-0.10250063240528107
1761469128087312100,5.38031201171875,0.21726195514202118,-0.035385143011808395,-0.10688088089227676
1761469128097295400,5.39029541015625,0.23132184147834778,-0.05429411679506302,-0.10681136697530746
1761469128107279000,5.400279052734375,0.22779956459999084,-0.07024730741977692,-0.10467509925365448
1761469128117262000,5.410261962890625,0.22347672283649445,-0.07621438801288605,-0.10013359785079956
1761469128127245300,5.420245361328125,0.2152308225631714,-0.0855356976389885,-0.08694290369749069
1761469128137228300,5.430228271484375,0.21446861326694489,-0.10253039002418518,-0.06271666288375854
1761469128147211000,5.4402109375,0.2207818329334259,-0.13049909472465515,-0.024293383583426476
1761469128157194200,5.4501943359375,0.2324475347995758,-0.1725780963897705,0.011883528903126717
1761469128167177200,5.46017724609375,0.24533367156982422,-0.22817210853099823,0.05441269278526306
1761469128177160200,5.47016015625,0.25421425700187683,-0.28934067487716675,0.09962277859449387
1761469128187143200,5.48014306640625,0.25869131088256836,-0.35165640711784363,0.13447809219360352
1761469128197126100,5.490126220703125,0.2481531798839569,-0.40853139758110046,0.15186427533626556
1761469128207109000,5.500109130859375,0.23869140446186066,-0.41799408197402954,0.16100405156612396
1761469128217092400,5.51009228515625,0.20675984025001526,-0.36537906527519226,0.14497607946395874
1761469128227076000,5.520076171875,0.1689644753932953,-0.29051005840301514,0.10047560185194016
1761469128237059000,5.53005908203125,0.13483554124832153,-0.22023561596870422,0.043079692870378494
1761469128247042300,5.540042236328125,0.11156424134969711,-0.17489777505397797,0.01032780297100544
1761469128257025300,5.550025390625,0.1084696426987648,-0.15221217274665833,0.01183728314936161
1761469128267008000,5.560008056640625,0.11261552572250366,-0.15197457373142242,0.029530182480812073
1761469128276991200,5.5699912109375,0.1287718564271927,-0.17244362831115723,0.03006787598133087
1761469128286974200,5.57997412109375,0.15006518363952637,-0.1886514127254486,0.0094984769821167
1761469128296957200,5.589957275390625,0.18203137814998627,-0.17833273112773895,-0.022254658862948418
1761469128306940200,5.599940185546875,0.211375430226326,-0.15576086938381195,-0.06971105933189392
1761469128316923100,5.609923095703125,0.23864246904850006,-0.12765733897686005,-0.11971057951450348
1761469128326906000,5.619906005859375,0.24813830852508545,-0.10660677403211594,-0.16412660479545593
1761469128336889300,5.629889404296875,0.24089451134204865,-0.07320833951234818,-0.19743874669075012
1761469128346873300,5.639873291015625,0.22176285088062286,-0.021686790511012077,-0.21384139358997345
1761469128356856000,5.64985595703125,0.18254753947257996,0.016313321888446808,-0.21238091588020325
1761469128366839300,5.65983935546875,0.13108134269714355,0.0392017737030983,-0.2023797482252121
1761469128376822300,5.669822265625,0.08234017342329025,0.052914392203092575,-0.18274319171905518
1761469128386805000,5.679804931640625,0.03386418893933296,0.07451719045639038,-0.1391276717185974
1761469128396788200,5.689788330078125,-0.022492028772830963,0.08676186949014664,-0.09045067429542542
1761469128406771200,5.699771240234375,-0.07239151746034622,0.07584115862846375,-0.04463372007012367
1761469128416754200,5.709754150390625,-0.12270794063806534,0.04569417983293533,0.006786060519516468
1761469128426737200,5.719737060546875,-0.1670268476009369,0.01741996593773365,0.07133135199546814
1761469128436720000,5.72972021484375,-0.19639219343662262,-0.009052654728293419,0.14219753444194794
1761469128446703000,5.739703125,-0.23190507292747498,-0.014339825138449669,0.2151319533586502
1761469128456686300,5.749686279296875,-0.2530372738838196,0.005671166814863682,0.28327903151512146
1761469128466670300,5.75967041015625,-0.25870734453201294,0.022746074944734573,0.33394932746887207
1761469128476653000,5.769653076171875,-0.24716362357139587,0.019086625427007675,0.37194278836250305
1761469128486636300,5.77963623046875,-0.20716413855552673,-0.011984944343566895,0.4111431837081909
1761469128496619300,5.789619384765625,-0.1696745604276657,-0.046229999512434006,0.45667579770088196
1761469128506602200,5.799602294921875,-0.1454847902059555,-0.037275392562150955,0.4951551854610443
1761469128516585200,5.809585205078125,-0.12550441920757294,0.012054871767759323,0.5246219635009766
1761469128526568200,5.819568115234375,-0.13146091997623444,0.08020120114088058,0.54091477394104
1761469128536551200,5.82955126953125,-0.14918504655361176,0.14753788709640503,0.5456549525260925
1761469128546534100,5.8395341796875,-0.17093436419963837,0.2051122635602951,0.5604508519172668
1761469128556517000,5.84951708984375,-0.2000163346529007,0.24297070503234863,0.583154559135437
1761469128566500000,5.8595,-0.2420574575662613,0.2710737884044647,0.6188335418701172
1761469128576484000,5.869484130859375,-0.28159424662590027,0.3058256506919861,0.6616867184638977
1761469128586467300,5.87946728515625,-0.32074233889579773,0.34860366582870483,0.7068830132484436
1761469128596450000,5.889449951171875,-0.35664042830467224,0.39500898122787476,0.7382105588912964
1761469128606433300,5.899433349609375,-0.3798040449619293,0.43781140446662903,0.7734346985816956
1761469128616416300,5.909416259765625,-0.3975420296192169,0.4837386906147003,0.7935932278633118
1761469128626396000,5.91939599609375,-0.4133218824863434,0.5211565494537354,0.7997342944145203
1761469128636379000,5.92937890625,-0.42792001366615295,0.5656931400299072,0.7980021238327026
1761469128646361900,5.93936181640625,-0.44606006145477295,0.6055823564529419,0.7923795580863953
1761469128656344800,5.9493447265625,-0.46867454051971436,0.6200896501541138,0.8029941320419312
1761469128666328000,5.959328125,-0.4883388876914978,0.6177635192871094,0.8154065012931824
1761469128676310800,5.969310791015625,-0.510435938835144,0.6097423434257507,0.8094606995582581
1761469128686293800,5.979293701171875,-0.5311014652252197,0.6027002930641174,0.7932608127593994
1761469128696277800,5.98927783203125,-0.5452308654785156,0.6093131899833679,0.76423180103302
1761469128706261000,5.999260986328125,-0.5520979762077332,0.620155930519104,0.7317585945129395
1761469128716243700,6.00924365234375,-0.5559073686599731,0.6184922456741333,0.6976029872894287
1761469128726226700,6.019226806640625,-0.5558469295501709,0.6037541031837463,0.6818262934684753
1761469128736210000,6.0292099609375,-0.5536969304084778,0.5804035067558289,0.6895292401313782
1761469128746193000,6.03919287109375,-0.5543109178543091,0.5481072068214417,0.7140718102455139
1761469128756176000,6.04917578125,-0.560069739818573,0.5209248661994934,0.7499812841415405
1761469128766158800,6.059158935546875,-0.567096471786499,0.47515222430229187,0.7772710919380188
1761469128776141800,6.069141845703125,-0.5774545669555664,0.43326497077941895,0.8066197037696838
1761469128786125000,6.079125,-0.5842527151107788,0.3887942135334015,0.8307380080223083
1761469128796107800,6.089107666015625,-0.5889875292778015,0.3346838355064392,0.8589169383049011
1761469128806091800,6.099091796875,-0.5950424671173096,0.2685088813304901,0.8896308541297913
1761469128816074800,6.10907470703125,-0.6005504131317139,0.2159133106470108,0.9044537544250488
1761469128826058000,6.11905810546875,-0.6032965183258057,0.17153595387935638,0.9170346260070801
1761469128836040700,6.129040771484375,-0.6025135517120361,0.14667588472366333,0.9396371841430664
1761469128846023700,6.139023681640625,-0.6001513004302979,0.14886291325092316,0.965110182762146
1761469128856007000,6.1490068359375,-0.6101831793785095,0.21554766595363617,0.9734240174293518
1761469128865990000,6.158989990234375,-0.6253610253334045,0.333941787481308,0.96319580078125
1761469128875972900,6.168972900390625,-0.6388912200927734,0.44255349040031433,0.9574974179267883
1761469128885955800,6.178955810546875,-0.6370205283164978,0.5045373439788818,0.9586296677589417
1761469128895938800,6.188938720703125,-0.6275426149368286,0.5073333978652954,0.9913764595985413
1761469128905922000,6.198922119140625,-0.6039429903030396,0.4621419906616211,1.0334559679031372
1761469128915906000,6.208906005859375,-0.5911627411842346,0.39441806077957153,1.0755704641342163
1761469128925888800,6.218888671875,-0.56676185131073,0.3233529329299927,1.100081205368042
1761469128935871700,6.228871826171875,-0.5405225157737732,0.26212045550346375,1.1062064170837402
1761469128945855000,6.23885498046875,-0.5122681260108948,0.23082445561885834,1.0972766876220703
1761469128955837700,6.248837646484375,-0.4892764985561371,0.23568445444107056,1.0742558240890503
1761469128965820700,6.258820556640625,-0.46686670184135437,0.2874034643173218,1.0367448329925537
1761469128975804000,6.268803955078125,-0.44521281123161316,0.3871111571788788,0.9785234332084656
1761469128985787000,6.278786865234375,-0.40788713097572327,0.49174079298973083,0.9162335395812988
1761469128995769900,6.288769775390625,-0.35423216223716736,0.5289049744606018,0.8697424530982971
1761469129005752800,6.2987529296875,-0.3063490390777588,0.4881202280521393,0.8648585081100464
1761469129015735800,6.30873583984375,-0.2572430372238159,0.3903545141220093,0.8891994953155518
1761469129025719800,6.3187197265625,-0.23502032458782196,0.3077324628829956,0.9131959080696106
1761469129035703000,6.328703125,-0.23799827694892883,0.22996336221694946,0.9269980192184448
1761469129045685800,6.338685791015625,-0.2671813368797302,0.22345833480358124,0.9223036766052246
1761469129055668700,6.348668701171875,-0.2970353662967682,0.1742606908082962,0.950507640838623
1761469129065652000,6.35865185546875,-0.35706833004951477,0.13168634474277496,0.9856984615325928
1761469129075634700,6.368634765625,-0.4408372640609741,0.1686057597398758,0.9859660863876343
1761469129085617700,6.37861767578125,-0.5142049193382263,0.20698362588882446,0.9819821715354919
1761469129095601000,6.388600830078125,-0.5945248007774353,0.2577381432056427,0.9571791291236877
1761469129105583900,6.398583984375,-0.6524121761322021,0.32085585594177246,0.9237428307533264
1761469129115566800,6.40856689453125,-0.6672555804252625,0.31009429693222046,0.9464455246925354
1761469129125549800,6.4185498046875,-0.7125298976898193,0.403639554977417,0.9310729503631592
1761469129135533800,6.428533935546875,-0.7487331628799438,0.5110946297645569,0.896045982837677
1761469129145516800,6.438516845703125,-0.7717494964599609,0.502898633480072,0.8931224346160889
1761469129155500000,6.4485,-0.7961317896842957,0.4930678606033325,0.9378384947776794
1761469129165482800,6.458482666015625,-0.8455072641372681,0.5738946795463562,0.9458502531051636
1761469129175465700,6.4684658203125,-0.7306534051895142,0.6504688262939453,0.9840285778045654
1761469129185449000,6.478448974609375,-0.731140673160553,0.5276851654052734,1.0959973335266113
1761469129195432000,6.488431884765625,-0.8869097828865051,0.4885241687297821,1.0965893268585205
1761469129205414700,6.49841455078125,-0.9787194132804871,0.5001029968261719,1.0017139911651611
1761469129215398000,6.50839794921875,-0.9970512986183167,0.5066906213760376,0.9728524684906006
1761469129225380900,6.518380859375,-1.0172899961471558,0.46095332503318787,0.9964118003845215
1761469129235363800,6.52836376953125,-1.0342042446136475,0.4026130735874176,1.032301425933838
1761469129245347800,6.538347900390625,-1.0644162893295288,0.3620080351829529,1.0594196319580078
1761469129255330800,6.548330810546875,-1.084944725036621,0.36383575201034546,1.088331699371338
1761469129265313800,6.558313720703125,-1.098654866218567,0.41082847118377686,1.121862530708313
1761469129275297000,6.568297119140625,-1.1086920499801636,0.45966365933418274,1.1759604215621948
1761469129285279700,6.57827978515625,-1.104898452758789,0.5019592642784119,1.226381540298462
1761469129295262700,6.5882626953125,-1.0895053148269653,0.5177363753318787,1.2515995502471924
1761469129305246000,6.598245849609375,-1.0689809322357178,0.5332950949668884,1.2577929496765137
1761469129315229000,6.60822900390625,-1.0498695373535156,0.5610838532447815,1.246719241142273
1761469129325211600,6.618211669921875,-1.0274748802185059,0.6061735153198242,1.2162439823150635
1761469129335195000,6.62819482421875,-1.0035125017166138,0.6567234992980957,1.1770097017288208
1761469129345179000,6.638178955078125,-0.9776265621185303,0.6925008893013,1.1296782493591309
1761469129355161900,6.648161865234375,-0.9565785527229309,0.7206054925918579,1.0907970666885376
1761469129365144800,6.658144775390625,-0.936025083065033,0.7209053039550781,1.0481042861938477
1761469129375127800,6.6681279296875,-0.9164817333221436,0.7111352682113647,1.0015888214111328
1761469129385110800,6.67811083984375,-0.9027596712112427,0.6987273097038269,0.9678749442100525
1761469129395094000,6.688093994140625,-0.8895096778869629,0.6847177743911743,0.9370802640914917
1761469129405076700,6.69807666015625,-0.8756406903266907,0.6617092490196228,0.9010694622993469
1761469129415059700,6.708059814453125,-0.8689936995506287,0.6470714807510376,0.8606093525886536
1761469129425043000,6.71804296875,-0.861653208732605,0.6459563374519348,0.8265945315361023
1761469129435026000,6.72802587890625,-0.8496236801147461,0.6454975008964539,0.7961735129356384
1761469129445010000,6.738010009765625,-0.834735095500946,0.6512426137924194,0.7736691832542419
1761469129454993000,6.747992919921875,-0.8119089007377625,0.6475951075553894,0.7464346289634705
1761469129464976000,6.757975830078125,-0.7804566025733948,0.6572780609130859,0.7252629399299622
1761469129474958800,6.767958740234375,-0.7354441285133362,0.6477649807929993,0.7167762517929077
1761469129484941800,6.77794189453125,-0.6870233416557312,0.6254420280456543,0.7148730158805847
1761469129494924800,6.7879248046875,-0.6376686096191406,0.5976383686065674,0.7198110222816467
1761469129504907800,6.79790771484375,-0.5830397009849548,0.5504093170166016,0.7241467237472534
1761469129514891000,6.80789111328125,-0.5288147926330566,0.4945785403251648,0.7203485369682312
1761469129524873700,6.817873779296875,-0.4737643897533417,0.4372193515300751,0.6975477933883667
1761469129534856700,6.827856689453125,-0.4241100251674652,0.38118723034858704,0.651809573173523
1761469129544840000,6.83783984375,-0.36637791991233826,0.3482925593852997,0.5983203053474426
1761469129554824000,6.847823974609375,-0.3278012275695801,0.32432571053504944,0.5508403778076172
1761469129564807000,6.857806884765625,-0.28520020842552185,0.32329654693603516,0.5239946842193604
1761469129574790000,6.867789794921875,-0.25571420788764954,0.3294178247451782,0.510356605052948
1761469129584772900,6.87777294921875,-0.20468346774578094,0.31615087389945984,0.515336811542511
1761469129594755800,6.887755859375,-0.1492159366607666,0.2717570662498474,0.5480143427848816
1761469129604739000,6.897739013671875,-0.0920129120349884,0.19992738962173462,0.6087433695793152
1761469129614721800,6.9077216796875,-0.02837933786213398,0.13970772922039032,0.6673433184623718
1761469129624704500,6.91770458984375,0.025155406445264816,0.12547515332698822,0.7167906165122986
1761469129634687700,6.927687744140625,0.0675601214170456,0.15345832705497742,0.7297208309173584
1761469129644670700,6.937670654296875,0.10543245822191238,0.18959598243236542,0.6925843358039856
1761469129654654700,6.94765478515625,0.14036834239959717,0.1907813549041748,0.6072433590888977
1761469129664637700,6.9576376953125,0.17420068383216858,0.14723455905914307,0.5275610089302063
1761469129674620700,6.96762060546875,0.19482631981372833,0.05250592157244682,0.45436373353004456
1761469129684603600,6.977603759765625,0.1953418254852295,-0.06214132532477379,0.3799479305744171
1761469129694587000,6.9875869140625,0.19971127808094025,-0.18440811336040497,0.31967341899871826
1761469129704569900,6.99756982421875,0.1961684376001358,-0.28873884677886963,0.28076091408729553
1761469129714552600,7.007552490234375,0.19975119829177856,-0.39039358496665955,0.2611941397190094
1761469129724535800,7.017535888671875,0.20633958280086517,-0.47079360485076904,0.24304121732711792
1761469129734518800,7.027518798828125,0.2049773782491684,-0.573167622089386,0.24187742173671722
1761469129744501500,7.03750146484375,0.1949411928653717,-0.6883425712585449,0.2838899493217468
1761469129754485500,7.047485595703125,0.19412386417388916,-0.806010901927948,0.38662537932395935
1761469129764468700,7.05746875,0.18118570744991302,-0.8426557779312134,0.5358295440673828
1761469129774451700,7.06745166015625,0.15334635972976685,-0.76728355884552,0.6196024417877197
1761469129784434700,7.0774345703125,0.12077103555202484,-0.6540098786354065,0.5705742239952087
1761469129794417700,7.087417724609375,0.10056591033935547,-0.6347006559371948,0.38298356533050537
1761469129804400600,7.097400634765625,0.10071586072444916,-0.6938886046409607,0.1651863157749176
1761469129814383900,7.1073837890625,0.14857739210128784,-0.7270915508270264,-0.022456031292676926
1761469129824366800,7.117366943359375,0.19265058636665344,-0.7273039817810059,-0.1384282261133194
1761469129834349600,7.127349609375,0.22569109499454498,-0.6782618761062622,-0.17001543939113617
1761469129844333600,7.13733349609375,0.24945715069770813,-0.6587355732917786,-0.1610155552625656
1761469129854316800,7.14731689453125,0.2467937171459198,-0.6136040687561035,-0.13340763747692108
1761469129864299800,7.1572998046875,0.22608233988285065,-0.5389664173126221,-0.08682739734649658
1761469129874282500,7.167282470703125,0.18573971092700958,-0.45712587237358093,-0.042757146060466766
1761469129884265700,7.177265625,0.1658967286348343,-0.3972213566303253,0.009585682302713394
1761469129894248700,7.187248779296875,0.14128805696964264,-0.3675534725189209,0.0657658651471138
1761469129904231700,7.197231689453125,0.10862606763839722,-0.38095155358314514,0.13325928151607513
1761469129914214700,7.207214599609375,0.06599578261375427,-0.39590200781822205,0.17927096784114838
1761469129924197600,7.21719775390625,0.021163564175367355,-0.3899092376232147,0.21636123955249786
1761469129934180900,7.227180908203125,-0.031965430825948715,-0.3259259760379791,0.23148560523986816
1761469129944164900,7.237164794921875,-0.08385253697633743,-0.24489642679691315,0.24088028073310852
1761469129954147800,7.24714794921875,-0.11730477213859558,-0.1903197467327118,0.26323646306991577
1761469129964130600,7.257130615234375,-0.1376556009054184,-0.162474125623703,0.3074857294559479
1761469129974113800,7.26711376953125,-0.14740516245365143,-0.15293441712856293,0.36994031071662903
1761469129984096800,7.2770966796875,-0.13959333300590515,-0.17671824991703033,0.43344441056251526
1761469129994079700,7.287079833984375,-0.12078182399272919,-0.21178169548511505,0.511502206325531
1761469130004062700,7.297062744140625,-0.10843019932508469,-0.22509679198265076,0.6018266081809998
1761469130014045700,7.307045654296875,-0.11498930305242538,-0.2116427719593048,0.6951549649238586
1761469130024028700,7.317028564453125,-0.12386881560087204,-0.1698296219110489,0.801021933555603
1761469130034012700,7.3270126953125,-0.14893768727779388,-0.07553613185882568,0.9143649935722351
1761469130043995600,7.33699560546875,-0.1913032978773117,0.011875723488628864,0.9699573516845703
1761469130053978600,7.346978515625,-0.24262507259845734,0.024798445403575897,0.9673487544059753
1761469130063961900,7.3569619140625,-0.29345622658729553,0.014615795575082302,0.971287727355957
1761469130073944800,7.36694482421875,-0.3582823574542999,0.04799159616231918,1.0099109411239624
1761469130083927600,7.376927490234375,-0.42379170656204224,0.10599780827760696,1.0523416996002197
1761469130093910800,7.386910888671875,-0.48238658905029297,0.1685195118188858,1.0612447261810303
1761469130103893800,7.396893798828125,-0.5382601022720337,0.22394806146621704,1.0498532056808472
1761469130113876700,7.406876708984375,-0.589196503162384,0.3065643906593323,1.0559582710266113
1761469130123859700,7.416859619140625,-0.6465597748756409,0.42600253224372864,1.088634967803955
1761469130133843700,7.42684375,-0.6919986009597778,0.551091730594635,1.1245054006576538
1761469130143826700,7.43682666015625,-0.71533203125,0.6125448346138,1.1175949573516846
1761469130153809700,7.4468095703125,-0.7211504578590393,0.6186187267303467,1.066022515296936
1761469130163792600,7.456792724609375,-0.7156904339790344,0.6057033538818359,1.0198060274124146
1761469130173775600,7.466775634765625,-0.7123902440071106,0.5917044878005981,0.9978745579719543
1761469130183758800,7.4767587890625,-0.70881587266922,0.5797587037086487,0.9928113222122192
1761469130193741800,7.486741943359375,-0.7106326818466187,0.5687622427940369,1.0040104389190674
1761469130203724500,7.496724609375,-0.7164109945297241,0.5470799803733826,1.0185840129852295
1761469130213707800,7.506707763671875,-0.7417863607406616,0.5385352373123169,1.0189310312271118
1761469130223691800,7.51669189453125,-0.7687800526618958,0.5417065620422363,1.0167157649993896
1761469130233674800,7.5266748046875,-0.7979464530944824,0.5477913618087769,1.018572449684143
1761469130243657700,7.53665771484375,-0.8234770894050598,0.5431204438209534,1.0228326320648193
1761469130253640700,7.546640625,-0.8471094369888306,0.5280123353004456,1.026808261871338
1761469130263623700,7.556623779296875,-0.863753616809845,0.5081127882003784,1.0342695713043213
1761469130273606700,7.566606689453125,-0.8751809597015381,0.46386411786079407,0.9829760193824768
1761469130283589600,7.576589599609375,-0.8783392310142517,0.372776597738266,0.9177022576332092
1761469130293572600,7.586572509765625,-0.875407874584198,0.2853034734725952,0.8636451363563538
1761469130303555800,7.596555908203125,-0.8691630959510803,0.23983216285705566,0.8167752027511597
1761469130313539800,7.606539794921875,-0.8654205799102783,0.24643999338150024,0.763028085231781
1761469130323522800,7.616522705078125,-0.8669754862785339,0.2679087519645691,0.7275594472885132
1761469130333505500,7.626505615234375,-0.8847020268440247,0.2993638813495636,0.7033326625823975
1761469130343488800,7.63648876953125,-0.8917834162712097,0.3452775180339813,0.6930580735206604
1761469130353471700,7.6464716796875,-0.9000951647758484,0.4049549698829651,0.6988072991371155
1761469130363454700,7.656454833984375,-0.9049667716026306,0.4648407995700836,0.7024595737457275
1761469130373437700,7.666437744140625,-0.8990257978439331,0.46376994252204895,0.7499232292175293
1761469130383420700,7.676420654296875,-0.8858126401901245,0.4706709682941437,0.8044513463973999
1761469130393403600,7.686403564453125,-0.9270389080047607,0.41650015115737915,0.8568530082702637
1761469130403388000,7.696387939453125,-0.8920555114746094,0.33042773604393005,0.8735583424568176
1761469130413370600,7.70637060546875,-0.8070870637893677,0.28885418176651,0.8714562654495239
1761469130423353600,7.716353515625,-0.7590264678001404,0.23136810958385468,0.8915907144546509
1761469130433336800,7.7263369140625,-0.7427915930747986,0.1462010145187378,0.9058322310447693
1761469130443319800,7.73631982421875,-0.7396140098571777,0.05480223521590233,0.8969289660453796
1761469130453302500,7.746302490234375,-0.7650461196899414,0.011030788533389568,0.7641725540161133
1761469130463285800,7.75628564453125,-0.7458112239837646,0.04112323001027107,0.9101167321205139
1761469130473268700,7.766268798828125,-0.6735045313835144,0.11585339158773422,1.029421329498291
1761469130483251700,7.776251708984375,-0.6829426884651184,0.2287169247865677,1.0396450757980347
1761469130493235700,7.786235595703125,-0.6852127313613892,0.30524367094039917,1.0330228805541992
1761469130503218700,7.79621875,-0.6856427192687988,0.4185132086277008,1.0977143049240112
1761469130513201700,7.80620166015625,-0.7114306092262268,0.4639342129230499,1.1307214498519897
1761469130523185000,7.816184814453125,-0.7442185878753662,0.46073371171951294,1.1172196865081787
1761469130533167600,7.826167724609375,-0.7540459632873535,0.4684228003025055,1.0980302095413208
1761469130543150600,7.836150634765625,-0.7420799732208252,0.4713329076766968,1.0867329835891724
1761469130553133800,7.8461337890625,-0.7123780250549316,0.46241211891174316,1.0908223390579224
1761469130563116800,7.85611669921875,-0.6653691530227661,0.4406384527683258,1.100982666015625
1761469130573099500,7.866099609375,-0.5994247794151306,0.43023747205734253,1.1188464164733887
1761469130583083500,7.87608349609375,-0.5431525707244873,0.42921924591064453,1.1370759010314941
1761469130593066800,7.886066650390625,-0.49305182695388794,0.4427715539932251,1.1640704870224
1761469130603049700,7.8960498046875,-0.4745652973651886,0.4692225158214569,1.186774492263794
1761469130613032700,7.90603271484375,-0.4823340177536011,0.47085878252983093,1.2000371217727661
1761469130623015400,7.916015380859375,-0.5304434895515442,0.44953295588493347,1.2006497383117676
1761469130632998400,7.925998291015625,-0.5980949997901917,0.39769214391708374,1.1704875230789185
1761469130642981600,7.935981689453125,-0.6608296632766724,0.3643108904361725,1.1349055767059326
1761469130652964400,7.94596435546875,-0.6919811964035034,0.33924761414527893,1.1109353303909302
1761469130662948400,7.9559482421875,-0.715287446975708,0.34072402119636536,1.0816197395324707
1761469130672931300,7.965931396484375,-0.7286381125450134,0.3729035556316376,1.0281556844711304
1761469130682914600,7.97591455078125,-0.7342537641525269,0.44081562757492065,0.9529427886009216
1761469130692897300,7.985897216796875,-0.7298656702041626,0.5153585076332092,0.8724814653396606
1761469130702880300,7.99588037109375,-0.7275164723396301,0.5498420596122742,0.812126636505127
1761469130712863500,8.005863525390625,-0.730222225189209,0.5322902202606201,0.7803250551223755
1761469130722845400,8.015845458984375,-0.7347008585929871,0.44746243953704834,0.7574165463447571
1761469130732828400,8.025828369140624,-0.7475605010986328,0.3418034017086029,0.7386596202850342
1761469130742812400,8.0358125,-0.7693701386451721,0.23717288672924042,0.709036648273468
1761469130752795400,8.04579541015625,-0.7966582179069519,0.1739760786294937,0.6779154539108276
1761469130762778600,8.055778564453124,-0.8115619421005249,0.1485186219215393,0.6402389407157898
1761469130772761300,8.06576123046875,-0.8286207914352417,0.11996100842952728,0.602185070514679
1761469130782744300,8.075744384765626,-0.8460401296615601,0.08536498993635178,0.5976941585540771
1761469130792727600,8.0857275390625,-0.8482641577720642,0.08221020549535751,0.6134781837463379
1761469130802710500,8.09571044921875,-0.849839448928833,0.10577932745218277,0.6342163681983948
1761469130812693200,8.105693359375,-0.8482497930526733,0.14084038138389587,0.6511108875274658
1761469130822677200,8.11567724609375,-0.8551307320594788,0.17555029690265656,0.6588003039360046
1761469130832660500,8.125660400390625,-0.8545000553131104,0.20550872385501862,0.6647067070007324
1761469130842643500,8.1356435546875,-0.8534380793571472,0.22165079414844513,0.6549035310745239
1761469130852626400,8.14562646484375,-0.8501126170158386,0.21854235231876373,0.6519982814788818
1761469130862609400,8.155609375,-0.8335503339767456,0.2364148497581482,0.6483081579208374
1761469130872592400,8.16559228515625,-0.805130660533905,0.27202558517456055,0.63771653175354
1761469130882575600,8.17557568359375,-0.7798289060592651,0.31503188610076904,0.59937983751297
1761469130892558300,8.185558349609375,-0.7544817328453064,0.3707156479358673,0.5692182183265686
1761469130902541300,8.195541259765625,-0.731080174446106,0.4411899745464325,0.5482056736946106
1761469130912525300,8.205525390625,-0.7121975421905518,0.49891024827957153,0.5364118814468384
1761469130922508500,8.215508544921875,-0.7083742022514343,0.5454620122909546,0.5308918356895447
1761469130932491300,8.2254912109375,-0.7299628853797913,0.553280770778656,0.5083186030387878
1761469130942474200,8.23547412109375,-0.7606257200241089,0.5162122249603271,0.47098058462142944
1761469130952457500,8.24545751953125,-0.784315824508667,0.479763925075531,0.4439241886138916
1761469130962440400,8.2554404296875,-0.7981741428375244,0.4587702751159668,0.4289168119430542
1761469130972423400,8.26542333984375,-0.8022226691246033,0.44038674235343933,0.4281202554702759
1761469130982406400,8.275406494140626,-0.7888209223747253,0.43122899532318115,0.42369529604911804
1761469130992390400,8.285390380859376,-0.7610607147216797,0.4463597536087036,0.42625540494918823
1761469131002373400,8.295373291015625,-0.7198202610015869,0.43555328249931335,0.4278269112110138
1761469131012356600,8.305356689453125,-0.6720245480537415,0.3900180160999298,0.4194275736808777
1761469131022339300,8.31533935546875,-0.6229532957077026,0.33319559693336487,0.40372660756111145
1761469131032322300,8.325322265625,-0.5831387639045715,0.3010621666908264,0.38605281710624695
1761469131042305500,8.335305419921875,-0.5386101007461548,0.28356310725212097,0.3564405143260956
1761469131052288500,8.34528857421875,-0.48374760150909424,0.2921270430088043,0.3422839641571045
1761469131062271200,8.355271240234375,-0.42968854308128357,0.2902035415172577,0.33143311738967896
1761469131072255500,8.36525537109375,-0.38820260763168335,0.27451831102371216,0.32577577233314514
1761469131082238500,8.375238525390625,-0.35728922486305237,0.2723064124584198,0.3301478922367096
1761469131092221400,8.385221435546875,-0.3391656279563904,0.2692278027534485,0.33400893211364746
1761469131102204400,8.395204345703124,-0.33137810230255127,0.2746754288673401,0.32414329051971436
1761469131112187400,8.4051875,-0.32134491205215454,0.27667945623397827,0.28733041882514954
1761469131122170400,8.41517041015625,-0.3065391182899475,0.255392849445343,0.2445896416902542
1761469131132153600,8.425153564453124,-0.29557913541793823,0.22760780155658722,0.22484497725963593
1761469131142136300,8.43513623046875,-0.2790413796901703,0.20494233071804047,0.23314525187015533
1761469131152120300,8.445120361328126,-0.27504876255989075,0.1823805570602417,0.24950291216373444
1761469131162103300,8.455103271484376,-0.2797531485557556,0.1778842955827713,0.2544914782047272
1761469131172086500,8.46508642578125,-0.28943854570388794,0.17406399548053741,0.2380821406841278
1761469131182069200,8.4750693359375,-0.3049209415912628,0.17148751020431519,0.21817582845687866
1761469131192052500,8.485052490234375,-0.3120661973953247,0.15900661051273346,0.20557188987731934
1761469131202035500,8.495035400390625,-0.3044492304325104,0.13906505703926086,0.21004906296730042
1761469131212018400,8.505018310546875,-0.283779114484787,0.09103202074766159,0.23326729238033295
1761469131222001400,8.51500146484375,-0.25613197684288025,0.03955867141485214,0.2733139991760254
1761469131231985400,8.5249853515625,-0.2378097027540207,0.012922266498208046,0.3095257878303528
1761469131241968400,8.534968505859375,-0.2341567873954773,-0.005524897016584873,0.3297702670097351
1761469131251951400,8.544951416015625,-0.2607748210430145,0.009548595175147057,0.32288628816604614
1761469131261934600,8.5549345703125,-0.3008919358253479,0.036463480442762375,0.2938513457775116
1761469131271917300,8.564917236328125,-0.32021450996398926,0.04472007974982262,0.24445262551307678
1761469131281900300,8.574900390625,-0.308307021856308,0.022128814831376076,0.21482911705970764
1761469131291883500,8.584883544921874,-0.2729248106479645,-0.026509294286370277,0.2444107085466385
1761469131301869300,8.594869384765625,-0.21171674132347107,-0.05264831706881523,0.35279345512390137
1761469131311852500,8.6048525390625,-0.12464283406734467,-0.06592950224876404,0.5061105489730835
1761469131321835500,8.61483544921875,-0.0828121230006218,-0.12452061474323273,0.5336527228355408
1761469131331819500,8.624819580078125,-0.03000776469707489,-0.2022436559200287,0.4575698971748352
1761469131341802200,8.63480224609375,0.0039309123530983925,-0.19902104139328003,0.377175897359848
1761469131351785500,8.644785400390624,0.012238909490406513,-0.1813959777355194,0.2881051301956177
1761469131361768400,8.6547685546875,0.0026301397010684013,-0.15617744624614716,0.20209181308746338
1761469131371751400,8.66475146484375,-0.008107192814350128,-0.11962423473596573,0.13554048538208008
1761469131381734400,8.674734375,-0.01483624242246151,-0.08543407917022705,0.08751260489225388
1761469131391717400,8.68471728515625,-0.008795661851763725,-0.0641959011554718,0.0710792988538742
1761469131401700600,8.69470068359375,-0.012442574836313725,-0.04505215212702751,0.07443536818027496
