time,seconds_elapsed,z,y,x
1761469142242569200,0.1225693359375,0.10124846547842026,0.34161826968193054,-0.280963271856308
1761469142252552200,0.13255224609375,0.0980801060795784,0.32974696159362793,-0.22207917273044586
1761469142262536200,0.1425361328125,0.09316545724868774,0.2963128089904785,-0.15575507283210754
1761469142272519200,0.152519287109375,0.0854012742638588,0.24130387604236603,-0.0915963277220726
1761469142282502100,0.162502197265625,0.09133094549179077,0.1593984216451645,-0.01608300395309925
1761469142292485000,0.172485107421875,0.09464658051729202,0.07326646149158478,0.06407788395881653
1761469142302468400,0.18246826171875,0.0906614363193512,-0.0069451844319701195,0.13342255353927612
1761469142312451000,0.192451171875,0.08524349331855774,-0.05614868178963661,0.18388758599758148
1761469142322434300,0.202434326171875,0.06910474598407745,-0.07454952597618103,0.209011048078537
1761469142332417300,0.212417236328125,0.0486559234559536,-0.07870485633611679,0.2244211584329605
1761469142342400300,0.222400146484375,0.03020484931766987,-0.07929662615060806,0.23461255431175232
1761469142352383200,0.23238330078125,0.02811373583972454,-0.08373025804758072,0.24234025180339813
1761469142362366200,0.2423662109375,0.02305241860449314,-0.07822421938180923,0.23846088349819183
1761469142372349200,0.25234912109375,0.018675247207283974,-0.055170562118291855,0.226196750998497
1761469142382333200,0.262333251953125,0.010861674323678017,-0.013215597718954086,0.2163722962141037
1761469142392316200,0.272316162109375,0.0008844071999192238,0.027703607454895973,0.19978666305541992
1761469142402299100,0.282299072265625,-0.025272361934185028,0.05470219999551773,0.19307708740234375
1761469142412282000,0.2922822265625,-0.06267379224300385,0.07991781085729599,0.20438167452812195
1761469142422265300,0.302265380859375,-0.0982327088713646,0.10022377967834473,0.23584678769111633
1761469142432248000,0.312248046875,-0.13370734453201294,0.08302907645702362,0.30656304955482483
1761469142442231300,0.322231201171875,-0.14093703031539917,0.0626363530755043,0.4369983375072479
1761469142452214300,0.33221435546875,-0.12043469399213791,0.10703683644533157,0.5742954611778259
1761469142462197200,0.342197265625,-0.08878989517688751,0.21422269940376282,0.6367115378379822
1761469142472180200,0.35218017578125,-0.051980748772621155,0.34789928793907166,0.6377863883972168
1761469142482163200,0.3621630859375,0.0023707395885139704,0.404887855052948,0.6150286197662354
1761469142492146200,0.372146240234375,0.06963685899972916,0.3647835850715637,0.5984222292900085
1761469142502129400,0.38212939453125,0.13410991430282593,0.277831494808197,0.6032244563102722
1761469142512113200,0.392113037109375,0.17119470238685608,0.19758886098861694,0.577462911605835
1761469142522096000,0.40209619140625,0.17150166630744934,0.11660993099212646,0.533722996711731
1761469142532079000,0.4120791015625,0.1597382128238678,0.042837172746658325,0.48633280396461487
1761469142542062300,0.422062255859375,0.12022565305233002,-0.03201029822230339,0.4655710756778717
1761469142552045000,0.432045166015625,0.07420223206281662,-0.09839916974306107,0.46309804916381836
1761469142562028300,0.4420283203125,0.0034644827246665955,-0.10850605368614197,0.46491438150405884
1761469142572011300,0.45201123046875,-0.09048491716384888,-0.07412996888160706,0.45217862725257874
1761469142581994200,0.461994140625,-0.19380277395248413,-0.004587158560752869,0.433312326669693
1761469142591977200,0.471977294921875,-0.27998557686805725,0.1018412783741951,0.4102344214916229
1761469142601960200,0.481960205078125,-0.35553401708602905,0.20679272711277008,0.3637198507785797
1761469142611943200,0.491943115234375,-0.4030618667602539,0.28465211391448975,0.30402296781539917
1761469142621926400,0.501926513671875,-0.42260271310806274,0.30190473794937134,0.2439407855272293
1761469142631914800,0.511914794921875,-0.419485479593277,0.294758677482605,0.20437206327915192
1761469142641898000,0.52189794921875,-0.3900749087333679,0.26582086086273193,0.1879943162202835
1761469142651881000,0.531880859375,-0.366829514503479,0.20573142170906067,0.18717992305755615
1761469142661864000,0.541864013671875,-0.343107670545578,0.14320188760757446,0.17755478620529175
1761469142671847000,0.551846923828125,-0.34120965003967285,0.08005328476428986,0.1404436230659485
1761469142681830000,0.561829833984375,-0.3281187415122986,0.013424175791442394,0.09376801550388336
1761469142691813000,0.571813232421875,-0.33490872383117676,-0.03333427384495735,0.061590105295181274
1761469142701796000,0.581796142578125,-0.35468026995658875,-0.04707099124789238,0.04561026021838188
1761469142711778800,0.59177880859375,-0.39134159684181213,-0.026705265045166016,0.04041709378361702
1761469142721762000,0.601761962890625,-0.45132240653038025,0.01476252730935812,0.04266473650932312
1761469142731745000,0.6117451171875,-0.4881826937198639,0.07028810679912567,0.06986360251903534
1761469142741728000,0.62172802734375,-0.5123541355133057,0.10470278561115265,0.1046188548207283
1761469142751711000,0.6317109375,-0.5100222826004028,0.10376401990652084,0.14184986054897308
1761469142761695000,0.641695068359375,-0.5007905960083008,0.07399359345436096,0.16858293116092682
1761469142771678000,0.651677978515625,-0.4797801077365875,0.06278861314058304,0.18137623369693756
1761469142781661000,0.661660888671875,-0.4598691463470459,0.0694691389799118,0.1729147583246231
1761469142791644000,0.671643798828125,-0.4446856677532196,0.08304779976606369,0.15307261049747467
1761469142801627000,0.681626953125,-0.4246085584163666,0.10636790096759796,0.13665954768657684
1761469142811609900,0.69160986328125,-0.4071137309074402,0.12671418488025665,0.13275642693042755
1761469142821593000,0.701593017578125,-0.39464983344078064,0.1415686011314392,0.12927766144275665
1761469142831575800,0.711575927734375,-0.3789534270763397,0.14747709035873413,0.11510244756937027
1761469142841559000,0.72155908203125,-0.3745640218257904,0.13274864852428436,0.10570154339075089
1761469142851542000,0.7315419921875,-0.36872050166130066,0.09570248425006866,0.09735573083162308
1761469142861525000,0.74152490234375,-0.3529459238052368,0.04801272973418236,0.0879756286740303
1761469142871508000,0.751508056640625,-0.33277300000190735,0.008409126661717892,0.07847213745117188
1761469142881491000,0.761490966796875,-0.31008899211883545,-0.017339583486318588,0.06802642345428467
1761469142891475000,0.771474853515625,-0.2827298045158386,-0.027675578370690346,0.06514594703912735
1761469142901458000,0.7814580078125,-0.25838330388069153,-0.023527007550001144,0.06511225551366806
1761469142911441000,0.79144091796875,-0.24656952917575836,-0.026479654014110565,0.057403743267059326
1761469142921424000,0.801423828125,-0.22684583067893982,-0.04434031993150711,0.04776647314429283
1761469142931406800,0.81140673828125,-0.19655025005340576,-0.05728674679994583,0.04677790775895119
1761469142941390000,0.82139013671875,-0.15848952531814575,-0.05870281532406807,0.05800043046474457
1761469142951372800,0.831372802734375,-0.10498715937137604,-0.05659918487071991,0.06468816101551056
1761469142961356000,0.84135595703125,-0.05759115144610405,-0.05691753700375557,0.06373666971921921
1761469142971339000,0.851339111328125,-0.006829438731074333,-0.04133724421262741,0.05900156870484352
1761469142981322000,0.861322021484375,0.04035371541976929,-0.007219730876386166,0.05711193382740021
1761469142991305000,0.871304931640625,0.08184896409511566,0.005098720081150532,0.055838409811258316
1761469143001288000,0.881287841796875,0.11352617293596268,-0.03126797825098038,0.03673188015818596
1761469143011271000,0.89127099609375,0.13447006046772003,-0.05602951720356941,0.03047638013958931
1761469143021255000,0.9012548828125,0.13806802034378052,-0.03758690133690834,0.035828329622745514
1761469143031238100,0.911238037109375,0.13076350092887878,-0.0011138441041111946,0.04523434862494469
1761469143041220900,0.921220947265625,0.1172633096575737,0.01252842228859663,0.04747181013226509
1761469143051203800,0.931203857421875,0.09534123539924622,0.027944132685661316,0.048231340944767
1761469143061187000,0.94118701171875,0.06967334449291229,0.044214632362127304,0.04104579985141754
1761469143071169800,0.951169677734375,0.0315169095993042,0.01934177242219448,0.031868815422058105
1761469143081153000,0.961153076171875,-0.004091688431799412,-0.010333397425711155,0.0356162004172802
1761469143091136000,0.971135986328125,-0.034413907676935196,-0.022879814729094505,0.05887731537222862
1761469143101119000,0.981118896484375,-0.04965352639555931,-0.02754305489361286,0.10246788710355759
1761469143111102000,0.99110205078125,-0.06341435015201569,-0.0036036339588463306,0.15834100544452667
1761469143121085000,1.0010849609375,-0.06319215893745422,-0.003339257324114442,0.20395271480083466
1761469143131068000,1.01106787109375,-0.052247367799282074,-0.02350151725113392,0.23717086017131805
1761469143141051100,1.021051025390625,-0.04622330516576767,-0.07624909281730652,0.2510356605052948
1761469143151035100,1.03103515625,-0.05259199067950249,-0.12219927459955215,0.24652904272079468
1761469143161017900,1.041017822265625,-0.06424956023693085,-0.11277807503938675,0.22532743215560913
1761469143171000800,1.051000732421875,-0.08669015765190125,-0.10061941295862198,0.17243333160877228
1761469143180984000,1.060984130859375,-0.14689548313617706,-0.09701138734817505,0.07907535880804062
1761469143190966800,1.070966796875,-0.17484936118125916,-0.08165666460990906,-0.020241912454366684
1761469143200950000,1.080949951171875,-0.1476343274116516,-0.09721174091100693,-0.09392765164375305
1761469143210933000,1.09093310546875,-0.08655578643083572,-0.16690745949745178,-0.1322457492351532
1761469143220916000,1.100916015625,-0.009843316860496998,-0.25383180379867554,-0.12265173345804214
1761469143230899000,1.11089892578125,0.07671714574098587,-0.32744503021240234,-0.09570613503456116
1761469143240882000,1.1208818359375,0.15275156497955322,-0.4032108783721924,-0.08368762582540512
1761469143250865000,1.130864990234375,0.23376546800136566,-0.44711655378341675,-0.08170570433139801
1761469143260848000,1.14084814453125,0.29263561964035034,-0.4898167848587036,-0.08375092595815659
1761469143270830800,1.150830810546875,0.3448610007762909,-0.5153669118881226,-0.10278666764497757
1761469143280814800,1.16081494140625,0.3696071207523346,-0.48637622594833374,-0.14658933877944946
1761469143290797800,1.1707978515625,0.3621273636817932,-0.4166141748428345,-0.22537070512771606
1761469143300781000,1.180781005859375,0.3352371156215668,-0.30754509568214417,-0.320695698261261
1761469143310764000,1.190763916015625,0.2870751917362213,-0.16457170248031616,-0.408488929271698
1761469143320747000,1.2007470703125,0.2394430786371231,-0.01816708967089653,-0.4690103828907013
1761469143330730000,1.21072998046875,0.20057716965675354,0.09201987087726593,-0.4757117033004761
1761469143340713000,1.220712890625,0.17663191258907318,0.15711727738380432,-0.44161227345466614
1761469143350696000,1.230696044921875,0.16029953956604004,0.2052384614944458,-0.39210039377212524
1761469143360679000,1.240678955078125,0.15043172240257263,0.23493227362632751,-0.3374379873275757
1761469143370662000,1.250661865234375,0.15635192394256592,0.24649544060230255,-0.2771400213241577
1761469143380645000,1.26064501953125,0.16402220726013184,0.23023781180381775,-0.1992771178483963
1761469143390627800,1.2706279296875,0.17523357272148132,0.20376092195510864,-0.1143726110458374
1761469143400610800,1.28061083984375,0.18409951031208038,0.1607426106929779,-0.04166245833039284
1761469143410594000,1.290593994140625,0.19983293116092682,0.11253194510936737,0.0035854484885931015
1761469143420578000,1.300578125,0.2174755334854126,0.08625926822423935,0.02763645350933075
1761469143430561000,1.31056103515625,0.21003200113773346,0.08161764591932297,0.041567713022232056
1761469143440544000,1.3205439453125,0.21811601519584656,0.0765615701675415,0.0493025928735733
1761469143450527000,1.33052685546875,0.23451735079288483,0.08520565927028656,0.05981382355093956
1761469143460510000,1.340510009765625,0.23251084983348846,0.11760230362415314,0.07956914603710175
1761469143470493200,1.3504931640625,0.22188696265220642,0.18763890862464905,0.111595518887043
1761469143480476000,1.360475830078125,0.20434296131134033,0.28518885374069214,0.13313117623329163
1761469143490459000,1.370458984375,0.1829465925693512,0.3900393843650818,0.15561464428901672
1761469143500442000,1.380442138671875,0.1548972725868225,0.4555046260356903,0.16478794813156128
1761469143510424800,1.3904248046875,0.1289418488740921,0.4757571518421173,0.1691504865884781
1761469143520407800,1.40040771484375,0.1033988669514656,0.464077353477478,0.18052206933498383
1761469143530391000,1.41039111328125,0.07894864678382874,0.4333636462688446,0.17989382147789001
1761469143540374000,1.4203740234375,0.059225454926490784,0.3926997482776642,0.1740892082452774
1761469143550357000,1.43035693359375,0.04125843942165375,0.3576296269893646,0.15725962817668915
1761469143560341000,1.440341064453125,0.022236904129385948,0.32552728056907654,0.14143317937850952
1761469143570324000,1.450323974609375,0.005568711087107658,0.3029860258102417,0.13026762008666992
1761469143580307000,1.460306884765625,-0.014150666072964668,0.30007269978523254,0.11673428863286972
1761469143590290200,1.470290283203125,-0.039457883685827255,0.31422606110572815,0.0951661467552185
1761469143600273000,1.48027294921875,-0.06228606402873993,0.33907410502433777,0.07774148881435394
1761469143610256000,1.490255859375,-0.08338815718889236,0.3691595792770386,0.060787271708250046
1761469143620239000,1.500239013671875,-0.09837409853935242,0.3706277906894684,0.05603953078389168
1761469143630221800,1.510221923828125,-0.11940880864858627,0.35286426544189453,0.06355443596839905
1761469143640201200,1.520201171875,-0.1371440440416336,0.32395264506340027,0.07269086688756943
1761469143650184400,1.530184326171875,-0.15992471575737,0.30123719573020935,0.08721308410167694
1761469143660167200,1.540167236328125,-0.18073627352714539,0.2838166058063507,0.11100070178508759
1761469143670150400,1.550150390625,-0.19139398634433746,0.274419367313385,0.13996444642543793
1761469143680133400,1.56013330078125,-0.20038795471191406,0.24678239226341248,0.16677522659301758
1761469143690117400,1.570117431640625,-0.1932128667831421,0.18992042541503906,0.18686266243457794
1761469143700100400,1.580100341796875,-0.1796681433916092,0.1334484964609146,0.21612486243247986
1761469143710083300,1.590083251953125,-0.17745478451251984,0.09435728192329407,0.24008958041667938
1761469143720066300,1.60006640625,-0.18696613609790802,0.09197529405355453,0.26321732997894287
1761469143730049300,1.61004931640625,-0.21102246642112732,0.09322644770145416,0.2668434977531433
1761469143740032500,1.620032470703125,-0.23736943304538727,0.09106820076704025,0.2614675760269165
1761469143750015200,1.63001513671875,-0.25356438755989075,0.09561687707901001,0.25809523463249207
1761469143759998200,1.639998291015625,-0.26861655712127686,0.0744657889008522,0.2549492418766022
1761469143769981400,1.6499814453125,-0.27248135209083557,0.017785727977752686,0.2790282070636749
1761469143779964400,1.65996435546875,-0.2614700198173523,-0.0792585238814354,0.3296765685081482
1761469143789947400,1.669947509765625,-0.2393881380558014,-0.1477012187242508,0.40471673011779785
1761469143799930400,1.679930419921875,-0.24832992255687714,-0.1676437258720398,0.47364163398742676
1761469143809913300,1.689913330078125,-0.25796228647232056,-0.14946791529655457,0.507984459400177
1761469143819896300,1.699896240234375,-0.2782997786998749,-0.11399155855178833,0.5339775085449219
1761469143829879300,1.70987939453125,-0.30283015966415405,-0.09207320958375931,0.5665836334228516
1761469143839863300,1.71986328125,-0.3103518784046173,-0.09156452864408493,0.6148161292076111
1761469143849846300,1.72984619140625,-0.31897997856140137,-0.11007297039031982,0.6578256487846375
1761469143859829500,1.73982958984375,-0.3197847604751587,-0.14735278487205505,0.6944636702537537
1761469143869812200,1.749812255859375,-0.3176845908164978,-0.17916636168956757,0.7169122695922852
1761469143879795200,1.759795166015625,-0.32151147723197937,-0.2340354174375534,0.7257775664329529
1761469143889778400,1.7697783203125,-0.3250526785850525,-0.30469682812690735,0.732866644859314
1761469143899761400,1.779761474609375,-0.31278303265571594,-0.36614423990249634,0.7591396570205688
1761469143909744400,1.789744384765625,-0.28457215428352356,-0.3670260012149811,0.8106409311294556
1761469143919727400,1.799727294921875,-0.24258998036384583,-0.2853868305683136,0.8252453804016113
1761469143929710300,1.80971044921875,-0.20051950216293335,-0.14465129375457764,0.7779042720794678
1761469143939693600,1.819693603515625,-0.16633141040802002,-0.07777570188045502,0.7102279663085938
1761469143949676300,1.82967626953125,-0.09825196117162704,-0.08361468464136124,0.6798266172409058
1761469143959659300,1.8396591796875,-0.021532077342271805,-0.14289426803588867,0.6699762940406799
1761469143969642500,1.849642578125,0.059644266963005066,-0.19752874970436096,0.6455590724945068
1761469143979626500,1.85962646484375,0.13184694945812225,-0.288921594619751,0.5915536880493164
1761469143989609200,1.869609130859375,0.1316024661064148,-0.4586560130119324,0.5411190390586853
1761469143999592200,1.87959228515625,0.0977817103266716,-0.6108726859092712,0.454156756401062
1761469144009575400,1.889575439453125,0.026116572320461273,-0.7245931625366211,0.3736400604248047
1761469144019558400,1.899558349609375,-0.06283051520586014,-0.7926512360572815,0.2687760889530182
1761469144029541400,1.909541259765625,-0.15576285123825073,-0.7122107148170471,0.13424624502658844
1761469144039524400,1.9195244140625,-0.23980294167995453,-0.5775923132896423,0.007920347154140472
1761469144049507300,1.92950732421875,-0.27052730321884155,-0.4076674282550812,-0.055120404809713364
1761469144059490600,1.939490478515625,-0.2950209677219391,-0.22286655008792877,-0.04565287381410599
1761469144069473300,1.949473388671875,-0.29284247756004333,-0.042217668145895004,0.00005655759014189243
1761469144079456300,1.959456298828125,-0.2622961699962616,0.11541920155286789,0.06067689508199692
1761469144089439500,1.969439453125,-0.21435050666332245,0.16481949388980865,0.10989423841238022
1761469144099422500,1.97942236328125,-0.14726948738098145,0.10586632788181305,0.13628418743610382
1761469144109405200,1.9894052734375,-0.07257580757141113,-0.016440145671367645,0.12169219553470612
1761469144119389200,1.99938916015625,0.008034678176045418,-0.16011089086532593,0.05776558816432953
1761469144129372400,2.009372314453125,0.07459905743598938,-0.2799597978591919,-0.002266588620841503
1761469144139355400,2.01935546875,0.11774785816669464,-0.3666655123233795,-0.05326926335692406
1761469144149338400,2.02933837890625,0.13291536271572113,-0.41211074590682983,-0.12054550647735596
1761469144159321300,2.0393212890625,0.1274963915348053,-0.4318372905254364,-0.19614636898040771
1761469144169304300,2.04930419921875,0.10457269847393036,-0.4340873956680298,-0.2812090516090393
1761469144179287600,2.05928759765625,0.08020539581775665,-0.4647403657436371,-0.37848061323165894
1761469144189270300,2.069270263671875,0.06288233399391174,-0.5041289925575256,-0.4747354984283447
1761469144199253200,2.079253173828125,0.04679374396800995,-0.5302450656890869,-0.567608654499054
1761469144209236500,2.089236572265625,0.035820189863443375,-0.5269906520843506,-0.654059112071991
1761469144219219500,2.099219482421875,0.039795100688934326,-0.5207237005233765,-0.7227670550346375
1761469144229202200,2.1092021484375,0.05957040190696716,-0.49201324582099915,-0.7826535701751709
1761469144239185400,2.119185302734375,0.07859517633914948,-0.45010942220687866,-0.8225352764129639
1761469144249168400,2.12916845703125,0.10095401108264923,-0.40908074378967285,-0.8444712162017822
1761469144259151000,2.139151123046875,0.12997256219387054,-0.399861603975296,-0.8618595004081726
1761469144269135400,2.14913525390625,0.16341733932495117,-0.42392727732658386,-0.8596504330635071
1761469144279118300,2.159118408203125,0.19248320162296295,-0.4687671661376953,-0.8319809436798096
1761469144289101300,2.169101318359375,0.219563290476799,-0.482612669467926,-0.7974346876144409
1761469144299084500,2.17908447265625,0.24588853120803833,-0.453096479177475,-0.7651447653770447
1761469144309067300,2.1890673828125,0.2604579031467438,-0.401462584733963,-0.7396409511566162
1761469144319050200,2.19905029296875,0.27231565117836,-0.3108198046684265,-0.7188645601272583
1761469144329033500,2.209033447265625,0.281917929649353,-0.20071245729923248,-0.6966623067855835
1761469144339016400,2.219016357421875,0.30903011560440063,-0.11889062821865082,-0.6736125946044922
1761469144348999200,2.228999267578125,0.34955355525016785,-0.0865555927157402,-0.6489953994750977
1761469144358982400,2.238982421875,0.388239324092865,-0.08878662437200546,-0.6131948828697205
1761469144368965400,2.24896533203125,0.42155173420906067,-0.09279947727918625,-0.5921502709388733
1761469144378948400,2.2589482421875,0.44199711084365845,-0.0938313901424408,-0.5830218195915222
1761469144388931300,2.268931396484375,0.45465487241744995,-0.08172386139631271,-0.5792528986930847
1761469144398914300,2.278914306640625,0.4651421308517456,-0.05846993625164032,-0.5796340107917786
1761469144408897300,2.288897216796875,0.4740663766860962,-0.02608882635831833,-0.5881715416908264
1761469144418881500,2.298881591796875,0.4746279716491699,0.009627238847315311,-0.5974857211112976
1761469144428864300,2.3088642578125,0.4770098924636841,0.03245558589696884,-0.6026764512062073
1761469144438847200,2.31884716796875,0.4745003283023834,0.029437918215990067,-0.6037564873695374
1761469144448830500,2.32883056640625,0.4659012258052826,-0.0013423645868897438,-0.5963704586029053
1761469144458813400,2.3388134765625,0.4672914743423462,-0.03485017642378807,-0.5633863806724548
1761469144468796200,2.348796142578125,0.4692547619342804,-0.034579597413539886,-0.5498386025428772
1761469144478779400,2.358779296875,0.4591689705848694,-0.009718658402562141,-0.5549559593200684
1761469144488762400,2.368762451171875,0.4646635949611664,0.012419932521879673,-0.5750249624252319
1761469144498745300,2.378745361328125,0.4711718261241913,0.03861172869801521,-0.591562032699585
1761469144508728300,2.388728271484375,0.4752645492553711,0.05243939533829689,-0.607633113861084
1761469144518711300,2.398711181640625,0.4761028587818146,0.040521565824747086,-0.6072421669960022
1761469144528694300,2.4086943359375,0.4790656268596649,0.02785024419426918,-0.5760639905929565
1761469144538677500,2.418677490234375,0.4832586646080017,0.0193545613437891,-0.5346513986587524
1761469144548660200,2.42866015625,0.48099735379219055,-0.0009893265087157488,-0.50547194480896
1761469144558643500,2.4386435546875,0.4589387774467468,-0.005867238622158766,-0.4809519052505493
1761469144568627500,2.44862744140625,0.4343905746936798,0.023440849035978317,-0.4614652693271637
1761469144578610400,2.4586103515625,0.4303896129131317,0.0656578466296196,-0.4335947632789612
1761469144588593200,2.46859326171875,0.40737617015838623,0.11173506081104279,-0.3905429244041443
1761469144598576400,2.478576416015625,0.3670046925544739,0.14400513470172882,-0.33065706491470337
1761469144608559400,2.488559326171875,0.30797278881073,0.19357508420944214,-0.2684168517589569
1761469144618542300,2.498542236328125,0.24082013964653015,0.2487085461616516,-0.2544056475162506
1761469144628525300,2.508525390625,0.1661677360534668,0.27691808342933655,-0.27977225184440613
1761469144638507800,2.5185078125,0.11976800858974457,0.28696733713150024,-0.3261682987213135
1761469144648491000,2.528490966796875,0.11681802570819855,0.30630454421043396,-0.37791910767555237
1761469144658473700,2.5384736328125,0.16464011371135712,0.33236804604530334,-0.4031490981578827
1761469144668456700,2.548456787109375,0.23281064629554749,0.2949000298976898,-0.4234711527824402
1761469144678440000,2.55843994140625,0.32099854946136475,0.1960885375738144,-0.42666274309158325
1761469144688423000,2.5684228515625,0.3945886194705963,0.04985649883747101,-0.41600051522254944
1761469144698405600,2.578405517578125,0.45005184412002563,-0.07062406837940216,-0.417434424161911
1761469144708388900,2.588388916015625,0.4594264328479767,-0.13446377217769623,-0.47808048129081726
1761469144718372900,2.598372802734375,0.4676002264022827,-0.1986580640077591,-0.5879860520362854
1761469144728355800,2.60835595703125,0.4954398572444916,-0.22931425273418427,-0.7008225917816162
1761469144738339000,2.618339111328125,0.5083804726600647,-0.20510946214199066,-0.7743229269981384
1761469144748321800,2.62832177734375,0.5034871697425842,-0.1249333992600441,-0.8032147288322449
1761469144758304800,2.6383046875,0.4830969274044037,-0.01009386032819748,-0.8112351894378662
1761469144768288000,2.6482880859375,0.4618329107761383,0.09606053680181503,-0.7964719533920288
1761469144778270700,2.658270751953125,0.4336073100566864,0.21169298887252808,-0.7652091979980469
1761469144788253700,2.668253662109375,0.41166552901268005,0.2879965305328369,-0.7574372887611389
1761469144798237000,2.67823681640625,0.3801567554473877,0.3388926088809967,-0.7568095922470093
1761469144808220000,2.688219970703125,0.350431352853775,0.3636248707771301,-0.7426495552062988
1761469144818202600,2.69820263671875,0.32791703939437866,0.3529970347881317,-0.7011791467666626
1761469144828185900,2.708185791015625,0.31278201937675476,0.30369260907173157,-0.6503790616989136
1761469144838168800,2.7181689453125,0.30314505100250244,0.22653043270111084,-0.5888742208480835
1761469144848151800,2.72815185546875,0.2993825376033783,0.1266280710697174,-0.5312650203704834
1761469144858134800,2.738134765625,0.3131580054759979,0.047641001641750336,-0.4840524196624756
1761469144868118800,2.748118896484375,0.32831910252571106,-0.029136333614587784,-0.46046826243400574
1761469144878101800,2.758101806640625,0.3578254282474518,-0.06997887045145035,-0.4497634172439575
1761469144888085000,2.7680849609375,0.39899763464927673,-0.10078365355730057,-0.4447247087955475
1761469144898068000,2.77806787109375,0.43458881974220276,-0.1117391362786293,-0.4500948190689087
1761469144908050700,2.78805078125,0.45188605785369873,-0.08904261142015457,-0.44990894198417664
1761469144918034000,2.798033935546875,0.4519761800765991,-0.02091877907514572,-0.4532858729362488
1761469144928017000,2.808016845703125,0.43608564138412476,0.05256688967347145,-0.4528062343597412
1761469144937999600,2.81799951171875,0.40662091970443726,0.1211191862821579,-0.44849228858947754
1761469144947982800,2.82798291015625,0.36577337980270386,0.17669935524463654,-0.4324781596660614
1761469144957965800,2.8379658203125,0.3201011121273041,0.20970554649829865,-0.402763694524765
1761469144967948800,2.84794873046875,0.28628429770469666,0.20760057866573334,-0.3764955997467041
1761469144977931800,2.857931884765625,0.25914323329925537,0.18192194402217865,-0.35532617568969727
1761469144987914800,2.867914794921875,0.23261761665344238,0.1473463922739029,-0.34539926052093506
1761469144997898000,2.87789794921875,0.2145695835351944,0.11288969963788986,-0.3392913043498993
1761469145007881000,2.887880859375,0.20580272376537323,0.0941234678030014,-0.32919979095458984
1761469145017865000,2.897864990234375,0.20113502442836761,0.08446673303842545,-0.3229246139526367
1761469145027847700,2.90784765625,0.20685894787311554,0.07601279765367508,-0.31453725695610046
1761469145037831000,2.917830810546875,0.21716228127479553,0.07050133496522903,-0.31529608368873596
1761469145047814000,2.92781396484375,0.22759521007537842,0.05550320819020271,-0.3218056559562683
1761469145057796900,2.937796875,0.23205271363258362,0.02432030625641346,-0.32815080881118774
1761469145067779800,2.94777978515625,0.2267511636018753,-0.004473258275538683,-0.3269798159599304
1761469145077762800,2.9577626953125,0.21763111650943756,-0.004883504472672939,-0.3210012912750244
1761469145087745800,2.967745849609375,0.1847834289073944,0.018817830830812454,-0.3212313950061798
1761469145097728800,2.977728759765625,0.1594381481409073,0.06358420103788376,-0.3088545501232147
1761469145107711700,2.987711669921875,0.13358470797538757,0.10338886827230453,-0.28108710050582886
1761469145117695000,2.997695068359375,0.10556033253669739,0.13168726861476898,-0.23839104175567627
1761469145127678000,3.007677978515625,0.07589191943407059,0.14296682178974152,-0.17970828711986542
1761469145137660700,3.01766064453125,0.04593378305435181,0.11706195026636124,-0.09864453226327896
1761469145147644000,3.027643798828125,0.018606288358569145,0.06894475221633911,-0.01608920469880104
1761469145157627000,3.037626953125,-0.011901697143912315,0.025128493085503578,0.06239182874560356
1761469145167611000,3.04761083984375,-0.039929602295160294,-0.014301469549536705,0.12295851111412048
1761469145177593900,3.05759375,-0.05104142427444458,-0.06941313296556473,0.17519299685955048
1761469145187576800,3.067576904296875,-0.04696892201900482,-0.1418718844652176,0.22835981845855713
1761469145197559800,3.077559814453125,-0.02864697575569153,-0.2320662885904312,0.2646845579147339
1761469145207542800,3.087542724609375,0.004109907895326614,-0.29724422097206116,0.279472291469574
1761469145217525800,3.09752587890625,0.0407397523522377,-0.3273211121559143,0.27784979343414307
1761469145227508700,3.1075087890625,0.07023613154888153,-0.33279895782470703,0.268475204706192
1761469145237492000,3.117491943359375,0.09160646051168442,-0.3133465051651001,0.2607022225856781
1761469145247475000,3.127474853515625,0.09716128557920456,-0.28546828031539917,0.264410138130188
1761469145257457700,3.137457763671875,0.09672851860523224,-0.26701709628105164,0.29050567746162415
1761469145267441000,3.14744091796875,0.08777736872434616,-0.27888521552085876,0.32579120993614197
1761469145277423900,3.157423828125,0.08741243928670883,-0.2439940720796585,0.3556704521179199
1761469145287406800,3.16740673828125,0.07726579904556274,-0.17618413269519806,0.36215683817863464
1761469145297389800,3.177389892578125,0.071150042116642,-0.052625689655542374,0.32685595750808716
1761469145307372800,3.187372802734375,0.0582805871963501,0.11035284399986267,0.25481826066970825
1761469145317356800,3.197356689453125,0.05887877941131592,0.21997326612472534,0.17867833375930786
1761469145327339800,3.20733984375,0.09620324522256851,0.1976059228181839,0.15813098847866058
1761469145337323000,3.217322998046875,0.17749623954296112,0.10793887823820114,0.201604962348938
1761469145347305700,3.2273056640625,0.25198352336883545,-0.028067156672477722,0.23767109215259552
1761469145357289000,3.2372890625,0.3069124221801758,-0.15765345096588135,0.26070111989974976
1761469145367272000,3.24727197265625,0.3173653185367584,-0.22722986340522766,0.2690378725528717
1761469145377254700,3.257254638671875,0.2829599380493164,-0.28942209482192993,0.256991446018219
1761469145387238000,3.26723779296875,0.23622064292430878,-0.33376559615135193,0.23392528295516968
1761469145397220900,3.277220947265625,0.18241512775421143,-0.34116899967193604,0.19765543937683105
1761469145407203800,3.287203857421875,0.12375926971435547,-0.3120446503162384,0.14502419531345367
1761469145417186800,3.297186767578125,0.05547046661376953,-0.23736898601055145,0.08407381176948547
1761469145427169800,3.307169677734375,-0.0022897692397236824,-0.1197211742401123,0.016268666833639145
1761469145437152800,3.31715283203125,-0.0513334795832634,0.030452707782387733,-0.055122219026088715
1761469145447136000,3.327135986328125,-0.08710025995969772,0.17724108695983887,-0.1219092383980751
1761469145457118700,3.33711865234375,-0.10787909477949142,0.24866946041584015,-0.17597359418869019
1761469145467101700,3.347101806640625,-0.09754975885152817,0.22555826604366302,-0.21198007464408875
1761469145477086000,3.3570859375,-0.06231541186571121,0.18019495904445648,-0.21052579581737518
1761469145487069000,3.36706884765625,-0.037890493869781494,0.13207882642745972,-0.192889004945755
1761469145497052000,3.377052001953125,-0.02311886101961136,0.07550190389156342,-0.17734766006469727
1761469145507035000,3.387034912109375,-0.01693020761013031,0.014103258028626442,-0.16197162866592407
1761469145517017900,3.397017822265625,-0.020391831174492836,-0.04229895398020744,-0.14877952635288239
1761469145527000800,3.407000732421875,-0.03149028867483139,-0.07973740994930267,-0.1290564239025116
1761469145536983800,3.41698388671875,-0.054080650210380554,-0.08287528902292252,-0.10759301483631134
1761469145546966800,3.426966796875,-0.07904379069805145,-0.0619010291993618,-0.09361115843057632
1761469145556949800,3.43694970703125,-0.10440954566001892,-0.01874590665102005,-0.0835605263710022
1761469145566933000,3.44693310546875,-0.1264171153306961,0.022511253133416176,-0.0853957086801529
1761469145576915700,3.456915771484375,-0.13238166272640228,0.05849161371588707,-0.0937715470790863
1761469145586898700,3.466898681640625,-0.1320498287677765,0.07911167293787003,-0.11699537932872772
1761469145596882000,3.4768818359375,-0.1276569366455078,0.10574851185083389,-0.15887591242790222
1761469145606865000,3.486864990234375,-0.1087261289358139,0.12440688163042068,-0.21094444394111633
1761469145616848000,3.496847900390625,-0.10503318905830383,0.12388278543949127,-0.2610985338687897
1761469145626830800,3.506830810546875,-0.10096041858196259,0.11063835769891739,-0.3043666481971741
1761469145636815000,3.516815185546875,-0.09394398331642151,0.08867383003234863,-0.3455786406993866
1761469145646797800,3.5267978515625,-0.09154101461172104,0.06057881563901901,-0.3818753957748413
1761469145656781000,3.536781005859375,-0.0851685032248497,0.025267567485570908,-0.4246414303779602
1761469145666764000,3.546763916015625,-0.09263387322425842,-0.036243997514247894,-0.4640868306159973
1761469145676746800,3.556746826171875,-0.1000131368637085,-0.09126583486795425,-0.492563933134079
1761469145686730000,3.56672998046875,-0.10826973617076874,-0.15532177686691284,-0.5244371891021729
1761469145696713000,3.576712890625,-0.10986336320638657,-0.20261995494365692,-0.5548252463340759
1761469145706696000,3.586696044921875,-0.10894937068223953,-0.23572811484336853,-0.5750032067298889
1761469145716679000,3.596678955078125,-0.09938738495111465,-0.2697315812110901,-0.5678228139877319
1761469145726662000,3.606661865234375,-0.08254235982894897,-0.2970156669616699,-0.5294562578201294
1761469145736644900,3.616644775390625,-0.06261555105447769,-0.3021128177642822,-0.49030551314353943
1761469145746628000,3.626628173828125,-0.03419030085206032,-0.303212434053421,-0.443600594997406
1761469145756610800,3.63661083984375,-0.0002799774520099163,-0.28606563806533813,-0.40127336978912354
1761469145766594000,3.646593994140625,0.035269759595394135,-0.25100430846214294,-0.367392897605896
1761469145776577000,3.656576904296875,0.07456598430871964,-0.21320948004722595,-0.32594314217567444
1761469145786560000,3.66656005859375,0.10981398820877075,-0.16342194378376007,-0.2872527539730072
1761469145796544000,3.6765439453125,0.13011938333511353,-0.11305747181177139,-0.25178515911102295
1761469145806527000,3.68652685546875,0.14413799345493317,-0.0864170715212822,-0.2130124717950821
1761469145816510000,3.696510009765625,0.16624511778354645,-0.06629345566034317,-0.19370406866073608
1761469145826493000,3.706492919921875,0.18644225597381592,-0.058131661266088486,-0.20081497728824615
1761469145836476000,3.716475830078125,0.22022564709186554,-0.07950910180807114,-0.226896733045578
1761469145846459000,3.726458984375,0.26285168528556824,-0.10202852636575699,-0.24764221906661987
1761469145856441900,3.73644189453125,0.30625656247138977,-0.09186673164367676,-0.2569044828414917
1761469145866425000,3.746425048828125,0.33037737011909485,-0.07083708047866821,-0.26474934816360474
1761469145876407800,3.75640771484375,0.3471643626689911,-0.06089780479669571,-0.2748561203479767
1761469145886391000,3.76639111328125,0.3397916853427887,-0.06555114686489105,-0.2862027883529663
1761469145896374000,3.7763740234375,0.33102014660835266,-0.0886736661195755,-0.28842851519584656
1761469145906357000,3.78635693359375,0.31592321395874023,-0.13005946576595306,-0.2641676664352417
1761469145916340000,3.796340087890625,0.30890488624572754,-0.19918681681156158,-0.2379099726676941
1761469145926323000,3.806322998046875,0.3126213252544403,-0.254800021648407,-0.2213786542415619
1761469145936306000,3.816305908203125,0.3099539279937744,-0.2724781632423401,-0.2182016223669052
1761469145946289200,3.8262890625,0.3085767924785614,-0.2717370092868805,-0.23103778064250946
1761469145956273200,3.836273193359375,0.3111833930015564,-0.24098260700702667,-0.25013306736946106
1761469145966255900,3.846255859375,0.31530702114105225,-0.18240371346473694,-0.2687022089958191
1761469145976238800,3.85623876953125,0.3130038380622864,-0.13087257742881775,-0.2726282477378845
1761469145986222000,3.86622216796875,0.2958346903324127,-0.15542292594909668,-0.2563435733318329
1761469145996204800,3.876204833984375,0.2649405598640442,-0.24071553349494934,-0.21266791224479675
1761469146006188000,3.88618798828125,0.22209800779819489,-0.3251321613788605,-0.14438046514987946
1761469146016171000,3.8961708984375,0.16278085112571716,-0.3464019298553467,-0.10586924105882645
1761469146026154000,3.906154052734375,0.08021460473537445,-0.2841324508190155,-0.13102838397026062
1761469146036137000,3.916136962890625,0.008026033639907837,-0.2015852928161621,-0.18673689663410187
1761469146046120000,3.926119873046875,-0.0381060391664505,-0.1503833532333374,-0.2468750774860382
1761469146056103000,3.93610302734375,-0.03570447489619255,-0.13577903807163239,-0.28266289830207825
1761469146066086100,3.946086181640625,-0.012799691408872604,-0.1263410598039627,-0.27526596188545227
1761469146076068900,3.95606884765625,0.02073914185166359,-0.12865158915519714,-0.2690676748752594
1761469146086051800,3.9660517578125,0.053500548005104065,-0.12311460822820663,-0.2689313292503357
1761469146096035000,3.97603515625,0.059216104447841644,-0.09790753573179245,-0.2811239957809448
1761469146106018000,3.98601806640625,0.07545739412307739,-0.03394746035337448,-0.3037837743759155
1761469146116001800,3.996001708984375,0.07468800991773605,0.05696247145533562,-0.33884161710739136
1761469146125985000,4.005985107421875,0.07090471684932709,0.1311783790588379,-0.37926122546195984
1761469146135967000,4.015967041015625,0.06600503623485565,0.16006825864315033,-0.3908690810203552
1761469146145950000,4.025949951171875,0.07271433621644974,0.16516715288162231,-0.3881361484527588
1761469146155933000,4.035932861328125,0.06964061409235,0.14081773161888123,-0.37811991572380066
1761469146165916000,4.045916015625,0.06571990996599197,0.09338177740573883,-0.36163389682769775
1761469146175899100,4.055899169921875,0.08527404814958572,0.07347321510314941,-0.3499789834022522
1761469146185881900,4.0658818359375,0.09612536430358887,0.09696975350379944,-0.3463251292705536
1761469146195864800,4.07586474609375,0.10273005068302155,0.13609090447425842,-0.345704585313797
1761469146205848000,4.08584814453125,0.11597954481840134,0.15600842237472534,-0.3239537477493286
1761469146215831000,4.0958310546875,0.13534259796142578,0.14262168109416962,-0.26949605345726013
1761469146225813800,4.105813720703125,0.1594335436820984,0.08922795951366425,-0.19914917647838593
1761469146235797000,4.115796875,0.18734729290008545,0.013293754309415817,-0.13212965428829193
1761469146245780000,4.125780029296875,0.2066381722688675,-0.053033072501420975,-0.08547772467136383
1761469146255764000,4.135763916015625,0.20335589349269867,-0.06970953196287155,-0.05724809318780899
1761469146265747000,4.145746826171875,0.18950559198856354,-0.07170983403921127,-0.06342156231403351
1761469146275730000,4.15572998046875,0.17207789421081543,-0.07291006296873093,-0.11548103392124176
1761469146285713000,4.165712890625,0.15696924924850464,-0.08255763351917267,-0.18231093883514404
1761469146295696100,4.175696044921875,0.1866900622844696,-0.09232290089130402,-0.2256453037261963
1761469146305678800,4.185678955078125,0.20604218542575836,-0.09125124663114548,-0.2536519169807434
1761469146315661800,4.195661865234375,0.20736894011497498,-0.06883307546377182,-0.24257875978946686
1761469146325645000,4.20564501953125,0.19688327610492706,-0.016806894913315773,-0.210945725440979
1761469146335628000,4.2156279296875,0.18167179822921753,0.0641702190041542,-0.15796086192131042
1761469146345610800,4.22561083984375,0.1682925969362259,0.1448485553264618,-0.09452437609434128
1761469146355594000,4.235593994140625,0.14523455500602722,0.23617437481880188,-0.03142720088362694
1761469146365577000,4.245576904296875,0.11014848202466965,0.3397553861141205,0.028812170028686523
1761469146375560000,4.255559814453125,0.06505268812179565,0.45020028948783875,0.07271263748407364
1761469146385543000,4.26554296875,0.014504559338092804,0.5455222725868225,0.11423344910144806
1761469146395526000,4.27552587890625,-0.02626068703830242,0.6235328316688538,0.1484767496585846
1761469146405509000,4.285509033203125,-0.06292761862277985,0.6773593425750732,0.17844344675540924
1761469146415493000,4.2954931640625,-0.08448981493711472,0.6881301403045654,0.1849900484085083
1761469146425476000,4.30547607421875,-0.07662443071603775,0.6808705925941467,0.1957143396139145
1761469146435458800,4.315458740234375,-0.08222184330224991,0.6448876857757568,0.21743720769882202
1761469146445442000,4.325442138671875,-0.09338367730379105,0.5943243503570557,0.24244321882724762
1761469146455425000,4.335425048828125,-0.11621645838022232,0.53707355260849,0.2704622447490692
1761469146465407700,4.34540771484375,-0.14618366956710815,0.5027171969413757,0.2815295457839966
1761469146475391000,4.355390869140625,-0.17562328279018402,0.4700372815132141,0.2895508110523224
1761469146485374000,4.3653740234375,-0.1910451203584671,0.44669628143310547,0.2829538881778717
1761469146495357000,4.37535693359375,-0.19987475872039795,0.38921138644218445,0.2667138874530792
1761469146505340000,4.38533984375,-0.19622088968753815,0.3170376121997833,0.2528129816055298
1761469146515323000,4.395322998046875,-0.1813427060842514,0.24545319378376007,0.24502427875995636
1761469146525306000,4.40530615234375,-0.16389474272727966,0.1685115396976471,0.2379394769668579
1761469146535289000,4.4152890625,-0.13705503940582275,0.09366460144519806,0.2438003569841385
1761469146545271800,4.425271728515625,-0.11916366219520569,0.0313975028693676,0.27298516035079956
1761469146555255000,4.435255126953125,-0.11228965222835541,-0.02015613205730915,0.30776721239089966
1761469146565238000,4.445238037109375,-0.09436231851577759,-0.08428957313299179,0.3522239029407501
1761469146575222000,4.455221923828125,-0.07506052404642105,-0.16503430902957916,0.39820554852485657
1761469146585205000,4.465205078125,-0.06449735909700394,-0.263021320104599,0.4536139667034149
1761469146595188000,4.47518798828125,-0.05693882703781128,-0.35265135765075684,0.5117805600166321
1761469146605171000,4.4851708984375,-0.05226631090044975,-0.39372292160987854,0.5652240514755249
1761469146615154000,4.49515380859375,-0.062034979462623596,-0.38957422971725464,0.6051932573318481
1761469146625137000,4.505136962890625,-0.0731496810913086,-0.34304559230804443,0.6091957688331604
1761469146635119900,4.515119873046875,-0.08954429626464844,-0.28190523386001587,0.5935220122337341
1761469146645106400,4.5251064453125,-0.11523554474115372,-0.20228788256645203,0.5734583139419556
1761469146655089200,4.535089111328125,-0.1488124579191208,-0.14253748953342438,0.5585184097290039
1761469146665072000,4.545072021484375,-0.18129822611808777,-0.10341618955135345,0.5604627728462219
1761469146675055400,4.555055419921875,-0.21811138093471527,-0.0681726336479187,0.5811202526092529
1761469146685038300,4.565038330078125,-0.24527136981487274,-0.01707988977432251,0.6000734567642212
1761469146695021000,4.57502099609375,-0.2786794900894165,0.02762281894683838,0.6099792122840881
1761469146705004300,4.58500439453125,-0.30161675810813904,0.07389364391565323,0.6118495464324951
1761469146714988300,4.59498828125,-0.310792475938797,0.1277749091386795,0.6048269867897034
1761469146724971300,4.60497119140625,-0.31627726554870605,0.1889791339635849,0.5945078134536743
1761469146734954200,4.614954345703125,-0.32214000821113586,0.23216432332992554,0.5980332493782043
1761469146744938200,4.624938232421875,-0.30995604395866394,0.23103247582912445,0.6230699419975281
1761469146754921200,4.634921142578125,-0.28844594955444336,0.17486028373241425,0.6682437658309937
1761469146764904200,4.644904296875,-0.2599349617958069,0.07957184314727783,0.740994930267334
1761469146774887400,4.654887451171875,-0.22695626318454742,0.0020397426560521126,0.8220513463020325
1761469146784870100,4.6648701171875,-0.1982247531414032,0.0017611756920814514,0.8610848188400269
1761469146794853000,4.67485302734375,-0.17088840901851654,0.07534807175397873,0.8385515809059143
1761469146804836400,4.68483642578125,-0.1411169320344925,0.193297877907753,0.7723800539970398
1761469146814819000,4.694819091796875,-0.09554534405469894,0.3274517059326172,0.6957195997238159
1761469146824802000,4.704802001953125,-0.051386669278144836,0.43003666400909424,0.6284990310668945
1761469146834785300,4.714785400390625,0.06703340262174606,0.36964309215545654,0.63408362865448
1761469146844768300,4.724768310546875,0.17148524522781372,0.26809462904930115,0.6830365061759949
1761469146854751200,4.734751220703125,0.18048396706581116,0.1826927661895752,0.6837586164474487
1761469146864734200,4.744734130859375,0.10219742357730865,0.11622133105993271,0.6651489734649658
1761469146874717200,4.75471728515625,-0.00784178264439106,0.02711183950304985,0.6493815183639526
1761469146884700400,4.764700439453125,-0.12461446970701218,-0.027196140959858894,0.6060018539428711
1761469146894683100,4.77468310546875,-0.22001832723617554,-0.03907351940870285,0.5258892178535461
1761469146904667100,4.784667236328125,-0.2990606725215912,0.023789599537849426,0.423560231924057
1761469146914650000,4.794650146484375,-0.3670674264431,0.1645069420337677,0.33287513256073
1761469146924633300,4.80463330078125,-0.4129907190799713,0.2880999743938446,0.24310049414634705
1761469146934616300,4.8146162109375,-0.43312299251556396,0.3526094853878021,0.1628716140985489
1761469146944599000,4.82459912109375,-0.41765296459198,0.3523077666759491,0.12720602750778198
1761469146954582300,4.834582275390625,-0.36858850717544556,0.3179914653301239,0.1260295957326889
1761469146964565200,4.844565185546875,-0.29382026195526123,0.25268062949180603,0.13695813715457916
1761469146974548200,4.85454833984375,-0.2232760637998581,0.18205198645591736,0.15103773772716522
1761469146984531200,4.86453125,-0.1431327611207962,0.1296127438545227,0.15910790860652924
1761469146994514200,4.87451416015625,-0.06621994078159332,0.09268181025981903,0.13300639390945435
1761469147004497400,4.884497314453125,-0.004224744159728289,0.03934934362769127,0.07976926118135452
1761469147014480100,4.894480224609375,0.04891325533390045,-0.021847907453775406,0.026709649711847305
1761469147024463000,4.904463134765625,0.0788373276591301,-0.08034797012805939,-0.015638340264558792
1761469147034446300,4.9144462890625,0.10735152661800385,-0.1416560709476471,-0.047799207270145416
1761469147044429300,4.92442919921875,0.10803595930337906,-0.20686650276184082,-0.0773903876543045
1761469147054413300,4.934413330078125,0.07548423856496811,-0.2574404776096344,-0.10013031214475632
1761469147064396000,4.94439599609375,0.02381652034819126,-0.28162890672683716,-0.11580993980169296
1761469147074379300,4.954379150390625,-0.03117942623794079,-0.2785639762878418,-0.15268652141094208
1761469147084362200,4.9643623046875,-0.07571040838956833,-0.267831414937973,-0.2027938961982727
1761469147094345200,4.97434521484375,-0.09816334396600723,-0.24802139401435852,-0.26176488399505615
1761469147104328200,4.984328125,-0.11228688806295395,-0.2083759754896164,-0.3254133462905884
1761469147114311200,4.994311279296875,-0.10883712768554688,-0.17341333627700806,-0.38868722319602966
1761469147124294400,5.00429443359375,-0.10022100061178207,-0.1606900840997696,-0.43984681367874146
1761469147134277000,5.014277099609375,-0.06934365630149841,-0.1414583921432495,-0.4729205071926117
1761469147144260000,5.024260009765625,-0.047706276178359985,-0.12112729251384735,-0.48496413230895996
1761469147154243300,5.034243408203125,-0.030632726848125458,-0.13531708717346191,-0.49011069536209106
1761469147164226300,5.044226318359375,-0.018994446843862534,-0.17657718062400818,-0.4868083596229553
1761469147174209000,5.054208984375,-0.004033074714243412,-0.2159930169582367,-0.49187371134757996
1761469147184192300,5.064192138671875,-0.003514290787279606,-0.24820742011070251,-0.5160182118415833
1761469147194175200,5.07417529296875,-0.0017272131517529488,-0.2791173458099365,-0.5584357976913452
1761469147204159200,5.0841591796875,0.010430916212499142,-0.3126470744609833,-0.597903847694397
1761469147214142200,5.09414208984375,0.03294794261455536,-0.34785380959510803,-0.6261107325553894
1761469147224125200,5.104125244140625,0.05906609445810318,-0.36963072419166565,-0.6366807818412781
1761469147234108200,5.114108154296875,0.08979865908622742,-0.4068923890590668,-0.6578807234764099
1761469147244091400,5.12409130859375,0.14173483848571777,-0.4529466927051544,-0.6702660322189331
1761469147254074000,5.13407421875,0.18270988762378693,-0.5056198239326477,-0.65875244140625
1761469147264057000,5.14405712890625,0.22237740457057953,-0.5254614353179932,-0.6318901777267456
1761469147274040300,5.154040283203125,0.2637617588043213,-0.5020952224731445,-0.5991259813308716
1761469147284023300,5.164023193359375,0.28606945276260376,-0.4572920799255371,-0.5583412647247314
1761469147294006000,5.174006103515625,0.30149391293525696,-0.4029295742511749,-0.5060136318206787
1761469147303989200,5.1839892578125,0.31607311964035034,-0.3471001088619232,-0.4305119514465332
1761469147313972200,5.19397216796875,0.32067766785621643,-0.2837989926338196,-0.3440471589565277
1761469147323955200,5.203955078125,0.31785205006599426,-0.23568180203437805,-0.26684266328811646
1761469147333938200,5.213938232421875,0.31193894147872925,-0.1998635232448578,-0.21566151082515717
1761469147343921200,5.223921142578125,0.30677667260169983,-0.18960049748420715,-0.18066704273223877
1761469147353905200,5.2339052734375,0.29954028129577637,-0.19306404888629913,-0.14935484528541565
1761469147363888400,5.243888427734375,0.2786880135536194,-0.13147951662540436,-0.12334081530570984
1761469147373871400,5.253871337890625,0.2644002437591553,-0.13913173973560333,-0.13159675896167755
1761469147383854000,5.26385400390625,0.27090582251548767,-0.2363658845424652,-0.1509464830160141
1761469147393837300,5.27383740234375,0.27631035447120667,-0.3052419424057007,-0.14649087190628052
1761469147403820300,5.2838203125,0.2855278253555298,-0.3583408296108246,-0.13660016655921936
1761469147413803000,5.293802978515625,0.29793187975883484,-0.39464297890663147,-0.130784273147583
1761469147423786200,5.3037861328125,0.32440316677093506,-0.41767826676368713,-0.13893380761146545
1761469147433769200,5.313769287109375,0.3530972898006439,-0.3882756531238556,-0.1564566195011139
1761469147443752200,5.323752197265625,0.3844709098339081,-0.31297293305397034,-0.16363650560379028
1761469147453735200,5.333735107421875,0.391779363155365,-0.2427399605512619,-0.1498667597770691
1761469147463718100,5.34371826171875,0.3851342499256134,-0.19140246510505676,-0.10874541848897934
1761469147473701000,5.353701171875,0.3684554994106293,-0.16671514511108398,-0.06184256076812744
1761469147483684400,5.363684326171875,0.3299408555030823,-0.14761334657669067,-0.021480489522218704
1761469147493668400,5.37366845703125,0.28028059005737305,-0.15484824776649475,-0.025011789053678513
1761469147503651000,5.383651123046875,0.2272634506225586,-0.18032431602478027,-0.05615079775452614
1761469147513634300,5.39363427734375,0.19277547299861908,-0.2512302100658417,-0.10086667537689209
1761469147523617300,5.4036171875,0.16480642557144165,-0.3301987648010254,-0.1494659036397934
1761469147533600300,5.413600341796875,0.14702072739601135,-0.3770144283771515,-0.1796196550130844
1761469147543583200,5.423583251953125,0.09864706546068192,-0.37571001052856445,-0.2011752724647522
1761469147553566200,5.433566162109375,0.08349542319774628,-0.33823302388191223,-0.22866936028003693
1761469147563549200,5.443549072265625,0.09397895634174347,-0.2972128987312317,-0.2789434492588043
1761469147573532200,5.4535322265625,0.1321825385093689,-0.26847270131111145,-0.3385494649410248
1761469147583515100,5.46351513671875,0.15388596057891846,-0.29894885420799255,-0.37173378467559814
1761469147593498000,5.473498046875,0.19309081137180328,-0.37079712748527527,-0.3408619165420532
1761469147603481300,5.4834814453125,0.2456219345331192,-0.45557302236557007,-0.2478531152009964
1761469147613464000,5.493464111328125,0.278853178024292,-0.5703102946281433,-0.1411064863204956
1761469147623447300,5.503447265625,0.2707315981388092,-0.6634082794189453,-0.07188667356967926
1761469147633431300,5.513431396484375,0.27445709705352783,-0.7435922622680664,-0.03188737854361534
1761469147643414500,5.52341455078125,0.29505613446235657,-0.7939065098762512,0.010319462046027184
1761469147653397500,5.5333974609375,0.2805032432079315,-0.7730914354324341,0.03589316084980965
1761469147663380500,5.54338037109375,0.23826761543750763,-0.6465992331504822,0.034498196095228195
1761469147673363500,5.553363525390625,0.19717198610305786,-0.40164417028427124,0.020989811047911644
1761469147683346400,5.563346435546875,0.1534985452890396,-0.12798890471458435,0.013894615694880486
1761469147693329700,5.57332958984375,0.0979807898402214,0.09012296050786972,0.028271816670894623
1761469147703312400,5.5833125,0.07575458288192749,0.25481870770454407,0.052718836814165115
1761469147713295400,5.59329541015625,0.027095576748251915,0.3049400746822357,0.05400581657886505
1761469147723278600,5.603278564453125,-0.14286282658576965,0.34156814217567444,0.13175120949745178
1761469147733261600,5.613261474609375,-0.2708030045032501,0.40566402673721313,0.20819851756095886
1761469147743244300,5.623244384765625,-0.363350510597229,0.44582661986351013,0.26220715045928955
1761469147753227500,5.6332275390625,-0.433400422334671,0.47396889328956604,0.2920333445072174
1761469147763211500,5.64321142578125,-0.46308133006095886,0.5093569755554199,0.33476030826568604
1761469147773194500,5.653194580078125,-0.4464564621448517,0.5306525826454163,0.4002442955970764
1761469147783177700,5.663177734375,-0.3958798348903656,0.4963710308074951,0.48762714862823486
1761469147793160400,5.673160400390625,-0.3387302756309509,0.4441956877708435,0.60245680809021
1761469147803143400,5.683143310546875,-0.2859152555465698,0.401305228471756,0.7162818908691406
1761469147813126700,5.693126708984375,-0.25345292687416077,0.3808751404285431,0.8208960890769958
1761469147823109400,5.703109375,-0.25397008657455444,0.3758998215198517,0.9085966944694519
1761469147833092400,5.71309228515625,-0.27783626317977905,0.41953930258750916,0.9875708222389221
1761469147843075600,5.72307568359375,-0.33455467224121094,0.5019678473472595,1.0537004470825195
1761469147853058600,5.73305859375,-0.3903713524341583,0.5914304256439209,1.118447184562683
1761469147863041300,5.743041259765625,-0.445760041475296,0.6886739134788513,1.170024037361145
1761469147873024500,5.7530244140625,-0.4989394545555115,0.7593352198600769,1.204379916191101
1761469147883007500,5.763007568359375,-0.5573881268501282,0.8010376691818237,1.2196056842803955
1761469147892991500,5.772991455078125,-0.6095184683799744,0.8290639519691467,1.2214641571044922
1761469147902974700,5.782974609375,-0.6572742462158203,0.8500108122825623,1.2123109102249146
1761469147912957400,5.79295751953125,-0.6859021782875061,0.8477499485015869,1.1940032243728638
1761469147922940400,5.8029404296875,-0.7224138379096985,0.8425045609474182,1.1741315126419067
1761469147932923600,5.812923583984375,-0.7482879757881165,0.8495526909828186,1.154200553894043
1761469147942906600,5.82290673828125,-0.7681685090065002,0.8804839849472046,1.1319186687469482
1761469147952889300,5.832889404296875,-0.7925623059272766,0.8935111165046692,1.105568766593933
1761469147962872600,5.84287255859375,-0.8218349814414978,0.8981308937072754,1.082108974456787
1761469147972855600,5.85285546875,-0.8432191014289856,0.9132719039916992,1.075534462928772
1761469147982838300,5.86283837890625,-0.8646226525306702,0.9417189955711365,1.0710291862487793
1761469147992821500,5.872821533203125,-0.8855160474777222,0.9660212993621826,1.072790503501892
1761469148002804500,5.882804443359375,-0.915790319442749,0.9909192323684692,1.0915846824645996
1761469148012787500,5.892787353515625,-0.9507864713668823,0.9982993602752686,1.1220743656158447
1761469148022771700,5.902771728515625,-0.9978245496749878,0.9907379150390625,1.165684700012207
1761469148032754400,5.91275439453125,-1.0494966506958008,0.9892784953117371,1.2231460809707642
1761469148042737400,5.9227373046875,-1.0953150987625122,0.9835902452468872,1.2895152568817139
1761469148052720600,5.932720703125,-1.120179295539856,0.9701250195503235,1.3622868061065674
1761469148062703600,5.94270361328125,-1.1428651809692383,0.9426729083061218,1.4389644861221313
1761469148072686300,5.952686279296875,-1.1750898361206055,0.9081954956054688,1.5212109088897705
1761469148082669600,5.962669677734375,-1.2188284397125244,0.8691423535346985,1.5992604494094849
1761469148092652500,5.972652587890625,-1.2576905488967896,0.8122637271881104,1.6829524040222168
1761469148102635300,5.98263525390625,-1.306048035621643,0.7591954469680786,1.77530038356781
1761469148112618500,5.992618408203125,-1.347351312637329,0.7278468012809753,1.8631664514541626
1761469148122601500,6.0026015625,-1.394650936126709,0.728480339050293,1.9446487426757812
1761469148132584400,6.01258447265625,-1.4494956731796265,0.7578750848770142,2.001828193664551
1761469148142568700,6.022568603515625,-1.5096328258514404,0.8006782531738281,2.058636426925659
1761469148152551400,6.032551513671875,-1.5560179948806763,0.8270484805107117,2.1030280590057373
1761469148162534400,6.042534423828125,-1.5857048034667969,0.8547648191452026,2.1337175369262695
1761469148172517600,6.052517578125,-1.6079113483428955,0.8913411498069763,2.1521379947662354
1761469148182500600,6.06250048828125,-1.612557291984558,0.8945255279541016,2.1613991260528564
1761469148192483300,6.0724833984375,-1.6017982959747314,0.88453608751297,2.18330717086792
1761469148202466600,6.082466552734375,-1.5947320461273193,0.856589138507843,2.2191381454467773
1761469148212449500,6.092449462890625,-1.5877172946929932,0.8135513663291931,2.278611898422241
1761469148222432500,6.1024326171875,-1.566001057624817,0.7820016741752625,2.334282875061035
1761469148232415500,6.11241552734375,-1.5295968055725098,0.720505952835083,2.3607840538024902
1761469148242398500,6.1223984375,-1.4956347942352295,0.6561564803123474,2.37392258644104
1761469148252381400,6.13238134765625,-1.385413408279419,0.6581773161888123,2.350405216217041
1761469148262365700,6.14236572265625,-1.3056083917617798,0.6778671741485596,2.2788426876068115
1761469148272348400,6.152348388671875,-1.2563341856002808,0.6979184746742249,2.2024052143096924
1761469148282331400,6.162331298828125,-1.2225403785705566,0.7689055800437927,2.1207900047302246
1761469148292314600,6.172314697265625,-1.2242063283920288,0.86710524559021,2.0306284427642822
1761469148302297600,6.182297607421875,-1.2423675060272217,0.9613824486732483,1.9425522089004517
1761469148312280300,6.1922802734375,-1.2535121440887451,1.0543437004089355,1.8555958271026611
1761469148322263600,6.202263671875,-1.2587947845458984,1.1581891775131226,1.8008358478546143
1761469148332246500,6.21224658203125,-1.2731003761291504,1.2736726999282837,1.7718850374221802
1761469148342229500,6.2222294921875,-1.301223874092102,1.3571397066116333,1.760318636894226
1761469148352212500,6.23221240234375,-1.3407596349716187,1.3834412097930908,1.7641627788543701
1761469148362195500,6.242195556640625,-1.3866329193115234,1.3918509483337402,1.7780029773712158
1761469148372179500,6.252179443359375,-1.4214496612548828,1.4138871431350708,1.7886170148849487
1761469148382162700,6.26216259765625,-1.4422798156738281,1.4602458477020264,1.790907621383667
1761469148392145400,6.2721455078125,-1.4334931373596191,1.4853821992874146,1.7949597835540771
1761469148402128400,6.28212841796875,-1.3996126651763916,1.470017910003662,1.7969563007354736
1761469148412111600,6.292111572265625,-1.361865758895874,1.4178751707077026,1.7877739667892456
1761469148422094600,6.302094482421875,-1.3217276334762573,1.370829463005066,1.7611738443374634
1761469148432077300,6.312077392578125,-1.2957335710525513,1.3243967294692993,1.7273280620574951
1761469148442060500,6.322060546875,-1.2808046340942383,1.2880113124847412,1.6872001886367798
1761469148452043500,6.33204345703125,-1.2727857828140259,1.2475799322128296,1.6588990688323975
1761469148462026500,6.342026611328125,-1.2641880512237549,1.2038705348968506,1.644359827041626
1761469148472009500,6.352009521484375,-1.2464045286178589,1.161808729171753,1.6445612907409668
1761469148481992400,6.361992431640625,-1.227252721786499,1.1344103813171387,1.6391617059707642
1761469148491976400,6.3719765625,-1.213780164718628,1.1303503513336182,1.6334624290466309
1761469148501959700,6.381959716796875,-1.2121527194976807,1.1609349250793457,1.6424612998962402
1761469148511942400,6.3919423828125,-1.2164480686187744,1.2186310291290283,1.6569892168045044
1761469148521925400,6.40192529296875,-1.2245690822601318,1.2787582874298096,1.6702107191085815
1761469148531908600,6.41190869140625,-1.2278785705566406,1.3193453550338745,1.6921755075454712
1761469148541891600,6.4218916015625,-1.2271918058395386,1.323960542678833,1.710898518562317
1761469148551874300,6.431874267578125,-1.2030823230743408,1.309180498123169,1.7230548858642578
1761469148561857500,6.441857421875,-1.1618129014968872,1.2762116193771362,1.7354702949523926
1761469148571840500,6.451840576171875,-1.1153607368469238,1.2215205430984497,1.751712679862976
1761469148581823500,6.461823486328125,-1.0688310861587524,1.1599082946777344,1.7708642482757568
1761469148591807500,6.471807373046875,-1.030455470085144,1.1189922094345093,1.7797611951828003
1761469148601790500,6.48179052734375,-1.0053436756134033,1.088271141052246,1.7698705196380615
1761469148611773400,6.4917734375,-0.9981579184532166,1.073547601699829,1.75523841381073
1761469148621756700,6.501756591796875,-0.9866536259651184,1.0680676698684692,1.7505820989608765
1761469148631739600,6.51173974609375,-0.9834985136985779,1.0647186040878296,1.743037462234497
1761469148641718300,6.52171826171875,-0.9732046127319336,1.058330774307251,1.7356730699539185
1761469148651701200,6.531701171875,-0.9580973982810974,1.044542670249939,1.7167575359344482
1761469148661684200,6.541684326171875,-0.944526195526123,0.9921298027038574,1.6818392276763916
1761469148671667200,6.551667236328125,-0.9275187253952026,0.926643431186676,1.6556248664855957
1761469148681650200,6.561650146484375,-0.9066014885902405,0.8638301491737366,1.6406373977661133
1761469148691633200,6.571633056640625,-0.8840227127075195,0.8242715001106262,1.6226115226745605
1761469148701617200,6.5816171875,-0.8465397357940674,0.8054099678993225,1.5838971138000488
1761469148711600400,6.591600341796875,-0.8088065981864929,0.8052177429199219,1.5174846649169922
1761469148721583000,6.6015830078125,-0.7648183703422546,0.8202747106552124,1.4306150674819946
1761469148731566000,6.611566162109375,-0.7160028219223022,0.816155731678009,1.3429290056228638
1761469148741549300,6.62154931640625,-0.6619752645492554,0.8001900315284729,1.2784032821655273
1761469148751532300,6.6315322265625,-0.6125232577323914,0.7772136926651001,1.2420800924301147
1761469148761515300,6.641515380859375,-0.571087658405304,0.7493852972984314,1.2120335102081299
1761469148771498200,6.651498291015625,-0.5396057963371277,0.7257415056228638,1.179766058921814
1761469148781481200,6.661481201171875,-0.5060238242149353,0.7244150042533875,1.151123285293579
1761469148791464400,6.67146435546875,-0.4720788598060608,0.7251740097999573,1.1337405443191528
1761469148801448200,6.6814482421875,-0.4466816186904907,0.7024244666099548,1.1292078495025635
1761469148811431200,6.69143115234375,-0.4323105812072754,0.6626167893409729,1.131086826324463
1761469148821414100,6.7014140625,-0.41941583156585693,0.6330450177192688,1.1375846862792969
1761469148831397400,6.7113974609375,-0.41864013671875,0.6172939538955688,1.1456021070480347
1761469148841380000,6.721380126953125,-0.4322962760925293,0.6191677451133728,1.1534675359725952
1761469148851363000,6.731363037109375,-0.4394446313381195,0.6241801381111145,1.1678622961044312
1761469148861346300,6.74134619140625,-0.4249168038368225,0.6063367128372192,1.175569772720337
1761469148871329300,6.751329345703125,-0.4114585518836975,0.5358129143714905,1.1819747686386108
1761469148881312300,6.761312255859375,-0.4026978313922882,0.43256962299346924,1.1955592632293701
1761469148891295200,6.771295166015625,-0.39240092039108276,0.36231523752212524,1.23114013671875
1761469148901278200,6.7812783203125,-0.3979445695877075,0.31874752044677734,1.2770479917526245
1761469148911262200,6.79126220703125,-0.412609726190567,0.280392587184906,1.2858465909957886
1761469148921245200,6.8012451171875,-0.444255530834198,0.24942506849765778,1.2474251985549927
1761469148931228200,6.811228271484375,-0.4812237322330475,0.23355047404766083,1.211133599281311
1761469148941211100,6.821211181640625,-0.5224545001983643,0.22492262721061707,1.1906824111938477
1761469148951194400,6.8311943359375,-0.5581868290901184,0.21561945974826813,1.1890236139297485
1761469148961177000,6.841177001953125,-0.5732254385948181,0.21980223059654236,1.1790612936019897
1761469148971160000,6.85116015625,-0.5691948533058167,0.22851969301700592,1.1533243656158447
1761469148981143300,6.861143310546875,-0.5532217621803284,0.232249453663826,1.1267122030258179
1761469148991126300,6.871126220703125,-0.5179765224456787,0.209915891289711,1.106810450553894
1761469149001109200,6.881109130859375,-0.47732019424438477,0.16943451762199402,1.0925800800323486
1761469149011093200,6.89109326171875,-0.43487608432769775,0.10034285485744476,1.0828096866607666
1761469149021076200,6.901076171875,-0.39640966057777405,0.03786882758140564,1.071028709411621
1761469149031059200,6.91105908203125,-0.37154749035835266,0.011365963146090508,1.0533387660980225
1761469149041042400,6.92104248046875,-0.34224817156791687,0.01951470412313938,1.0183285474777222
1761469149051025200,6.931025146484375,-0.3112371861934662,0.027926189824938774,0.9711062908172607
1761469149061008100,6.941008056640625,-0.2776605784893036,0.05304272845387459,0.9236594438552856
1761469149070991400,6.950991455078125,-0.24623046815395355,0.09427884966135025,0.8779335021972656
1761469149080974000,6.96097412109375,-0.2200300246477127,0.15292298793792725,0.8451701998710632
1761469149090957000,6.97095703125,-0.20438754558563232,0.21809083223342896,0.8286720514297485
1761469149100941000,6.980941162109375,-0.18467164039611816,0.2943651080131531,0.8232232332229614
1761469149110924300,6.99092431640625,-0.16831576824188232,0.3694482743740082,0.8274851441383362
1761469149120907300,7.0009072265625,-0.1639564335346222,0.4319089949131012,0.8500770330429077
1761469149130890200,7.01089013671875,-0.16697335243225098,0.5139899849891663,0.8727594614028931
1761469149140873200,7.020873291015625,-0.1823725551366806,0.5741872787475586,0.8832578659057617
1761469149150856200,7.030856201171875,-0.19831475615501404,0.610848605632782,0.8814605474472046
1761469149160839400,7.04083935546875,-0.22540870308876038,0.6454662680625916,0.8949233293533325
1761469149170822100,7.050822265625,-0.24236609041690826,0.6720130443572998,0.922100305557251
1761469149180805000,7.06080517578125,-0.25227677822113037,0.6794054508209229,0.9638461470603943
1761469149190788400,7.070788330078125,-0.247979998588562,0.6534178853034973,1.002847671508789
1761469149200772400,7.0807724609375,-0.22712452709674835,0.6312191486358643,1.0392106771469116
1761469149210755000,7.090755126953125,-0.21600404381752014,0.6402599811553955,1.0583114624023438
1761469149220738000,7.100738037109375,-0.2132876217365265,0.6409854292869568,1.0413641929626465
1761469149230721300,7.11072119140625,-0.20496252179145813,0.6794318556785583,1.0060123205184937
1761469149240704300,7.120704345703125,-0.1992577612400055,0.6698918342590332,0.9600170254707336
1761469149250687200,7.130687255859375,-0.189964160323143,0.6318665742874146,0.9005095958709717
1761469149260670200,7.140670166015625,-0.17355109751224518,0.6128121614456177,0.8294756412506104
1761469149270653200,7.150653076171875,-0.15005961060523987,0.6017442941665649,0.7552902102470398
1761469149280636400,7.160636474609375,-0.12656226754188538,0.5734599232673645,0.6926787495613098
1761469149290620400,7.170620361328125,-0.1064118817448616,0.500178873538971,0.6456706523895264
1761469149300603100,7.18060302734375,-0.08152544498443604,0.41028547286987305,0.6295148134231567
1761469149310586000,7.190586181640625,-0.05424325913190842,0.3462575376033783,0.6253864765167236
1761469149320569300,7.2005693359375,-0.029976805672049522,0.31782564520835876,0.6200093030929565
1761469149330552000,7.210552001953125,-0.01930961385369301,0.31042084097862244,0.606560230255127
1761469149340535000,7.22053515625,-0.012396581470966339,0.31612905859947205,0.5892496705055237
1761469149350518300,7.230518310546875,-0.021568097174167633,0.31821200251579285,0.5629875063896179
1761469149360501200,7.240501220703125,-0.04572003707289696,0.31265878677368164,0.529137372970581
1761469149370484200,7.250484130859375,-0.06680644303560257,0.3351152241230011,0.4973050355911255
1761469149380467200,7.26046728515625,-0.09114773571491241,0.34852051734924316,0.4620402455329895
1761469149390451200,7.270451171875,-0.10984738916158676,0.34820207953453064,0.43012797832489014
1761469149400434200,7.28043408203125,-0.13148637115955353,0.3092333674430847,0.39467835426330566
1761469149410417400,7.29041748046875,-0.1457185000181198,0.23486194014549255,0.3707527816295624
1761469149420400000,7.300400146484375,-0.15181127190589905,0.17447689175605774,0.3568795621395111
1761469149430383000,7.310383056640625,-0.15846297144889832,0.16134099662303925,0.35389378666877747
1761469149440366300,7.320366455078125,-0.15884141623973846,0.1881861835718155,0.36434537172317505
1761469149450349000,7.33034912109375,-0.15621793270111084,0.22473694384098053,0.367892324924469
1761469149460332000,7.34033203125,-0.14367391169071198,0.2563318908214569,0.370286762714386
1761469149470315300,7.350315185546875,-0.12876015901565552,0.28450554609298706,0.3676261901855469
1761469149480299300,7.36029931640625,-0.11065519601106644,0.2931826710700989,0.36585837602615356
1761469149490282200,7.3702822265625,-0.11248568445444107,0.2810639441013336,0.36537596583366394
1761469149500265200,7.38026513671875,-0.12752453982830048,0.2447626292705536,0.37018510699272156
1761469149510248200,7.390248291015625,-0.15213656425476074,0.21629135310649872,0.3830982446670532
1761469149520231200,7.400231201171875,-0.1814478486776352,0.2064986377954483,0.4014338254928589
1761469149530214400,7.41021435546875,-0.21339474618434906,0.20995239913463593,0.41670599579811096
1761469149540197000,7.420197021484375,-0.24221201241016388,0.20691798627376556,0.43866536021232605
1761469149550180000,7.43018017578125,-0.26181596517562866,0.18369024991989136,0.46294018626213074
1761469149560163300,7.440163330078125,-0.2735740840435028,0.15056505799293518,0.4982664883136749
1761469149570147300,7.450147216796875,-0.2766377031803131,0.11781325936317444,0.547252893447876
1761469149580130000,7.460130126953125,-0.27521318197250366,0.06813358515501022,0.6082315444946289
1761469149590113300,7.47011328125,-0.27414312958717346,0.003100055968388915,0.6731683611869812
1761469149600096300,7.48009619140625,-0.27331650257110596,-0.051549606025218964,0.7291474342346191
1761469149610079200,7.490079345703125,-0.263380229473114,-0.10021934658288956,0.770337700843811
1761469149620062200,7.500062255859375,-0.25540539622306824,-0.13819947838783264,0.7932187914848328
1761469149630045200,7.510045166015625,-0.2530290484428406,-0.14748971164226532,0.8012393116950989
1761469149640029700,7.52002978515625,-0.2525683343410492,-0.14378632605075836,0.789588212966919
1761469149650013700,7.530013671875,-0.2399032711982727,-0.15969336032867432,0.7661723494529724
1761469149659996400,7.539996337890625,-0.2348475307226181,-0.2218472808599472,0.7702890634536743
1761469149669979600,7.549979736328125,-0.21700923144817352,-0.3061964511871338,0.8023393750190735
1761469149679962600,7.559962646484375,-0.20290006697177887,-0.40061989426612854,0.8600084781646729
1761469149689945600,7.569945556640625,-0.1998423933982849,-0.4332629144191742,0.9176862835884094
1761469149699928600,7.579928466796875,-0.19941601157188416,-0.4175068736076355,0.9577348828315735
1761469149709911600,7.58991162109375,-0.20852145552635193,-0.40127283334732056,0.9657222628593445
1761469149719894500,7.59989453125,-0.20464655756950378,-0.40843382477760315,0.9672878980636597
1761469149729877500,7.60987744140625,-0.18263953924179077,-0.3199669420719147,0.9341114163398743
1761469149739861500,7.619861572265625,-0.155329629778862,-0.14604946970939636,0.8484271168708801
1761469149749844500,7.629844482421875,-0.11696197092533112,0.010390881448984146,0.7688363790512085
1761469149759827700,7.63982763671875,-0.08173155039548874,0.07534883916378021,0.7239442467689514
1761469149769810700,7.649810791015625,-0.017628567293286324,0.0390242263674736,0.7434529066085815
1761469149779793400,7.65979345703125,0.0015488550998270512,-0.018201244994997978,0.7331768870353699
1761469149789776600,7.669776611328125,-0.028415687382221222,-0.0008516181260347366,0.6595466136932373
1761469149799759600,7.679759521484375,-0.09122048318386078,0.06431939452886581,0.5704526901245117
1761469149809742600,7.68974267578125,-0.1790493279695511,0.13003671169281006,0.4906361997127533
1761469149819725600,7.6997255859375,-0.26665666699409485,0.16181381046772003,0.4210454225540161
1761469149829709600,7.70970947265625,-0.3512350916862488,0.15339072048664093,0.39978960156440735
1761469149839692500,7.719692626953125,-0.4261700510978699,0.11283157765865326,0.393876850605011
1761469149849675800,7.72967578125,-0.47183406352996826,0.10010843724012375,0.3721025884151459
1761469149859658500,7.739658447265625,-0.505321741104126,0.12942850589752197,0.3315921723842621
1761469149869641500,7.749641357421875,-0.5353503227233887,0.12503206729888916,0.27238088846206665
1761469149879624700,7.759624755859375,-0.5232726335525513,0.055372823029756546,0.22933752834796906
1761469149889607700,7.769607666015625,-0.48731884360313416,-0.05348273366689682,0.21772541105747223
1761469149899590400,7.77959033203125,-0.42666560411453247,-0.1560184210538864,0.21968203783035278
1761469149909574400,7.789574462890625,-0.36656323075294495,-0.2100052684545517,0.22376710176467896
1761469149919557600,7.7995576171875,-0.30801576375961304,-0.2417224496603012,0.22335457801818848
1761469149929540600,7.80954052734375,-0.26857277750968933,-0.2768745720386505,0.22955141961574554
1761469149939523600,7.819523681640625,-0.24979136884212494,-0.29935991764068604,0.2480585128068924
1761469149949506600,7.829506591796875,-0.2476050853729248,-0.28657233715057373,0.27379485964775085
1761469149959489500,7.839489501953125,-0.28145572543144226,-0.2454206347465515,0.3028355538845062
1761469149969472800,7.84947265625,-0.3304521441459656,-0.1852855235338211,0.3249049484729767
1761469149979455500,7.85945556640625,-0.37427765130996704,-0.12454681098461151,0.3394505977630615
1761469149989439500,7.869439453125,-0.42092451453208923,-0.0673128142952919,0.34345707297325134
1761469149999422500,7.87942236328125,-0.4502464532852173,-0.023841772228479385,0.35439202189445496
1761469150009405700,7.88940576171875,-0.47058990597724915,-0.003064567456021905,0.3666544258594513
1761469150019388700,7.899388671875,-0.48019006848335266,0.0015637401957064867,0.3724638521671295
1761469150029371400,7.909371337890625,-0.4868567883968353,0.007308109197765589,0.38323959708213806
1761469150039354600,7.919354736328125,-0.5011406540870667,0.0015002870932221413,0.3776664137840271
1761469150049337600,7.929337646484375,-0.501247227191925,0.009699000045657158,0.36582881212234497
1761469150059320600,7.939320556640625,-0.4935701787471771,0.01398509182035923,0.3491073548793793
1761469150069304800,7.949304931640625,-0.48021188378334045,-0.021235082298517227,0.33001700043678284
1761469150079287600,7.95928759765625,-0.469377338886261,-0.06516285985708237,0.32075294852256775
1761469150089270500,7.9692705078125,-0.45934921503067017,-0.09758087247610092,0.30402541160583496
1761469150099253800,7.979253662109375,-0.4483799338340759,-0.08823876827955246,0.2842642366886139
1761469150109236500,7.989236572265625,-0.4447004199028015,-0.04938570410013199,0.26034578680992126
1761469150119219500,7.999219482421875,-0.4332885146141052,-0.017705271020531654,0.22789141535758972
1761469150129202700,8.00920263671875,-0.419386088848114,-0.02380114234983921,0.19159778952598572
1761469150139185700,8.019185546875,-0.38907480239868164,-0.07567472755908966,0.15727069973945618
1761469150149168400,8.02916845703125,-0.36322760581970215,-0.12215323001146317,0.1270095705986023
1761469150159151600,8.039151611328125,-0.331184446811676,-0.14879469573497772,0.08760542422533035
1761469150169134600,8.049134521484374,-0.2836998701095581,-0.18291513621807098,0.05910808593034744
1761469150179117600,8.05911767578125,-0.23253203928470612,-0.20434772968292236,0.03599504381418228
1761469150189100500,8.0691005859375,-0.17325864732265472,-0.2181420624256134,0.019160714000463486
1761469150199083500,8.07908349609375,-0.11333086341619492,-0.24176430702209473,0.00898823793977499
1761469150209066800,8.089066650390626,-0.04573783650994301,-0.30658426880836487,0.0028690132312476635
1761469150219050800,8.09905078125,0.0025205069687217474,-0.37672048807144165,0.0264584943652153
1761469150229033500,8.109033447265626,0.04439866542816162,-0.4702211320400238,0.0711546316742897
1761469150239016400,8.119016357421875,0.05798371881246567,-0.6744171380996704,-0.022713536396622658
1761469150248999700,8.128999755859375,0.035993240773677826,-0.6526926755905151,0.043217871338129044
1761469150258982700,8.138982666015625,0.10423727333545685,-0.5480539202690125,0.10854015499353409
1761469150268965400,8.14896533203125,0.1278863549232483,-0.4721241593360901,0.11599608510732651
1761469150278948600,8.158948486328125,0.13036124408245087,-0.35724949836730957,0.13864333927631378
1761469150288931600,8.168931640625,0.11884758621454239,-0.2998136281967163,0.14649221301078796
1761469150298915600,8.17891552734375,0.07805408537387848,-0.2725801467895508,0.15368567407131195
1761469150308898600,8.188898681640625,0.021307794377207756,-0.2554817795753479,0.17038217186927795
1761469150318881500,8.198881591796875,-0.042246945202350616,-0.2401568740606308,0.18177038431167603
1761469150328864500,8.208864501953125,-0.09493261575698853,-0.18535545468330383,0.17878927290439606
1761469150338847700,8.21884765625,-0.12993188202381134,-0.11312520503997803,0.18039275705814362
1761469150348830700,8.228830810546874,-0.14022235572338104,-0.05381247028708458,0.19361817836761475
1761469150358813400,8.2388134765625,-0.1344054788351059,-0.05573447048664093,0.224531888961792
1761469150368797400,8.24879736328125,-0.12243255972862244,-0.12052466720342636,0.28548240661621094
1761469150378780700,8.25878076171875,-0.1342540681362152,-0.16575926542282104,0.34602564573287964
1761469150388763600,8.268763671875,-0.16519039869308472,-0.15910576283931732,0.3635605275630951
1761469150398746400,8.278746337890626,-0.21649619936943054,-0.10414797067642212,0.3042449951171875
1761469150408729600,8.2887294921875,-0.27520573139190674,0.007328385021537542,0.18747346103191376
1761469150418712600,8.298712646484375,-0.2793639898300171,0.11451423168182373,0.040924232453107834
1761469150428695600,8.308695556640625,-0.2397540956735611,0.0760645940899849,-0.054615359753370285
1761469150438678500,8.318678466796875,-0.15394997596740723,-0.09201469272375107,-0.027605045586824417
1761469150448662500,8.32866259765625,-0.04047584906220436,-0.31488630175590515,0.08972557634115219
1761469150458645500,8.3386455078125,0.05574921891093254,-0.4773732125759125,0.22664108872413635
1761469150468628700,8.348628662109375,0.12345122545957565,-0.5392302870750427,0.28315916657447815
1761469150478611500,8.358611572265625,0.1548653393983841,-0.4972178637981415,0.2582407593727112
1761469150488594400,8.368594482421875,0.15145282447338104,-0.3668586015701294,0.18285706639289856
1761469150498577700,8.37857763671875,0.13982626795768738,-0.17200523614883423,0.07533299922943115
1761469150508560600,8.388560546875,0.12343154847621918,0.05065172165632248,-0.05250219628214836
1761469150518544600,8.398544677734375,0.10302241891622543,0.23385563492774963,-0.1628904789686203
1761469150528527600,8.408527587890624,0.0704028382897377,0.2732327878475189,-0.20404337346553802
1761469150538510600,8.418510498046874,0.052678968757390976,0.210788294672966,-0.17021112143993378
1761469150548493600,8.42849365234375,0.0431356355547905,0.1246916726231575,-0.10811251401901245
1761469150558476800,8.438476806640624,0.04339609295129776,0.05774938687682152,-0.0653488039970398
1761469150568459500,8.44845947265625,0.024478744715452194,0.05073186755180359,-0.03561554476618767
1761469150578442500,8.4584423828125,-0.008413158357143402,0.0732952281832695,-0.01348094642162323
1761469150588425700,8.46842578125,-0.033251889050006866,0.10001393407583237,0.017377695068717003
1761469150598409700,8.47840966796875,-0.056457072496414185,0.11564961820840836,0.053430236876010895
1761469150608392400,8.488392333984375,-0.0678342804312706,0.142131045460701,0.10033874958753586
1761469150618375400,8.49837548828125,-0.05806580185890198,0.17614147067070007,0.14795100688934326
1761469150628358700,8.508358642578125,-0.032085828483104706,0.19300487637519836,0.18340307474136353
1761469150638341600,8.518341552734375,0.004216254688799381,0.18242387473583221,0.21039900183677673
1761469150648324600,8.52832470703125,0.04406794533133507,0.18396149575710297,0.24575312435626984
1761469150658307600,8.5383076171875,0.08335249871015549,0.1976623833179474,0.2901530861854553
1761469150668291600,8.54829150390625,0.11465340852737427,0.23445332050323486,0.3224395513534546
1761469150678274600,8.558274658203125,0.12957510352134705,0.28354230523109436,0.3413056433200836
1761469150688257800,8.5682578125,0.1343354433774948,0.3048816919326782,0.34376776218414307
1761469150698241800,8.57824169921875,0.11628134548664093,0.31872162222862244,0.33150017261505127
1761469150708224500,8.588224609375,0.07054625451564789,0.34139370918273926,0.3042313754558563
1761469150718207500,8.59820751953125,0.02339126169681549,0.39533230662345886,0.26934877038002014
1761469150728190700,8.608190673828124,-0.02138502150774002,0.45010989904403687,0.2258596569299698
1761469150738173700,8.618173583984374,-0.07555451989173889,0.5031347870826721,0.17568889260292053
1761469150748157700,8.62815771484375,-0.12346777319908142,0.5372912287712097,0.15036451816558838
1761469150758140700,8.638140625,-0.15963588654994965,0.5514467358589172,0.14469145238399506
1761469150768123600,8.64812353515625,-0.18170946836471558,0.5258995890617371,0.1553313136100769
1761469150778106600,8.658106689453126,-0.1927645206451416,0.47554245591163635,0.18361301720142365
1761469150788089600,8.668089599609376,-0.1860153079032898,0.42648741602897644,0.22152432799339294
1761469150798072600,8.678072509765625,-0.18077152967453003,0.38024190068244934,0.2508803606033325
1761469150808055600,8.6880556640625,-0.1826343685388565,0.35274019837379456,0.2645404636859894
1761469150818038800,8.698038818359375,-0.18241837620735168,0.37212350964546204,0.2679844796657562
1761469150828022800,8.708022705078125,-0.18409836292266846,0.3892751932144165,0.25895991921424866
1761469150838005500,8.718005615234375,-0.1851271539926529,0.3989158272743225,0.24400652945041656
1761469150847988500,8.727988525390625,-0.189760223031044,0.3874373733997345,0.2366688996553421
1761469150857971700,8.7379716796875,-0.19691160321235657,0.3452718257904053,0.2368779480457306
1761469150867954700,8.74795458984375,-0.203713521361351,0.31536588072776794,0.26070529222488403
1761469150877937700,8.757937744140625,-0.22052419185638428,0.31690916419029236,0.2824481427669525
1761469150887920600,8.767920654296875,-0.2344886213541031,0.3127490282058716,0.29872894287109375
1761469150897904600,8.777904541015625,-0.2278941124677658,0.2885257303714752,0.2989899516105652
1761469150907887600,8.7878876953125,-0.2130240947008133,0.24203790724277496,0.2940065860748291
1761469150917870600,8.79787060546875,-0.18555864691734314,0.1865062117576599,0.2944289445877075
1761469150927853600,8.807853515625,-0.16072501242160797,0.1313595026731491,0.2883070707321167
1761469150937836500,8.81783642578125,-0.13875631988048553,0.06426410377025604,0.276405930519104
1761469150947819800,8.82781982421875,-0.14157167077064514,-0.009093563072383404,0.292880117893219
1761469150957802500,8.837802490234376,-0.17010077834129333,-0.04955337196588516,0.31675830483436584
1761469150967786500,8.847786376953126,-0.22369076311588287,-0.036518070846796036,0.32298243045806885
1761469150977769700,8.857769775390626,-0.27478137612342834,0.03458379954099655,0.3106836676597595
1761469150987752700,8.867752685546876,-0.31222569942474365,0.10838574171066284,0.2770662307739258
1761469150997735700,8.877735595703125,-0.31727081537246704,0.14565987884998322,0.2414642870426178
1761469151007718700,8.88771875,-0.29964953660964966,0.166550412774086,0.23398764431476593
1761469151017701600,8.89770166015625,-0.2725452184677124,0.15405219793319702,0.24701078236103058
1761469151027684600,8.9076845703125,-0.23853616416454315,0.10902826488018036,0.2703852653503418
1761469151037668600,8.917668701171875,-0.19720257818698883,0.059744078665971756,0.3034641146659851
1761469151047651600,8.927651611328125,-0.17648589611053467,0.029354505240917206,0.3332066237926483
1761469151057634600,8.937634521484375,-0.16177459061145782,0.028314005583524704,0.353705495595932
1761469151067617500,8.947617431640625,-0.15013045072555542,0.036689382046461105,0.36478719115257263
1761469151077600800,8.957600830078125,-0.1397465169429779,0.014581149443984032,0.3845773935317993
1761469151087583500,8.96758349609375,-0.1370472013950348,-0.024378659203648567,0.41876545548439026
1761469151097566700,8.977566650390624,-0.1388019621372223,-0.07689139991998672,0.46609994769096375
1761469151107550700,8.98755078125,-0.1425541490316391,-0.152290478348732,0.540050208568573
1761469151117533700,8.99753369140625,-0.15316630899906158,-0.19140006601810455,0.6419126987457275
1761469151127516700,9.0075166015625,-0.15945276618003845,-0.13434621691703796,0.7196624279022217
1761469151137499600,9.017499755859374,-0.16297931969165802,-0.002493381965905428,0.7236643433570862
1761469151147482600,9.027482666015626,-0.15075993537902832,0.16731296479701996,0.6597130298614502
1761469151157465600,9.037465576171876,-0.12300526350736618,0.27696889638900757,0.5942205786705017
1761469151167448600,9.047448486328125,-0.08358711004257202,0.27465587854385376,0.5820564031600952
1761469151177432600,9.0574326171875,-0.04092726856470108,0.21405218541622162,0.609490692615509
1761469151187415600,9.06741552734375,-0.021862071007490158,0.15861816704273224,0.6153759360313416
1761469151197398800,9.077398681640625,-0.041696496307849884,0.12765705585479736,0.5932799577713013
1761469151207381800,9.0873818359375,-0.09072995185852051,0.12738561630249023,0.5407155752182007
1761469151217364500,9.097364501953125,-0.1243494302034378,0.14879396557807922,0.47622284293174744
1761469151227347700,9.10734765625,-0.17504844069480896,0.1915489137172699,0.40376242995262146
1761469151237330700,9.11733056640625,-0.21836687624454498,0.24242940545082092,0.3390100598335266
1761469151247313700,9.127313720703125,-0.2723389267921448,0.3018646538257599,0.2896730899810791
1761469151257297400,9.13729736328125,-0.3258109390735626,0.36519327759742737,0.2663128972053528
1761469151267280600,9.14728076171875,-0.36581799387931824,0.39223524928092957,0.24791809916496277
1761469151277263600,9.157263671875,-0.39897620677948,0.35004305839538574,0.22241432964801788
1761469151287246600,9.16724658203125,-0.40934333205223083,0.27337804436683655,0.2020067572593689
1761469151297229600,9.1772294921875,-0.4071161150932312,0.20829440653324127,0.17402784526348114
1761469151307212500,9.187212646484374,-0.4002407193183899,0.13409456610679626,0.13869614899158478
1761469151317195800,9.19719580078125,-0.3976303040981293,0.07025273889303207,0.11788780242204666
1761469151327179800,9.2071796875,-0.39041557908058167,0.06515179574489594,0.1125272735953331
1761469151337162800,9.217162841796876,-0.3753940165042877,0.07523772120475769,0.12015669792890549
1761469151347145500,9.2271455078125,-0.3522288501262665,0.06832534819841385,0.13551631569862366
1761469151357128700,9.237128662109376,-0.3237663209438324,0.04619501531124115,0.15167556703090668
1761469151367111700,9.247111572265625,-0.30711159110069275,0.04581291228532791,0.15396378934383392
1761469151377094700,9.2570947265625,-0.31495219469070435,0.0666300430893898,0.13717254996299744
1761469151387077600,9.26707763671875,-0.32471007108688354,0.10237639397382736,0.10443073511123657
1761469151397061600,9.2770615234375,-0.3478204607963562,0.13015076518058777,0.05206020548939705
1761469151407044600,9.287044677734375,-0.3668992519378662,0.14983420073986053,0.0008248370140790939
1761469151417027600,9.297027587890625,-0.3870394229888916,0.13136598467826843,-0.05070732906460762
1761469151427010600,9.307010498046875,-0.3907155692577362,0.08640043437480927,-0.09591212868690491
1761469151436993500,9.31699365234375,-0.3924921751022339,0.03897832706570625,-0.13250529766082764
1761469151446976800,9.326976806640625,-0.383075475692749,0.034529909491539,-0.15463194251060486
1761469151456959700,9.336959716796875,-0.36377421021461487,0.07773810625076294,-0.15074186027050018
1761469151466943700,9.34694384765625,-0.32942482829093933,0.1133388876914978,-0.133195698261261
1761469151476926500,9.356926513671874,-0.26482853293418884,0.1716059148311615,-0.04387833923101425
1761469151486909700,9.36690966796875,-0.2253713309764862,0.12485048174858093,-0.03629918396472931
1761469151496892700,9.376892578125,-0.20386631786823273,-0.009323828853666782,-0.10518797487020493
1761469151506875400,9.38687548828125,-0.17556951940059662,-0.1169745922088623,-0.15546517074108124
1761469151516858600,9.396858642578126,-0.16632036864757538,-0.12221808731555939,-0.139062762260437
1761469151526841600,9.406841552734376,-0.1762302815914154,-0.10174725204706192,-0.09995504468679428
1761469151536825600,9.41682568359375,-0.18672233819961548,-0.047246724367141724,-0.08682006597518921
1761469151546808800,9.426808837890626,-0.19128620624542236,0.011818459257483482,-0.0914078950881958
1761469151556791600,9.43679150390625,-0.18064580857753754,0.05429720878601074,-0.09428304433822632
