time,seconds_elapsed,z,y,x
1761469069738609400,0.122609375,0.010751066729426384,0.6522738933563232,-0.20678828656673431
1761469069748592400,0.13259228515625,-0.023660169914364815,0.5553976893424988,-0.2447228878736496
1761469069758575400,0.142575439453125,-0.03059571050107479,0.5141550898551941,-0.2225995808839798
1761469069768558300,0.152558349609375,-0.03556836396455765,0.45991048216819763,-0.13924530148506165
1761469069778541300,0.162541259765625,-0.038403235375881195,0.48035940527915955,-0.02731814794242382
1761469069788524300,0.172524169921875,-0.026526600122451782,0.6755815744400024,0.05303448066115379
1761469069798506200,0.18250634765625,-0.2033703476190567,1.209269404411316,0.10189706832170486
1761469069808489200,0.1924892578125,-0.36173734068870544,1.585824966430664,0.012976782396435738
1761469069818472400,0.202472412109375,-0.27583324909210205,1.08002769947052,-0.07684750109910965
1761469069828455400,0.212455322265625,-0.2712901532649994,0.9815844893455505,0.08143055438995361
1761469069838438400,0.2224384765625,-0.2259826511144638,0.8462814688682556,0.15227457880973816
1761469069848421400,0.23242138671875,-0.18433694541454315,0.598102867603302,0.12167484313249588
1761469069858404400,0.242404296875,-0.19098219275474548,0.40718740224838257,0.07187709212303162
1761469069868387600,0.2523876953125,-0.20860113203525543,0.25126010179519653,0.008024873211979866
1761469069878370300,0.262370361328125,-0.21826668083667755,0.19761742651462555,-0.013792729005217552
1761469069888352500,0.2723525390625,-0.23368717730045319,0.2057190239429474,-0.001097973668947816
1761469069898335500,0.28233544921875,-0.23279674351215363,0.21189381182193756,0.0017802922520786524
1761469069908318200,0.292318115234375,-0.23241885006427765,0.21970538794994354,-0.00406321557238698
1761469069918301400,0.302301513671875,-0.2382153570652008,0.2552860975265503,-0.0009948813822120428
1761469069928284400,0.312284423828125,-0.2487654685974121,0.2521182596683502,0.01637611910700798
1761469069938267400,0.322267333984375,-0.19713889062404633,0.2744669020175934,0.06662587076425552
1761469069948250400,0.33225048828125,-0.11028201878070831,0.34976086020469666,0.08633752167224884
1761469069958233300,0.3422333984375,-0.13636042177677155,0.2188446968793869,0.03988777846097946
1761469069968216300,0.35221630859375,-0.18513169884681702,0.030667589977383614,0.03855033963918686
1761469069978199600,0.362199462890625,-0.21521268784999847,0.014264319092035294,0.0848701000213623
1761469069988181200,0.37218115234375,-0.21783962845802307,0.07482273876667023,0.14828741550445557
1761469069998164500,0.38216455078125,-0.1826554834842682,0.20312753319740295,0.22972963750362396
1761469070008147500,0.3921474609375,-0.1886017918586731,0.34259089827537537,0.3165993094444275
1761469070018130200,0.402130126953125,-0.23859305679798126,0.5250387191772461,0.36551356315612793
1761469070028113400,0.412113525390625,-0.15058304369449615,0.38391754031181335,0.31615930795669556
1761469070038096400,0.422096435546875,-0.26752814650535583,0.225410595536232,0.3805493712425232
1761469070048079600,0.43207958984375,-0.30739086866378784,0.20231619477272034,0.39310911297798157
1761469070058062300,0.442062255859375,-0.30302003026008606,0.17218226194381714,0.34983330965042114
1761469070068045300,0.45204541015625,-0.3405112028121948,0.11963251233100891,0.294216126203537
1761469070078028500,0.462028564453125,-0.3615231215953827,0.07401437312364578,0.2107888013124466
1761469070088010200,0.47201025390625,-0.4171893000602722,-0.050229545682668686,0.1437740921974182
1761469070097993500,0.481993408203125,-0.4372848868370056,-0.12863482534885406,0.12113966792821884
1761469070107976400,0.4919765625,-0.4260362386703491,-0.13037332892417908,0.11451984941959381
1761469070117959200,0.501959228515625,-0.44589129090309143,-0.08033869415521622,0.1211710199713707
1761469070127942400,0.5119423828125,-0.4791187644004822,0.03898610547184944,0.13199622929096222
1761469070137925400,0.52192529296875,-0.5115402340888977,0.20447051525115967,0.16782625019550323
1761469070147908400,0.531908447265625,-0.5407103896141052,0.3953525722026825,0.23576509952545166
1761469070157891300,0.541891357421875,-0.5541489720344543,0.5488319993019104,0.30340954661369324
1761469070167874300,0.551874267578125,-0.5473347902297974,0.5997575521469116,0.3559105694293976
1761469070177857300,0.561857177734375,-0.5409691333770752,0.6041491031646729,0.3940608501434326
1761469070187839200,0.571839111328125,-0.5383467078208923,0.5840398073196411,0.423769474029541
1761469070197822200,0.581822265625,-0.5399308204650879,0.567371666431427,0.46911177039146423
1761469070207805400,0.591805419921875,-0.5529590249061584,0.4492623209953308,0.46188127994537354
1761469070217788400,0.601788330078125,-0.5303266644477844,0.5652694702148438,0.5431399941444397
1761469070227771400,0.611771484375,-0.5467548966407776,0.6768119931221008,0.6043258309364319
1761469070237754400,0.62175439453125,-0.5498906970024109,0.8285652995109558,0.6566897630691528
1761469070247737300,0.6317373046875,-0.538955807685852,0.9360576272010803,0.7027227878570557
1761469070257720600,0.641720458984375,-0.5199785828590393,0.9762876629829407,0.7763406038284302
1761469070267703300,0.651703369140625,-0.5071091055870056,1.0018713474273682,0.8482304811477661
1761469070277685500,0.661685546875,-0.4868570566177368,1.0402872562408447,0.8603966236114502
1761469070287668500,0.67166845703125,-0.5074193477630615,1.0318224430084229,0.8338393568992615
1761469070297651200,0.681651123046875,-0.49753648042678833,0.874272882938385,0.7398828864097595
1761469070307634400,0.691634521484375,-0.5050005316734314,0.6483042240142822,0.6144240498542786
1761469070317617400,0.701617431640625,-0.5411323308944702,0.6479582786560059,0.5026666522026062
1761469070327600400,0.711600341796875,-0.5563035607337952,0.651528537273407,0.4529971480369568
1761469070337583400,0.721583251953125,-0.5111164450645447,0.6167217493057251,0.5076401233673096
1761469070347566300,0.73156640625,-0.30272117257118225,0.8072320222854614,0.7031408548355103
1761469070357549300,0.74154931640625,-0.42678532004356384,0.8825225830078125,0.7403287291526794
1761469070367532500,0.751532470703125,-0.5147191882133484,0.6825796365737915,0.6521562337875366
1761469070377514200,0.76151416015625,-0.5088203549385071,0.6702058911323547,0.7031950950622559
1761469070387497500,0.77149755859375,-0.48641887307167053,0.7148873209953308,0.8158630728721619
1761469070397480400,0.78148046875,-0.45702946186065674,0.7076695561408997,0.8705730438232422
1761469070407463400,0.79146337890625,-0.46079036593437195,0.7085078954696655,0.853706419467926
1761469070417446400,0.8014462890625,-0.48317137360572815,0.7373390793800354,0.8422990441322327
1761469070427429400,0.811429443359375,-0.5029570460319519,0.7679281234741211,0.8476848006248474
1761469070437412400,0.821412353515625,-0.5349242687225342,0.7534534931182861,0.8540078997612
1761469070447395300,0.831395263671875,-0.5528377890586853,0.6789653897285461,0.8604010939598083
1761469070457378300,0.84137841796875,-0.5971582531929016,0.6248796582221985,0.8639647364616394
1761469070467360300,0.8513603515625,-0.634032666683197,0.663459300994873,0.8706220984458923
1761469070477343200,0.86134326171875,-0.6734756827354431,0.7522842288017273,0.8890535831451416
1761469070487326500,0.871326416015625,-0.7294345498085022,0.880454421043396,0.9344213008880615
1761469070497309400,0.881309326171875,-0.7455801963806152,1.0423957109451294,1.000115990638733
1761469070507292200,0.891292236328125,-0.7383233904838562,1.07403564453125,1.0354584455490112
1761469070517275400,0.901275390625,-0.7404606938362122,0.9877607822418213,1.0014050006866455
1761469070527258400,0.91125830078125,-0.7664560675621033,0.8545305728912354,0.951897919178009
1761469070537241300,0.921241455078125,-0.7825383543968201,0.704208493232727,0.913334846496582
1761469070547224300,0.931224365234375,-0.7570300698280334,0.5959315299987793,0.8365945219993591
1761469070557207300,0.941207275390625,-0.7588500380516052,0.5194650292396545,0.7131102085113525
1761469070567184100,0.95118408203125,-0.7699889540672302,0.46671923995018005,0.5867612957954407
1761469070577167400,0.96116748046875,-0.77503901720047,0.4209896922111511,0.516926646232605
1761469070587150300,0.971150390625,-0.7712041139602661,0.3741966187953949,0.5165615081787109
1761469070597133300,0.98113330078125,-0.7714434266090393,0.34623590111732483,0.5433170199394226
1761469070607116300,0.9911162109375,-0.7666297554969788,0.3435532748699188,0.5915245413780212
1761469070617099300,1.001099365234375,-0.7625787854194641,0.37507402896881104,0.6516447067260742
1761469070627082200,1.011082275390625,-0.7424554228782654,0.40134960412979126,0.6874815225601196
1761469070637065200,1.021065185546875,-0.7108364701271057,0.37534797191619873,0.6866529583930969
1761469070647048200,1.031048095703125,-0.6653012037277222,0.3676125705242157,0.6677738428115845
1761469070657031400,1.041031494140625,-0.6429293155670166,0.3944801688194275,0.6439553499221802
1761469070667013400,1.051013427734375,-0.643277108669281,0.42553555965423584,0.6234327554702759
1761469070676996400,1.060996337890625,-0.6385380625724792,0.4475766718387604,0.621627926826477
1761469070686979300,1.070979248046875,-0.6307083368301392,0.43450960516929626,0.6217262148857117
1761469070696962300,1.08096240234375,-0.6227717995643616,0.41136038303375244,0.6246774792671204
1761469070706945300,1.0909453125,-0.6068804264068604,0.26995161175727844,0.44672083854675293
1761469070716928300,1.10092822265625,-0.5479341745376587,0.15212683379650116,0.2945050895214081
1761469070726911200,1.1109111328125,-0.5929424166679382,0.09811820834875107,0.30968430638313293
1761469070736894500,1.12089453125,-0.535682201385498,0.2208993285894394,0.43757176399230957
1761469070746877200,1.130877197265625,-0.47419145703315735,0.23072080314159393,0.4695350229740143
1761469070756859400,1.140859375,-0.4270626902580261,0.0791442021727562,0.3193501830101013
1761469070766842400,1.15084228515625,-0.38589048385620117,-0.053342465311288834,0.1565607488155365
1761469070776825000,1.1608251953125,-0.4093436002731323,-0.024239692836999893,0.19950474798679352
1761469070786808300,1.170808349609375,-0.4436943829059601,0.10640832781791687,0.3646388351917267
1761469070796791300,1.180791259765625,-0.46571749448776245,0.23713108897209167,0.5126202702522278
1761469070806774300,1.190774169921875,-0.48588719964027405,0.24580393731594086,0.5355652570724487
1761469070816757200,1.20075732421875,-0.4734809398651123,0.1541445404291153,0.45106998085975647
1761469070826740200,1.210740234375,-0.4838654100894928,0.06674225628376007,0.34211820363998413
1761469070836723200,1.22072314453125,-0.48064345121383667,0.01911434344947338,0.25751736760139465
1761469070846705200,1.230705078125,-0.4661984443664551,-0.020021341741085052,0.2111397683620453
1761469070856688400,1.2406884765625,-0.43024352192878723,-0.07345191389322281,0.2070426344871521
1761469070866671400,1.25067138671875,-0.39635610580444336,-0.11878344416618347,0.2484598606824875
1761469070876654300,1.260654296875,-0.366879403591156,-0.1111220046877861,0.3531293570995331
1761469070886637300,1.27063720703125,-0.34198257327079773,-0.12416456639766693,0.4501078128814697
1761469070896620300,1.280620361328125,-0.3241460919380188,-0.14997205138206482,0.5040673613548279
1761469070906603300,1.290603271484375,-0.29782634973526,-0.17831555008888245,0.5241233706474304
1761469070916586500,1.30058642578125,-0.2802251875400543,-0.19020159542560577,0.5514547228813171
1761469070926569200,1.3105693359375,-0.26151835918426514,-0.17601920664310455,0.6076527237892151
1761469070936552200,1.32055224609375,-0.23550358414649963,-0.14858022332191467,0.6766303777694702
1761469070946534400,1.330534423828125,-0.21400627493858337,-0.1483067125082016,0.7342057824134827
1761469070956517000,1.34051708984375,-0.19767051935195923,-0.18356093764305115,0.7765747308731079
1761469070966500400,1.350500244140625,-0.20282959938049316,-0.2336406111717224,0.8364244699478149
1761469070976483300,1.3604833984375,-0.24157185852527618,-0.2927706837654114,0.943152904510498
1761469070986466300,1.37046630859375,-0.2695252001285553,-0.3750642240047455,1.0918397903442383
1761469070996449300,1.38044921875,-0.2975616157054901,-0.398921400308609,1.2544307708740234
1761469071006432300,1.390432373046875,-0.3292417824268341,-0.29764217138290405,1.3394581079483032
1761469071016415200,1.400415283203125,-0.3393063545227051,-0.13680791854858398,1.3151911497116089
1761469071026398200,1.410398193359375,-0.3249572515487671,-0.06312862783670425,1.206080436706543
1761469071036380400,1.42038037109375,-0.3125792443752289,-0.11422016471624374,1.065801978111267
1761469071046363400,1.43036328125,-0.29668736457824707,-0.2337617427110672,0.9395546317100525
1761469071056346000,1.44034619140625,-0.25920525193214417,-0.3430362343788147,0.8623448014259338
1761469071066329300,1.450329345703125,-0.2128276377916336,-0.35502445697784424,0.8070203065872192
1761469071076312300,1.460312255859375,-0.173965722322464,-0.31977543234825134,0.7413983941078186
1761469071086295300,1.47029541015625,-0.13682527840137482,-0.2985505759716034,0.62213534116745
1761469071096278300,1.4802783203125,-0.09877590090036392,-0.3107047379016876,0.48053085803985596
1761469071106261200,1.49026123046875,-0.04946373775601387,-0.3138248920440674,0.35466453433036804
1761469071116244200,1.500244140625,-0.004772369284182787,-0.28540098667144775,0.24011453986167908
1761469071126227500,1.5102275390625,0.03421897068619728,-0.24437899887561798,0.15851794183254242
1761469071136209200,1.520209228515625,0.06709203124046326,-0.20957884192466736,0.1012006625533104
1761469071146192400,1.5301923828125,0.07821685820817947,-0.16867348551750183,0.06365461647510529
1761469071156175400,1.54017529296875,0.062380701303482056,-0.09963572770357132,0.04731488227844238
1761469071166158000,1.550157958984375,0.044145237654447556,-0.026619838550686836,0.05973266810178757
1761469071176141300,1.560141357421875,0.009702843613922596,0.08193117380142212,0.08667029440402985
1761469071186124300,1.570124267578125,-0.03067919984459877,0.1387702226638794,0.11000251770019531
1761469071196107300,1.580107177734375,-0.06412817537784576,0.1342945694923401,0.12278202176094055
1761469071206090200,1.59009033203125,-0.08525023609399796,0.11045901477336884,0.13462457060813904
1761469071216073200,1.6000732421875,-0.10224998742341995,0.07891975343227386,0.1453549861907959
1761469071226055400,1.610055419921875,-0.10249286890029907,0.06741676479578018,0.16933515667915344
1761469071236038100,1.6200380859375,-0.07234115898609161,0.05432238057255745,0.1981339305639267
1761469071246021400,1.630021484375,-0.02683280035853386,0.039665140211582184,0.23754338920116425
1761469071256004400,1.64000439453125,0.02024163492023945,0.027807822450995445,0.2704266607761383
1761469071265987300,1.6499873046875,0.0708792433142662,0.02464958094060421,0.29544493556022644
1761469071275970300,1.65997021484375,0.12209915369749069,0.05013670772314072,0.3029535710811615
1761469071285953300,1.669953369140625,0.16735772788524628,0.08718154579401016,0.29622456431388855
1761469071295936300,1.679936279296875,0.20231130719184875,0.1246451884508133,0.27073344588279724
1761469071305919500,1.68991943359375,0.23437443375587463,0.151694655418396,0.22433720529079437
1761469071315901200,1.699901123046875,0.248655766248703,0.14811761677265167,0.15046736598014832
1761469071325884400,1.709884521484375,0.25891798734664917,0.13359779119491577,0.0663977637887001
1761469071335867400,1.719867431640625,0.2588842213153839,0.13101507723331451,-0.008467379957437515
1761469071345850000,1.72985009765625,0.24431514739990234,0.17676419019699097,-0.0652659460902214
1761469071355833300,1.739833251953125,0.21904774010181427,0.2518668472766876,-0.09751880913972855
1761469071365816300,1.74981640625,0.194072887301445,0.33967816829681396,-0.12602394819259644
1761469071375799300,1.75979931640625,0.17071443796157837,0.4367402195930481,-0.15530844032764435
1761469071385782300,1.7697822265625,0.13956743478775024,0.5605359077453613,-0.18574197590351105
1761469071395765200,1.77976513671875,0.1102713942527771,0.6575197577476501,-0.19557565450668335
1761469071405747200,1.789747314453125,0.07872571796178818,0.6813070774078369,-0.19551679491996765
1761469071415730200,1.799730224609375,0.04944692552089691,0.6614882946014404,-0.1789540946483612
1761469071425713400,1.80971337890625,0.028577864170074463,0.6097217798233032,-0.14929048717021942
1761469071435696400,1.8196962890625,0.009719688445329666,0.5418919324874878,-0.15119919180870056
1761469071445679000,1.82967919921875,-0.009407667443156242,0.522760272026062,-0.19048747420310974
1761469071455662300,1.839662353515625,-0.018895646557211876,0.5411548018455505,-0.26604264974594116
1761469071465645300,1.849645263671875,-0.018967818468809128,0.5455066561698914,-0.3509487509727478
1761469071475628300,1.859628173828125,-0.016068901866674423,0.5364128351211548,-0.4060550630092621
1761469071485611300,1.869611328125,-0.003211159259080887,0.506737232208252,-0.4095557928085327
1761469071495594200,1.87959423828125,0.014142267405986786,0.4498675763607025,-0.3780428469181061
1761469071505576400,1.889576416015625,0.03263232856988907,0.4035906493663788,-0.3245263695716858
1761469071515559200,1.89955908203125,0.04208195209503174,0.3950721323490143,-0.2544299364089966
1761469071525542100,1.909542236328125,0.04569879174232483,0.39423802495002747,-0.1875598132610321
1761469071535525400,1.919525390625,0.035930052399635315,0.3886137008666992,-0.14351405203342438
1761469071545508400,1.92950830078125,0.01579655334353447,0.38217097520828247,-0.11821401864290237
1761469071555491300,1.9394912109375,-0.0022265207953751087,0.3750559687614441,-0.1015148013830185
1761469071565474300,1.949474365234375,-0.025582976639270782,0.357204794883728,-0.08158396929502487
1761469071575458600,1.95945849609375,-0.04457557201385498,0.32387885451316833,-0.061868030577898026
1761469071585441500,1.969441650390625,-0.057483918964862823,0.2964027523994446,-0.026678618043661118
1761469071595423500,1.979423583984375,-0.06062331795692444,0.2780385911464691,0.02523643895983696
1761469071605406500,1.989406494140625,-0.05851995199918747,0.25234201550483704,0.07883361726999283
1761469071615389700,1.9993896484375,-0.04632633924484253,0.22824044525623322,0.1512833684682846
1761469071625372400,2.009372314453125,-0.023673756048083305,0.1968926340341568,0.22162917256355286
1761469071635355400,2.01935546875,-0.002954090479761362,0.1530134081840515,0.27242711186408997
1761469071645338600,2.029338623046875,0.015983115881681442,0.12183497101068497,0.29252228140830994
1761469071655321600,2.039321533203125,0.01429466437548399,0.10332909971475601,0.30096155405044556
1761469071665304300,2.04930419921875,0.003938696347177029,0.07946664839982986,0.30092450976371765
1761469071675287600,2.05928759765625,0.0007124138064682484,0.0380786657333374,0.29184913635253906
1761469071685269500,2.06926953125,-0.00849679671227932,-0.004584912210702896,0.2788334786891937
1761469071695252500,2.07925244140625,-0.026429131627082825,-0.02874353900551796,0.2628207206726074
1761469071705235500,2.0892353515625,-0.04509629309177399,-0.04210647940635681,0.25598278641700745
1761469071715218400,2.099218505859375,-0.06433044373989105,-0.04747540131211281,0.25261548161506653
1761469071725201700,2.10920166015625,-0.08569831401109695,-0.05540229752659798,0.25832876563072205
1761469071735184400,2.119184326171875,-0.09262106567621231,-0.04194090887904167,0.255667120218277
1761469071745167600,2.129167724609375,-0.08487845957279205,0.014041933231055737,0.2584935426712036
1761469071755150600,2.139150634765625,-0.06210523471236229,0.1017177402973175,0.24007511138916016
1761469071765133300,2.14913330078125,-0.030948644503951073,0.17784152925014496,0.20141559839248657
1761469071775115500,2.159115478515625,0.01975933648645878,0.14454135298728943,0.1813598871231079
1761469071785098500,2.169098388671875,0.08360090106725693,0.026652544736862183,0.2098541110754013
1761469071795081700,2.179081787109375,0.14411026239395142,-0.12453802675008774,0.28631824254989624
1761469071805064400,2.189064453125,0.17923228442668915,-0.22843992710113525,0.36306068301200867
1761469071815047400,2.19904736328125,0.17459158599376678,-0.24500925838947296,0.3846241235733032
1761469071825030700,2.20903076171875,0.13991457223892212,-0.20218563079833984,0.34143298864364624
1761469071835013400,2.219013427734375,0.09686137735843658,-0.12310490757226944,0.26122763752937317
1761469071844996400,2.228996337890625,0.03869181498885155,-0.029873237013816833,0.21323587000370026
1761469071854979600,2.2389794921875,-0.005455735605210066,0.07900582998991013,0.19042985141277313
1761469071864961300,2.248961181640625,-0.06982220709323883,0.05430714786052704,0.15025180578231812
1761469071874944500,2.258944580078125,-0.12309035658836365,-0.030046528205275536,0.09271884709596634
1761469071884927500,2.268927490234375,-0.1749279797077179,-0.11005295068025589,0.03597008436918259
1761469071894910500,2.278910400390625,-0.19382092356681824,-0.20433694124221802,-0.014837597496807575
1761469071904893400,2.2888935546875,-0.1993488371372223,-0.23319974541664124,-0.026472948491573334
1761469071914876400,2.29887646484375,-0.20729804039001465,-0.17203253507614136,-0.009917101822793484
1761469071924859600,2.308859619140625,-0.19568133354187012,-0.06796472519636154,0.04818481579422951
1761469071934842600,2.318842529296875,-0.17680758237838745,0.047290872782468796,0.15020453929901123
1761469071944825300,2.328825439453125,-0.1696239709854126,0.1488925963640213,0.2501801550388336
1761469071954807600,2.3388076171875,-0.1655506044626236,0.18653172254562378,0.28300556540489197
1761469071964790500,2.34879052734375,-0.18715842068195343,0.14377520978450775,0.2409505397081375
1761469071974773500,2.3587734375,-0.22109422087669373,0.061080075800418854,0.1717291623353958
1761469071984756500,2.368756591796875,-0.28534671664237976,-0.00368107738904655,0.10924313962459564
1761469071994739500,2.378739501953125,-0.3298656940460205,-0.060785360634326935,0.07693448662757874
1761469072004722700,2.38872265625,-0.36351102590560913,-0.07647804170846939,0.093111053109169
1761469072014705400,2.398705322265625,-0.4008133113384247,-0.0343988761305809,0.1456553190946579
1761469072024688400,2.4086884765625,-0.4392507076263428,0.03005148656666279,0.19464309513568878
1761469072034671600,2.418671630859375,-0.464071661233902,0.10616723448038101,0.23324187099933624
1761469072044653300,2.4286533203125,-0.48369836807250977,0.1819799691438675,0.24581092596054077
1761469072054636500,2.438636474609375,-0.4950619041919708,0.2486608922481537,0.2226831167936325
1761469072064619500,2.44861962890625,-0.4985021650791168,0.30486610531806946,0.18724602460861206
1761469072074602500,2.4586025390625,-0.4930199980735779,0.35518497228622437,0.15000469982624054
1761469072084585500,2.46858544921875,-0.48759356141090393,0.3834584057331085,0.10980934649705887
1761469072094568400,2.478568359375,-0.47672733664512634,0.40275225043296814,0.0669947937130928
1761469072104551700,2.4885517578125,-0.45835044980049133,0.4270511865615845,0.04124708101153374
1761469072114534700,2.49853466796875,-0.4428810179233551,0.43479296565055847,0.01699175126850605
1761469072124517400,2.508517333984375,-0.4316171705722809,0.43711525201797485,-0.008691241033375263
1761469072134499600,2.51849951171875,-0.4191857874393463,0.4343135356903076,-0.03947819769382477
1761469072144482600,2.528482666015625,-0.40761223435401917,0.4080854058265686,-0.06980600953102112
1761469072154465500,2.538465576171875,-0.3940129578113556,0.3864138126373291,-0.08272060751914978
1761469072164448500,2.548448486328125,-0.37858179211616516,0.38421431183815,-0.07008550316095352
1761469072174431500,2.558431396484375,-0.3615291714668274,0.37773391604423523,-0.04163934290409088
1761469072184414500,2.56841455078125,-0.3506818413734436,0.3519665002822876,-0.014904936775565147
1761469072194397400,2.5783974609375,-0.3298978805541992,0.29964473843574524,0.004462460987269878
1761469072204380400,2.58838037109375,-0.31487950682640076,0.25192010402679443,0.011711318977177143
1761469072214363600,2.59836376953125,-0.30446481704711914,0.221603125333786,0.0009235378820449114
1761469072224345300,2.608345458984375,-0.29816535115242004,0.14689666032791138,-0.046716686338186264
1761469072234328600,2.61832861328125,-0.2936376631259918,0.06598778069019318,-0.10033217072486877
1761469072244311600,2.6283115234375,-0.277932733297348,0.016884148120880127,-0.13244883716106415
1761469072254294300,2.638294189453125,-0.2627708315849304,-0.01871112920343876,-0.14175179600715637
1761469072264277500,2.648277587890625,-0.22779740393161774,-0.05377936735749245,-0.12677310407161713
1761469072274260500,2.658260498046875,-0.17184917628765106,-0.08320865035057068,-0.09399598091840744
1761469072284243500,2.668243408203125,-0.12471415102481842,-0.11966758966445923,-0.06697102636098862
1761469072294226400,2.678226318359375,-0.09093815088272095,-0.16929057240486145,-0.052536215633153915
1761469072304209400,2.68820947265625,-0.05418359488248825,-0.2100854068994522,-0.04151525720953941
1761469072314191600,2.698191650390625,-0.015416556969285011,-0.21812604367733002,-0.029039453715085983
1761469072324174300,2.70817431640625,0.030163180083036423,-0.19621674716472626,-0.0024035819806158543
1761469072334157600,2.718157470703125,0.07858090847730637,-0.19006504118442535,0.025359177961945534
1761469072344140500,2.728140625,0.12668052315711975,-0.20692230761051178,0.041323497891426086
1761469072354123500,2.73812353515625,0.1602426916360855,-0.23844212293624878,0.057988204061985016
1761469072364106500,2.7481064453125,0.1813192069530487,-0.24591974914073944,0.07699092477560043
1761469072374089500,2.75808935546875,0.1874338835477829,-0.2631634473800659,0.07744555175304413
1761469072384072400,2.768072509765625,0.17801561951637268,-0.2690322697162628,0.058356016874313354
1761469072394055700,2.7780556640625,0.15517620742321014,-0.23320704698562622,0.039856765419244766
1761469072404037400,2.788037353515625,0.13758815824985504,-0.17938323318958282,0.03674432635307312
1761469072414020600,2.7980205078125,0.11977534741163254,-0.13986939191818237,0.04628083482384682
1761469072424003600,2.808003662109375,0.10770297050476074,-0.13063114881515503,0.06626119464635849
1761469072433986300,2.817986328125,0.10995687544345856,-0.1329544484615326,0.10382035374641418
1761469072443969500,2.827969482421875,0.11028923839330673,-0.13812443614006042,0.1524083912372589
1761469072453952500,2.837952392578125,0.1147654801607132,-0.16264434158802032,0.1974392831325531
1761469072463935500,2.847935546875,0.11313589662313461,-0.1570168137550354,0.2416408360004425
1761469072473918500,2.85791845703125,0.10415630787611008,-0.10709746927022934,0.27752670645713806
1761469072483901400,2.8679013671875,0.06932269781827927,-0.023361289873719215,0.27766358852386475
1761469072493883600,2.877883544921875,0.01539541780948639,0.06385637819766998,0.2030944526195526
1761469072503866400,2.887866455078125,-0.03117368184030056,0.10658679902553558,0.08067319542169571
1761469072513849600,2.897849609375,-0.05862833932042122,0.06411616504192352,-0.06864798814058304
1761469072523832600,2.90783251953125,-0.050242580473423004,-0.026196688413619995,-0.17746475338935852
1761469072533815300,2.917815185546875,-0.0006537921726703644,-0.17389358580112457,-0.19638952612876892
1761469072543798500,2.927798583984375,0.07042384147644043,-0.3027985692024231,-0.15989276766777039
1761469072553781500,2.937781494140625,0.14826612174510956,-0.33692434430122375,-0.09365227818489075
1761469072563764500,2.947764404296875,0.20780961215496063,-0.32165244221687317,-0.05395440012216568
1761469072573748200,2.957748291015625,0.2535938620567322,-0.29805341362953186,-0.09349755197763443
1761469072583730200,2.967730224609375,0.2876091003417969,-0.20080114901065826,-0.16232429444789886
1761469072593713200,2.977713134765625,0.2962613105773926,-0.08910062164068222,-0.2504705488681793
1761469072603696000,2.987696044921875,0.2935613989830017,0.00768690649420023,-0.34326866269111633
1761469072613679000,2.99767919921875,0.27533891797065735,0.05742405354976654,-0.4056553840637207
1761469072623662300,3.007662353515625,0.2522660791873932,0.05725867301225662,-0.428348183631897
1761469072633645000,3.01764501953125,0.23279798030853271,0.03242006152868271,-0.41338133811950684
1761469072643628000,3.0276279296875,0.22697924077510834,0.003972973674535751,-0.36616697907447815
1761469072653611300,3.037611328125,0.22238396108150482,-0.006997592281550169,-0.3126105070114136
1761469072663594000,3.047593994140625,0.21527545154094696,0.028045078739523888,-0.2829362452030182
1761469072673577000,3.057576904296875,0.19805118441581726,0.0695866048336029,-0.28209495544433594
1761469072683559200,3.06755908203125,0.1634785532951355,0.07571480423212051,-0.31048479676246643
1761469072693542100,3.077542236328125,0.14849548041820526,0.03147607669234276,-0.34977588057518005
1761469072703525000,3.087525146484375,0.14571860432624817,-0.005868896842002869,-0.3877834677696228
1761469072713508000,3.097508056640625,0.15298515558242798,-0.028957342728972435,-0.4156661033630371
1761469072723491000,3.107490966796875,0.18041811883449554,-0.03235020861029625,-0.41295498609542847
1761469072733474000,3.11747412109375,0.22324135899543762,-0.030424289405345917,-0.3776402771472931
1761469072743457000,3.12745703125,0.27134016156196594,-0.0460253544151783,-0.32382017374038696
1761469072753440300,3.137440185546875,0.3110966980457306,-0.03347489610314369,-0.26947325468063354
1761469072763423200,3.14742333984375,0.33135324716567993,0.0033696715254336596,-0.23013465106487274
1761469072773405200,3.1574052734375,0.33156242966651917,0.07498440146446228,-0.22524358332157135
1761469072783388200,3.16738818359375,0.3279152512550354,0.1507910043001175,-0.25269758701324463
1761469072793371100,3.17737109375,0.31310734152793884,0.2233014702796936,-0.29340311884880066
1761469072803354000,3.18735400390625,0.28259947896003723,0.2923170328140259,-0.3337162137031555
1761469072813337000,3.197337158203125,0.24231557548046112,0.34855571389198303,-0.3648177683353424
1761469072823320000,3.207320068359375,0.2107193022966385,0.37729042768478394,-0.3883849084377289
1761469072833303300,3.21730322265625,0.19532623887062073,0.36508509516716003,-0.40407732129096985
1761469072843286000,3.2272861328125,0.19620534777641296,0.3296908736228943,-0.40817567706108093
1761469072853268200,3.237268310546875,0.21386276185512543,0.28503161668777466,-0.41085124015808105
1761469072863251200,3.247251220703125,0.24024111032485962,0.23577243089675903,-0.41476503014564514
1761469072873234000,3.25723388671875,0.25975388288497925,0.1960405856370926,-0.3937651216983795
1761469072883217200,3.267217041015625,0.2559559643268585,0.21231889724731445,-0.3232555389404297
1761469072893200100,3.2772001953125,0.22520631551742554,0.2916174829006195,-0.2054726779460907
1761469072903183000,3.28718310546875,0.19130347669124603,0.336119681596756,-0.115012027323246
1761469072913166000,3.297166015625,0.1603711098432541,0.2942449450492859,-0.0895674005150795
1761469072923149000,3.307149169921875,0.13959312438964844,0.22866885364055634,-0.11105964332818985
1761469072933132300,3.31713232421875,0.12177065759897232,0.1662869155406952,-0.17692606151103973
1761469072943115300,3.327115234375,0.11658494919538498,0.11425886303186417,-0.2553047835826874
1761469072953097200,3.33709716796875,0.1090022623538971,0.09941048920154572,-0.3043544888496399
1761469072963080200,3.347080078125,0.1115940511226654,0.10314717143774033,-0.3195613920688629
1761469072973063200,3.357063232421875,0.12070485949516296,0.09920695424079895,-0.3086092472076416
1761469072983046100,3.367046142578125,0.13598261773586273,0.07038170099258423,-0.27556100487709045
1761469072993029000,3.377029052734375,0.14808061718940735,0.039130598306655884,-0.2304915189743042
1761469073003012000,3.38701220703125,0.15375635027885437,0.016215162351727486,-0.17628340423107147
1761469073012995300,3.396995361328125,0.14821691811084747,0.003378432709723711,-0.10263292491436005
1761469073022978000,3.40697802734375,0.12778568267822266,-0.009259598329663277,-0.03562992066144943
1761469073032961000,3.4169609375,0.10447575896978378,-0.015078400261700153,0.020816510543227196
1761469073042943200,3.426943115234375,0.08007560670375824,-0.011775282211601734,0.06257780641317368
1761469073052926000,3.436926025390625,0.062241751700639725,-0.020707011222839355,0.09835976362228394
1761469073062909200,3.4469091796875,0.054309260100126266,-0.04992401599884033,0.14538265764713287
1761469073072892200,3.45689208984375,0.04336000606417656,-0.07705620676279068,0.19409169256687164
1761469073082875100,3.466875244140625,0.026421504095196724,-0.09364236891269684,0.24782788753509521
1761469073092858000,3.476858154296875,0.019318317994475365,-0.10685040056705475,0.3095218241214752
1761469073102841000,3.486841064453125,0.010894473642110825,-0.11746416240930557,0.35397106409072876
1761469073112824300,3.49682421875,0.008411082439124584,-0.11454867571592331,0.3689633905887604
1761469073122807000,3.50680712890625,0.0028898166492581367,-0.10785828530788422,0.3619057536125183
1761469073132789200,3.516789306640625,-0.0055877636186778545,-0.08177988976240158,0.3524309992790222
1761469073142772200,3.526772216796875,-0.021894298493862152,-0.06349462270736694,0.33912134170532227
1761469073152755000,3.5367548828125,-0.015006965026259422,-0.06967989355325699,0.3412744104862213
1761469073162738200,3.54673828125,-0.0036408603191375732,-0.09910915791988373,0.3670399487018585
1761469073172721200,3.55672119140625,0.018530623987317085,-0.1178821325302124,0.39788323640823364
1761469073182704000,3.5667041015625,0.041159238666296005,-0.08012703061103821,0.4041682779788971
1761469073192687000,3.57668701171875,0.06358298659324646,0.041780151426792145,0.37322309613227844
1761469073202670000,3.586670166015625,0.10610540956258774,0.19757826626300812,0.3136484622955322
1761469073212653000,3.596653076171875,0.1793275624513626,0.27764612436294556,0.24850581586360931
1761469073222635000,3.606635009765625,0.283661425113678,0.23927825689315796,0.1855098158121109
1761469073232618000,3.616617919921875,0.36078396439552307,0.1275898665189743,0.13938845694065094
1761469073242601200,3.626601318359375,0.3823281526565552,-0.012256186455488205,0.10819564759731293
1761469073252584200,3.636584228515625,0.35382264852523804,-0.13081364333629608,0.10607218742370605
1761469073262567200,3.646567138671875,0.29749947786331177,-0.19577480852603912,0.14688433706760406
1761469073272550100,3.656550048828125,0.20366306602954865,-0.20095877349376678,0.22787649929523468
1761469073282533000,3.666533203125,0.09968553483486176,-0.14314287900924683,0.3019685745239258
1761469073292516400,3.676516357421875,0.008840778842568398,-0.048064108937978745,0.3670814335346222
1761469073302499000,3.6864990234375,-0.07810770720243454,0.058741699904203415,0.38854652643203735
1761469073312481300,3.696481201171875,-0.15808215737342834,0.15580889582633972,0.3712623715400696
1761469073322464300,3.70646435546875,-0.23634552955627441,0.24218587577342987,0.33629825711250305
1761469073332447000,3.716447021484375,-0.28811508417129517,0.30802813172340393,0.274128258228302
1761469073342430200,3.72643017578125,-0.315853476524353,0.33957621455192566,0.20431987941265106
1761469073352413200,3.7364130859375,-0.32037559151649475,0.3342527151107788,0.1494632363319397
1761469073362396200,3.746396240234375,-0.3030503988265991,0.27189508080482483,0.11055231839418411
1761469073372379100,3.756379150390625,-0.2776809334754944,0.16506901383399963,0.0944657102227211
1761469073382362000,3.766362060546875,-0.24642127752304077,0.08054214715957642,0.09642526507377625
1761469073392345000,3.776344970703125,-0.22700543701648712,0.028013454750180244,0.09785862267017365
1761469073402327000,3.7863271484375,-0.2004670351743698,0.0033901322167366743,0.11647332459688187
1761469073412310000,3.79631005859375,-0.18873706459999084,-0.015804123133420944,0.14607368409633636
1761469073422293200,3.806293212890625,-0.195993110537529,-0.03919652849435806,0.17016756534576416
1761469073432276000,3.81627587890625,-0.21365095674991608,-0.07729027420282364,0.1858186274766922
1761469073442259200,3.82625927734375,-0.24021784961223602,-0.10878774523735046,0.1924017071723938
1761469073452242200,3.8362421875,-0.2652740478515625,-0.11517702043056488,0.19484664499759674
1761469073462225200,3.84622509765625,-0.28854209184646606,-0.10420718789100647,0.18379957973957062
1761469073472208100,3.8562080078125,-0.302162230014801,-0.0846526250243187,0.15430592000484467
1761469073482191000,3.866191162109375,-0.30448105931282043,-0.05646812170743942,0.10614452511072159
1761469073492173300,3.87617333984375,-0.29074153304100037,-0.035722099244594574,0.049929454922676086
1761469073502156000,3.886156005859375,-0.27296894788742065,-0.008928300812840462,0.00739051541313529
1761469073512139000,3.896138916015625,-0.2617470920085907,0.02833477035164833,-0.017054283991456032
1761469073522122200,3.906122314453125,-0.2521384060382843,0.06172042712569237,-0.025849640369415283
1761469073532105200,3.916105224609375,-0.24481791257858276,0.07992247492074966,-0.042784202843904495
1761469073542088000,3.926087890625,-0.25011467933654785,0.07616155594587326,-0.06121727451682091
1761469073552071200,3.9360712890625,-0.2516400218009949,0.05730355903506279,-0.08830176293849945
1761469073562054100,3.94605419921875,-0.25694742798805237,0.024607932195067406,-0.12156464159488678
1761469073572036000,3.9560361328125,-0.25027334690093994,-0.019199740141630173,-0.1524656116962433
1761469073582019000,3.96601904296875,-0.24515686929225922,-0.05500434339046478,-0.18132176995277405
1761469073592001000,3.9760009765625,-0.24063263833522797,-0.07977725565433502,-0.21155814826488495
1761469073601984000,3.98598388671875,-0.22745159268379211,-0.09775252640247345,-0.24335657060146332
1761469073611967000,3.995967041015625,-0.20734858512878418,-0.10217965394258499,-0.26097723841667175
1761469073621950000,4.005949951171875,-0.18193617463111877,-0.11829204857349396,-0.257819265127182
1761469073631933000,4.015932861328125,-0.13503636419773102,-0.15024998784065247,-0.23234111070632935
1761469073641916200,4.025916259765625,-0.08734580129384995,-0.19637326896190643,-0.1904621124267578
1761469073651899100,4.035899169921875,-0.03119785152375698,-0.2765161097049713,-0.15002387762069702
1761469073661881900,4.0458818359375,0.024058211594820023,-0.35168275237083435,-0.126430943608284
1761469073671864000,4.055864013671875,0.0666782483458519,-0.38362371921539307,-0.11603593826293945
1761469073681847000,4.065846923828125,0.10205328464508057,-0.3801535964012146,-0.10482881963253021
1761469073691830000,4.075830078125,0.13198141753673553,-0.34594476222991943,-0.08123769611120224
1761469073701813000,4.08581298828125,0.16428662836551666,-0.3094607889652252,-0.07099810987710953
1761469073711796000,4.0957958984375,0.19669869542121887,-0.2825605571269989,-0.06515155732631683
1761469073721779200,4.105779296875,0.228460893034935,-0.28218477964401245,-0.06500774621963501
1761469073731762000,4.115761962890625,0.2500891387462616,-0.31373247504234314,-0.06622278690338135
1761469073741745000,4.125744873046875,0.26013487577438354,-0.3546234369277954,-0.06380516290664673
1761469073751728000,4.13572802734375,0.26305389404296875,-0.3541092276573181,-0.04466401785612106
1761469073761709800,4.145709716796875,0.26512423157691956,-0.33749163150787354,-0.031005462631583214
1761469073771693000,4.155693115234375,0.2670694887638092,-0.3782569169998169,-0.04636893793940544
1761469073781676000,4.165676025390625,0.27268075942993164,-0.4327089786529541,-0.07158055901527405
1761469073791659000,4.175658935546875,0.28822553157806396,-0.43513861298561096,-0.08030139654874802
1761469073801642000,4.18564208984375,0.3002994954586029,-0.4039529860019684,-0.055620286613702774
1761469073811625000,4.195625,0.3014562129974365,-0.37316015362739563,-0.026844501495361328
1761469073821608200,4.205608154296875,0.3002207577228546,-0.33812466263771057,-0.0032353114802390337
1761469073831591000,4.2155908203125,0.3006846010684967,-0.3107573390007019,0.010814107954502106
1761469073841574000,4.225573974609375,0.3022225797176361,-0.315238356590271,0.008498222567141056
1761469073851557000,4.23555712890625,0.31387969851493835,-0.3572055697441101,0.01895667240023613
1761469073861538800,4.245538818359375,0.3191586136817932,-0.43563538789749146,0.03977380320429802
1761469073871522000,4.25552197265625,0.32761821150779724,-0.5184151530265808,0.07380001991987228
1761469073881505000,4.265505126953125,0.3294414281845093,-0.5283474326133728,0.11011621356010437
1761469073891488000,4.275488037109375,0.30731961131095886,-0.4392024278640747,0.12481389939785004
1761469073901471000,4.285470947265625,0.27680110931396484,-0.2964191734790802,0.05894674360752106
1761469073911454000,4.295453857421875,0.24976269900798798,-0.18772795796394348,-0.05275887995958328
1761469073921437000,4.30543701171875,0.22679640352725983,-0.21902143955230713,-0.1716514527797699
1761469073931420200,4.315420166015625,0.24747046828269958,-0.38522395491600037,-0.24446548521518707
1761469073941403000,4.32540283203125,0.2588235139846802,-0.5433001518249512,-0.2804999053478241
1761469073951385000,4.335385009765625,0.2886534333229065,-0.6403663754463196,-0.27823904156684875
1761469073961368000,4.3453681640625,0.3414788544178009,-0.7182713150978088,-0.25858622789382935
1761469073971350800,4.355350830078125,0.36823195219039917,-0.7517144680023193,-0.22869433462619781
1761469073981334000,4.365333984375,0.35728690028190613,-0.6986305117607117,-0.22941258549690247
1761469073991317000,4.37531689453125,0.3076187074184418,-0.5869267582893372,-0.2986030876636505
1761469074001300200,4.38530029296875,0.24415689706802368,-0.47275519371032715,-0.4305296838283539
1761469074011283000,4.395282958984375,0.1849329173564911,-0.36955946683883667,-0.5656002759933472
1761469074021266000,4.405265869140625,0.16697894036769867,-0.22328051924705505,-0.6488552093505859
1761469074031249200,4.415249267578125,0.15924033522605896,-0.08353597670793533,-0.6719014048576355
1761469074041230800,4.42523095703125,0.1719241738319397,0.0015783857088536024,-0.6332666277885437
1761469074051214000,4.435214111328125,0.2189595252275467,0.03265554830431938,-0.5546906590461731
1761469074061197000,4.445197021484375,0.31807732582092285,0.06440841406583786,-0.5048930048942566
1761469074071180000,4.455179931640625,0.23702707886695862,-0.04659649357199669,-0.4922306537628174
1761469074081163000,4.4651630859375,0.21762143075466156,-0.0073140691965818405,-0.44235125184059143
1761469074091146000,4.47514599609375,0.22877366840839386,-0.026255251839756966,-0.39564868807792664
1761469074101129000,4.48512890625,0.22914917767047882,-0.0881362035870552,-0.3327903747558594
1761469074111112200,4.4951123046875,0.2317512184381485,-0.1462092101573944,-0.2648719251155853
1761469074121095000,4.505094970703125,0.2339209020137787,-0.17451009154319763,-0.20519046485424042
1761469074131077000,4.5150771484375,0.2368547022342682,-0.14254987239837646,-0.15282274782657623
1761469074141060000,4.52506005859375,0.2362821400165558,-0.07327359169721603,-0.11635582894086838
1761469074151042800,4.535042724609375,0.2346031367778778,0.04036162048578262,-0.09845612198114395
1761469074161026000,4.545026123046875,0.22908079624176025,0.1669805496931076,-0.08749241381883621
1761469074171009000,4.555009033203125,0.2121332436800003,0.3052825629711151,-0.0839565098285675
1761469074180992000,4.564991943359375,0.1859903335571289,0.4394978880882263,-0.07057944685220718
1761469074190975000,4.57497509765625,0.15256072580814362,0.5457502603530884,-0.05221883952617645
1761469074200959000,4.584958984375,0.11684160679578781,0.6082764863967896,-0.036588214337825775
1761469074210941200,4.594941162109375,0.08679822832345963,0.6333281397819519,-0.024571992456912994
1761469074220924000,4.604923828125,0.0613570511341095,0.6253655552864075,-0.01524427067488432
1761469074230907000,4.614906982421875,0.02781200408935547,0.6099075675010681,-0.005330008454620838
1761469074240890000,4.62489013671875,-0.006959290709346533,0.6047953367233276,0.01487965602427721
1761469074250873000,4.634873046875,-0.05082854628562927,0.6045734286308289,0.05211829021573067
1761469074260855800,4.644855712890625,-0.09100206941366196,0.6161261796951294,0.08963077515363693
1761469074270839000,4.654839111328125,-0.12320606410503387,0.634675920009613,0.12156209349632263
1761469074280822000,4.664822021484375,-0.1471814513206482,0.64207923412323,0.15139828622341156
1761469074290805000,4.674804931640625,-0.16343657672405243,0.6329158544540405,0.16074703633785248
1761469074300787000,4.684786865234375,-0.17791378498077393,0.6215241551399231,0.1703067272901535
1761469074310770000,4.69477001953125,-0.18587976694107056,0.6179377436637878,0.20234619081020355
1761469074320753200,4.704753173828125,-0.1932479441165924,0.6043761372566223,0.24057985842227936
1761469074330735900,4.71473583984375,-0.200900137424469,0.547105073928833,0.2547589838504791
1761469074340719000,4.724718994140625,-0.19615624845027924,0.46291083097457886,0.2628222405910492
1761469074350702000,4.7347021484375,-0.19368091225624084,0.39718103408813477,0.26394975185394287
1761469074360685000,4.74468505859375,-0.19397997856140137,0.34428027272224426,0.25186431407928467
1761469074370668000,4.75466796875,-0.19034601747989655,0.29706433415412903,0.23479565978050232
1761469074380651000,4.764651123046875,-0.18811163306236267,0.23937785625457764,0.2106434404850006
1761469074390633200,4.77463330078125,-0.18937157094478607,0.17965805530548096,0.18878234922885895
1761469074400616000,4.784615966796875,-0.2027672678232193,0.13291718065738678,0.18532022833824158
1761469074410599000,4.794598876953125,-0.22392362356185913,0.10798473656177521,0.20389424264431
1761469074420582100,4.80458203125,-0.2575377821922302,0.10366428643465042,0.2398330718278885
1761469074430564900,4.81456494140625,-0.2818993031978607,0.11227864027023315,0.2817019820213318
1761469074440547800,4.8245478515625,-0.30599477887153625,0.1312430053949356,0.32722872495651245
1761469074450531000,4.834531005859375,-0.3239527642726898,0.1594252735376358,0.37127843499183655
1761469074460514000,4.84451416015625,-0.3381599187850952,0.17657576501369476,0.41121387481689453
1761469074470496800,4.854496826171875,-0.3337807357311249,0.1643994301557541,0.4248962998390198
1761469074480480000,4.86447998046875,-0.32585012912750244,0.12923797965049744,0.4233836233615875
1761469074490462000,4.8744619140625,-0.31534409523010254,0.07737278193235397,0.4287497401237488
1761469074500445000,4.88444482421875,-0.2980993390083313,0.02096996270120144,0.4290868937969208
1761469074510428000,4.894427978515625,-0.27284008264541626,-0.021791748702526093,0.431674599647522
1761469074520411100,4.9044111328125,-0.23993515968322754,-0.04619935154914856,0.4352794587612152
1761469074530394000,4.91439404296875,-0.2038494497537613,-0.06908401846885681,0.4419681131839752
1761469074540376800,4.924376953125,-0.17128831148147583,-0.0877985879778862,0.4335208237171173
1761469074550360000,4.934360107421875,-0.14361940324306488,-0.11052176356315613,0.41738981008529663
1761469074560343000,4.944343017578125,-0.11256375163793564,-0.12359974533319473,0.4151522219181061
1761469074570330400,4.954330322265625,-0.09276321530342102,-0.10365454852581024,0.44356676936149597
1761469074580312300,4.964312255859375,-0.06535954773426056,-0.0628860741853714,0.49693095684051514
1761469074590295300,4.97429541015625,-0.034314218908548355,-0.028508350253105164,0.5279450416564941
1761469074600278300,4.9842783203125,-0.004721437115222216,-0.005903438664972782,0.5188136100769043
1761469074610261200,4.99426123046875,0.028783725574612617,0.042874641716480255,0.47475793957710266
1761469074620244200,5.004244140625,0.07053569704294205,0.07440248131752014,0.40134257078170776
1761469074630227200,5.014227294921875,0.11659394949674606,0.04816534370183945,0.30216699838638306
1761469074640210400,5.02421044921875,0.17660002410411835,-0.008505923673510551,0.23878854513168335
1761469074650193200,5.034193115234375,0.22018517553806305,-0.07042863965034485,0.2637200951576233
1761469074660176400,5.04417626953125,0.20988991856575012,-0.13419324159622192,0.3310551941394806
1761469074670158300,5.054158447265625,0.1537005603313446,-0.2012818306684494,0.4200451374053955
1761469074680141300,5.064141357421875,0.08012540638446808,-0.253632128238678,0.492559552192688
1761469074690124300,5.074124267578125,-0.0028177439235150814,-0.2677736282348633,0.5111225247383118
1761469074700107300,5.084107177734375,-0.0571180023252964,-0.23502126336097717,0.49193811416625977
1761469074710090500,5.094090576171875,-0.1027020588517189,-0.16138648986816406,0.46928632259368896
1761469074720073200,5.1040732421875,-0.13869893550872803,-0.05150845646858215,0.4117279350757599
1761469074730056200,5.11405615234375,-0.1663835644721985,0.05475996434688568,0.3272849917411804
1761469074740039400,5.124039306640625,-0.18433034420013428,0.14452339708805084,0.22800312936306
1761469074750022100,5.134022216796875,-0.1783434897661209,0.1933215707540512,0.15302824974060059
1761469074760004400,5.14400439453125,-0.16959181427955627,0.17758548259735107,0.08975448459386826
1761469074769987300,5.1539873046875,-0.15533144772052765,0.11084447056055069,0.06279177218675613
1761469074779970300,5.16397021484375,-0.1463579386472702,-0.009820698760449886,0.0708497017621994
1761469074789953300,5.173953369140625,-0.14758232235908508,-0.12571491301059723,0.08319279551506042
1761469074799936300,5.183936279296875,-0.15179811418056488,-0.1970365047454834,0.06953690201044083
1761469074809919200,5.193919189453125,-0.16110217571258545,-0.2203611135482788,0.040440984070301056
1761469074819902200,5.203902099609375,-0.17693200707435608,-0.16125278174877167,0.03907717764377594
1761469074829885200,5.21388525390625,-0.20569860935211182,-0.06485580652952194,0.06589610129594803
1761469074839868400,5.223868408203125,-0.24043741822242737,-0.014803562313318253,0.09684017300605774
1761469074849851400,5.233851318359375,-0.27865612506866455,-0.010816517286002636,0.11359230428934097
1761469074859833300,5.243833251953125,-0.3014509081840515,-0.009684674441814423,0.11188334971666336
1761469074869816300,5.25381640625,-0.3184785842895508,-0.016130225732922554,0.09015736728906631
1761469074879799300,5.26379931640625,-0.3280094861984253,-0.02958371676504612,0.04998917132616043
1761469074889782300,5.2737822265625,-0.3301592469215393,-0.055625252425670624,0.005028550513088703
1761469074899765200,5.28376513671875,-0.32194021344184875,-0.08950598537921906,-0.048013895750045776
1761469074909748200,5.293748291015625,-0.3000648617744446,-0.1540130078792572,-0.0976274237036705
1761469074919731500,5.3037314453125,-0.2705674469470978,-0.19084931910037994,-0.14332273602485657
1761469074929714200,5.313714111328125,-0.23947788774967194,-0.20461471378803253,-0.19688676297664642
1761469074939697200,5.323697265625,-0.2053673267364502,-0.19383689761161804,-0.24481460452079773
1761469074949679400,5.333679443359375,-0.17369194328784943,-0.16284094750881195,-0.2620905339717865
1761469074959662000,5.343662109375,-0.14210179448127747,-0.1275750994682312,-0.25348082184791565
1761469074969645300,5.353645263671875,-0.1300176978111267,-0.11084097623825073,-0.23670348525047302
1761469074979628300,5.363628173828125,-0.12432865798473358,-0.11954578012228012,-0.2340557724237442
1761469074989611300,5.373611328125,-0.12298223376274109,-0.14016315340995789,-0.2405424565076828
1761469074999594200,5.38359423828125,-0.12185065448284149,-0.1744534820318222,-0.24296753108501434
1761469075009577200,5.3935771484375,-0.12666632235050201,-0.22881385684013367,-0.2513153851032257
1761469075019560400,5.403560546875,-0.1166970431804657,-0.27435657382011414,-0.25797247886657715
1761469075029543400,5.41354345703125,-0.09848088026046753,-0.2889702320098877,-0.2467212826013565
1761469075039525400,5.423525390625,-0.07305541634559631,-0.2649434506893158,-0.22143696248531342
1761469075049508400,5.43350830078125,-0.04567938670516014,-0.24081937968730927,-0.18983925879001617
1761469075059491300,5.4434912109375,-0.01360294595360756,-0.24698381125926971,-0.14414741098880768
1761469075069474300,5.453474365234375,0.02821340784430504,-0.26774322986602783,-0.10235024243593216
1761469075079457300,5.463457275390625,0.07125382125377655,-0.2714250385761261,-0.08057597279548645
1761469075089440300,5.473440185546875,0.11240392178297043,-0.2809021770954132,-0.07269860059022903
1761469075099423500,5.483423583984375,0.14451685547828674,-0.2799551486968994,-0.05792630836367607
1761469075109406200,5.49340625,0.17589953541755676,-0.24286848306655884,-0.03390299156308174
1761469075119389200,5.50338916015625,0.24533773958683014,-0.17762689292430878,0.00035351584665477276
1761469075129372400,5.513372314453125,0.3298814594745636,-0.2101922333240509,-0.010438613593578339
1761469075139354000,5.52335400390625,0.27526721358299255,-0.18031369149684906,-0.0002938341349363327
1761469075149337300,5.53333740234375,0.2743295729160309,-0.12807519733905792,-0.010674770921468735
1761469075159320300,5.5433203125,0.2727796137332916,-0.13921093940734863,-0.024036914110183716
1761469075169303300,5.55330322265625,0.28891006112098694,-0.20113986730575562,-0.022793274372816086
1761469075179286300,5.563286376953125,0.30090492963790894,-0.2457299679517746,-0.0008397737983614206
1761469075189269200,5.573269287109375,0.30106499791145325,-0.25164034962654114,0.003075322834774852
1761469075199252500,5.58325244140625,0.2913130223751068,-0.24116267263889313,0.005639147944748402
1761469075209235200,5.593235107421875,0.2822100520133972,-0.22081300616264343,0.003779432037845254
1761469075219218200,5.60321826171875,0.27381977438926697,-0.21586138010025024,-0.010012812912464142
1761469075229200400,5.613200439453125,0.27137959003448486,-0.2198982983827591,-0.03072357177734375
1761469075239183000,5.62318310546875,0.2699204385280609,-0.21626868844032288,-0.04316878691315651
1761469075249166300,5.633166259765625,0.2814217209815979,-0.22194798290729523,-0.04786645993590355
1761469075259149300,5.6431494140625,0.30091550946235657,-0.24098505079746246,-0.046572428196668625
1761469075269132300,5.65313232421875,0.3145238161087036,-0.2700129747390747,-0.04308577999472618
1761469075279115300,5.663115234375,0.3196336030960083,-0.28911104798316956,-0.025676429271697998
1761469075289098200,5.67309814453125,0.3240208923816681,-0.24616709351539612,-0.014407827518880367
1761469075299081200,5.683081298828125,0.3144167363643646,-0.18445445597171783,-0.029272262006998062
1761469075309064400,5.693064453125,0.30613502860069275,-0.13289251923561096,-0.09300842881202698
1761469075319046100,5.703046142578125,0.3030071556568146,-0.10359695553779602,-0.18918848037719727
1761469075329029400,5.713029296875,0.30076709389686584,-0.10806258022785187,-0.27403393387794495
1761469075339012400,5.723012451171875,0.30506038665771484,-0.13288164138793945,-0.3306921422481537
1761469075348995300,5.732995361328125,0.316680908203125,-0.1564515233039856,-0.32877668738365173
1761469075358978300,5.742978271484375,0.3196639120578766,-0.1996551901102066,-0.30809006094932556
1761469075368961300,5.752961181640625,0.32761335372924805,-0.2932228744029999,-0.3060014545917511
1761469075378944500,5.762944580078125,0.34721022844314575,-0.3925023078918457,-0.29294076561927795
1761469075388927200,5.77292724609375,0.3652985692024231,-0.4464404284954071,-0.2549130618572235
1761469075398910200,5.78291015625,0.34866634011268616,-0.4932665228843689,-0.23908323049545288
1761469075408892400,5.792892333984375,0.3345401883125305,-0.4928909242153168,-0.2919168174266815
1761469075418875100,5.802875244140625,0.323001503944397,-0.4179149568080902,-0.38352715969085693
1761469075428858400,5.8128583984375,0.3056081235408783,-0.2941938638687134,-0.46896615624427795
1761469075438841300,5.82284130859375,0.2877553701400757,-0.19274181127548218,-0.5272345542907715
1761469075448824300,5.83282421875,0.27577728033065796,-0.11030445992946625,-0.5384283065795898
1761469075458807300,5.842807373046875,0.2659784257411957,-0.05319429934024811,-0.5015547275543213
1761469075468790300,5.852790283203125,0.26278963685035706,-0.03455304354429245,-0.44940754771232605
1761469075478773200,5.862773193359375,0.2571863532066345,-0.021115265786647797,-0.4058017432689667
1761469075488756200,5.872756103515625,0.24272264540195465,-0.000552428187802434,-0.39248552918434143
1761469075498738200,5.88273828125,0.21543164551258087,0.008615503087639809,-0.40497681498527527
1761469075508721400,5.892721435546875,0.18591563403606415,0.007085987366735935,-0.41624799370765686
1761469075518704000,5.9027041015625,0.14830833673477173,-0.0037906288634985685,-0.4067727327346802
1761469075528687400,5.912687255859375,0.120083287358284,-0.013655658811330795,-0.3805534839630127
1761469075538670300,5.92267041015625,0.10491125285625458,-0.023529594764113426,-0.33755356073379517
1761469075548653300,5.9326533203125,0.09790247678756714,-0.013408146798610687,-0.2947351336479187
1761469075558636300,5.94263623046875,0.10584481805562973,-0.0005871567409485579,-0.25131627917289734
1761469075568619300,5.952619384765625,0.11600238084793091,0.03308127447962761,-0.2057967633008957
1761469075578598100,5.96259814453125,0.14135035872459412,0.09614279866218567,-0.1713583618402481
1761469075588580400,5.972580322265625,0.16887958347797394,0.16447286307811737,-0.15315411984920502
1761469075598563300,5.982563232421875,0.18184731900691986,0.2555351257324219,-0.14691327512264252
1761469075608546300,5.99254638671875,0.18190690875053406,0.34381529688835144,-0.13876596093177795
1761469075618529300,6.002529296875,0.16705365478992462,0.3934294581413269,-0.15229429304599762
1761469075628512300,6.01251220703125,0.14183679223060608,0.41898447275161743,-0.18177884817123413
1761469075638495500,6.02249560546875,0.11035529524087906,0.42994630336761475,-0.21440203487873077
1761469075648478200,6.032478271484375,0.08607111871242523,0.41330620646476746,-0.23719193041324615
1761469075658461400,6.04246142578125,0.06671473383903503,0.38083693385124207,-0.24339362978935242
1761469075668444400,6.0524443359375,0.058624181896448135,0.3562912344932556,-0.2446552962064743
1761469075678426400,6.06242626953125,0.061750199645757675,0.3523694574832916,-0.23031604290008545
1761469075688409300,6.072409423828125,0.06700348109006882,0.3551456928253174,-0.2250654399394989
1761469075698392300,6.082392333984375,0.07408695667982101,0.3529757559299469,-0.22467635571956635
1761469075708375600,6.09237548828125,0.07905162870883942,0.35190287232398987,-0.23212702572345734
1761469075718358300,6.102358154296875,0.07468164712190628,0.3580630421638489,-0.22717568278312683
1761469075728341200,6.11234130859375,0.06431922316551208,0.35711807012557983,-0.21648235619068146
1761469075738324500,6.122324462890625,0.05810606852173805,0.32263490557670593,-0.23208501935005188
1761469075748307500,6.132307373046875,0.05674339085817337,0.27520668506622314,-0.26334622502326965
1761469075758290200,6.142290283203125,0.05735325440764427,0.23831072449684143,-0.2914564311504364
1761469075768272400,6.1522724609375,0.059050552546978,0.21797561645507812,-0.30091729760169983
1761469075778255400,6.16225537109375,0.06146896630525589,0.20732110738754272,-0.2873884439468384
1761469075788238300,6.17223828125,0.0585944838821888,0.19387280941009521,-0.26915523409843445
1761469075798221300,6.18222119140625,0.055819738656282425,0.16654424369335175,-0.24524030089378357
1761469075808204300,6.192204345703125,0.04418698325753212,0.14981797337532043,-0.2037549763917923
1761469075818187500,6.2021875,0.028835192322731018,0.13433700799942017,-0.14392466843128204
1761469075828170200,6.212170166015625,0.014557654038071632,0.12349899858236313,-0.06385356187820435
1761469075838153500,6.222153564453125,-0.0036282739602029324,0.11849864572286606,0.021163327619433403
1761469075848136400,6.232136474609375,-0.02082996629178524,0.09185763448476791,0.0821688175201416
1761469075858118400,6.242118408203125,-0.030766485258936882,0.05947253108024597,0.12795308232307434
1761469075868101400,6.252101318359375,-0.05408785492181778,0.03706752881407738,0.16959072649478912
1761469075878084400,6.26208447265625,-0.07405570149421692,0.009845759719610214,0.20655672252178192
1761469075888067600,6.272067626953125,-0.08973872661590576,-0.011422432027757168,0.2413451373577118
1761469075898050300,6.28205029296875,-0.10342603921890259,-0.029122866690158844,0.26352766156196594
1761469075908033300,6.292033203125,-0.10668914765119553,-0.04663866013288498,0.2673738896846771
1761469075918016500,6.3020166015625,-0.10332877188920975,-0.07577577978372574,0.2656654715538025
1761469075927999200,6.311999267578125,-0.09322799742221832,-0.10721474140882492,0.2676587700843811
1761469075937982200,6.321982177734375,-0.06523844599723816,-0.14990520477294922,0.2934863865375519
1761469075947964400,6.33196435546875,-0.03735227882862091,-0.20402011275291443,0.31707581877708435
1761469075957947400,6.341947509765625,-0.012157976627349854,-0.24995245039463043,0.3473820686340332
1761469075967930400,6.351930419921875,0.01055879145860672,-0.2573879659175873,0.3925977647304535
1761469075977913300,6.361913330078125,0.028095973655581474,-0.2504829168319702,0.44680482149124146
1761469075987896300,6.371896240234375,0.04435622692108154,-0.23749014735221863,0.5085883140563965
1761469075997879300,6.38187939453125,0.04910677298903465,-0.23736925423145294,0.5676106214523315
1761469076007862300,6.3918623046875,0.06320928037166595,-0.2245916724205017,0.6220280528068542
1761469076017845500,6.401845458984375,0.07538844645023346,-0.19259433448314667,0.653644859790802
1761469076027828500,6.411828369140625,0.06841449439525604,-0.1426144242286682,0.6458857655525208
1761469076037811200,6.421811279296875,0.056093912571668625,-0.1314949244260788,0.6069274544715881
1761469076047793400,6.43179345703125,0.049045320600271225,-0.18963070213794708,0.569348156452179
1761469076057776400,6.4417763671875,0.052230194211006165,-0.263619989156723,0.5515576601028442
1761469076067759400,6.45175927734375,0.07605915516614914,-0.2669994831085205,0.5536690950393677
1761469076077742300,6.461742431640625,0.07625090330839157,-0.2125415802001953,0.5601978302001953
1761469076087725300,6.471725341796875,0.06348464637994766,-0.16869114339351654,0.5505261421203613
1761469076097708500,6.48170849609375,0.04837707057595253,-0.1731972098350525,0.5325069427490234
1761469076107691300,6.491691162109375,0.030319835990667343,-0.20552530884742737,0.5028119683265686
1761469076117674200,6.50167431640625,0.015418117865920067,-0.21679553389549255,0.45233359932899475
1761469076127656400,6.511656494140625,-0.006895098835229874,-0.16087478399276733,0.39108023047447205
1761469076137639200,6.52163916015625,-0.02727573737502098,-0.03594537079334259,0.32465407252311707
1761469076147622400,6.531622314453125,-0.06029514968395233,0.09203232079744339,0.2664874792098999
1761469076157605400,6.54160546875,-0.08245185017585754,0.19061508774757385,0.22104249894618988
1761469076167588400,6.55158837890625,-0.11522151529788971,0.2847420573234558,0.2016994059085846
1761469076177571300,6.5615712890625,-0.14416155219078064,0.36366215348243713,0.17464594542980194
1761469076187554300,6.57155419921875,-0.1737242490053177,0.38861361145973206,0.15278033912181854
1761469076197537500,6.58153759765625,-0.19562900066375732,0.3486552834510803,0.13175734877586365
1761469076207520500,6.5915205078125,-0.21964259445667267,0.2696436941623688,0.14307990670204163
1761469076217502500,6.60150244140625,-0.23573821783065796,0.18669448792934418,0.18781062960624695
1761469076227485400,6.6114853515625,-0.25721946358680725,0.12496837973594666,0.23643790185451508
1761469076237468400,6.621468505859375,-0.2786043584346771,0.06436628103256226,0.2912753224372864
1761469076247451400,6.631451416015625,-0.29367080330848694,0.005460411310195923,0.3316851556301117
1761469076257434400,6.641434326171875,-0.32489609718322754,-0.052765607833862305,0.36260923743247986
1761469076267417300,6.651417236328125,-0.3646586239337921,-0.07389230281114578,0.3833085000514984
1761469076277400300,6.661400390625,-0.3911930322647095,-0.05205331742763519,0.3870220184326172
1761469076287383300,6.67138330078125,-0.40975454449653625,-0.02359699085354805,0.3561237156391144
1761469076297366300,6.6813662109375,-0.4153863191604614,0.005469014402478933,0.300640732049942
1761469076307348500,6.691348388671875,-0.4105225205421448,0.04317134991288185,0.22064471244812012
1761469076317331200,6.701331298828125,-0.39597076177597046,0.08180023729801178,0.14907865226268768
1761469076327314400,6.711314453125,-0.3718547224998474,0.12893401086330414,0.09117256850004196
1761469076337297400,6.72129736328125,-0.35701984167099,0.16761642694473267,0.027529137209057808
1761469076347280400,6.7312802734375,-0.3430285155773163,0.20491386950016022,-0.031491175293922424
1761469076357263400,6.741263427734375,-0.3423219621181488,0.2280689924955368,-0.0827580913901329
1761469076367246300,6.751246337890625,-0.34535881876945496,0.21104814112186432,-0.11843837797641754
1761469076377229600,6.7612294921875,-0.3529778718948364,0.18169131875038147,-0.11634433269500732
1761469076387212300,6.77121240234375,-0.3664766252040863,0.1527281254529953,-0.07827258110046387
1761469076397194500,6.781194580078125,-0.37095287442207336,0.14916056394577026,-0.018876628950238228
1761469076407177500,6.791177490234375,-0.38451096415519714,0.17054873704910278,0.02549329772591591
1761469076417160200,6.80116015625,-0.39169830083847046,0.213236004114151,0.0345296673476696
1761469076427143400,6.811143310546875,-0.39611151814460754,0.24242547154426575,0.03534770384430885
1761469076437126400,6.82112646484375,-0.39845749735832214,0.24618692696094513,0.04500778764486313
1761469076447109400,6.831109375,-0.4106121063232422,0.2153235822916031,0.06285234540700912
1761469076457092400,6.84109228515625,-0.41576266288757324,0.16800346970558167,0.08415363729000092
1761469076467075300,6.851075439453125,-0.41756007075309753,0.1210690513253212,0.10336194932460785
1761469076477058300,6.861058349609375,-0.40216511487960815,0.07699906080961227,0.11671184748411179
1761469076487040300,6.871040283203125,-0.37440159916877747,0.028226694092154503,0.13072462379932404
1761469076497023200,6.881023193359375,-0.3382079005241394,0.005827643908560276,0.16708609461784363
1761469076507006500,6.89100634765625,-0.2909519374370575,0.016901982948184013,0.21074897050857544
1761469076516989400,6.900989501953125,-0.24106080830097198,0.02085278369486332,0.23925039172172546
1761469076526972400,6.910972412109375,-0.19340792298316956,0.026400843635201454,0.257737398147583
1761469076536955400,6.920955322265625,-0.14687636494636536,0.026889268308877945,0.2731967866420746
1761469076546938400,6.9309384765625,-0.11184036731719971,0.0157812237739563,0.28842872381210327
1761469076556921600,6.940921630859375,-0.07536864280700684,0.005996769294142723,0.30206066370010376
1761469076566904300,6.950904296875,-0.04520587995648384,-0.00947162788361311,0.3026346266269684
1761469076576889600,6.9608896484375,-0.019119149073958397,0.005707590840756893,0.302854061126709
1761469076586872600,6.97087255859375,-0.00020284857600927353,0.04296163097023964,0.30851981043815613
1761469076596855600,6.98085546875,0.01002049446105957,0.08455780148506165,0.3168070614337921
1761469076606838800,6.9908388671875,0.00776818860322237,0.11135920882225037,0.3156527280807495
1761469076616821500,7.000821533203125,0.009256362915039062,0.10558760911226273,0.31360316276550293
1761469076626804500,7.010804443359375,0.014747001230716705,0.1041950210928917,0.30414971709251404
1761469076636787700,7.02078759765625,0.021059492602944374,0.09628356993198395,0.28568869829177856
1761469076646770700,7.030770751953125,0.02820741757750511,0.09951240569353104,0.2784145474433899
1761469076656753700,7.040753662109375,0.034237876534461975,0.11497604846954346,0.279011607170105
1761469076666735600,7.050735595703125,0.03279198333621025,0.1388869285583496,0.29535406827926636
1761469076676718600,7.060718505859375,0.029921362176537514,0.16600750386714935,0.31823569536209106
1761469076686701600,7.07070166015625,0.026389077305793762,0.16764995455741882,0.3487476110458374
1761469076696684500,7.0806845703125,0.02030881494283676,0.10673095285892487,0.34971141815185547
1761469076706667800,7.090667724609375,0.008939052000641823,0.005443897098302841,0.31791576743125916
1761469076716650800,7.100650634765625,-0.0066721318289637566,-0.04271244630217552,0.2879698574542999
1761469076726633500,7.110633544921875,-0.03918493911623955,-0.03985612094402313,0.26755446195602417
1761469076736616700,7.12061669921875,-0.07203929126262665,-0.017438698559999466,0.2455226480960846
1761469076746599700,7.130599609375,-0.09641379117965698,0.01527494192123413,0.20494844019412994
1761469076756581600,7.14058154296875,-0.10682754963636398,0.038181059062480927,0.14572745561599731
1761469076766564600,7.150564697265625,-0.11036570370197296,0.03331873193383217,0.09938856959342957
1761469076776547600,7.160547607421875,-0.10098711401224136,-0.020298689603805542,0.09822742640972137
1761469076786530800,7.17053076171875,-0.0870308205485344,-0.1057712659239769,0.12843886017799377
1761469076796513500,7.180513427734375,-0.0744607001543045,-0.19781172275543213,0.17485348880290985
1761469076806496500,7.19049658203125,-0.08075182884931564,-0.28917065262794495,0.21922151744365692
1761469076816479700,7.200479736328125,-0.07397834211587906,-0.3394785523414612,0.2538335621356964
1761469076826462500,7.21046240234375,-0.06803583353757858,-0.33602771162986755,0.2756333351135254
1761469076836445700,7.22044580078125,-0.07115305960178375,-0.27907174825668335,0.3012012839317322
1761469076846427600,7.230427734375,-0.08814875036478043,-0.1748477667570114,0.31799259781837463
1761469076856410600,7.24041064453125,-0.11812449246644974,-0.045347295701503754,0.29836511611938477
1761469076866393600,7.2503935546875,-0.14660626649856567,0.07019355148077011,0.26529866456985474
1761469076876376600,7.26037646484375,-0.1900395005941391,0.15691407024860382,0.24144552648067474
1761469076886359800,7.27035986328125,-0.23022998869419098,0.20982347428798676,0.23495443165302277
1761469076896342500,7.280342529296875,-0.2900983989238739,0.23686812818050385,0.26069706678390503
1761469076906325500,7.290325439453125,-0.3453357517719269,0.2557407021522522,0.30237534642219543
1761469076916308700,7.300308837890625,-0.4061200022697449,0.29121133685112,0.35152292251586914
1761469076926291700,7.310291748046875,-0.46767956018447876,0.2971152365207672,0.3711663484573364
1761469076936273700,7.320273681640625,-0.5259276628494263,0.26409098505973816,0.3787187933921814
1761469076946256600,7.330256591796875,-0.5723616480827332,0.2355968952178955,0.3992612063884735
1761469076956239600,7.340239501953125,-0.5995458960533142,0.20113426446914673,0.44349393248558044
1761469076966222600,7.35022265625,-0.6155331134796143,0.16606763005256653,0.5053940415382385
1761469076976205600,7.36020556640625,-0.6378344297409058,0.150213822722435,0.5806581974029541
1761469076986188500,7.3701884765625,-0.63246750831604,0.16423411667346954,0.6630974411964417
1761469076996171800,7.380171875,-0.621715784072876,0.2067488133907318,0.735985517501831
1761469077006154500,7.390154541015625,-0.6089932918548584,0.25505879521369934,0.8045369386672974
1761469077016137500,7.400137451171875,-0.581302285194397,0.2961961030960083,0.8613312244415283
1761469077026119700,7.41011962890625,-0.5656449794769287,0.3459889888763428,0.91581791639328
1761469077036102700,7.4201025390625,-0.5531326532363892,0.43074142932891846,0.9546052813529968
1761469077046085600,7.430085693359375,-0.5463548898696899,0.5055323839187622,0.9694878458976746
1761469077056068600,7.440068603515625,-0.5518343448638916,0.5671728849411011,0.9611308574676514
1761469077066051800,7.4500517578125,-0.5638295412063599,0.617413341999054,0.950869619846344
1761469077076034600,7.46003466796875,-0.5777080655097961,0.6530072689056396,0.9259989261627197
1761469077086017500,7.470017578125,-0.5977092385292053,0.6701405048370361,0.8749998807907104
1761469077096000800,7.480000732421875,-0.6267829537391663,0.6883266568183899,0.8204636573791504
1761469077105983700,7.489983642578125,-0.6573141813278198,0.7065556049346924,0.7850893139839172
1761469077115965700,7.499965576171875,-0.6848432421684265,0.7313967943191528,0.7661606073379517
1761469077125948700,7.50994873046875,-0.7176192998886108,0.7491627931594849,0.7536141872406006
1761469077135931600,7.519931640625,-0.7455050349235535,0.7597392797470093,0.7523606419563293
1761469077145914600,7.52991455078125,-0.7730228900909424,0.7547447681427002,0.7527809143066406
1761469077155897600,7.539897705078125,-0.803007185459137,0.7435014247894287,0.7585862874984741
1761469077165880600,7.549880615234375,-0.8377749919891357,0.7289049029350281,0.7694722414016724
1761469077175863800,7.55986376953125,-0.8717350959777832,0.7156521677970886,0.7845367193222046
1761469077185846500,7.569846435546875,-0.9084135890007019,0.7125191688537598,0.7896836400032043
1761469077195829500,7.57982958984375,-0.9500081539154053,0.7020217776298523,0.7946743965148926
1761469077205812700,7.589812744140625,-0.9890786409378052,0.6780274510383606,0.8201600909233093
1761469077215794700,7.599794677734375,-1.019298791885376,0.6433613300323486,0.860616147518158
1761469077225777700,7.609777587890625,-1.042798399925232,0.607309103012085,0.9078361988067627
1761469077235760600,7.6197607421875,-1.0620567798614502,0.5785701274871826,0.9564066529273987
1761469077245743600,7.62974365234375,-1.0767594575881958,0.5637418627738953,1.0088969469070435
1761469077255726600,7.6397265625,-1.081453800201416,0.5323356986045837,1.058406949043274
1761469077265709600,7.64970947265625,-1.0744128227233887,0.48647019267082214,1.1028386354446411
1761469077275692800,7.65969287109375,-1.0615553855895996,0.4406433403491974,1.1465848684310913
1761469077285675500,7.669675537109375,-1.0504958629608154,0.41254547238349915,1.1817476749420166
1761469077295658500,7.679658447265625,-1.0414848327636719,0.40182599425315857,1.2080421447753906
1761469077305640700,7.689640625,-1.0382163524627686,0.4048807919025421,1.2219231128692627
1761469077315623400,7.69962353515625,-1.0382704734802246,0.40919139981269836,1.2375420331954956
1761469077325606700,7.709606689453125,-1.0396102666854858,0.41697025299072266,1.2617907524108887
1761469077335589600,7.719589599609375,-1.0439552068710327,0.43025702238082886,1.3006672859191895
1761469077345572600,7.729572509765625,-1.0512374639511108,0.44227227568626404,1.3389955759048462
1761469077355555600,7.7395556640625,-1.06880521774292,0.4693007171154022,1.370298147201538
1761469077365538600,7.74953857421875,-1.0898290872573853,0.5321237444877625,1.3951659202575684
1761469077375521500,7.759521484375,-1.100679636001587,0.5998873710632324,1.417538046836853
1761469077385504800,7.7695048828125,-1.0921505689620972,0.6422353386878967,1.4273760318756104
1761469077395486700,7.77948681640625,-1.070186734199524,0.6512027382850647,1.4287259578704834
1761469077405469700,7.7894697265625,-1.0347646474838257,0.6379848718643188,1.4093559980392456
1761469077415452700,7.79945263671875,-1.0020005702972412,0.6281303763389587,1.3734360933303833
1761469077425435600,7.809435546875,-0.9629731774330139,0.6754942536354065,1.3564070463180542
1761469077435418600,7.819418701171875,-0.9229860901832581,0.7719230651855469,1.3280025720596313
1761469077445401600,7.829401611328125,-0.882529079914093,0.8326538801193237,1.2710720300674438
1761469077455384800,7.839384765625,-0.8288522362709045,0.8352019786834717,1.1915439367294312
1761469077465367600,7.849367431640625,-0.7768514752388,0.7806543707847595,1.1247185468673706
1761469077475350500,7.8593505859375,-0.7286248207092285,0.7321928143501282,1.0767693519592285
1761469077485333800,7.869333740234375,-0.7044583559036255,0.7324352264404297,1.0478336811065674
1761469077495315500,7.8793154296875,-0.7108339667320251,0.768199622631073,1.0197794437408447
1761469077505298700,7.889298583984375,-0.7385162711143494,0.8215457201004028,0.994853675365448
1761469077515281700,7.89928173828125,-0.7735408544540405,0.8517869710922241,0.9872596859931946
1761469077525264600,7.9092646484375,-0.8031205534934998,0.8370195627212524,0.9835243821144104
1761469077535247600,7.91924755859375,-0.8498499393463135,0.7977200746536255,0.9700030088424683
1761469077545230600,7.929230712890625,-0.8881222009658813,0.7780951261520386,0.9590111374855042
1761469077555213600,7.939213623046875,-0.9093095064163208,0.748260498046875,0.9573626518249512
1761469077565196500,7.949196533203125,-0.9214475154876709,0.7407717704772949,0.9657759666442871
1761469077575175200,7.959175048828125,-0.9229969382286072,0.73508620262146,0.9817544221878052
1761469077585158100,7.969158203125,-0.9325320720672607,0.7566009163856506,1.012471318244934
1761469077595140900,7.979140869140625,-0.933478593826294,0.7924318909645081,1.0536293983459473
1761469077605124000,7.9891240234375,-0.9459070563316345,0.8326679468154907,1.0869417190551758
1761469077615106000,7.99910595703125,-0.9766165018081665,0.8591908812522888,1.1011054515838623
1761469077625089000,8.009089111328125,-1.023120403289795,0.8861190676689148,1.1093740463256836
1761469077635072000,8.019072021484375,-1.0743048191070557,0.9125021696090698,1.1153331995010376
1761469077645055000,8.029054931640625,-1.1232304573059082,0.9423032402992249,1.120847225189209
1761469077655038000,8.039037841796874,-1.168581485748291,0.9550533890724182,1.1316876411437988
1761469077665021000,8.04902099609375,-1.2101173400878906,0.9533249139785767,1.1446086168289185
1761469077675004000,8.05900390625,-1.244768738746643,0.9436821341514587,1.157716155052185
1761469077684986000,8.068986083984376,-1.2632321119308472,0.9163116216659546,1.1698349714279175
1761469077694968800,8.07896875,-1.2751600742340088,0.8662250638008118,1.1827538013458252
1761469077704952000,8.0889521484375,-1.280005931854248,0.7925310730934143,1.1976802349090576
1761469077714935000,8.09893505859375,-1.2826451063156128,0.7446311712265015,1.2052602767944336
1761469077724918000,8.10891796875,-1.2900477647781372,0.7243711948394775,1.1999454498291016
1761469077734901000,8.11890087890625,-1.3012630939483643,0.723304033279419,1.1760755777359009
1761469077744884000,8.128884033203125,-1.296929121017456,0.7530533671379089,1.1484593152999878
1761469077754867200,8.1388671875,-1.2815669775009155,0.753797173500061,1.1348005533218384
1761469077764850000,8.148849853515625,-1.181127667427063,0.7171087861061096,1.1849238872528076
1761469077774832000,8.15883203125,-1.1991921663284302,0.65216463804245,1.1840468645095825
1761469077784815000,8.168815185546874,-1.2202458381652832,0.5812831521034241,1.1262471675872803
1761469077794797800,8.1787978515625,-1.2019715309143066,0.4751655161380768,1.0078755617141724
1761469077804781000,8.188781005859376,-1.1446422338485718,0.41859763860702515,0.9090994000434875
1761469077814764000,8.198763916015626,-1.1139445304870605,0.450067937374115,0.8766970038414001
1761469077824747000,8.2087470703125,-1.1097677946090698,0.535603940486908,0.924289345741272
1761469077834730000,8.21872998046875,-1.1026533842086792,0.6166425943374634,0.9934708476066589
1761469077844713000,8.228712890625,-1.0763627290725708,0.6542211771011353,1.0383257865905762
1761469077854696000,8.238696044921875,-1.0441100597381592,0.6534134745597839,1.0513519048690796
1761469077864679200,8.24867919921875,-1.0050172805786133,0.6402199864387512,1.0394443273544312
1761469077874660900,8.258660888671875,-0.9714115858078003,0.621184229850769,1.0060114860534668
1761469077884644000,8.26864404296875,-0.9511851072311401,0.6162068247795105,0.9732065200805664
1761469077894627000,8.278626953125,-0.9518759250640869,0.6174933910369873,0.952616274356842
1761469077904609800,8.28860986328125,-0.9649357795715332,0.6142627000808716,0.9222946166992188
1761469077914593000,8.298593017578124,-0.9787828922271729,0.6189855933189392,0.8939663171768188
1761469077924576000,8.308575927734376,-0.9396947026252747,0.6428789496421814,0.8652214407920837
1761469077934559200,8.318559326171876,-0.892899751663208,0.650225818157196,0.8138402700424194
1761469077944542000,8.3285419921875,-0.8430763483047485,0.6203621029853821,0.7507531046867371
1761469077954525000,8.33852490234375,-0.8065321445465088,0.6135771870613098,0.7208245396614075
1761469077964507100,8.348507080078125,-0.827589750289917,0.587345540523529,0.7077401876449585
1761469077974489900,8.35848974609375,-0.8375030755996704,0.5676352381706238,0.6890583634376526
1761469077984473000,8.36847314453125,-0.8270906805992126,0.6536111235618591,0.7097681760787964
1761469077994456000,8.3784560546875,-0.8260715007781982,0.7783975601196289,0.7556414008140564
1761469078004439000,8.38843896484375,-0.8160168528556824,0.8230757713317871,0.7718169093132019
1761469078014422000,8.398422119140625,-0.7761828899383545,0.7986804246902466,0.7822216153144836
1761469078024405000,8.408405029296874,-0.7215395569801331,0.7636898756027222,0.8140252232551575
1761469078034388000,8.418387939453124,-0.6781622171401978,0.7246849536895752,0.8335736393928528
1761469078044371000,8.428370849609376,-0.664313793182373,0.7143220901489258,0.8469525575637817
1761469078054353000,8.438352783203126,-0.64997798204422,0.7045997381210327,0.8456790447235107
1761469078064336100,8.448336181640625,-0.6424347162246704,0.666022777557373,0.845464825630188
1761469078074318800,8.45831884765625,-0.633201003074646,0.6247115731239319,0.8853813409805298
1761469078084301800,8.4683017578125,-0.6387205123901367,0.608285129070282,0.9596594572067261
1761469078094285000,8.47828515625,-0.6465752124786377,0.6034120917320251,1.0406204462051392
1761469078104268000,8.48826806640625,-0.6620951294898987,0.5975685715675354,1.0882302522659302
1761469078114251000,8.4982509765625,-0.6865943074226379,0.6176024675369263,1.1019848585128784
1761469078124234000,8.50823388671875,-0.7036358714103699,0.6402684450149536,1.1072428226470947
1761469078134217000,8.518217041015625,-0.7199618220329285,0.6418998837471008,1.1132365465164185
1761469078144200200,8.5282001953125,-0.7220492362976074,0.5890359878540039,1.111956000328064
1761469078154182000,8.538181884765624,-0.7198089957237244,0.5037565231323242,1.104325294494629
1761469078164165000,8.5481650390625,-0.7066564559936523,0.43680068850517273,1.083117127418518
1761469078174148000,8.558148193359376,-0.6575280427932739,0.4053037464618683,1.0359818935394287
1761469078184130800,8.568130859375,-0.5934435129165649,0.4066382944583893,0.9703472852706909
1761469078194114000,8.578114013671875,-0.5437731742858887,0.42759233713150024,0.9021384119987488
1761469078204098000,8.58809814453125,-0.4983348250389099,0.43826723098754883,0.8340601325035095
1761469078214081000,8.5980810546875,-0.45806169509887695,0.4459613859653473,0.7738982439041138
1761469078224064000,8.60806396484375,-0.41500189900398254,0.43444034457206726,0.7221797704696655
1761469078234046000,8.6180458984375,-0.3668154776096344,0.3701159656047821,0.6544755697250366
1761469078244029000,8.62802880859375,-0.3319290578365326,0.2869318127632141,0.5681056380271912
1761469078254012200,8.63801220703125,-0.31343767046928406,0.23863698542118073,0.49352625012397766
1761469078263995000,8.647994873046875,-0.30094003677368164,0.2295660376548767,0.44169488549232483
1761469078273978000,8.65797802734375,-0.29415351152420044,0.23037296533584595,0.39074060320854187
1761469078283961000,8.667961181640624,-0.28195804357528687,0.21454353630542755,0.36112579703330994
1761469078293943800,8.67794384765625,-0.27512890100479126,0.20079709589481354,0.3740013837814331
1761469078303927000,8.687927001953126,-0.26047730445861816,0.1946464478969574,0.40913084149360657
1761469078313910000,8.697909912109376,-0.24760599434375763,0.1961415559053421,0.45513373613357544
1761469078323892200,8.707892333984375,-0.25546491146087646,0.22658613324165344,0.5044129490852356
1761469078333875000,8.717875,-0.27643701434135437,0.2713189721107483,0.5476395487785339
1761469078343858000,8.72785791015625,-0.3024660646915436,0.3237951695919037,0.5825673341751099
1761469078353841200,8.737841064453125,-0.33130142092704773,0.3994015157222748,0.6212524175643921
1761469078363823900,8.747823974609375,-0.3558413088321686,0.4792553782463074,0.6430174112319946
1761469078373806800,8.757806884765625,-0.3745124638080597,0.555634081363678,0.6488710641860962
1761469078383790000,8.7677900390625,-0.38733139634132385,0.6276081800460815,0.6375647783279419
1761469078393773000,8.77777294921875,-0.3798292875289917,0.6785182356834412,0.6232225894927979
1761469078403755800,8.787755859375,-0.3754667639732361,0.7232229709625244,0.6050925850868225
1761469078413738000,8.797738037109376,-0.38206687569618225,0.7525039315223694,0.5803278684616089
1761469078423721000,8.807720947265626,-0.3654698431491852,0.7425728440284729,0.5496340990066528
1761469078433704000,8.817703857421876,-0.35899969935417175,0.7064135074615479,0.5268749594688416
1761469078443687000,8.82768701171875,-0.35883137583732605,0.669042706489563,0.5200327038764954
1761469078453670100,8.837670166015625,-0.35502251982688904,0.6371790170669556,0.5002209544181824
1761469078463653000,8.847653076171875,-0.3413946032524109,0.6100100874900818,0.4693776071071625
1761469078473635800,8.8576357421875,-0.31548815965652466,0.5939083695411682,0.45446789264678955
1761469078483619000,8.867619140625,-0.28504350781440735,0.5820518732070923,0.4574875831604004
1761469078493602000,8.87760205078125,-0.2608875632286072,0.5671467185020447,0.4822549819946289
1761469078503585000,8.8875849609375,-0.2196633666753769,0.5591786503791809,0.5284393429756165
1761469078513567000,8.89756689453125,-0.18870118260383606,0.5646538138389587,0.5891304016113281
1761469078523550000,8.907550048828124,-0.16512928903102875,0.5755441784858704,0.6485909819602966
1761469078533533200,8.917533203125,-0.1665002852678299,0.6036170721054077,0.6896327137947083
1761469078543516000,8.927515869140626,-0.1838821917772293,0.6374046206474304,0.718858003616333
1761469078553499000,8.937498779296876,-0.21367205679416656,0.6907647848129272,0.7588991522789001
1761469078563482000,8.947482177734376,-0.26583966612815857,0.758027195930481,0.788956344127655
1761469078573465000,8.957465087890625,-0.32022058963775635,0.8101015686988831,0.7937561869621277
1761469078583451400,8.967451416015624,-0.3746468722820282,0.8506914973258972,0.7843676209449768
1761469078593434600,8.9774345703125,-0.42055177688598633,0.8789114356040955,0.7652443051338196
1761469078603416300,8.987416259765626,-0.4583267569541931,0.8871405124664307,0.7430694103240967
1761469078613399600,8.997399658203125,-0.4774192273616791,0.8743360042572021,0.7225137948989868
1761469078623382500,9.007382568359375,-0.47463974356651306,0.8553412556648254,0.7184385657310486
1761469078633365500,9.017365478515625,-0.46078598499298096,0.8154479265213013,0.7246181964874268
1761469078643348500,9.027348388671875,-0.4491574764251709,0.758082389831543,0.7222698330879211
1761469078653331500,9.03733154296875,-0.4404577314853668,0.7030505537986755,0.7261884212493896
1761469078663314700,9.047314697265625,-0.43563759326934814,0.673002302646637,0.7330330610275269
1761469078673297700,9.057297607421875,-0.42040857672691345,0.6746593117713928,0.7532339692115784
1761469078683280400,9.0672802734375,-0.4122280776500702,0.6578289270401001,0.7680484056472778
1761469078693262600,9.0772626953125,-0.41155269742012024,0.6186093091964722,0.7765552997589111
1761469078703245600,9.08724560546875,-0.415340393781662,0.5908179879188538,0.794314980506897
1761469078713228500,9.097228515625,-0.44280025362968445,0.5471733212471008,0.8154924511909485
1761469078723211500,9.10721142578125,-0.4915553331375122,0.4938605725765228,0.8198514580726624
1761469078733194500,9.117194580078126,-0.5563585162162781,0.43556690216064453,0.8200935125350952
1761469078743177700,9.127177734375,-0.6133701801300049,0.4402175843715668,0.8329936265945435
1761469078753160400,9.137160400390625,-0.6525082588195801,0.506371021270752,0.8580297231674194
1761469078763143400,9.147143310546875,-0.663507878780365,0.5533877611160278,0.8585551977157593
1761469078773126700,9.157126708984375,-0.6543458104133606,0.5640904903411865,0.8541319370269775
1761469078783108400,9.1671083984375,-0.6336199045181274,0.542805016040802,0.8394340872764587
1761469078793091600,9.177091552734375,-0.595475971698761,0.522713303565979,0.8310099840164185
1761469078803074600,9.187074462890624,-0.5548217296600342,0.5100886821746826,0.838204026222229
1761469078813057500,9.1970576171875,-0.5245836973190308,0.4690139591693878,0.824235200881958
1761469078823040500,9.20704052734375,-0.5092194080352783,0.4452686011791229,0.801536500453949
1761469078833023500,9.2170234375,-0.5026190280914307,0.4316159188747406,0.7779377102851868
1761469078843006700,9.2270068359375,-0.5041732788085938,0.3959985375404358,0.7499979138374329
1761469078852989400,9.236989501953126,-0.5110876560211182,0.3238111436367035,0.7341270446777344
1761469078862972400,9.246972412109375,-0.5303189754486084,0.2775285542011261,0.7290738821029663
1761469078872955600,9.25695556640625,-0.5492247939109802,0.2656087577342987,0.7411326766014099
1761469078882937300,9.266937255859375,-0.5580857396125793,0.2832334339618683,0.7798402309417725
1761469078892920600,9.276920654296875,-0.5651106238365173,0.3195858299732208,0.8447430729866028
1761469078902903600,9.286903564453125,-0.5760619640350342,0.34466752409935,0.9107517600059509
1761469078912886500,9.296886474609375,-0.5715031623840332,0.3564104735851288,0.9558939337730408
1761469078922869500,9.306869384765625,-0.5517339706420898,0.3212011158466339,0.9718036651611328
1761469078932852500,9.3168525390625,-0.5323057174682617,0.25150564312934875,0.9727275371551514
1761469078942835500,9.32683544921875,-0.5169766545295715,0.1832868903875351,0.9650877118110657
1761469078952818700,9.336818603515624,-0.5079466700553894,0.13055922091007233,0.9713211059570312
1761469078962801400,9.346801513671876,-0.5113911032676697,0.11133977025747299,0.9907294511795044
1761469078972783600,9.35678369140625,-0.5097814798355103,0.14464420080184937,1.0175408124923706
1761469078982766600,9.3667666015625,-0.5219593048095703,0.20784582197666168,1.0582441091537476
1761469078992749600,9.37674951171875,-0.5215299725532532,0.2600131332874298,1.1235343217849731
1761469079002732500,9.386732666015625,-0.5302887558937073,0.21796591579914093,1.1196209192276
1761469079012715500,9.396715576171875,-0.5410844087600708,0.11937329918146133,1.0491946935653687
1761469079022698800,9.40669873046875,-0.5610350966453552,0.07944761961698532,0.9950272440910339
1761469079032681500,9.416681396484375,-0.558214545249939,0.1368139684200287,0.9784714579582214
1761469079042664400,9.42666455078125,-0.5538573265075684,0.2691374719142914,1.0022499561309814
1761469079052647700,9.436647705078125,-0.5505001544952393,0.42516380548477173,1.0216807126998901
1761469079062629400,9.44662939453125,-0.5133920907974243,0.5549919605255127,1.0485857725143433
