time,seconds_elapsed,z,y,x
1761467135763885000,0.116885009765625,-0.7715297314196825,-0.08414251054227352,0.4691621839080006
1761467135773868300,0.126868408203125,-0.7854296619564294,0.024615385818481442,0.47765324113853275
1761467135783851300,0.136851318359375,-0.7485644508957863,0.08754442794024944,0.4489171951934695
1761467135793834500,0.14683447265625,-0.6228232710301875,0.1163940903276205,0.3945504489075392
1761467135803816200,0.156816162109375,-0.43265550396144387,0.11186579924821853,0.3019428923588246
1761467135813799400,0.16679931640625,-0.25560557714104654,0.08415946167707443,0.1922565560415387
1761467135823782400,0.176782470703125,-0.1155178920149803,0.09803776490390301,0.1299896310903132
1761467135833765400,0.186765380859375,0.009996493357419967,0.18335808705389497,0.05214344421327114
1761467135843747300,0.196747314453125,0.1314426063776016,0.17195874116122722,-0.05452661302275955
1761467135853730600,0.20673046875,0.2582201435536146,0.14522797062397003,-0.08535663557238876
1761467135863713300,0.21671337890625,0.4221493075162172,0.1761900951206684,-0.09637735741101205
1761467135873696300,0.2266962890625,0.4935609313011169,0.22374211989045142,-0.1523972046662122
1761467135883678500,0.236678466796875,0.533856116810441,0.2649433143287897,-0.1417315798755735
1761467135893661200,0.2466611328125,0.5159299994975328,0.3269885593533516,-0.076655004331097
1761467135903644400,0.25664453125,0.47204000436663623,0.4078548247039318,-0.03245510300081223
1761467135913627400,0.26662744140625,0.46040334258675575,0.479644049629569,0.027740385971218345
1761467135923609300,0.276609375,0.44295653322339057,0.5558364779502153,0.07418203834630549
1761467135933592300,0.28659228515625,0.386643694370985,0.6888321589887142,0.06170614926330745
1761467135943575300,0.2965751953125,0.3164402773320675,0.8430898237645625,0.07455675341021269
1761467135953558500,0.30655859375,0.271994401884079,0.9556126256167888,0.05849065781552344
1761467135963540200,0.316540283203125,0.23748890569210052,0.9874527019917965,0.03688124887999147
1761467135973523500,0.3265234375,0.22500059551894663,0.9976076007813215,-0.003542239184118807
1761467135983506400,0.33650634765625,0.3003963205039501,0.9965618911206722,-0.09244283097367734
1761467135993489200,0.3464892578125,0.37170331487059594,0.9551765722870826,-0.1814369462655857
1761467136003471400,0.356471435546875,0.39604339087903495,0.8720207346946001,-0.2839989105956629
1761467136013454300,0.366454345703125,0.4300649029463529,0.7895692459791899,-0.3946551148584112
1761467136023437300,0.376437255859375,0.450052044442296,0.7275409520894288,-0.5119208369214088
1761467136033420300,0.386420166015625,0.44147184762358666,0.6706032593369483,-0.601574439035356
1761467136043402500,0.396402587890625,0.3710848907113075,0.6324848333448171,-0.7009851727928966
1761467136053385200,0.40638525390625,0.29294366641044617,0.5854390045315027,-0.7418735749550164
1761467136063368400,0.416368408203125,0.22779344110786914,0.5296271009385586,-0.7746009555585682
1761467136073351400,0.426351318359375,0.24376550174355505,0.47774727609753603,-0.8192984676800668
1761467136083333400,0.43633349609375,0.2594406252592802,0.4841945525407791,-0.8366828793317079
1761467136093316400,0.44631640625,0.22220716540813445,0.3601221826702356,-0.8665017520774155
1761467136103299300,0.45629931640625,0.201788062235713,0.2738748088032007,-0.882845860895887
1761467136113282600,0.466282470703125,0.06862988411188126,0.30336160005033014,-0.8447321110788732
1761467136123264300,0.47626416015625,-0.10308160429000854,0.31143560091257094,-0.7932569215159863
1761467136133247500,0.48624755859375,-0.20642507438659666,0.32988544983863827,-0.691396018127352
1761467136143230500,0.49623046875,-0.22643384319245813,0.3063631199538708,-0.6656126845080405
1761467136153213200,0.506213134765625,-0.20958032354712486,0.25233868429958817,-0.6025396673383191
1761467136163195400,0.5161953125,-0.12607727995216847,0.2201315281778574,-0.5415509456293657
1761467136173178400,0.526178466796875,0.010544190368056297,0.14346797521412372,-0.4999951290670782
1761467136183161300,0.536161376953125,0.11553425862789153,0.052857729962468146,-0.4964522322958335
1761467136193144300,0.546144287109375,0.24642390729784963,-0.06984042894542217,-0.5205424251964316
1761467136203126500,0.55612646484375,0.3604536065816879,-0.15444237369298933,-0.513194583184272
1761467136213109200,0.566109130859375,0.40857144854068755,-0.21793781752586364,-0.4686853601764887
1761467136223092200,0.57609228515625,0.45383156298100946,-0.2924918309897184,-0.42462260229457166
1761467136233075500,0.586075439453125,0.46388709304928777,-0.35387247462570665,-0.4092142764888704
1761467136243057200,0.59605712890625,0.43737960987389085,-0.34471769278943537,-0.374929583440721
1761467136253040400,0.606040283203125,0.35915772155225273,-0.30034663614332674,-0.32616960765328257
1761467136263023400,0.6160234375,0.34058746111690996,-0.302418181720376,-0.325314415596053
1761467136273006300,0.62600634765625,0.32373335694968697,-0.30237726518809793,-0.30825488851722327
1761467136282989300,0.6359892578125,0.27876667249798776,-0.280994869941473,-0.2919252831481397
1761467136292971300,0.64597119140625,0.31169512863159177,-0.27573300389051436,-0.3051742754954844
1761467136302954500,0.65595458984375,0.3230103033721447,-0.26212825690805913,-0.32521972304992375
1761467136312937200,0.665937255859375,0.29696459248960017,-0.22404197961986064,-0.3503638089176267
1761467136322920400,0.67592041015625,0.2498503746151924,-0.1614712494164705,-0.34333529852032657
1761467136332902400,0.68590234375,0.19316344175338743,-0.11434592562615871,-0.275174566290155
1761467136342885400,0.695885498046875,0.111518008723855,-0.08760609499961138,-0.21099150551930068
1761467136352868400,0.705868408203125,0.06905600056946277,-0.07958587015122175,-0.19259956079293042
1761467136362851300,0.715851318359375,0.06331482656896115,-0.07248831310570239,-0.1297506347026676
1761467136372833300,0.725833251953125,0.00722878220975399,-0.08367606207430363,-0.06845434488188475
1761467136382816300,0.735816162109375,0.02103285115659237,-0.15706103175878525,-0.02776128262877464
1761467136392799500,0.745799560546875,0.041997313252091405,-0.19966186386197804,0.008983516922593117
1761467136402782500,0.755782470703125,0.04994388834238052,-0.2215127534031868,0.037379992182366546
1761467136412764400,0.765764404296875,0.08162614380717277,-0.24519758037328718,0.04705810377299785
1761467136422747400,0.775747314453125,0.086827219581604,-0.2929474658027291,0.05623812964837998
1761467136432730400,0.78573046875,0.09700725281238555,-0.35575843450278044,0.07153119504395872
1761467136442713300,0.79571337890625,0.10911679280102252,-0.3997314317420125,0.10511595966182649
1761467136452695300,0.8056953125,0.08562836518585681,-0.4523433702498674,0.1724163487356156
1761467136462678500,0.815678466796875,0.07883855891525746,-0.448623472943902,0.20524317112565038
1761467136472661200,0.8256611328125,0.06722352444529534,-0.4464423295125365,0.23172135514132677
1761467136482644200,0.835644287109375,0.005882628297805786,-0.47847763619869943,0.24839451325107365
1761467136492626400,0.84562646484375,-0.04130816194415092,-0.5257984825611114,0.2712195815866813
1761467136502609200,0.855609130859375,-0.012995090651512145,-0.5786170495569706,0.2699712620260194
1761467136512592400,0.86559228515625,0.0589116231739521,-0.6211193897217512,0.2575504641311243
1761467136522575400,0.875575439453125,0.10946575236916542,-0.6320569633215666,0.21806078631840645
1761467136532558300,0.885558349609375,0.12120704356729983,-0.6424129376411437,0.17456976390983908
1761467136542540300,0.895540283203125,0.07659399485886097,-0.623109686756134,0.13022957732602952
1761467136552523300,0.905523193359375,0.013202595922350882,-0.6049152738958596,0.09047218848783523
1761467136562506500,0.915506591796875,-0.061679918843507764,-0.5559612733736634,0.0674758552385494
1761467136572489200,0.9254892578125,-0.06691431236565112,-0.5299158547520637,0.028820947749540207
1761467136582471400,0.935471435546875,-0.04247019146084785,-0.5103501535385847,-0.04662285416088998
1761467136592454400,0.945454345703125,-0.01865384706556797,-0.4526747941613197,-0.12542305382713675
1761467136602437400,0.955437255859375,-0.005226210215687752,-0.40434944693148134,-0.20766630661934612
1761467136612420400,0.96542041015625,0.06117664549648762,-0.3923851606324315,-0.2554456738715991
1761467136622402300,0.97540234375,0.12757716312110423,-0.4232254123151302,-0.2830127856351435
1761467136632385300,0.98538525390625,0.16768763971328735,-0.4816819851979613,-0.30009689916595816
1761467136642368300,0.9953681640625,0.2100181304425001,-0.5581029615774751,-0.2866684585984796
1761467136652351500,1.0053515625,0.24713527043759823,-0.6245923265293241,-0.2496424674855545
1761467136662333200,1.015333251953125,0.2279214514017105,-0.6439584135174751,-0.19771818244829772
1761467136672316400,1.02531640625,0.15134031602442263,-0.6450745580658316,-0.17199867131281643
1761467136682299400,1.03529931640625,0.10342588768303394,-0.6257607857868075,-0.1221619696719572
1761467136692282400,1.045282470703125,0.0885088890582323,-0.6061953768342733,-0.0982795012379065
1761467136702265300,1.055265380859375,0.07123100652098656,-0.5735039443269372,-0.09056826927345246
1761467136712247300,1.065247314453125,0.03605331015586853,-0.5115981077730656,-0.10603362249601632
1761467136722230500,1.07523046875,-0.007598784565925598,-0.4392053639963269,-0.16511541460510343
1761467136732213200,1.085213134765625,-0.08862111726105212,-0.34842911452800035,-0.20132873762827366
1761467136742196200,1.0951962890625,-0.18894903892874718,-0.24364333666861057,-0.27288210797142237
1761467136752178400,1.105178466796875,-0.2882055319726467,-0.10798895781487226,-0.35424656863510606
1761467136762161200,1.1151611328125,-0.32361236091852186,0.03807254102379083,-0.37928861890044063
1761467136772144600,1.12514453125,-0.34199908148050306,0.178755269433558,-0.40020927838683124
1761467136782127400,1.13512744140625,-0.36891748354434967,0.2697469152182341,-0.37876751763578503
1761467136792109600,1.145109619140625,-0.3302326558411121,0.3112009153738618,-0.41857272767107934
1761467136802092500,1.155092529296875,-0.13884382254481314,0.28173224430531263,-0.4414474438346922
1761467136812075300,1.1650751953125,0.014962006810307502,0.24568887102156875,-0.3998119496323168
1761467136822058500,1.17505859375,0.048099721780419345,0.220272105692327,-0.34856406601928175
1761467136832041500,1.18504150390625,0.019838088414072988,0.16362579710185526,-0.290430624143593
1761467136842023400,1.1950234375,0.09131400960683822,0.08771627737581729,-0.27859858592208475
1761467136852006400,1.20500634765625,0.18585867169797418,0.061384735289216036,-0.2860052089167759
1761467136861989400,1.2149892578125,0.1809387509524822,0.10651567039191723,-0.27559655456189064
1761467136871972600,1.22497265625,0.16661854917705057,0.1822071634531021,-0.28578371165320277
1761467136881954300,1.234954345703125,0.14828209749758242,0.26804829460680485,-0.28451186508648096
1761467136891937500,1.2449375,0.15935528017580508,0.33452246198952196,-0.25068375669941306
1761467136901920500,1.25492041015625,0.17968728958666325,0.40550387766361234,-0.18259375161789357
1761467136911903500,1.264903564453125,0.1915226888090372,0.43411154798865315,-0.1364206139858812
1761467136921885400,1.274885498046875,0.19812953972816466,0.44485622936487196,-0.10020604885369538
1761467136931868700,1.28486865234375,0.20221827034652232,0.4705085570156574,-0.042491964901238674
1761467136941851400,1.294851318359375,0.2771785265237093,0.49663551644086834,-0.002430515082553029
1761467136951834400,1.30483447265625,0.28208091161251064,0.5389560702979564,0.06312646439000964
1761467136961817600,1.314817626953125,0.1946381904810667,0.526561868149042,0.13491963483840227
1761467136971799300,1.32479931640625,0.13559738796949386,0.5276718752175569,0.20387685120850801
1761467136981782500,1.334782470703125,0.10673837323188781,0.5647141964107751,0.28231311293318867
1761467136991765500,1.344765625,0.09617781625092028,0.6569418137311935,0.3214485339481383
1761467137001748500,1.35474853515625,0.12189093417823314,0.7028162606775761,0.31423882176503537
1761467137011730400,1.36473046875,0.137068629565835,0.6498457179903984,0.2817424003731459
1761467137021713400,1.37471337890625,0.13062661381959914,0.706052173858881,0.31272856333255766
1761467137031696600,1.384696533203125,0.12655717242360115,0.7601064201295376,0.3270943578153849
1761467137041679400,1.394679443359375,0.07090484330654144,0.7326093413949012,0.29060499432981013
1761467137051662300,1.404662353515625,0.10322072049975395,0.6911123788803816,0.29624307328201827
1761467137061644500,1.41464453125,0.17507599639892577,0.6361813497751951,0.32530959329046305
1761467137071627300,1.424627197265625,0.22250059539675712,0.5561649792522192,0.3439264693465084
1761467137081610500,1.434610595703125,0.19728022942245005,0.48152562559247014,0.3742321757610887
1761467137091593500,1.444593505859375,0.17553075442910193,0.43632104073166844,0.3692800332464278
1761467137101575400,1.454575439453125,0.09590133739709854,0.42030514095425603,0.39530214405767616
1761467137111558400,1.464558349609375,0.004929857617616653,0.4129167842686176,0.3959721522737294
1761467137121541400,1.474541259765625,-0.08243336853682995,0.4054717289596796,0.3706193190261721
1761467137131524600,1.484524658203125,-0.14631459681689737,0.4029734824031591,0.34901728967949747
1761467137141507300,1.49450732421875,-0.1749479861050844,0.37749125062227246,0.3240191150885075
1761467137151489500,1.504489501953125,-0.1968687260121107,0.3730672967001796,0.29533458013497293
1761467137161472500,1.514472412109375,-0.15827625276744364,0.29199937129765746,0.22721512976326047
1761467137171455500,1.52445556640625,-0.052960021293163295,0.2594292270824313,0.19137911561988294
1761467137181438500,1.5344384765625,0.016404022312164306,0.1902089758619666,0.16609204108491538
1761467137191420700,1.544420654296875,0.139660984146595,0.04538812473416328,0.12374328404664993
1761467137201403400,1.5544033203125,0.3146919723600149,-0.12345102310180664,0.09287095672525465
1761467137211386400,1.564386474609375,0.43390462723970413,-0.2558189276307821,0.07897358347177505
1761467137221369600,1.57436962890625,0.47268531653285023,-0.3097179833397269,0.0762047032803297
1761467137231352600,1.5843525390625,0.5153016384661198,-0.3683028587773442,0.09014920361116528
1761467137241334500,1.59433447265625,0.5058639480352402,-0.3968699048310518,0.10814867842122912
1761467137251317500,1.6043173828125,0.456146854186058,-0.43334114813804625,0.11541421244479715
1761467137261300500,1.614300537109375,0.45328211240470406,-0.4808326748922467,0.10604213459603488
1761467137271283500,1.624283447265625,0.4730032964408397,-0.5201207291856408,0.11832052834555506
1761467137281265400,1.634265380859375,0.48007367321848865,-0.5546873079150915,0.10067753882296383
1761467137291248600,1.64424853515625,0.47473815740942954,-0.55243339150846,0.08557130123637616
1761467137301231400,1.6542314453125,0.5095207169771194,-0.5350102552816272,0.053522550546750425
1761467137311214300,1.66421435546875,0.572055206823349,-0.5115978155121207,0.0493125316362828
1761467137321197600,1.674197509765625,0.445180639013648,-0.48537762484550473,0.07398278944715857
1761467137331179300,1.68417919921875,0.37046295942068097,-0.4048109269633889,0.10896152917407452
1761467137341162500,1.69416259765625,0.3087152360379696,-0.3410995022922754,0.16039470622614024
1761467137351145500,1.7041455078125,0.19382921218574045,-0.28501462697684765,0.20122144132889805
1761467137361128400,1.71412841796875,0.14473755675852298,-0.23850655830204484,0.22567433006204662
1761467137371111400,1.724111328125,0.145960961073637,-0.23510054925084112,0.2634581172723323
1761467137381093400,1.73409326171875,0.13099486261010168,-0.2099824746072292,0.33470980125516653
1761467137391076600,1.74407666015625,0.10538052888214587,-0.22402736657261846,0.38978696083277464
1761467137401059300,1.754059326171875,0.07156710660755634,-0.2423541736409068,0.3868057530649006
1761467137411042600,1.76404248046875,0.057715106865763664,-0.24590426733791826,0.41981786889396605
1761467137421024500,1.7740244140625,0.10080196892023086,-0.248459797039628,0.43142756960168477
1761467137431007500,1.784007568359375,0.15989245579242706,-0.3045028790399432,0.41371414519138633
1761467137440990500,1.793990478515625,0.20596797826886176,-0.3492068209022283,0.3751281016875058
1761467137450973400,1.803973388671875,0.27280279565751553,-0.38278877250850196,0.33042372143380344
1761467137460956400,1.813956298828125,0.34198037678003307,-0.47183220683485266,0.25641703965440393
1761467137470938400,1.8239384765625,0.38658758026957507,-0.6081044253259897,0.18385420000776648
1761467137480921600,1.833921630859375,0.4278904815167188,-0.7403536719113588,0.13246318159699438
1761467137490904600,1.843904541015625,0.535982022923231,-0.8350161151632666,0.06221870189532637
1761467137500887300,1.85388720703125,0.5603524940699338,-0.8485270463824272,-0.01783084024488926
1761467137510870500,1.86387060546875,0.47301264879107474,-0.7880109106212854,-0.06283551861941813
1761467137520852500,1.8738525390625,0.3793891931980848,-0.7470362184152006,-0.05503149380497634
1761467137530835500,1.88383544921875,0.3051882309556007,-0.7047562888294457,-0.011666910787671804
1761467137540818400,1.893818359375,0.17748948728144168,-0.6259609845340252,0.02517784200683236
1761467137550801400,1.903801513671875,0.061195934718847274,-0.5986340016692876,0.07470240895859896
1761467137560783400,1.913783447265625,-0.016489362508058547,-0.5571326552405953,0.1306505061518401
1761467137570766300,1.923766357421875,-0.01709142005443573,-0.4950044081076979,0.1910298637907952
1761467137580749600,1.93374951171875,0.005763385832309722,-0.45946284686625,0.23247604596614838
1761467137590732300,1.943732177734375,0.03485387123823166,-0.4962839265242219,0.26621490516718477
1761467137600715500,1.953715576171875,0.0442108976483345,-0.6386313732758164,0.31640911500882357
1761467137610697500,1.963697509765625,0.11404022067785262,-0.8181196331590413,0.3468092947738245
1761467137620680400,1.973680419921875,0.14633797769248486,-0.9152332689553498,0.3819472071178257
1761467137630663400,1.983663330078125,0.020405659168958663,-0.7898807961463927,0.38505690010357646
1761467137640646400,1.993646484375,-0.14452420626878737,-0.5938917755782603,0.40315954302717
1761467137650629600,2.003629638671875,-0.28984102421998975,-0.4871487261712551,0.404877160600014
1761467137660611300,2.013611328125,-0.4169990851461887,-0.4687707734376192,0.4384036556920036
1761467137670594600,2.023594482421875,-0.48088791221082205,-0.4420844265639782,0.47967835375797
1761467137680577500,2.03357763671875,-0.49434009898006914,-0.3735480659544468,0.4553689651487395
1761467137690560300,2.043560302734375,-0.41874563655257224,-0.280575183224678,0.38415834382865577
1761467137700543500,2.05354345703125,-0.30665128924548624,-0.23420623075962066,0.2905743434632197
1761467137710525400,2.063525390625,-0.18040040629208087,-0.2501134094655514,0.19337547706887126
1761467137720508400,2.07350830078125,-0.13083587265610694,-0.23323943155407903,0.09978665439784526
1761467137730491400,2.083491455078125,-0.0984954455435276,-0.1675368330657482,-0.00850435510352254
1761467137740474400,2.093474365234375,-0.024386253237724302,-0.08937456597685814,-0.11648246273081748
1761467137750457600,2.10345751953125,0.0247305366307497,0.040352468654513356,-0.18431575310491025
1761467137760439300,2.113439208984375,0.06886544643342495,0.14882920998632906,-0.23692122533936052
1761467137770422800,2.1234228515625,0.16490005482137202,0.2125935338884592,-0.2731528512042016
1761467137780405500,2.133405517578125,0.24239830504357812,0.23434125531613825,-0.2822092872325331
1761467137790388500,2.143388427734375,0.2902688942432403,0.2914800235986709,-0.26160277172923085
1761467137800370700,2.15337060546875,0.28873510880470277,0.39490649580359455,-0.2386007393915206
1761467137810353400,2.163353515625,0.2528887193977833,0.506640193104744,-0.22865411305781452
1761467137820336600,2.173336669921875,0.2484738255649805,0.6131213767051696,-0.20870408870186655
1761467137830319600,2.183319580078125,0.251462485986948,0.6923585795491933,-0.17538681591376662
1761467137840302600,2.193302490234375,0.2034475198805332,0.7760422404080629,-0.134171994808875
1761467137850284500,2.203284423828125,0.14007131851315496,0.8275228367984294,-0.09439893347751349
1761467137860267500,2.213267578125,0.09884498963356017,0.8806096993416547,-0.07214706191997974
1761467137870250800,2.223250732421875,0.09356851053535938,0.908975962126255,-0.09127345840074122
1761467137880233500,2.2332333984375,0.10311842916905879,0.9263152194619179,-0.1267101344956085
1761467137890216700,2.243216796875,0.1423749192804098,0.9243862972259521,-0.17198935549519956
1761467137900198700,2.25319873046875,0.17090367915034294,0.8918237517952918,-0.2345838684329763
1761467137910181600,2.263181640625,0.16588848133683204,0.8341998303443193,-0.28844204414226116
1761467137920164600,2.27316455078125,0.19498948813676834,0.8178104210793972,-0.3665967855118215
1761467137930147600,2.283147705078125,0.2553039638459682,0.80620473895967,-0.45228488152828067
1761467137940130800,2.293130859375,0.2767307827562094,0.7926677965164184,-0.5303420808074996
1761467137950112500,2.303112548828125,0.3025964608967304,0.719084673911333,-0.6406327762261033
1761467137960095700,2.313095703125,0.2905313445717096,0.6265922681748867,-0.7122333467118441
1761467137970078700,2.32307861328125,0.26663082902431484,0.5781073464691638,-0.766959647025168
1761467137980061400,2.3330615234375,0.275879134362936,0.554427195674181,-0.817707106835395
1761467137990044700,2.343044677734375,0.25459376974999903,0.5820101991266012,-0.8245354915507137
1761467138000026600,2.353026611328125,0.22986732477247715,0.5091162278294563,-0.9048496029112487
1761467138010009600,2.363009521484375,0.13681319350004195,0.46070378683805463,-0.942475569211319
1761467138019992600,2.37299267578125,0.10715864447057247,0.4390121795117855,-0.9307393925797194
1761467138029975600,2.3829755859375,0.13066986843943595,0.48458092150986193,-0.8838942739702761
1761467138039958800,2.392958740234375,0.10777706862986088,0.5039478852808476,-0.8525975106917321
1761467138049940500,2.4029404296875,0.07295183896422386,0.4637760338902473,-0.8373309679768979
1761467138059923700,2.412923828125,0.06261632291078567,0.4181377337872982,-0.79795216666013
1761467138069906700,2.42290673828125,0.08279109593331814,0.3449088314473629,-0.7622511770732701
1761467138079889400,2.432889404296875,0.1491758314669132,0.27598785543441773,-0.7567318291299044
1761467138089872600,2.44287255859375,0.22005729389786718,0.14449147304296492,-0.755786218842864
1761467138099854600,2.4528544921875,0.28455343920588494,0.03570230476111173,-0.7467461494274437
1761467138109837600,2.462837646484375,0.33402328029572964,-0.04471650908291339,-0.7620292048856615
1761467138119820500,2.472820556640625,0.34829087510108947,-0.11567015996724367,-0.7880074034899472
1761467138129803800,2.4828037109375,0.3530944759905338,-0.1884340751439333,-0.8103742797292769
1761467138139786800,2.492786865234375,0.364769131693244,-0.23491262546330688,-0.8155398457989096
1761467138149768700,2.502768798828125,0.34683073942065235,-0.2797667894512415,-0.8124429026968777
1761467138159751700,2.512751708984375,0.3343418447256088,-0.2871165676921606,-0.8146172510612756
1761467138169734700,2.522734619140625,0.32378654844164845,-0.2887982371687889,-0.8177250808835029
1761467138179717600,2.532717529296875,0.3607622341394424,-0.3000333324104547,-0.8081657368343323
1761467138189700600,2.54270068359375,0.38019758697152134,-0.2999330869063735,-0.7445320535745471
1761467138199683600,2.55268359375,0.36134149533212184,-0.3043292760387063,-0.6800348122879862
1761467138209665500,2.56266552734375,0.3373275825381279,-0.3136228818237781,-0.6245110779866576
1761467138219648500,2.5726484375,0.3242950824856758,-0.2791267379820347,-0.5730124344829469
1761467138229631700,2.5826318359375,0.2913286324292421,-0.23147096057683228,-0.5211896370587871
1761467138239614700,2.59261474609375,0.25385727216899395,-0.20157588078975677,-0.4701952532827854
1761467138249597400,2.602597412109375,0.18473288253843784,-0.14006576555520295,-0.4454424317549914
1761467138259579600,2.61257958984375,0.10473580123782157,-0.07704524575769901,-0.4059539960512891
1761467138269562600,2.622562744140625,0.12854746945798395,-0.09653320555984973,-0.38355756492391224
1761467138279545600,2.632545654296875,0.19967676917016505,-0.18764964676797388,-0.3640815147552639
1761467138289528600,2.642528564453125,0.2410176643401384,-0.2624462368160486,-0.32661702262721953
1761467138299511600,2.652511474609375,0.23837737896442412,-0.3163257110416889,-0.2632821761835366
1761467138309493500,2.662493408203125,0.21613339845240115,-0.3466276180639863,-0.21252974793724713
1761467138319476500,2.6724765625,0.14576339267492294,-0.3248533008903265,-0.17892193123735486
1761467138329459700,2.682459716796875,0.0745662884235382,-0.332142581115663,-0.1681078744193539
1761467138339442700,2.692442626953125,0.038113165295124055,-0.379493238094449,-0.14342961596511303
1761467138349425700,2.70242578125,0.039218496188521385,-0.4087622949376702,-0.11603884714916347
1761467138359407600,2.71240771484375,0.0718044224947691,-0.4292825203970074,-0.09599540888871998
1761467138369390800,2.722390869140625,0.1204939268618822,-0.4496496011212468,-0.09560714022349566
1761467138379373600,2.73237353515625,0.14922610034942627,-0.5226657374933362,-0.08074779007006436
1761467138389356500,2.7423564453125,0.1593932740986347,-0.594569528709352,-0.08761994086187333
1761467138399339800,2.75233984375,0.14174538920521734,-0.7031839249461889,-0.10038462029099464
1761467138409321500,2.762321533203125,0.0844528916656971,-0.8067413300544023,-0.13968217306509614
1761467138419304700,2.7723046875,0.04788695581257343,-0.7932888510242104,-0.24232352277431635
1761467138429287700,2.78228759765625,-0.008553893333673476,-0.6842050837099551,-0.37734859074857086
1761467138439270700,2.792270751953125,-0.08815759140253067,-0.5891086329549551,-0.4763156358592212
1761467138449253600,2.802253662109375,-0.1619721846759319,-0.5161489029452204,-0.5900652760926633
1761467138459236600,2.812236572265625,-0.2554401574462652,-0.4282531773492694,-0.6904425167948007
1761467138469218800,2.82221875,-0.33121173000633714,-0.34252310535460706,-0.7574521062284708
1761467138479201500,2.832201416015625,-0.3818500303536653,-0.3017360446751117,-0.8145673475049435
1761467138489184500,2.8421845703125,-0.34577041671276093,-0.3722366910949349,-0.8496700789377093
1761467138499167700,2.852167724609375,-0.2621276723861694,-0.5980716916114092,-0.8570705644525587
1761467138509150500,2.862150390625,-0.13678162931799887,-0.8196750459074974,-0.8500783674776553
1761467138519132700,2.872132568359375,-0.15167700063288211,-0.8130334159359336,-0.832715729266405
1761467138529115600,2.88211572265625,-0.20124211879074572,-0.7517553558915853,-0.771399602233991
1761467138539098600,2.8920986328125,-0.28509646004140377,-0.8093971052601933,-0.6979206706557423
1761467138549081600,2.90208154296875,-0.3519663487434387,-0.8710413682684301,-0.633731764665991
1761467138559064600,2.912064697265625,-0.4314426210403442,-0.8019701701298355,-0.5587802763171493
1761467138569047800,2.9220478515625,-0.4980447987169027,-0.5895777117714286,-0.4984714266311377
1761467138579029500,2.932029541015625,-0.5551303755074739,-0.3143573335781693,-0.4633394691038876
1761467138589012700,2.9420126953125,-0.5927034425765275,-0.09685060094594955,-0.4792151566930115
1761467138598995700,2.95199560546875,-0.48652270322740077,0.027993045558035373,-0.46553632156103847
1761467138608978400,2.961978515625,-0.4001291988879442,0.17090251010656357,-0.3548427078973502
1761467138618961700,2.971961669921875,-0.3523907116353512,0.27041005530208345,-0.30843064694292843
1761467138628943600,2.981943603515625,-0.1643997040838003,0.370703490178287,-0.28975714532881974
1761467138638926600,2.991926513671875,0.014098667979240417,0.4253559946030378,-0.2652721078917384
1761467138648909600,3.00190966796875,0.10290858581066131,0.40577100416719913,-0.2139234673179686
1761467138658892500,3.011892578125,0.1499485694050789,0.3677905253410339,-0.15894450741782784
1761467138668875800,3.021875732421875,0.11464403178989886,0.37143618836700915,-0.13661752479746936
1761467138678857500,3.031857421875,0.027571897536516187,0.42791678500175473,-0.14277904310189188
1761467138688840700,3.0418408203125,-0.0519008676290512,0.5397422522395849,-0.10307831635437906
1761467138698823700,3.05182373046875,-0.05961363396346569,0.6450380254477263,-0.023413389617577194
1761467138708806400,3.061806396484375,-0.010295184043049811,0.7366834589660167,0.023320523702353237
1761467138718789600,3.07178955078125,0.08788461968004703,0.8274339894711971,0.08866773288175463
1761467138728772600,3.081772705078125,0.11782207730412482,0.8826035035073757,0.14071648454889654
1761467138738754600,3.091754638671875,0.09886778598725796,0.9499299038052559,0.18328655618764458
1761467138748737500,3.101737548828125,0.14051789323687552,0.9479776006937026,0.18665778618641196
1761467138758720500,3.111720458984375,0.0963514192521572,1.0465659852176905,0.2609923847459257
1761467138768703700,3.121703857421875,0.1936135236084461,1.1218722783535717,0.32572679578922686
1761467138778686700,3.131686767578125,0.256255565482378,1.0561644191682338,0.29284524753727015
1761467138788669700,3.141669677734375,0.2138175227254629,0.9765203890889882,0.30027313251569865
1761467138798651600,3.151651611328125,0.21843583017587662,0.9364870693862438,0.3575779780801385
1761467138808635000,3.161634765625,0.24335107572376727,0.9182961636573076,0.40056810176186264
1761467138818617900,3.171617919921875,0.26266134087145326,0.890711991161108,0.4195561492178589
1761467138828600600,3.1816005859375,0.26771979330480095,0.8553478323131799,0.43329993934482336
1761467138838583800,3.191583740234375,0.27104104668200013,0.8027794406861066,0.4438534089978784
1761467138848565800,3.201565673828125,0.21319734500050544,0.7493062091737985,0.44391229957826434
1761467138858548700,3.211548828125,0.1103378590285778,0.7028495784252882,0.4538889191914349
1761467138868531700,3.22153173828125,0.04560848948657512,0.6741489691197872,0.4463984173055738
1761467138878514700,3.2315146484375,-0.037927871856093406,0.6492500901848077,0.4260271718628704
1761467138888497700,3.24149755859375,-0.08090835092663765,0.6118214000225066,0.3974917630564421
1761467138898480600,3.251480712890625,-0.10938742643594741,0.5607862093120813,0.38171500579714773
1761467138908462800,3.261462890625,-0.15789806710481644,0.49671734950542445,0.3807913150809705
1761467138918445600,3.271445556640625,-0.14887363364994524,0.45159810484051705,0.3598421236198395
1761467138928428500,3.281428466796875,-0.11206979738771915,0.37358489083349705,0.34515549968481063
1761467138938411800,3.291411865234375,-0.03908990137279034,0.2832090388596058,0.27782990310452876
1761467138948394800,3.301394775390625,0.033731589210033414,0.17808686865270137,0.20547033094502984
1761467138958376700,3.311376708984375,0.044373979255557056,0.08950842148959637,0.14898388909138738
1761467138968359700,3.321359619140625,0.02887538135051727,0.04025777610838413,0.1030989207509905
1761467138978342700,3.3313427734375,-0.0020201076507568357,0.025963293296098706,0.038178120290115476
1761467138988325600,3.34132568359375,-0.029300913286209106,0.011361936491727828,0.0011474164694547653
1761467138998308600,3.35130859375,-0.017572481569647788,-0.022353286105394363,0.004174582270905375
1761467139008291800,3.361291748046875,0.022123569002747534,-0.06411445251405239,-0.011082973419874905
1761467139018273500,3.3712734375,0.0490080687969923,-0.10739537583589553,-0.021810411400347948
1761467139028256800,3.3812568359375,0.0686538495093584,-0.13155892623364926,-0.03509995495378971
1761467139038239700,3.39123974609375,0.15109072517752647,-0.14156827907264233,-0.05018931447081267
1761467139048222700,3.40122265625,0.2649181798875332,-0.17232406734228134,-0.06378653573393821
1761467139058205700,3.411205810546875,0.33992578233778475,-0.21773440390825272,-0.05371405453085899
1761467139068188700,3.421188720703125,0.37229426650106906,-0.2719523163080215,-0.03844239724949002
1761467139078171000,3.4311708984375,0.4178957417249679,-0.282951264706254,-0.022788462652266025
1761467139088153600,3.441153564453125,0.4524386473178863,-0.2528746908724308,0.008248553711548447
1761467139098136600,3.451136474609375,0.4034136273860931,-0.21309271558225154,0.02901018671132624
1761467139108119800,3.461119873046875,0.3975765917956829,-0.20794775390923023,0.06912175928205251
1761467139118102800,3.471102783203125,0.39381460891366005,-0.18557400953769682,0.08700717925839126
1761467139128085500,3.48108544921875,0.3263034996986389,-0.13716449115574358,0.0852090437952429
1761467139138067700,3.491067626953125,0.2813730556041002,-0.07915186264812946,0.10145020369589328
1761467139148050700,3.50105078125,0.27725042271614075,-0.06461918716579676,0.10921396956518292
1761467139158033700,3.51103369140625,0.30029227560758587,-0.072183192679286,0.11746595734283327
1761467139168016600,3.5210166015625,0.30393150889277454,-0.07812748803645372,0.0950504196561873
1761467139177999600,3.53099951171875,0.34640170035362244,-0.12564853314608335,0.07390278301350772
1761467139187982800,3.54098291015625,0.4076420587360859,-0.14765052159577607,0.07102350125014782
1761467139197964500,3.550964599609375,0.44272213994562626,-0.19871113900840282,0.07150405130870639
1761467139207947800,3.56094775390625,0.45006782653331756,-0.26580723768174647,0.08981997165679931
1761467139217930800,3.5709306640625,0.4623439552605152,-0.3104354839593172,0.09937675842270255
1761467139227913700,3.580913818359375,0.4806728081554174,-0.33455490295439955,0.1061840272847563
1761467139237896700,3.590896728515625,0.451323964074254,-0.31595687772929665,0.1386577253881842
1761467139247879700,3.600879638671875,0.43223873985409733,-0.33424890574514865,0.16940021578483283
1761467139257861600,3.610861572265625,0.41855040624141693,-0.37851065679788587,0.19918949710987507
1761467139267844600,3.6208447265625,0.4510241043448448,-0.4484843567341566,0.2158244786337018
1761467139277827800,3.630827880859375,0.4788438391625881,-0.5056669641584157,0.21142894708849488
1761467139287810800,3.640810791015625,0.48106034616827964,-0.529734360705316,0.16731814881376922
1761467139297793500,3.65079345703125,0.4713695577591657,-0.5876444056212902,0.08968377805650234
1761467139307776800,3.66077685546875,0.4282224899500608,-0.6432496807262301,0.041324528557062146
1761467139317758700,3.6707587890625,0.328136560344696,-0.7192924714431166,0.007183043371886014
1761467139327741700,3.68074169921875,0.2132078663945198,-0.7470739200770854,-0.03218516348563134
1761467139337724700,3.690724609375,0.15294365956783293,-0.7273346158623695,-0.053293564096465705
1761467139347707600,3.700707763671875,0.14069675693511963,-0.6698638391464948,-0.10764050970338285
1761467139357691000,3.71069091796875,0.08899462674856186,-0.6222600841894745,-0.11952398585118353
1761467139367672600,3.720672607421875,0.09823124164938926,-0.6284703370064496,-0.06408398431055247
1761467139377655800,3.73065576171875,0.08347323297858238,-0.6388362481981515,-0.03236636527143419
1761467139387638800,3.740638671875,0.03172609460651874,-0.6140227094590663,-0.008561711313948036
1761467139397621500,3.75062158203125,-0.0803045398145914,-0.5497404991626739,0.002967179242521524
1761467139407604700,3.760604736328125,-0.1812754355609417,-0.45867198874950404,0.033376346031576395
1761467139417587700,3.770587646484375,-0.2726104879558086,-0.3453405008628964,0.060159504343196744
1761467139427571000,3.780571044921875,-0.34206220984458924,-0.22710019814670085,0.09119191759712994
1761467139437552600,3.790552734375,-0.35522272019088263,-0.17256372131705283,0.11956742313411087
1761467139447535900,3.800535888671875,-0.29597616597414017,-0.2585597507715225,0.14697707931362092
1761467139457518800,3.810518798828125,-0.18091186294555664,-0.4413736479461193,0.17899857667014002
1761467139467501600,3.82050146484375,-0.07002572238445282,-0.6027192251563072,0.2198096758123487
1761467139477484800,3.83048486328125,-0.0351613297522068,-0.6294529183030129,0.2569846469419077
1761467139487467800,3.8404677734375,-0.10985972012281417,-0.5581897630780935,0.21706797588877377
1761467139497449700,3.85044970703125,-0.2135346141308546,-0.5677262377083301,0.21636950876321642
1761467139507432700,3.8604326171875,-0.2604021637678146,-0.6719657798618078,0.2664739944947883
1761467139517415700,3.870415771484375,-0.22765198681056498,-0.712266226068139,0.35408765174634754
1761467139527398700,3.880398681640625,-0.12275778014063835,-0.6707435445904731,0.38004648806303737
1761467139537381600,3.890381591796875,-0.038134792605042454,-0.5903752918899059,0.36196956410259007
1761467139547364600,3.900364501953125,0.06656126114428043,-0.5240829108148813,0.3147110058540478
1761467139557346800,3.910346923828125,0.152191964417696,-0.4554688087940216,0.2301640792293474
1761467139567329500,3.92032958984375,0.2160620867818594,-0.38694296957850455,0.1673653854889795
1761467139577312800,3.930312744140625,0.2253904716193676,-0.30312545320689677,0.15142083391472697
1761467139587295700,3.940295654296875,0.15502923367023466,-0.18809563696980475,0.14812672427278012
1761467139597278700,3.95027880859375,0.1432733294248581,-0.07034194872677325,0.07935651837475598
1761467139607261700,3.96026171875,0.2043102741897106,0.05629062702059746,-0.010157346474938093
1761467139617243600,3.97024365234375,0.300208104455471,0.2233423069179058,-0.09933617068398744
1761467139627226600,3.9802265625,0.4065466647148132,0.3742968384951353,-0.19966369049288332
1761467139637209600,3.990209716796875,0.4891378541618585,0.49423430051803585,-0.26794541875422
1761467139647192800,4.00019287109375,0.5483195264488459,0.5587397981762886,-0.31541656030751763
1761467139657175800,4.01017578125,0.6012275252938271,0.6093225689440965,-0.35168574170377104
1761467139667157800,4.02015771484375,0.6347948638528585,0.6420417662411928,-0.36274840298797933
1761467139677140700,4.030140625,0.6373392876386642,0.7300000356793404,-0.36170210880544035
1761467139687122700,4.040122802734375,0.587903933340311,0.8378115911006927,-0.3410150023465976
1761467139697105700,4.050105712890625,0.4582324282884597,0.9130319595187902,-0.2957305937152356
1761467139707088600,4.060088623046875,0.34431612625122066,0.9462871633887291,-0.26103498177863654
1761467139717072000,4.07007177734375,0.23844518350362776,0.998227778506279,-0.2400609481371939
1761467139727054600,4.0800546875,0.1439338391602039,1.0589520040601492,-0.24366474478282033
1761467139737037600,4.09003759765625,0.07581950335502624,1.0807061552286148,-0.2704976605203003
1761467139747020800,4.100020751953125,0.01671323439180851,1.0371943457603454,-0.3189347975615412
1761467139757002500,4.11000244140625,-0.12270868030190467,1.0417746592879296,-0.32248109186626966
1761467139766985700,4.11998583984375,-0.06850771903693675,1.028871338573098,-0.375208911838755
1761467139776968700,4.12996875,-0.042568975660204886,1.0041559995114804,-0.46118528674468395
1761467139786951700,4.13995166015625,-0.029011574950814245,0.9594090952903032,-0.5590226337056606
1761467139796934700,4.1499345703125,0.04176408901810646,0.8611743465095758,-0.6544817802932114
1761467139806917600,4.159917724609375,0.10900748720765113,0.7626034976422786,-0.7400193984556943
1761467139816899800,4.16989990234375,0.17123861019313336,0.6686228991746902,-0.8076172361060977
1761467139826882600,4.179882568359375,0.21084698248207567,0.5698123963326216,-0.8901675820861011
1761467139836865500,4.189865478515625,0.19856910018920898,0.5005775320649146,-0.9028071372982114
1761467139846848800,4.199848876953125,0.10931494572162627,0.47402270261645313,-0.8786929059349
1761467139856831700,4.209831787109375,-0.03222995247542858,0.4738777411878109,-0.8588334094066172
1761467139866814700,4.219814697265625,-0.1698731670588255,0.44891631841063495,-0.8163776848625391
1761467139876796700,4.229796630859375,-0.26700141590237614,0.39907705948650835,-0.767518011560291
1761467139886780000,4.23977978515625,-0.2979828296214342,0.3220984492242336,-0.6974872476745396
1761467139896762600,4.2497626953125,-0.31882804925143715,0.257009014198184,-0.6527358864739536
1761467139906745600,4.25974560546875,-0.3407990580409765,0.19342296947240828,-0.6068456574365496
1761467139916728800,4.269728759765625,-0.2858481551915407,0.10239537559151649,-0.5682399593841284
1761467139926711800,4.2797119140625,-0.26040041020214555,0.041942075933516024,-0.5442231970459223
1761467139936694500,4.289694580078125,-0.28976912802755833,-0.013259879067540168,-0.5101927710197866
1761467139946676700,4.2996767578125,-0.281190684774518,-0.09166501500159502,-0.4788587444707751
1761467139956659700,4.30965966796875,-0.2448971361219883,-0.14294862751513718,-0.45128779678232966
1761467139966642700,4.319642578125,-0.216157948371768,-0.15977847402393816,-0.445998896593973
1761467139976625700,4.329625732421875,-0.18511457533240316,-0.18331658599972725,-0.4393783824756741
1761467139986608600,4.339608642578125,-0.1100672253936529,-0.23658143545836208,-0.43747956311702724
1761467139996591900,4.349591796875,-0.04015840738713741,-0.295942848226428,-0.455417663128674
1761467140006573600,4.359573486328125,0.06963350819647311,-0.33835166488885876,-0.4752115470748394
1761467140016556800,4.369556884765625,0.13878478583395482,-0.34736119303554297,-0.47612511825580145
1761467140026539800,4.379539794921875,0.16989304080307482,-0.31379560804218054,-0.48051564483232795
1761467140036522800,4.389522705078125,0.15620938336551188,-0.29998394031077624,-0.4525512043142691
1761467140046505700,4.399505615234375,0.17319500495791434,-0.2640101251319051,-0.404240506664291
1761467140056488700,4.40948876953125,0.17686755599081516,-0.24034634094983337,-0.3231860617978498
1761467140066472000,4.419471923828125,0.14652444017529487,-0.22163491847813127,-0.24488248654212802
1761467140076453600,4.42945361328125,0.09278408215939998,-0.16486089185476302,-0.16877572721093892
1761467140086436900,4.439436767578125,0.0673421823889017,-0.07097527819424868,-0.1284404654195532
1761467140096419800,4.449419921875,0.06161269882619381,0.0038961306557059286,-0.11589173029605299
1761467140106402600,4.459402587890625,0.045455344751477236,0.04176145866960287,-0.0727847022363916
1761467140116385800,4.4693857421875,0.09164718708395958,0.054390638618171214,-0.034600480999052524
1761467140126368800,4.47936865234375,0.18639058661758898,0.05551438195109367,-0.016565350353717805
1761467140136351500,4.4893515625,0.2638227858662605,0.056953767104446884,0.011162943320907651
1761467140146333700,4.499333740234375,0.33148002555370326,-0.007896890729665755,0.03557674215268344
1761467140156316700,4.509316650390625,0.39458617780804633,-0.10140811811983584,0.06090827688388526
1761467140166300000,4.5192998046875,0.42341655097305775,-0.13912147044241427,0.07356945940591395
1761467140176282600,4.52928271484375,0.39482174012959004,-0.15691870067864655,0.0954426703767851
1761467140186265600,4.539265625,0.330287016376853,-0.19043898522555827,0.10937913353163749
1761467140196248800,4.549248779296875,0.28313188197016714,-0.2618526548370719,0.10339899967610836
1761467140206230500,4.55923046875,0.24749825853109358,-0.3196525173768401,0.08403470278624445
1761467140216215600,4.569215576171875,0.24542086773514746,-0.35417671826928854,0.06557100799791514
1761467140226198800,4.57919873046875,0.2622358089357614,-0.4040916727781296,0.04314242816660553
1761467140236181800,4.589181640625,0.2753559872716665,-0.457183796018362,0.006245725989155471
1761467140246164700,4.599164794921875,0.25289748722612854,-0.5084592252254486,-0.05990691782161593
1761467140256146700,4.609146728515625,0.23806699784100055,-0.571253242790699,-0.14783618036098778
1761467140266129700,4.619129638671875,0.2421381928026676,-0.6487547078832984,-0.25286369455438107
1761467140276113000,4.62911279296875,0.2747895855605602,-0.7121826394379138,-0.35065037077404554
1761467140286095600,4.639095703125,0.281250306007266,-0.799433052867651,-0.45935989794842896
1761467140296078600,4.64907861328125,0.297772401741147,-0.8645183962404728,-0.5625814586983994
1761467140306061800,4.659061767578125,0.339630598783493,-0.8685086349204182,-0.6538033695749939
1761467140316044800,4.669044921875,0.31786241908967494,-0.8668146904841065,-0.7658386801712215
1761467140326026800,4.67902685546875,0.2539332600146532,-0.8363347965463995,-0.8466974928677081
1761467140336009700,4.689009765625,0.137342770332098,-0.7492834128201007,-0.8462087595026939
1761467140345992700,4.69899267578125,0.024317279654741286,-0.6960857833787798,-0.8049844033844769
1761467140355975700,4.7089755859375,0.020381693771481513,-0.6863532016545534,-0.7454968800187111
1761467140365958700,4.718958740234375,0.0792547385007143,-0.7383692200958728,-0.6346995867848396
1761467140375941600,4.728941650390625,0.16373919434845446,-0.8619681272357702,-0.5216172148210928
1761467140385924900,4.7389248046875,0.18544833733141422,-0.8842474713221192,-0.4008023489091545
1761467140395906600,4.748906494140625,0.11146832436323165,-0.8209671315446495,-0.2824547498935833
1761467140405889800,4.758889892578125,0.006370704075694083,-0.7246776716127992,-0.18333909009248017
1761467140415872800,4.768872802734375,-0.12577215952575205,-0.683399612545967,-0.09257343508340418
1761467140425855700,4.778855712890625,-0.23107319343090055,-0.6113040981501341,-0.017020839036256074
1761467140435838700,4.788838623046875,-0.2992541647315025,-0.4819385903075337,0.015152999337762593
1761467140445821700,4.79882177734375,-0.3520429211109876,-0.24852643253505227,-0.03995221729055047
1761467140455804700,4.8088046875,-0.3129284698188305,-0.04046645042300224,-0.06277874693088233
1761467140465786600,4.81878662109375,-0.25174890171289444,0.15620295362472533,-0.05766790672317147
1761467140475769900,4.828769775390625,-0.21715222010612487,0.283421220305562,0.05989968436323106
1761467140485752600,4.838752685546875,-0.20797347287237644,0.31529227634072304,0.2141341143939644
1761467140495735600,4.848735595703125,-0.16628829430937767,0.26813071219325063,0.2403087123531848
1761467140505718800,4.85871875,-0.08437807286381721,0.1569210387662053,0.1177807223804295
1761467140515701800,4.86870166015625,0.06391337698400021,0.007770926262438297,-0.031000118419528006
1761467140525684500,4.8786845703125,0.15504150862991808,-0.09531476968079805,-0.10646693587936461
1761467140535666700,4.888666748046875,0.18272680341303346,-0.11853987018465995,-0.1070292459372431
1761467140545649700,4.898649658203125,0.3100561292529106,-0.018625790014863013,-0.04057093371078372
1761467140555632600,4.908632568359375,0.2883808885395527,-0.07804273236244917,-0.1555086877502501
1761467140565615600,4.91861572265625,0.03205401138663292,0.01560731897652149,-0.1966999453164637
1761467140575598600,4.9285986328125,0.09304302535653114,0.14147709365785122,-0.15315686392709613
1761467140585581800,4.938581787109375,0.16030629729032517,0.20359920331090686,-0.1603342812757939
1761467140595564500,4.948564453125,0.23113398370742796,0.319594941970706,-0.1871420625720173
1761467140605546800,4.958546630859375,0.29078502707183357,0.4034738331407308,-0.2138566126268357
1761467140615529700,4.96852978515625,0.2122398981451988,0.48284255340993404,-0.18794351514801383
1761467140625512700,4.9785126953125,0.13896189596652983,0.545370613515377,-0.15269874489605426
1761467140635495700,4.98849560546875,0.10247662413418292,0.6029372518211603,-0.12219218214713036
1761467140645478700,4.998478759765625,0.09594809914827346,0.6824538561284542,-0.05444003071784973
1761467140655462000,5.0084619140625,0.008959551525115966,0.7353916655898094,0.021793241069838404
1761467140665444600,5.018444580078125,-0.06132160692512989,0.7813111207216977,0.0938467429548502
1761467140675426800,5.0284267578125,-0.05947451775372028,0.8352817803621292,0.12781952050961554
1761467140685409800,5.038409912109375,-0.049534138497710226,0.8977133943557739,0.11269991198480128
1761467140695392500,5.048392578125,-0.06324117681086062,0.9472247364997863,0.10761150280460714
1761467140705375700,5.058375732421875,-0.04209434388577938,1.0108820928961038,0.11300598225928843
1761467140715358700,5.068358642578125,0.006720248165726661,1.0525111573576926,0.10466514715440571
1761467140725341700,5.078341796875,0.07481880187988281,1.0550818846285344,0.09478146652169525
1761467140735324700,5.08832470703125,0.12089140174686908,1.0155763881921767,0.10181406857222318
1761467140745306600,5.098306640625,0.12680208709537982,0.9422709134846925,0.15182641904093325
1761467140755289900,5.108289794921875,0.0699345369696617,0.8433265551298856,0.24031660339869557
1761467140765272600,5.1182724609375,-0.031235096219182013,0.7425234171658754,0.2767084247939288
1761467140775255800,5.128255859375,-0.12368366281390189,0.7142460017085075,0.2586030784565955
1761467140785238500,5.138238525390625,-0.2174900737583637,0.7334814480543136,0.2329954667303711
1761467140795221500,5.148221435546875,-0.26945991497039795,0.7157490997478365,0.207363012823835
1761467140805204700,5.158204833984375,-0.25842647978067396,0.6710147627472877,0.17513452165313065
1761467140815187700,5.168187744140625,-0.2168681424677372,0.619515753917396,0.13547646500356494
1761467140825169700,5.178169677734375,-0.11215689114928244,0.5620300718933343,0.12726751265004277
1761467140835152600,5.188152587890625,-0.0376665905714035,0.48111061505079267,0.08539514095187187
1761467140845135600,5.198135498046875,-0.01647299589514732,0.4288943978622555,0.031180005031079053
1761467140855118600,5.20811865234375,-0.01350070208609104,0.3501332880973816,-0.011134338280931114
1761467140865101600,5.2181015625,0.0315624284774065,0.2481692896604538,-0.06817454155981541
1761467140875084500,5.22808447265625,0.11675941650867462,0.10451719005107879,-0.12384652522541582
1761467140885067800,5.23806787109375,0.17643091813921927,-0.028907822315394877,-0.20150946449004112
1761467140895049500,5.248049560546875,0.27846447468101976,-0.25626199522316456,-0.30320341381393373
1761467140905032700,5.25803271484375,0.4162608339995146,-0.38804683916717764,-0.34949813199900087
1761467140915015700,5.268015625,0.48312253939509386,-0.490276502802968,-0.4280662764750421
1761467140924998400,5.277998291015625,0.48296881013810633,-0.4952867321804166,-0.3602391601134091
1761467140934981600,5.287981689453125,0.36997663720846174,-0.44751025100499386,-0.32323549043014643
1761467140944964600,5.297964599609375,0.1953442929238081,-0.4075546727135777,-0.3196200033467263
1761467140954947600,5.307947509765625,0.1681809761881828,-0.3228191647142172,-0.2875826508339494
1761467140964929500,5.317929443359375,0.15662322486341,-0.2245014138251543,-0.27394612047374245
1761467140974912800,5.327912841796875,0.10950433081388473,-0.1705658254981041,-0.27175862036682663
1761467140984895700,5.337895751953125,0.09669219551384449,-0.18067951549440622,-0.2439818479079753
1761467140994878500,5.34787841796875,0.18674539140462873,-0.19336042563021183,-0.26033370164148506
1761467141004861700,5.35786181640625,0.24858605376780032,-0.26085195336192846,-0.3224913940645754
1761467141014844700,5.3678447265625,0.30317338400185107,-0.33831045609563587,-0.39063400611616667
1761467141024827600,5.37782763671875,0.3199164290100336,-0.3098448245897889,-0.4030454516608268
1761467141034810600,5.387810546875,0.2653881354868412,-0.17657208017557857,-0.3605170272067189
1761467141044792600,5.39779248046875,0.21480828732848167,-0.06610124241709708,-0.2889782699108124
1761467141054775800,5.40777587890625,0.13435527895390986,-0.0028358079478144646,-0.1984288149356842
1761467141064758500,5.417758544921875,0.11828911029398441,0.014179332000017164,-0.15076251613646746
1761467141074741500,5.427741455078125,0.17109774041771889,-0.023634265826642513,-0.10858685064278542
1761467141084724700,5.437724853515625,0.17944763561189173,0.0004012742772698402,-0.0981814842235297
1761467141094707700,5.447707763671875,0.2736252179563045,0.05233633643686771,-0.12138444596081971
1761467141104690400,5.4576904296875,0.37750995532274245,0.054075581319630146,-0.20350261106863618
1761467141114672600,5.467672607421875,0.440475237801671,0.031381811213493344,-0.2373638180077076
1761467141124655600,5.477655517578125,0.48913843868374823,-0.05983838263005018,-0.19405673733130097
1761467141134638600,5.487638671875,0.5515168611854314,-0.1826668899193406,-0.1928282915148884
1761467141144621600,5.49762158203125,0.5865729769974947,-0.2667404268786311,-0.14335129003189503
1761467141154604800,5.507604736328125,0.532304211193323,-0.356387672317028,-0.0382471669383347
1761467141164587800,5.517587890625,0.5344646040976048,-0.41588673999011516,-0.02112630159370601
1761467141174570500,5.527570556640625,0.5073825359046459,-0.45007542531788347,0.002941825605556369
1761467141184553700,5.5375537109375,0.44309681847691534,-0.48674949772059917,0.07423376853354274
1761467141194535700,5.54753564453125,0.39116497118771076,-0.5144707405999303,0.13983831347487866
1761467141204518700,5.5575185546875,0.29276421819031234,-0.5541273359447717,0.20522804662175476
1761467141214501600,5.567501708984375,0.24318156437575816,-0.6346487333804368,0.2741206733230501
1761467141224484600,5.577484619140625,0.27119302237331866,-0.7017030387386679,0.31465668185092505
1761467141234467600,5.587467529296875,0.2185106489777565,-0.7530006797775626,0.36540019613839686
1761467141244450600,5.597450439453125,0.21298340998888016,-0.7329083243414759,0.3764644648578018
1761467141254433500,5.60743359375,0.19085341124534605,-0.7357923553451895,0.3634119449306279
1761467141264415500,5.61741552734375,0.06775719293057918,-0.7356713593140244,0.38479412098154425
1761467141274398500,5.6273984375,-0.09465805933773518,-0.6602227350980043,0.4666863683789968
1761467141284381700,5.637381591796875,-0.18955635717213154,-0.5443590983852744,0.5180089977286756
1761467141294364700,5.64736474609375,-0.2372504207611084,-0.4828194647952914,0.5437835635196417
1761467141304347400,5.657347412109375,-0.19573884519934653,-0.578021129490435,0.5793607805963605
1761467141314330600,5.66733056640625,-0.12126374219059943,-0.7590642176002264,0.6290379808265716
1761467141324313600,5.677313720703125,-0.08129998059272765,-0.8929188535556196,0.6707531892016529
1761467141334296600,5.687296630859375,-0.10822188978791236,-0.8462617317989468,0.645842692894116
1761467141344278500,5.697278564453125,-0.22211247286200522,-0.6660723379090427,0.5632685276471078
1761467141354261800,5.70726171875,-0.33326807801425457,-0.5342948004886507,0.5251274879643694
1761467141364244700,5.71724462890625,-0.4266279142349958,-0.5018967979699372,0.5544232866840437
1761467141374227500,5.7272275390625,-0.5181283863246441,-0.4505760683164,0.5870647060371935
1761467141384210700,5.737210693359375,-0.49534956828355786,-0.29217881951779123,0.5558299386115745
1761467141394193700,5.747193603515625,-0.45927053916454313,-0.06687368809431792,0.45851069724056864
1761467141404176600,5.7571767578125,-0.47307227002382274,0.03631809857189655,0.37510716849733144
1761467141414159600,5.76715966796875,-0.3060217591702938,0.05159428589791059,0.2410768106488511
1761467141424141600,5.7771416015625,-0.10345452925562858,0.10447364317029714,0.12206464677732437
1761467141434124800,5.787124755859375,-0.051720250365138054,0.12943711177408695,0.11515709587857126
1761467141444107500,5.797107421875,-0.06983809085786342,0.1551490606576204,0.1289589728683233
1761467141454090500,5.807090576171875,-0.06545709929466247,0.23805092348903417,0.1245356765333563
1761467141464073700,5.81707373046875,-0.04624269573688507,0.2817199693456292,0.11908628855366259
1761467141474056700,5.827056640625,-0.010801379999518393,0.30454847174733873,0.11789843047596514
1761467141484039400,5.837039306640625,0.012555530190467833,0.2782040701791644,0.12746701727751641
1761467141494022700,5.847022705078125,0.005378185907006263,0.323097397133708,0.13523761474639176
1761467141504004600,5.857004638671875,-0.01331248603761196,0.3843821791797876,0.12934256535843014
1761467141513987600,5.866987548828125,-0.02306055759191513,0.486421580940485,0.13126399840768427
1761467141523970600,5.876970458984375,-0.034189854371547694,0.6105111942067742,0.1336157126329839
1761467141533953800,5.886953857421875,-0.029429508101940154,0.6822846370413899,0.12050583649538457
1761467141543936800,5.896936767578125,-0.023609423646330834,0.7259586513340472,0.08459493048489093
1761467141553919500,5.90691943359375,-0.01092003794312477,0.7796145459368824,0.048043132754974065
1761467141563902700,5.91690283203125,-0.01360007080733776,0.8619643278434872,0.01804236410371959
1761467141573885700,5.9268857421875,0.005566401955485344,0.91222093539685,-0.04708535710610449
1761467141583867600,5.93686767578125,0.05040741420090198,0.9095087538287043,-0.11871288866400719
1761467141593850600,5.9468505859375,0.09736848734021186,0.8761436598435044,-0.1829971447870135
1761467141603833600,5.95683349609375,0.1670925964295864,0.8287427339822053,-0.26024306421596555
1761467141613816600,5.966816650390625,0.22291794402599333,0.7600941451698541,-0.34486353100091216
1761467141623799600,5.976799560546875,0.24809213277101516,0.6917839945316314,-0.41530346020944414
1761467141633782500,5.986782470703125,0.24623686029314992,0.655420887774229,-0.48762737653367216
1761467141643765800,5.996765869140625,0.23667291313409805,0.646325142648816,-0.5381748933250085
1761467141653748500,6.00674853515625,0.227838449293375,0.6718266636520623,-0.5578900494791567
1761467141663730700,6.016730712890625,0.26913492079973217,0.6757067199558019,-0.563154217085056
1761467141673713700,6.026713623046875,0.3082020258188248,0.6283300517529249,-0.5705549948608503
1761467141683696400,6.0366962890625,0.33990298598408697,0.5420101971715688,-0.6216172562412917
1761467141693679600,6.0466796875,0.4124941749423742,0.478664975464344,-0.6199936736274511
1761467141703662600,6.05666259765625,0.4255903878808021,0.45847500487267967,-0.6096926078328863
1761467141713645800,6.066645751953125,0.3996019601434469,0.435178592698276,-0.5996271043598651
1761467141723628500,6.076628662109375,0.3489233277857303,0.4211608810007572,-0.5578112486219033
1761467141733611500,6.086611572265625,0.272277895000577,0.42524142831265926,-0.503530427053757
1761467141743593700,6.09659375,0.16974340319931505,0.418108215431869,-0.4332416332863271
1761467141753576400,6.106576416015625,0.10112111787199973,0.375843483415246,-0.32157460801322013
1761467141763559700,6.1165595703125,0.013910451930761337,0.32342151452153917,-0.21392259053513407
1761467141773543200,6.126543212890625,-0.016164368337392807,0.24764205091595648,-0.1494896466564387
1761467141783526100,6.136526123046875,-0.013550386446714401,0.17304273700565098,-0.10444573225006461
1761467141793509000,6.146509033203125,-0.014340660041570663,0.10772767653018235,-0.11062233852576464
1761467141803492000,6.1564921875,-0.019015081593394278,0.036189796017110344,-0.11792053270991891
1761467141813475000,6.16647509765625,-0.0008896423161029815,-0.021214929725229738,-0.13508969417568295
1761467141823457000,6.17645703125,0.033059973558783526,-0.0442459689617157,-0.18054679249282926
1761467141833440000,6.18643994140625,0.09069558544754981,-0.04863222122192382,-0.22057320753075182
1761467141843423200,6.19642333984375,0.1814841098755598,-0.09497370115816593,-0.25604002303555606
1761467141853406200,6.20640625,0.265216870573163,-0.15261895765811204,-0.28532727312259376
1761467141863389000,6.216388916015625,0.33183892199397086,-0.19595161116719245,-0.3008376345306635
1761467141873372200,6.2263720703125,0.39769291165173054,-0.265759599147737,-0.29790234826374795
1761467141883355100,6.236355224609375,0.46498891681134696,-0.33482232171893117,-0.3047637949984521
1761467141893337900,6.246337890625,0.46564708845913405,-0.3791773040130734,-0.2751311290072277
1761467141903321000,6.256321044921875,0.438811688503623,-0.384940982106328,-0.19146843787115067
1761467141913303000,6.266302978515625,0.4072223720192909,-0.3558867370575666,-0.09881945333350449
1761467141923286000,6.2762861328125,0.3469423831015825,-0.28107904109358783,-0.0015386808093637227
1761467141933269000,6.28626904296875,0.31598201217055316,-0.23235125054270028,0.10949892398640512
1761467141943252000,6.296251953125,0.2970809123456478,-0.19077040913701057,0.23868198793418705
1761467141953235200,6.306235107421875,0.28804245036542414,-0.13850246176123618,0.3292321004964411
1761467141963218000,6.316218017578125,0.28771336454153057,-0.09527209958285093,0.36713140384517606
1761467141973201200,6.326201171875,0.3247399036437273,-0.08774170407801866,0.36718127086888996
1761467141983184100,6.33618408203125,0.3884726633638143,-0.0984542367503047,0.34884781486410643
1761467141993166000,6.346166015625,0.4498328487336635,-0.12428045966327189,0.3429170365756377
1761467142003149000,6.356149169921875,0.43356735810935493,-0.14786767147779464,0.3292563946874812
1761467142013132000,6.366132080078125,0.43770109691321846,-0.16983692670166492,0.30845048415455967
1761467142023115300,6.376115234375,0.42622868578433987,-0.2072536341652274,0.2995540609935298
1761467142033098000,6.386097900390625,0.3973509663462639,-0.2377972409889102,0.2901256133150309
1761467142043081000,6.3960810546875,0.3930746042013168,-0.2835027611091733,0.2836307714030146
1761467142053064200,6.406064208984375,0.3281330532133579,-0.28423370573222634,0.26184165851902214
1761467142063047200,6.416047119140625,0.2589478733062744,-0.31930677267909047,0.1819554902469739
1761467142073029000,6.426029052734375,0.2324386365652084,-0.4293465255439281,0.07567454192638397
1761467142083012000,6.43601220703125,0.2613578570574522,-0.6004544950947165,-0.0035328503012657165
1761467142092995000,6.4459951171875,0.335882059904933,-0.7674240496665239,-0.01707381133250892
1761467142102978000,6.45597802734375,0.37491643169820305,-0.935373262925446,-0.1524417379276827
1761467142112961000,6.4659609375,0.4019651821434498,-1.0338359752431512,-0.1920419269101694
1761467142122944000,6.475944091796875,0.3504676346182823,-1.0424398451983927,-0.21442056665252893
1761467142132927200,6.48592724609375,0.17321780131161213,-1.0177166150912642,-0.18579598172530531
1761467142142910000,6.495909912109375,0.0006394669473171234,-1.0301245535045862,-0.1537123423853889
1761467142152893200,6.50589306640625,-0.1090653548747301,-1.0511091816052793,-0.13615151472091674
1761467142162875100,6.515875244140625,-0.08589841429889201,-1.0470137289851904,-0.1388934703728184
1761467142172858000,6.525858154296875,-0.036541385933756824,-1.0151774520024657,-0.20191008118018508
1761467142182841000,6.535841064453125,0.020836451801657677,-0.9307342049479485,-0.2479020535590127
1761467142192824000,6.545823974609375,0.05080722717344761,-0.8504340490475296,-0.2816152668621391
1761467142202807300,6.555807373046875,0.08816577470898627,-0.7730494883328676,-0.30422289305478334
1761467142212790000,6.5657900390625,0.12410802570581435,-0.7113514493107795,-0.32176592933423814
1761467142222773000,6.57577294921875,0.10829495502412319,-0.6728130443409085,-0.2984635988757014
1761467142232756200,6.585756103515625,0.08199146998822689,-0.6548153230965137,-0.2172868062712252
1761467142242739000,6.595739013671875,0.05241349332630634,-0.708426209513843,-0.10737009526416659
1761467142252721200,6.60572119140625,0.08543839557170868,-0.796191586728394,0.00480170119330287
1761467142262704000,6.6157041015625,0.11891980941295623,-0.7922162533566355,0.11424805474225432
1761467142272686800,6.625686767578125,0.11826865202784538,-0.6734808605998754,0.21173037772048264
1761467142282670000,6.635670166015625,0.06596797142624855,-0.5664505186840891,0.31132782968915995
1761467142292653000,6.645653076171875,0.007846621847152709,-0.5602183462962508,0.40215621120352296
1761467142302636000,6.655635986328125,-0.07474632116556167,-0.5874623270526528,0.4394063664611429
1761467142312619000,6.665618896484375,-0.11773790615200996,-0.49743251203745603,0.47459531487263734
1761467142322602000,6.67560205078125,-0.12681670014262197,-0.28908348385095595,0.5040942349489778
1761467142332584200,6.685584228515625,-0.19487959802150726,-0.07511281639039516,0.4889517935378477
1761467142342567000,6.69556689453125,-0.17282909425497053,-0.016076397792994974,0.43776104693952944
1761467142352550100,6.705550048828125,-0.16200141077041624,-0.10499328313022852,0.382512220589444
1761467142362533000,6.715533203125,-0.12847148161232472,-0.13683891246318816,0.3812558638527989
1761467142372516000,6.72551611328125,-0.08420271629691123,-0.08986001140624285,0.38505627904906864
1761467142382499000,6.7354990234375,-0.10755553483366966,-0.047402679426968096,0.3917470819246024
1761467142392482000,6.74548193359375,-0.2012432878345251,-0.03888590323328971,0.38392595984488725
1761467142402465000,6.755465087890625,-0.2602677237331867,-0.00457622187435627,0.3614472207289189
1761467142412448300,6.7654482421875,-0.37947862504720686,0.11099047771841287,0.3650643883127719
1761467142422430000,6.775429931640625,-0.4877940383374691,0.2569523155748844,0.36897747010327875
1761467142432413200,6.7854130859375,-0.5518979694575071,0.41984015379101036,0.35576807911396024
1761467142442396200,6.795396240234375,-0.5111649770528077,0.5290896330609918,0.31454386912621557
1761467142452379000,6.80537890625,-0.40688919454216954,0.6016711774080992,0.3040822424750775
1761467142462362000,6.815362060546875,-0.259660990011692,0.6381167017519473,0.32535620891116557
1761467142472345000,6.825344970703125,-0.11920564061701297,0.613572043082118,0.28473785586208106
1761467142482328000,6.835328125,0.0265168355256319,0.5904033489406109,0.2530645874213427
1761467142492311000,6.84531103515625,0.10900514912009239,0.5906997015386819,0.25256504040136935
1761467142502294000,6.8552939453125,0.19774141719341276,0.5943728370934724,0.27591932024285193
1761467142512277200,6.86527734375,0.2960217586815357,0.6374596991479397,0.2611069510363042
1761467142522259000,6.875259033203125,0.3507464515596628,0.7847177142947912,0.2815494350843131
1761467142532242200,6.8852421875,0.3470136947721243,0.8715706528395414,0.29308007920645174
1761467142542225200,6.89522509765625,0.2625169639647007,0.8634042975187302,0.2814109764616936
1761467142552208100,6.9052080078125,0.25421792217493056,0.8159843746960163,0.2987295563355088
1761467142562191000,6.915191162109375,0.2543260587245226,0.7968132257580757,0.2789134605575353
1761467142572174000,6.925174072265625,0.28711832125782966,0.7783078472524881,0.24138861654438076
1761467142582157000,6.935156982421875,0.2803144864618778,0.7672370026618242,0.20410444941930472
1761467142592140000,6.94514013671875,0.2420551906943321,0.7711942158550024,0.20200711181387304
1761467142602122000,6.9551220703125,0.14177110816836355,0.7735083380162715,0.20641163038313387
1761467142612105200,6.965105224609375,0.0072726213514804836,0.7802233254849911,0.22262831342965364
1761467142622088200,6.975088134765625,-0.1605921284943819,0.8032558260262012,0.2414645313248038
1761467142632071000,6.98507080078125,-0.26882220158874987,0.8432733636379242,0.2521476187068969
1761467142642054100,6.99505419921875,-0.3179524354606867,0.8751409125417471,0.2388127016417682
1761467142652037000,7.005037109375,-0.30218904913961886,0.8644780642300843,0.20146051078177987
1761467142662020000,7.01502001953125,-0.23759587319791314,0.8633060978412628,0.18703370682671666
1761467142672003000,7.025003173828125,-0.11087211203575134,0.7646253588587045,0.17872860062234103
1761467142681986000,7.034986083984375,0.015192308434844017,0.6100771867036819,0.18529782294481992
1761467142691968000,7.044968017578125,0.11698738004565239,0.43707565849125385,0.1940508190471679
1761467142701951000,7.054950927734375,0.21308044062256812,0.2643687293112278,0.20571290752924978
1761467142711934200,7.064934326171875,0.3725280752569437,0.11611351982057094,0.21933833197355268
1761467142721917200,7.074917236328125,0.47335517861843107,-0.0218505972802639,0.22570443293936548
1761467142731900000,7.08489990234375,0.5684884542524814,-0.1590285324394703,0.25907785636149344
1761467142741883100,7.094883056640625,0.6750532244831323,-0.25883739866912364,0.34428251624256373
1761467142751866000,7.1048662109375,0.6859148102372884,-0.3064145578801632,0.4102149048987776
1761467142761849000,7.11484912109375,0.7227052024960517,-0.41655251042246816,0.4623320456270128
1761467142771832000,7.12483203125,0.7829846068918704,-0.5221417136192321,0.5225675378158688
1761467142781815000,7.13481494140625,0.8418968145877123,-0.6062690265923738,0.5725047772217542
1761467142791797000,7.144796875,0.8525812902092933,-0.6554460222154855,0.5982021130580455
1761467142801780000,7.154780029296875,0.8654384336948394,-0.6913941184312105,0.5794962435442954
1761467142811763000,7.164762939453125,0.8340922783166169,-0.7178063245385885,0.5687327113371342
1761467142821746000,7.174745849609375,0.7384089675843716,-0.6949865899652242,0.5407404694966972
1761467142831729000,7.18472900390625,0.6116776076376438,-0.5942056638330221,0.5121702085725963
1761467142841711900,7.1947119140625,0.5321189177542924,-0.4751356322944164,0.47820313010625537
1761467142851695000,7.204695068359375,0.4855056351393461,-0.3757107969462871,0.4041404072906822
1761467142861677800,7.214677734375,0.4787830488860607,-0.27920155678391456,0.33887283921875055
1761467142871661000,7.2246611328125,0.4581774832308292,-0.22814415424168108,0.27072145933881403
1761467142881643000,7.23464306640625,0.49541269664764404,-0.24709493842720984,0.1919850456237793
1761467142891626000,7.2446259765625,0.5313783285200595,-0.2941232315838337,0.12879158041216432
1761467142901609000,7.25460888671875,0.5425748453170061,-0.36578444621562956,0.0848377262648195
1761467142911592000,7.264592041015625,0.5673714329212903,-0.422515218219161,0.06683189477920531
1761467142921575200,7.2745751953125,0.527117748466134,-0.44036885481774807,0.0793735791074112
1761467142931558000,7.284557861328125,0.44545302621424193,-0.42944414069950576,0.07572619904838503
1761467142941540900,7.294540771484375,0.34845395670831203,-0.4076145862072706,0.09029624739903956
1761467142951524000,7.304524169921875,0.3325689898341894,-0.4159498683542013,0.10765278466306626
1761467142961506800,7.3145068359375,0.3370657167315483,-0.38848552284538745,0.1151067173982039
1761467142971489800,7.32448974609375,0.32462416830956936,-0.3410860582888126,0.13613134871572255
1761467142981472000,7.334471923828125,0.30912030970752236,-0.35103111371994017,0.15564615999218076
1761467142991454700,7.344454833984375,0.271388252684474,-0.346467751327157,0.18949304614495485
1761467143001438000,7.35443798828125,0.23081600379943845,-0.3233937497317791,0.21845574045274405
1761467143011421000,7.3644208984375,0.20807693324685095,-0.3374573463976383,0.22758564357608554
1761467143021404000,7.37440380859375,0.17929916705191135,-0.38230245029628274,0.22054778082855045
1761467143031387000,7.384386962890625,0.12868015592694282,-0.4441097949117422,0.21312274539433418
1761467143041369900,7.394369873046875,0.09239245249330998,-0.5434983899027109,0.21464085833970456
1761467143051353000,7.40435302734375,0.08582827167212963,-0.7201151860028505,0.22570940137542783
1761467143061336000,7.414336181640625,0.060277650830149646,-0.9108177906006574,0.24572503831349313
1761467143071318800,7.42431884765625,0.008846154278516769,-0.9352852923810482,0.23825550615042446
1761467143081301000,7.434301025390625,-0.09824585469663143,-0.8449117784947157,0.24265889220852405
1761467143091284000,7.444283935546875,-0.2742489028126001,-0.6955927391648292,0.21045948100183157
1761467143101267000,7.454266845703125,-0.38600013577044007,-0.5756055927813053,0.1137645455416292
1761467143111250000,7.46425,-0.4545177916795015,-0.44621524275839325,0.04952756262645125
1761467143121233000,7.47423291015625,-0.5696089827150106,-0.2509755792528391,0.020022906929068267
1761467143131216100,7.484216064453125,-0.6304658947378396,-0.009441197562217712,-0.0222219148106873
1761467143141198800,7.49419873046875,-0.5959843639433383,0.1573018547773361,-0.10329827924799173
1761467143151181800,7.504181884765625,-0.5399409896820784,0.19643091911673544,-0.13368797415159642
1761467143161165000,7.5141650390625,-0.4771539863795042,0.12514905919134617,-0.11895246957354247
1761467143171148000,7.52414794921875,-0.4232821109384298,0.03118891898989677,-0.14918207854460924
1761467143181130000,7.5341298828125,-0.3939490489482879,0.016543138521909712,-0.22078085893206298
1761467143191113000,7.544113037109375,-0.3741489544570446,0.09263269098997115,-0.30346144369561223
1761467143201096000,7.554095947265625,-0.38449031572937964,0.12960779216587542,-0.3903710077984258
1761467143211079000,7.564078857421875,-0.4102373359262943,0.18517302752137182,-0.44647228625938296
1761467143221062000,7.574061767578125,-0.4934837744116783,0.27973639431297775,-0.45644072256609797
1761467143231045000,7.584045166015625,-0.49797874774336814,0.43244273799359795,-0.505759903138876
1761467143241028000,7.594028076171875,-0.4492541720628738,0.6560667844623327,-0.5120783655706793
1761467143251010800,7.6040107421875,-0.4339315152466297,0.8575099787831306,-0.4987190447166562
1761467143260994000,7.613994140625,-0.382281407508254,0.9528104276776314,-0.49082927784752095
1761467143270977000,7.62397705078125,-0.2426958266854286,0.9645236618250608,-0.49683388855718075
1761467143280959000,7.633958984375,-0.11029635797441005,0.924528336045146,-0.5312766947764903
1761467143290942000,7.64394189453125,0.013263970720767975,0.8574936121702194,-0.5757334569446743
1761467143300925000,7.653925048828125,0.08727847048044204,0.8274813357442617,-0.6100292193761095
1761467143310908000,7.663907958984375,0.13311901515722274,0.8112193522512913,-0.6271783974997699
1761467143320891000,7.673890869140625,0.17194062098264692,0.8049602918565273,-0.6401843748714775
1761467143330873900,7.683873779296875,0.21604630469083785,0.8259136480361223,-0.6858091579057276
1761467143340857000,7.693857177734375,0.2586567814052105,0.8334948969453573,-0.7134728253789245
1761467143350839800,7.70383984375,0.2925146273434162,0.851779910698533,-0.7285960141003132
1761467143360823000,7.713822998046875,0.3220084328532219,0.8502946405768393,-0.7356039201010018
1761467143370806000,7.723805908203125,0.35684418391287326,0.7565776614814996,-0.7978614927019924
1761467143380788000,7.7337880859375,0.42305005574822424,0.6423819579809904,-0.9061232761088758
1761467143390771000,7.74377099609375,0.38887306085824963,0.5852700777053833,-1.0261173636898397
1761467143400754000,7.75375390625,0.2739870370060205,0.5366822801470756,-1.1340407089225948
1761467143410737200,7.763737060546875,0.23653321240246294,0.4723696747124195,-1.1804551810298114
1761467143420719900,7.773719970703125,0.2595779879033565,0.3931716348350048,-1.2309345644883811
1761467143430702800,7.783702880859375,0.4333984312832355,0.4757926348984241,-1.1586338829092682
1761467143440686000,7.79368603515625,0.10682371342778205,0.5930711068451404,-1.0412391641717405
1761467143450669000,7.8036689453125,-0.25279870302677154,0.43438218162357806,-1.0689422868724912
1761467143460651800,7.81365185546875,0.01986030024588108,0.5031681330800056,-1.0011609093487261
1761467143470635000,7.823635009765625,0.07123568269610404,0.506378911820054,-1.0006381275836378
1761467143480618000,7.833617919921875,0.11530980222225189,0.4525613969147205,-0.9787503400981425
1761467143490600000,7.843599853515625,0.07248480597436428,0.31867198190689083,-0.9845443402644246
1761467143500583000,7.8535830078125,0.048125440743565555,0.20741934612095356,-0.8917458642534911
1761467143510566000,7.86356591796875,0.11139409008324146,0.13126666528880596,-0.8471551004420965
