time,seconds_elapsed,z,y,x
1761467126365477000,0.11647705078125,-0.03814882113039493,-0.9961544793635606,0.12678126350305974
1761467126375459000,0.126458984375,-0.11574819363951683,-1.0163546790882945,0.11831161438673735
1761467126385442000,0.136442138671875,-0.15857728154063225,-1.0087266684278846,0.14227387005873024
1761467126395424000,0.146424072265625,-0.11801613857150077,-1.0724340014457703,0.19070793836005032
1761467126405407200,0.1564072265625,-0.009671499186754227,-1.2274477452859283,0.30370391068197783
1761467126415390000,0.166389892578125,0.09130699534416198,-1.4170309904649854,0.4680176900479942
1761467126425372200,0.1763720703125,0.2647393161892891,-1.5551298398613929,0.5730796545002609
1761467126435355100,0.186355224609375,0.31223230424821374,-1.520768720576167,0.6511879263795912
1761467126445338000,0.196338134765625,0.1796545563608408,-1.2730749394729732,0.7006982456102967
1761467126455320000,0.206320068359375,-0.22336977944672107,-0.880258401685953,0.7251601213674992
1761467126465303300,0.21630322265625,-0.7896984253168106,-0.36429654574543235,0.7880765962686389
1761467126475286000,0.2262861328125,-1.2780185333549976,0.21150281604230403,0.8426633419808
1761467126485268200,0.236268310546875,-1.5087363374769687,0.7230705286771059,0.8902065989222377
1761467126495251200,0.246251220703125,-1.4095470644503831,1.0406894943997262,0.94566296707578
1761467126505234000,0.25623388671875,-1.0051789128184319,1.161204756310582,0.9805321820136159
1761467126515216100,0.266216064453125,-0.4263286390274763,1.0962740189775824,0.9217921160142868
1761467126525199000,0.27619921875,0.2536024206250906,0.9257537861868739,0.8001052530407905
1761467126535182000,0.28618212890625,0.84673139513731,0.6857081817492843,0.6707994394961744
1761467126545164000,0.2961640625,1.1550462336808442,0.4625432772248983,0.47010034154094754
1761467126555147300,0.306147216796875,1.2574772651076316,0.25800240914970635,0.3315928382784128
1761467126565129000,0.31612890625,1.409369954317808,0.03877133694291115,0.3368767700307071
1761467126575112200,0.3261123046875,1.45584236715734,-0.07984452108740805,0.32343905017822977
1761467126585095200,0.33609521484375,1.3992483732759953,-0.04387625886648893,0.27875680869109926
1761467126595077000,0.3460771484375,1.3240221596390007,0.11213818644881247,0.1751741230111569
1761467126605060000,0.35606005859375,1.254171793821454,0.24074995331466195,0.08036299200356006
1761467126615043000,0.36604296875,1.1830448321968317,0.3393488592326641,-0.0029345190819352863
1761467126625025000,0.37602490234375,1.0423422300428151,0.35077567765414713,-0.048988487313687795
1761467126635008000,0.386008056640625,0.8379618132263421,0.28039164335131644,-0.04089640280548483
1761467126644991200,0.3959912109375,0.6507002889931202,0.19003128120750187,-0.006464300643280148
1761467126654973000,0.405972900390625,0.5273445429593324,0.15927929233014582,-0.00473027992490679
1761467126664956200,0.4159560546875,0.4277613021790981,0.20704992828667163,-0.027753464648500082
1761467126674939100,0.425939208984375,0.3332400209635496,0.22882775259166954,-0.0680597560737282
1761467126684921000,0.435921142578125,0.23280863892138004,0.21824732186645268,-0.12305029681380837
1761467126694904000,0.445904052734375,0.07502455358505249,0.19739771832227707,-0.16844850455056876
1761467126704887000,0.455886962890625,-0.007401216167211532,0.14510785137563942,-0.20711623498853296
1761467126714869000,0.465868896484375,-0.010134440523386001,0.11975509119331836,-0.2850512691928074
1761467126724852000,0.47585205078125,-0.008892331507802009,0.11472820294201373,-0.37555885778758674
1761467126734835200,0.485835205078125,-0.03459434351921081,0.1122895776182413,-0.4120111771984026
1761467126744817000,0.49581689453125,-0.05422375761866569,0.04182838642597198,-0.4533146264348179
1761467126754800000,0.505800048828125,-0.07970189774632454,-0.060141457229852674,-0.49526371663101015
1761467126764781800,0.51578173828125,-0.12240472891926765,-0.1544461730852723,-0.49976574075799435
1761467126774764500,0.5257646484375,-0.15768296304941176,-0.18780980576574802,-0.5137464449133724
1761467126784747500,0.53574755859375,-0.1875532006561756,-0.20204612865000962,-0.5340257742889225
1761467126794729700,0.545729736328125,-0.16804069093465804,-0.18379910881966352,-0.6051459773791954
1761467126804712400,0.55571240234375,-0.0684101038813591,-0.17661416575163602,-0.6909172946996986
1761467126814695700,0.56569580078125,-0.009645780223608017,-0.19113719662278889,-0.7565000662006437
1761467126824677600,0.575677734375,0.03596563187241554,-0.17616233033090828,-0.8024663561489432
1761467126834660600,0.58566064453125,0.0693903470903635,-0.16613281148672102,-0.8299885693248361
1761467126844643600,0.5956435546875,0.04414660024046898,-0.17683540728688238,-0.8387443419061601
1761467126854625800,0.605625732421875,-0.026441432201862333,-0.21824498377889393,-0.846959066413343
1761467126864608500,0.6156083984375,-0.07127952183783054,-0.26325930676460263,-0.8415957858145237
1761467126874591500,0.625591552734375,-0.03432429440617561,-0.27909780414849517,-0.8180740404516458
1761467126884573700,0.63557373046875,0.00802607006728649,-0.27381547983139753,-0.8022561474643647
1761467126894556400,0.645556396484375,0.05967325519621372,-0.3247793588712811,-0.7633942096285522
1761467126904539600,0.65553955078125,0.09018705140352248,-0.37548020306080576,-0.7353266375295817
1761467126914521600,0.665521484375,0.08876958582103252,-0.40847558695077896,-0.6981929847911
1761467126924504600,0.675504638671875,0.09247720816731453,-0.4033110437944531,-0.632466420905292
1761467126934486500,0.685486572265625,0.09032382952570915,-0.36066344994008537,-0.561513902532123
1761467126944469800,0.6954697265625,0.09241758693456649,-0.31965017928928136,-0.4997124031355604
1761467126954452500,0.705452392578125,0.08276888410151004,-0.24894933412224052,-0.4696365234214812
1761467126964434700,0.7154345703125,0.06223872177004814,-0.18803776930272578,-0.42139885447509584
1761467126974417700,0.725417724609375,0.06890344035625458,-0.1891922000348568,-0.36373752362318335
1761467126984400400,0.735400390625,0.0814987180352211,-0.22089169889539478,-0.32527627554275096
1761467126994382600,0.745382568359375,0.14977087475061415,-0.24123159935176372,-0.2860866401225328
1761467127004365600,0.755365478515625,0.2694534852296114,-0.28479192413687704,-0.28029220156483353
1761467127014348800,0.765348876953125,0.4020283105075359,-0.3502975387483835,-0.26414409024249763
1761467127024330500,0.77533056640625,0.46610944527387616,-0.4323877929359674,-0.2550155753586441
1761467127034313700,0.785313720703125,0.5149363122850656,-0.48099721780419347,-0.25880939641734585
1761467127044296700,0.795296630859375,0.5245557890236378,-0.5208046197965741,-0.27403140587070957
1761467127054278700,0.805278564453125,0.5941454580783844,-0.5214058005601168,-0.2843232837118208
1761467127064261600,0.81526171875,0.6512210979968309,-0.5033522574752569,-0.2702063859561458
1761467127074244900,0.825244873046875,0.6812965027868747,-0.5147235463172197,-0.2716409853365272
1761467127084226600,0.8352265625,0.6986977194428443,-0.5762377532050014,-0.2581301089162938
1761467127094209800,0.845209716796875,0.7393225752979516,-0.6561193914324045,-0.2663475185709074
1761467127104192800,0.85519287109375,0.7546662749022245,-0.6514797489330172,-0.24420055042626335
1761467127114174700,0.8651748046875,0.7380085700899363,-0.6444719159975647,-0.2254659297420643
1761467127124157700,0.87515771484375,0.7671966706514358,-0.6339844242528081,-0.227558426775597
1761467127134139600,0.8851396484375,0.7761655745267868,-0.5868190607130527,-0.23570233280258251
1761467127144122600,0.89512255859375,0.6909750162363052,-0.5336223080545663,-0.23775813282122835
1761467127154105600,0.905105712890625,0.6125625737786292,-0.47908115504980087,-0.22151373978387562
1761467127164087600,0.915087646484375,0.5559720870286226,-0.44301293958574534,-0.21765118260420857
1761467127174070500,0.925070556640625,0.5370353313684463,-0.4565262088924646,-0.21636148985354228
1761467127184053800,0.9350537109375,0.5497223789840936,-0.49887218945175404,-0.1910001993048936
1761467127194035500,0.945035400390625,0.5387275222390889,-0.5192924616679548,-0.14512827310916035
1761467127204018700,0.955018798828125,0.5237397964656353,-0.5408294629544019,-0.12145853411033748
1761467127214001700,0.965001708984375,0.48021454299390315,-0.5865811603039502,-0.09821955121159553
1761467127223983600,0.974983642578125,0.3608656945139169,-0.6182517253309487,-0.0755356449123472
1761467127233966600,0.984966552734375,0.23531214617490767,-0.6070677757546306,-0.07009973746873438
1761467127243949600,0.994949462890625,0.2121177330702543,-0.5539151544988155,-0.07698306724168359
1761467127253931500,1.004931640625,0.23555472275912762,-0.503781004281342,-0.10156319908369332
1761467127263914500,1.01491455078125,0.2186182010054588,-0.48361090743392704,-0.15028814009036867
1761467127273897700,1.024897705078125,0.20601006384491918,-0.4975421098917722,-0.20930779021605847
1761467127283879400,1.03487939453125,0.27489596854448317,-0.5406435849934816,-0.25156810178589073
1761467127293862700,1.044862548828125,0.34159108520150183,-0.5872001689851284,-0.32589729351792485
1761467127303845600,1.054845703125,0.31203415132761,-0.5893254905760288,-0.390349928477779
1761467127313827600,1.06482763671875,0.31230770757198334,-0.5982344809576868,-0.4471665156012401
1761467127323810600,1.074810546875,0.32073359061181544,-0.636423926359415,-0.49601362168285995
1761467127333792800,1.084792724609375,0.2856318820923567,-0.6290183262780308,-0.5234479373795912
1761467127343775500,1.094775390625,0.1778162350177765,-0.5419806788161396,-0.5209498734861612
1761467127353758500,1.104758544921875,0.09722995565235615,-0.4617421899750829,-0.4972662155598402
1761467127363740700,1.11474072265625,0.04959492877423763,-0.4001218923643231,-0.46877300192732363
1761467127373723600,1.1247236328125,0.005160159242153167,-0.3731219494968652,-0.46478890072721984
1761467127383706600,1.13470654296875,-0.022103110736608506,-0.3268991275042295,-0.4588612642439082
1761467127393688600,1.1446884765625,-0.06356149480640888,-0.3430456679239869,-0.4362831929393112
1761467127403671800,1.154671875,-0.06627776802778243,-0.4486971227020025,-0.40271103207468983
1761467127413654500,1.164654541015625,-0.01058978307545185,-0.606990326604247,-0.35666528368201106
1761467127423636700,1.17463671875,0.047268531653285026,-0.7351502580493688,-0.2964628900451585
1761467127433619700,1.18461962890625,0.07232172436714172,-0.8103045754939318,-0.18748601717147975
1761467127443602700,1.194602783203125,0.05388590396642685,-0.8839204313248396,-0.06104571259319782
1761467127453584600,1.204584716796875,-0.02018880154788494,-0.9257523248821496,0.0026038258228451012
1761467127463567600,1.214567626953125,-0.17514964615702627,-0.8260749760776758,0.08378500234149396
1761467127473550600,1.224550537109375,-0.386007734555006,-0.6134110073015093,0.1359372143831104
1761467127483532500,1.234532470703125,-0.5114402868628501,-0.461027611964941,0.0687496380340308
1761467127493515800,1.244515869140625,-0.5495785865992308,-0.3085790424376726,-0.011971008300781249
1761467127503497700,1.254497802734375,-0.6265279707670212,-0.07881810064911841,-0.07498926307596265
1761467127513480700,1.264480712890625,-0.6524363190054893,0.18266104470044373,-0.10518522550575435
1761467127523463700,1.274463623046875,-0.6420692387700081,0.3824503343343735,-0.07556962024718522
1761467127533445600,1.284445556640625,-0.5691039558023214,0.5734966378033161,-0.09368406320642679
1761467127543428600,1.2944287109375,-0.5758341408401727,0.6429182568147778,-0.08885006717871874
1761467127553411800,1.304411865234375,-0.4639017060965299,0.6411211442649364,-0.1263220119608566
1761467127563393500,1.3143935546875,-0.23467209470570086,0.5515937258139252,-0.2577800351032987
1761467127573376800,1.324376708984375,-0.07238251464366913,0.46004035449326036,-0.40182339905258263
1761467127583359700,1.33435986328125,0.0179641112357378,0.36140111656486984,-0.5463896178321913
1761467127593341700,1.344341796875,0.12183891173005103,0.2644397487208247,-0.6728321874327957
1761467127603324700,1.35432470703125,0.22848960667848586,0.15852847396284342,-0.6896740166403352
1761467127613307600,1.3643076171875,0.35189094541966914,0.10443915637880563,-0.6458994645826518
1761467127623289600,1.37428955078125,0.42901451711058614,0.062405602769553654,-0.5774653953038156
1761467127633272600,1.3842724609375,0.4510644363552332,0.05453647682964802,-0.5338828586868941
1761467127643255800,1.394255859375,0.4239963966876268,0.11210136156976222,-0.47589258814156055
1761467127653237500,1.404237548828125,0.3467506599217653,0.18258885624706744,-0.42502957566026595
1761467127663220700,1.414220703125,0.2645113526523113,0.23412878160923717,-0.37461653543617573
1761467127673203700,1.42420361328125,0.2226484794348478,0.2915183097824454,-0.3054390639115125
1761467127683185700,1.434185546875,0.2208452294051647,0.3523483337983489,-0.23012042275071143
1761467127693168600,1.444168701171875,0.23870354217886924,0.406002474835515,-0.14115728711895645
1761467127703151600,1.454151611328125,0.25390052678883074,0.4143739973396063,-0.07675977987982333
1761467127713133600,1.464133544921875,0.28323768043220043,0.41175650831758975,-0.008280190958827734
1761467127723116500,1.474116455078125,0.3319558263719082,0.4227823447227478,0.05940116025656461
1761467127733098800,1.4840986328125,0.3665653674602508,0.42400282642841336,0.12072240185551344
1761467127743081500,1.49408154296875,0.4335159201830625,0.41313977936953306,0.18500691370684652
1761467127753064700,1.504064697265625,0.4637520684927702,0.40009178948700425,0.2787664533022791
1761467127763046700,1.514046630859375,0.42846448201239107,0.37952100288420915,0.3802648800540715
1761467127773030000,1.52402978515625,0.3775146314978599,0.3999585184961557,0.40190746060684324
1761467127783012900,1.534012939453125,0.2707517083466053,0.47521688083708286,0.42674627991765735
1761467127792994800,1.543994873046875,0.1624392176657915,0.535818064533174,0.45600952807459977
1761467127802977800,1.553977783203125,0.06404957058429718,0.5557797793269157,0.5075995761888101
1761467127812960800,1.563960693359375,-0.0190969146579504,0.588711450330913,0.5732173824705183
1761467127822942700,1.573942626953125,-0.13800854076445102,0.6260825650870799,0.5828461019614711
1761467127832925700,1.58392578125,-0.4611760805249214,0.8789683618754148,0.6272786430038512
1761467127842909000,1.593908935546875,0.08247311602532863,0.543472086417675,0.8473128482870758
1761467127852890600,1.603890625,-0.13720657673180103,0.08195464510917663,0.7733085776604711
1761467127862873900,1.613873779296875,-0.46972938933670516,0.24081892689764497,0.8588391084950416
1761467127872856800,1.62385693359375,-0.1506838979423046,0.03328209187686443,0.8151528923079371
1761467127882838800,1.6338388671875,-0.1589309172838926,-0.025585984416306017,0.721826739161089
1761467127892821800,1.64382177734375,-0.16698212179243563,0.06052636489421129,0.7319513158775866
1761467127902804700,1.6538046875,0.11210954487621784,-0.10203998628258705,0.6760338330183178
1761467127912786700,1.66378662109375,0.0852630390048027,-0.1385430860325694,0.6131275141850113
1761467127922769700,1.673769775390625,0.10467676452696323,-0.14532558577954768,0.5641871037967503
1761467127932753000,1.6837529296875,0.2304530157059431,-0.19359949508309363,0.4681306489031762
1761467127942734600,1.693734619140625,0.2990729629456997,-0.2392725742384791,0.364392078541778
1761467127952717800,1.7037177734375,0.37324119196236133,-0.32467502171397206,0.25716873480454083
1761467127962700800,1.71370068359375,0.46292906167209147,-0.37994302768856286,0.15070994569901375
1761467127972683000,1.72368310546875,0.5148451268702745,-0.36352760719954963,0.03917352453563362
1761467127982665700,1.733665771484375,0.5814110641896725,-0.32035774303674697,-0.05532565444596112
1761467127992648000,1.74364794921875,0.6199053377568722,-0.2453989481642842,-0.13792426001448183
1761467128002631000,1.753630859375,0.6199760649055243,-0.1517532807394862,-0.19530407051127402
1761467128012614000,1.76361376953125,0.6731260558128357,-0.10465893660932779,-0.226879833394289
1761467128022595800,1.773595947265625,0.7518377734780312,-0.10322890380620955,-0.25269020115099844
1761467128032579000,1.7835791015625,0.729862673035264,-0.12409341265857218,-0.22459606983866542
1761467128042561800,1.793561767578125,0.6800877115190028,-0.14848755694180726,-0.17869882653858513
1761467128052544000,1.8035439453125,0.6570218932300805,-0.17782880223840475,-0.11918390370924026
1761467128062527000,1.81352685546875,0.6216711783856154,-0.17439882778972388,-0.04847030865848064
1761467128072509700,1.823509765625,0.569190465041995,-0.17963848200887442,0.04099248359110206
1761467128082492000,1.833491943359375,0.459218516716361,-0.1883943276554346,0.13349833333101122
1761467128092475000,1.843474853515625,0.33344869527816773,-0.18558774580210446,0.19973945914283395
1761467128102457900,1.853457763671875,0.23881693942546844,-0.11450842271149157,0.25725634002275766
1761467128112439800,1.863439697265625,0.12602175037264823,-0.03867489083111286,0.3111363257050514
1761467128122423000,1.873423095703125,0.007737316253781318,-0.009932195949554443,0.37888935391716655
1761467128132405800,1.88340576171875,-0.06282499722540379,-0.019667115761339664,0.4192913608018309
1761467128142388000,1.893387939453125,-0.092491236692667,-0.02214987248778343,0.4297204003576189
1761467128152371000,1.903370849609375,-0.11494681412875651,-0.01838847412765026,0.43638840687945485
1761467128162353700,1.913353759765625,-0.14784136799275874,-0.03810410520583391,0.4234265609104186
1761467128172335900,1.9233359375,-0.1518511881560087,-0.05726297918409109,0.41123862192332744
1761467128182318800,1.93331884765625,-0.1703992367595434,-0.10180910013616085,0.40791415367573497
1761467128192301800,1.9433017578125,-0.13167583061158655,-0.1628583198606968,0.4075279308371246
1761467128202283800,1.95328369140625,-0.1298527068376541,-0.20112901380509138,0.37500418304689226
1761467128212267000,1.96326708984375,-0.14144552947580813,-0.2572501294776797,0.33069209004640576
1761467128222249700,1.973249755859375,-0.07863046912252902,-0.3068365826845169,0.27125498169362544
1761467128232232000,1.98323193359375,-0.044916415569186206,-0.34935675076693296,0.22493695569820701
1761467128242215000,1.99321484375,0.0235673380702734,-0.35764147177040573,0.15779968476425854
1761467128252197600,2.00319775390625,0.05294482372403145,-0.3992465708345175,0.06832417916357517
1761467128262179800,2.013179931640625,0.08978840747475623,-0.47074090446680783,0.011643639509938656
1761467128272162800,2.023162841796875,0.1466185481995344,-0.5105050518393516,-0.02680526054557413
1761467128282145800,2.033145751953125,0.22761048575639722,-0.5551923348277807,-0.049530229507572944
1761467128292127700,2.043127685546875,0.2595212892800569,-0.5845344569072127,-0.05187445454616099
1761467128302111000,2.053111083984375,0.20189853687286377,-0.5506941466256976,-0.03572722000665963
1761467128312093700,2.06309375,0.1400613816410303,-0.49621582972407335,-0.010556538392975925
1761467128322076000,2.073075927734375,0.10018354476094245,-0.4662669739231467,0.04873506054189056
1761467128332059000,2.083058837890625,0.11405132659375666,-0.5093377616256475,0.12065350133776664
1761467128342041900,2.093041748046875,0.08545534670650959,-0.6407771531328559,0.19904132081083953
1761467128352023800,2.10302392578125,0.10390519563257694,-0.8030325386643409,0.29074904244299976
1761467128362006800,2.1130068359375,0.16566987015008924,-0.9167527336075901,0.3946267655467614
1761467128371988700,2.12298876953125,0.19033435580730437,-0.8605328337356448,0.4588662326799705
1761467128381971700,2.1329716796875,0.07169628594517707,-0.657317661306262,0.45969179678391664
1761467128391955000,2.142954833984375,-0.16335691703259944,-0.40251258689314123,0.4102014974279329
1761467128401937000,2.15293701171875,-0.4618938734054565,-0.22122429185062645,0.39982254409156737
1761467128411920000,2.162919921875,-0.7340349902838468,-0.08171236078590154,0.4621184394089505
1761467128421902800,2.17290283203125,-0.8763467812001705,0.09751783268302679,0.5361523014562204
1761467128431884800,2.182884765625,-0.8895172284185886,0.28617665649354457,0.6202569276735186
1761467128441867800,2.19286767578125,-0.7723994999915361,0.36557840224951504,0.6192667475923895
1761467128451851000,2.20285107421875,-0.5447200406521558,0.3390963457763195,0.547498565454781
1761467128461832700,2.212832763671875,-0.2564104637831449,0.2247615260660648,0.41179928801339116
1761467128471816000,2.22281591796875,0.014286299505829811,0.11993190906494855,0.25382768074832857
1761467128481799000,2.232798828125,0.22861703245043755,0.04657967260628938,0.10283281716071069
1761467128491780900,2.24278076171875,0.38442952545285225,-0.029781098018586635,-0.004695172078907489
1761467128501763800,2.252763916015625,0.5365764816850424,-0.12047989833652972,-0.06596482962109149
1761467128511746800,2.262746826171875,0.6540414161145687,-0.15470073236823081,-0.10163480301517992
1761467128521728800,2.272728759765625,0.7222673956006765,-0.12843611803799868,-0.1275465122545138
1761467128531711700,2.282711669921875,0.7876426618307828,-0.08919453323483467,-0.1574883720590733
1761467128541695000,2.292695068359375,0.84354224370718,-0.08402911329567432,-0.1353908142804168
1761467128551676700,2.3026767578125,0.7949030082225799,-0.04368102855533361,-0.09078417704645544
1761467128561660000,2.312659912109375,0.6862199306637048,0.054819677685201164,-0.014584880593605338
1761467128571643000,2.322642822265625,0.6100450379997492,0.16309972740113735,0.0682062153397128
1761467128581624800,2.332624755859375,0.5604278973937035,0.23853140048235655,0.10867182551249861
1761467128591607800,2.34260791015625,0.4742115031868219,0.30152064835876224,0.14799334368407727
1761467128601590800,2.3525908203125,0.36786709770858284,0.388687767419219,0.1772649578105658
1761467128611572700,2.36257275390625,0.2495966921150684,0.5119739553481341,0.18088431735150515
1761467128621555700,2.3725556640625,0.11335223841369152,0.6251902924224734,0.1842217181459069
1761467128631539000,2.3825390625,-0.010095277556777,0.7145511221349239,0.1452151111423969
1761467128641520600,2.392520751953125,-0.10063128852844237,0.7949480164080858,0.09919533744119108
1761467128651503900,2.40250390625,-0.0979991864591837,0.7990735719054937,0.09787961520012467
1761467128661486800,2.41248681640625,-0.078248191806674,0.7982479347363114,0.06397296168413012
1761467128671468800,2.42246875,-0.023391396981477738,0.7598951154664159,0.03580689764674753
1761467128681451800,2.43245166015625,0.17930267418324947,0.5648433757483959,-0.008652714065648616
1761467128691434800,2.442434814453125,0.37929742326140403,0.39186552067250013,-0.1421049066999927
1761467128701416700,2.452416748046875,0.45750469853579995,0.31770664400607346,-0.2530090213092044
1761467128711399700,2.462399658203125,0.4899971013396978,0.2614715465649962,-0.33298253907114267
1761467128721383000,2.4723828125,0.4616641563028097,0.24170856921374798,-0.37842407449297605
1761467128731364600,2.482364501953125,0.30651158851385113,0.27290859411954876,-0.4242949047101661
1761467128741347800,2.492347900390625,0.2641150468111038,0.28592151268869637,-0.46038175180945545
1761467128751330800,2.502330810546875,0.35962241645455356,0.29644115313738584,-0.5060390488738193
1761467128761316400,2.51231640625,0.347681803292036,0.35837124734967946,-0.5356649563306942
1761467128771299300,2.52229931640625,0.26320085457563397,0.46580227902084587,-0.5103550854420289
1761467128781282300,2.5322822265625,0.18761691354215143,0.4928317402437329,-0.4744628475993871
1761467128791264300,2.54226416015625,0.18671558078825473,0.48502252779752014,-0.4913525710692629
1761467128801247200,2.552247314453125,0.22645488598048685,0.4408014010161161,-0.5076623757593334
1761467128811230200,2.562230224609375,0.22010756278038024,0.38359541271626946,-0.44614623264279213
1761467128821212400,2.57221240234375,0.09834873054921627,0.35787732635289426,-0.3764975268771872
1761467128831195400,2.5821953125,-0.07820084553360938,0.34812282505780456,-0.34432843774352223
1761467128841178000,2.59217822265625,-0.21945172922015188,0.354254167419672,-0.25996965410206463
1761467128851160300,2.602160400390625,-0.30134499953091143,0.35981121702492236,-0.19378526344615965
1761467128861143300,2.612143310546875,-0.354175841486454,0.38019758697152134,-0.15243118000105021
1761467128871126300,2.622126220703125,-0.37007659045159813,0.37113428281098604,-0.13468085764646529
1761467128881108200,2.632108154296875,-0.3473351818114519,0.3203244252890348,-0.13681301083695144
1761467128891091500,2.642091552734375,-0.31979134132564063,0.22468144656717776,-0.13830259180758148
1761467128901074200,2.65207421875,-0.2712467983871698,0.11643237651139497,-0.11764719566125421
1761467128911056400,2.662056396484375,-0.19569559057950972,-0.008137713748216629,-0.1374756759967655
1761467128921039400,2.672039306640625,-0.2015788033992052,-0.13865268388688565,-0.21613201021291314
1761467128931022000,2.68202197265625,-0.14311375494897366,-0.23759236606657502,-0.26310473725739864
1761467128941004300,2.69200439453125,0.05416705899536609,-0.23481968648284673,-0.2770937708497047
1761467128950987300,2.7019873046875,0.3209434339702129,-0.19119447976797818,-0.264869591505453
1761467128960970200,2.71197021484375,0.4644137472718954,-0.19709435146152973,-0.2289373504459858
1761467128970952200,2.7219521484375,0.4956973588079214,-0.3114098819494247,-0.2728051154787652
1761467128980935400,2.731935302734375,0.6105979957073927,-0.369729968971014,-0.1496690035450272
1761467128990918100,2.741918212890625,0.5344114126056433,-0.39995881075710055,-0.09072163320425897
1761467129000900400,2.751900390625,0.5357300939887761,-0.4156219515740871,-0.04836240957090631
1761467129010883300,2.76188330078125,0.5756126070439815,-0.43790626409649847,0.017450005967449396
1761467129020866000,2.771865966796875,0.5993097089737653,-0.445165733705461,0.004267210724111646
1761467129030848300,2.78184814453125,0.5453098232388496,-0.42192952728569505,0.009912029944360256
1761467129040831200,2.791831298828125,0.5278869792729616,-0.418807595872879,0.010936094028782099
1761467129050814200,2.801814208984375,0.4880155721336603,-0.38734541289955376,0.018263331644330173
1761467129060796200,2.811796142578125,0.43281332487165924,-0.3471805757716298,0.018359640758810563
1761467129070779400,2.821779296875,0.401257910656929,-0.317468743596971,0.01294479436953552
1761467129080762000,2.83176220703125,0.4139554796665907,-0.30426965480595825,0.009001746699027717
1761467129090744300,2.841744384765625,0.33782734875380993,-0.29743717843741174,-0.008195024292869493
1761467129100727300,2.851727294921875,0.26155951710939407,-0.27033815910965203,-0.02938123938026838
1761467129110710300,2.861710205078125,0.22006430816054343,-0.24834581527113914,-0.037315009787911545
1761467129120692200,2.871692138671875,0.15174129804074762,-0.2482984689980745,-0.05504902489508968
1761467129130675200,2.88167529296875,0.043512393990159035,-0.20676906551867721,-0.08464463311182334
1761467129140658200,2.891658203125,-0.037460254344344135,-0.1585898487612605,-0.10545920187523587
1761467129150640000,2.90164013671875,-0.07351824067533015,-0.15746698221117258,-0.14703934916118158
1761467129160623400,2.911623291015625,-0.12638649203181265,-0.1419827050924301,-0.1848022945128381
1761467129170606000,2.921606201171875,-0.17237901239991188,-0.12170213360786437,-0.21437621605414897
1761467129180588300,2.93158837890625,-0.1716553743004799,-0.139250649780035,-0.22577389971269293
1761467129190571300,2.9415712890625,-0.15730769999623298,-0.1691340391293168,-0.24045170102044938
1761467129200554500,2.951554443359375,-0.13334814773797987,-0.20023966374993324,-0.2677534581123851
1761467129210536200,2.9615361328125,-0.06130757839977741,-0.27940526266247034,-0.28860023037865756
1761467129220519400,2.97151953125,-0.004632920497655868,-0.3576806347370147,-0.2745986843646504
1761467129230502400,2.98150244140625,-0.007407061386108398,-0.3901020181313157,-0.23750866983849553
1761467129240484400,2.991484375,-0.023855507361888885,-0.4740922607213258,-0.22892207981161772
1761467129250467300,3.00146728515625,0.02705810279548168,-0.5703054405465722,-0.23870403536921367
1761467129260450300,3.0114501953125,0.042619829064607616,-0.638044513298571,-0.2690283916853368
1761467129270432300,3.021432373046875,0.01983633484840393,-0.6540721035137772,-0.3081178546667099
1761467129280415200,3.031415283203125,0.0172147541731596,-0.6566925151452422,-0.36871275475248694
1761467129290398500,3.0413984375,0.05239478862583637,-0.7177154313847423,-0.44485754453912374
1761467129300380200,3.051380126953125,0.06471534101665019,-0.7823197132423519,-0.49236266142725943
1761467129310363400,3.06136328125,0.0494914683997631,-0.872276463021338,-0.5426095513042062
1761467129320346400,3.071346435546875,0.0628548078417778,-1.0264987642228602,-0.5409428602010011
1761467129330328300,3.081328369140625,0.09099486065506934,-1.2075748778194189,-0.5584576932992786
1761467129340311300,3.091311279296875,-0.009238952988386154,-1.211455810905993,-0.5030830851450562
1761467129350294300,3.101294189453125,-0.16322423056364058,-1.0976850548192858,-0.47631198259741064
1761467129360276200,3.111276123046875,-0.30800971811711786,-1.0157850625067948,-0.47970820090696215
1761467129370259200,3.12125927734375,-0.40843700850605963,-0.8971873246550559,-0.44346492113694547
1761467129380242400,3.131242431640625,-0.43501755691766736,-0.7098851761505007,-0.4235103302037343
1761467129390224100,3.14122412109375,-0.512100796598196,-0.4121092672780156,-0.4057134652936831
1761467129400207400,3.151207275390625,-0.6575146451830863,-0.11880962703675031,-0.36632757664900273
1761467129410190300,3.1611904296875,-0.6460860731959343,0.08204173887073993,-0.31772819825075566
1761467129420172300,3.17117236328125,-0.5056289702355862,0.15236790550649165,-0.3162986769042909
1761467129430155300,3.1811552734375,-0.28820260936319825,0.1505737155660987,-0.29229367806911466
1761467129440138200,3.19113818359375,-0.07761047842502594,0.1474786721602082,-0.21768977931523695
1761467129450120200,3.2011201171875,0.0849970815449953,0.0609071809053421,-0.31182215254474427
1761467129460103200,3.211103271484375,0.2301221763163805,-0.04095715654939413,-0.38481538296528156
1761467129470086400,3.22108642578125,0.3466016068398952,-0.09769640412032604,-0.38077882092557847
1761467129480069000,3.231069091796875,0.39715982768833635,-0.09617606268525122,-0.3143935739353299
1761467129490051300,3.24105126953125,0.4395996240109205,-0.023066110549867153,-0.18326642671506851
1761467129500034300,3.251034423828125,0.46487142791152,0.04055062157511711,-0.012779876998253167
1761467129510017300,3.261017333984375,0.5320177954673767,0.06475362720042467,0.06705291711874306
1761467129519999200,3.270999267578125,0.5781272202134132,0.11251140367537736,0.11333561607245356
1761467129529982200,3.280982177734375,0.5729869347155094,0.18078648300021885,0.16620773988645524
1761467129539965200,3.290965087890625,0.5781155297756194,0.2330412786334753,0.18924129987359045
1761467129549947100,3.300947021484375,0.5680792889297008,0.3046446255981922,0.19745712035931645
1761467129559930400,3.310930419921875,0.5284089573204517,0.37312545662820334,0.20243563942424952
1761467129569913000,3.3209130859375,0.4903197574228048,0.4356839118719101,0.18321027608104049
1761467129579895300,3.330895263671875,0.5314718520224094,0.5249988566160202,0.17468845838606356
1761467129589878300,3.340878173828125,0.5006634567826986,0.5590028330266475,0.16363251910358667
1761467129599861200,3.350861328125,0.49489831738471984,0.5469488226175307,0.1967958069063723
1761467129609843200,3.36084326171875,0.5020698164492845,0.5541495477765799,0.24944639692418275
1761467129619826400,3.370826416015625,0.45639761407673357,0.5945978780210018,0.29964528294093906
1761467129629809200,3.38080908203125,0.3743354169398546,0.6448077238231897,0.35167686427757144
1761467129639791400,3.390791259765625,0.3693722415745258,0.7015782433152198,0.36064357619583604
1761467129649774300,3.4007744140625,0.3552683128982782,0.6864777048170566,0.3759819420378655
1761467129659757000,3.410757080078125,0.3072241206973791,0.6542015751123428,0.376081237693876
1761467129669739300,3.4207392578125,0.2540542560458183,0.6152051972419024,0.40813144968822596
1761467129679722200,3.43072216796875,0.19739011953771113,0.6210948398023843,0.4583278514869511
1761467129689705500,3.44070556640625,0.07008885074853896,0.6460737982362509,0.48624805100448426
1761467129699687200,3.450687255859375,-0.032336919981241226,0.6843763486236334,0.4617817913331091
1761467129709670400,3.46067041015625,-0.1255091246753931,0.7188350830644369,0.41391887398324906
1761467129719653400,3.4706533203125,-0.1903384474605322,0.7240995794638991,0.35592948022074994
1761467129729635300,3.48063525390625,-0.26618659238815306,0.7117492164567113,0.31298582602925595
1761467129739618300,3.490618408203125,-0.31794016050100327,0.6509539714932442,0.26554522574469447
1761467129749601300,3.500601318359375,-0.2516208914190531,0.5643664058864116,0.16993819511905311
1761467129759580400,3.510580322265625,-0.12024725862443446,0.45215369289666413,0.06687493020333349
1761467129769562400,3.520562255859375,0.025967384949326513,0.32729221847504375,-0.07654076683428138
1761467129779545300,3.53054541015625,0.21267945860624313,0.19911329006850717,-0.21807518016993999
1761467129789528300,3.5405283203125,0.35075405034422874,0.059200669248402116,-0.30802535407766696
1761467129799510500,3.550510498046875,0.4176221854805946,-0.10593173302412033,-0.3957851418016478
1761467129809493200,3.5604931640625,0.45960488568544383,-0.2525380062639713,-0.42959706623889504
1761467129819476500,3.5704765625,0.5183551808178425,-0.3424833578661084,-0.4571175623817369
1761467129829458400,3.58045849609375,0.5864613333165645,-0.3704942313417792,-0.4696417841184884
1761467129839441400,3.59044140625,0.5678776288777589,-0.37576691104769705,-0.4471796308111399
1761467129849424400,3.60042431640625,0.5160393050909042,-0.36183190919756886,-0.35410336077213284
1761467129859406600,3.610406494140625,0.46664019114971156,-0.324096929565072,-0.2653079829227179
1761467129869389300,3.620389404296875,0.44448096631169315,-0.26353666240125895,-0.17155330216549336
1761467129879372300,3.630372314453125,0.414493824326992,-0.21860709508955478,-0.041892391572892665
1761467129889354500,3.6403544921875,0.4316524643987417,-0.20711422569453716,0.06785261612907052
1761467129899337200,3.650337158203125,0.4391378517180681,-0.23749445865005253,0.14878303275704383
1761467129909320400,3.660320556640625,0.4554109411269426,-0.26267536939680575,0.22524426808170972
1761467129919302400,3.670302490234375,0.46630993628203865,-0.29398645346164703,0.2784370752174407
1761467129929285400,3.680285400390625,0.47224984772503376,-0.313037483151257,0.33269225088767707
1761467129939268400,3.690268310546875,0.46641924187541006,-0.33900457583963867,0.35410204559788105
1761467129949250600,3.70025048828125,0.45208618061840533,-0.34215485656410455,0.3576411064442247
1761467129959233300,3.7102333984375,0.40666590718030926,-0.3212780727520585,0.35365642072223125
1761467129969216300,3.72021630859375,0.36137130594849587,-0.3287055924043059,0.33870267028361556
1761467129979198500,3.730198486328125,0.31251579736471174,-0.34997663623094555,0.29443134768493473
1761467129989181200,3.74018115234375,0.22879940328001974,-0.39598113929778334,0.2503793669253588
1761467129999164400,3.750164306640625,0.19371172328591346,-0.4469517403393984,0.21566775370202956
1761467130009147400,3.7601474609375,0.13565700920224188,-0.4643246076837182,0.18511691341996192
1761467130019129300,3.77012939453125,0.07730652704238891,-0.49134880820959803,0.13532872709594665
1761467130029112300,3.7801123046875,0.009846855753660202,-0.5019657715529203,0.108871585868299
1761467130039095300,3.79009521484375,-0.0563017329365015,-0.5099272519513964,0.1140825254496187
1761467130049077200,3.8000771484375,-0.11483984662294387,-0.4853618427544832,0.12553710866086185
1761467130059060200,3.810060302734375,-0.16821429393589496,-0.47327743720710275,0.12014175242334603
1761467130069043500,3.82004345703125,-0.18617314447462557,-0.4708844045907259,0.1271191902205348
1761467130079025200,3.830025146484375,-0.1946428666561842,-0.4791925064697861,0.1311353670593351
1761467130089008400,3.84000830078125,-0.19187749359607695,-0.5053431390315294,0.14069580708704887
1761467130098991400,3.849991455078125,-0.2032961287111044,-0.5581184514075518,0.15671083008162676
1761467130108973300,3.859973388671875,-0.22710779693126676,-0.5710325857773423,0.15175086958669126
1761467130118956300,3.869956298828125,-0.24105448921918868,-0.5555407098740339,0.1595977836947888
1761467130128939300,3.879939208984375,-0.21405776122212408,-0.5291960160449147,0.18323709102272986
1761467130138921200,3.889921142578125,-0.2117705270677805,-0.5250087934881449,0.22296799371279774
1761467130148904400,3.899904541015625,-0.2180699194729328,-0.4887973701611161,0.24766871972717344
1761467130158887400,3.909887451171875,-0.20734511184096335,-0.4400900378763675,0.25915165225006637
1761467130168869400,3.919869384765625,-0.17516075207293033,-0.4478127410829067,0.2915823879946023
1761467130178852400,3.929852294921875,-0.0756160897374153,-0.5499439127802849,0.3291064282901585
1761467130188835300,3.93983544921875,0.04139876283705234,-0.7635022000476718,0.3723293012818321
1761467130198817500,3.949817626953125,0.14249123913645745,-0.986425989292562,0.40092948242016135
1761467130208800300,3.95980029296875,0.14879063154160976,-1.0128498858377337,0.38155123007018116
1761467130218783500,3.969783447265625,-0.01689092904627323,-0.8370619417771696,0.3334507045721635
1761467130228766500,3.979766357421875,-0.2913151884257793,-0.5532362323239446,0.3053384530812502
1761467130238748400,3.98974853515625,-0.5170037662088871,-0.2707052388563752,0.2900527672745287
1761467130248731400,3.9997314453125,-0.6901221987992525,0.005718669907748699,0.3027439430760219
1761467130258711300,4.009711181640625,-0.6844587662100792,-0.004031739734113216,0.3102198319146409
1761467130268694500,4.019694580078125,-0.7958926037818193,0.2805667076572776,0.39767939458303153
1761467130278676200,4.02967626953125,-0.7697919478416443,0.48297319405227895,0.44642844711765645
1761467130288659500,4.039659423828125,-0.6465986988931894,0.5749938906237483,0.4568008976479992
1761467130298642400,4.049642333984375,-0.4641600647717714,0.5611334153145552,0.43478396735750136
1761467130308624400,4.059624267578125,-0.1532896965265274,0.4854588733881712,0.35793840889036654
1761467130318607400,4.069607421875,0.0966261445403099,0.4265340984717011,0.28891258426345884
1761467130328590300,4.07959033203125,0.19032208084762095,0.3579726034209132,0.23011395647730676
1761467130338573600,4.089573486328125,0.188807584631443,0.2990837766006589,0.14936591067891566
1761467130348555300,4.09955517578125,0.13797288492918014,0.2802688937544823,0.08475950992945581
1761467130358538500,4.10953857421875,0.142400638243556,0.35493308959454295,0.01814721271768212
1761467130368521500,4.119521484375,0.11728022551238536,0.4819698622286319,-0.03729373867101967
1761467130378503400,4.12950341796875,0.11871756483912467,0.6162719496905803,-0.09503131309691816
1761467130388486400,4.139486328125,0.1450859318047762,0.7596385103568434,-0.12893274244852362
1761467130398469400,4.149469482421875,0.1885597473502159,0.8599088566184043,-0.15618611208777874
1761467130408451300,4.159451416015625,0.22113982843756674,0.9134399557977915,-0.16762761662174014
1761467130418434300,4.169434326171875,0.26980186027586456,0.9583297756209969,-0.17260390719696878
1761467130428417500,4.17941748046875,0.3017547493755817,0.9809858440652489,-0.17284852960780261
1761467130438399200,4.189399169921875,0.32676468746960163,0.9586611995324492,-0.1813578896800056
1761467130448382500,4.199382568359375,0.3402127825856209,0.914895415303111,-0.17746314726378767
1761467130458365400,4.209365478515625,0.3843950386613607,0.8889970039367675,-0.20579028361439702
1761467130468347400,4.219347412109375,0.43310032511949537,0.8660068812325596,-0.2518644909165799
1761467130478330400,4.229330322265625,0.4725444467574358,0.8520420687660575,-0.2670614389939234
1761467130488313300,4.239313232421875,0.5005389536201954,0.7705687774330378,-0.3191070853885263
1761467130498296300,4.24929638671875,0.48838089831471443,0.6552089985892177,-0.38271168868429956
1761467130508278300,4.2592783203125,0.46151744130849837,0.5453340808972716,-0.409323326353915
1761467130518261500,4.269261474609375,0.42687282890677447,0.45440264086723325,-0.4371382753986865
1761467130528244500,4.279244384765625,0.3830149824798107,0.3984638960242271,-0.43860915166884656
1761467130538226400,4.289226318359375,0.3143529496639967,0.3791898712337017,-0.45513183192461726
1761467130548209400,4.29920947265625,0.22869418933987617,0.3662701839059591,-0.457571955085732
1761467130558192400,4.3091923828125,0.1539297479957342,0.3483314993724227,-0.4631986358610913
1761467130568174300,4.31917431640625,0.0372089099317789,0.3223448252007365,-0.46463217579554766
1761467130578157300,4.3291572265625,-0.0827314747005701,0.32525282160192726,-0.4653269896592945
1761467130588140500,4.339140625,-0.1769657556682825,0.330708456659317,-0.46037101121973245
1761467130598122200,4.349122314453125,-0.2563449973315,0.30115561443865296,-0.4531310134962201
1761467130608105500,4.35910546875,-0.23904256487488745,0.2535316934764385,-0.4288461748063564
1761467130618088400,4.36908837890625,-0.17619944747090338,0.17446897041648626,-0.4122515252929181
1761467130628070400,4.3790703125,-0.1320803197592497,0.08614625158011913,-0.39812315629515793
1761467130638053400,4.389053466796875,-0.07627659947276115,-0.016404022312164306,-0.4029244190970436
1761467130648036400,4.399036376953125,0.04971592480540275,-0.12694120330512523,-0.4303719230689108
1761467130658019300,4.409019287109375,0.18972879112958907,-0.21249562647193668,-0.4465489316921681
1761467130668001500,4.41900146484375,0.28250819711387154,-0.2488227851331234,-0.42912473601941015
1761467130677984500,4.428984619140625,0.3328945685267448,-0.2559472301855683,-0.4295170963378623
1761467130687967200,4.43896728515625,0.36439679124951363,-0.2538955583527684,-0.40065950637236236
1761467130697949400,4.448949462890625,0.3596691782057285,-0.2643722364425659,-0.3802181183028966
1761467130707932400,4.458932373046875,0.3663835811525583,-0.2687909296676516,-0.3266971386587247
1761467130717915400,4.468915283203125,0.3428834630995989,-0.22310499103069303,-0.32088571243360636
1761467130727897300,4.4788974609375,0.338612361651659,-0.13363134859353304,-0.3231298746312037
1761467130737880600,4.488880615234375,0.3364864555388689,-0.13588409595638512,-0.2637150146428496
1761467130747863300,4.49886328125,0.2811597051143646,-0.16348784993588925,-0.21411281587760894
1761467130757845500,4.508845458984375,0.2832558006107807,-0.1385714353442192,-0.18577917672097682
1761467130767828700,4.518828857421875,0.2555541392147541,-0.0544870847299695,-0.18307696855757385
1761467130777811700,4.528811767578125,0.2085585792839527,-0.015476386073231697,-0.18792934049218893
1761467130787795000,4.538794921875,0.17258417958319186,-0.023562369634211062,-0.1730050718763843
1761467130797776600,4.548776611328125,0.13031214104294775,0.001632277376949787,-0.1591292163349688
1761467130807760000,4.558759765625,0.13136720305383204,-0.015524024607241152,-0.14151139778625219
1761467130817742800,4.568742919921875,0.19348142166137694,-0.016702128475904465,-0.12699074153527617
1761467130827724800,4.578724853515625,0.24670272423923015,-0.04067132534533739,-0.10357439277563243
1761467130837707800,4.588707763671875,0.33576866265833377,-0.07782616700232028,-0.09026303924918175
1761467130847690800,4.598690673828125,0.419199225538969,-0.1347457395762205,-0.09320800665989518
1761467130857672700,4.608672607421875,0.46734863168001173,-0.22598317681550978,-0.0830757215609774
1761467130867655700,4.61865576171875,0.5238198759645223,-0.29265111320465803,-0.10301157126110047
1761467130877639000,4.628638916015625,0.5458733023405075,-0.31861674458831546,-0.10980009889006614
1761467130887620600,4.63862060546875,0.5346738629341126,-0.4125932514026761,-0.1420954082192853
1761467130897603800,4.648603759765625,0.5129845936954022,-0.47724487953335043,-0.1338539418356493
1761467130907586800,4.6585869140625,0.45113574802577494,-0.5197019192516803,-0.09565726297553628
1761467130917568800,4.66856884765625,0.3542109127998352,-0.5547624189779162,-0.02246303009018302
1761467130927551700,4.6785517578125,0.27725802150070666,-0.5816399045094848,0.04233447278458625
1761467130937534700,4.68853466796875,0.1849257747620344,-0.6225389011308551,0.11093341376893222
1761467130947517700,4.698517578125,0.06759586488902568,-0.6547051407203078,0.14678535613380372
1761467130957499600,4.708499755859375,0.01127951890528202,-0.6230877671852707,0.1537412396863103
1761467130967483000,4.71848291015625,-0.05170154566466808,-0.5869514549210667,0.14181008847188203
1761467130977465600,4.728465576171875,-0.03765665369927883,-0.6051695409178733,0.0821339837314561
1761467130987447800,4.73844775390625,0.039356443354487416,-0.6420248151063919,-0.010590331064723431
1761467130997430800,4.7484306640625,0.035333763709664345,-0.6695233551457523,-0.11874719279240815
1761467131007413500,4.75841357421875,0.008225976553559302,-0.7046697795897722,-0.19879045132230966
1761467131017395700,4.768395751953125,-0.040056116056442256,-0.734547615981102,-0.31206684802081436
1761467131027378700,4.778378662109375,-0.13436930747926235,-0.7533589916959404,-0.3930369390720501
1761467131037361700,4.788361572265625,-0.11866145073771477,-0.7221271103471517,-0.46564222962092605
1761467131047344600,4.7983447265625,-0.12195113993287086,-0.6468734241813421,-0.5653364199623465
1761467131057326800,4.808326904296875,-0.17954700433313844,-0.5557078831344843,-0.6280272694140673
1761467131067309600,4.8183095703125,-0.23630232625603675,-0.48075493348091836,-0.6454391535945236
1761467131077292800,4.828292724609375,-0.25813655692338944,-0.4686851409807801,-0.6313271146770566
1761467131087274800,4.838274658203125,-0.19563947647809982,-0.5353638910248876,-0.652990007365495
1761467131097257700,4.8482578125,-0.16778350130319594,-0.6719903297811746,-0.6377711031846701
1761467131107240700,4.85824072265625,-0.10188216537237167,-0.77668170735538,-0.6085433281999081
1761467131117223000,4.868222900390625,0.04500935454964637,-0.7728910829007625,-0.592383380309306
1761467131127205600,4.87820556640625,0.08823533281385898,-0.7419166834443807,-0.5272110893053934
1761467131137188600,4.888188720703125,-0.01559212140738964,-0.7412041512608528,-0.43836986302025616
1761467131147170800,4.8981708984375,-0.08375029635429382,-0.7468646612405776,-0.3321094825636595
1761467131157153500,4.908153564453125,-0.11726970411837101,-0.6707306851089,-0.1904885234557092
1761467131167136800,4.91813671875,-0.11668985840380192,-0.5173609090834855,-0.09467066309098154
1761467131177118700,4.92811865234375,-0.10970131469070911,-0.38189825340956446,-0.03854271581880748
1761467131187101700,4.938101806640625,-0.08218027055859566,-0.30794425166547296,-0.008098806509934366
1761467131197084700,4.948084716796875,-0.05647825854718685,-0.26700404625087976,0.0019439736746251581
1761467131207067600,4.958067626953125,-0.020350714111328123,-0.19036007477045058,-0.02085471811071038
1761467131217049600,4.968049560546875,0.00895545987188816,-0.0809384538039565,-0.038454453013464805
1761467131227032600,4.978032470703125,0.013623451682925223,-0.006630231794714927,-0.0293677314447239
1761467131237015800,4.988015869140625,0.04236088586747646,0.059873746204376216,0.0038648587346076964
1761467131246997500,4.99799755859375,0.05127542920708656,0.13565700920224188,0.051955666556209326
1761467131256980700,5.007980712890625,0.03032499563694,0.22173194911181926,0.07819229690097272
1761467131266963700,5.017963623046875,0.020692659416794774,0.31659809824228285,0.10357242001425475
1761467131276946000,5.02794580078125,0.03729074299633503,0.38931145227551456,0.1297156364545226
1761467131286928600,5.0379287109375,0.07780220160484314,0.43960751505643125,0.12696385352835057
1761467131296911600,5.04791162109375,0.12161854697763919,0.44923575962334866,0.12030541855245828
1761467131306893800,5.057893798828125,0.18003508011102676,0.4506055866718292,0.10669844308029859
1761467131316876500,5.06787646484375,0.27881460329294205,0.45602761172056194,0.10527286725658923
1761467131326859800,5.07785986328125,0.3329705563724041,0.5249959340065717,0.12641118808165192
1761467131336841700,5.087841796875,0.3184223910599947,0.6346715297341347,0.21407222813889382
1761467131346824700,5.09782470703125,0.2611222947359085,0.7166343581497668,0.3144515877328813
1761467131356807700,5.1078076171875,0.2539379361897707,0.7820128392502665,0.40530660152584314
1761467131366790700,5.117790771484375,0.24110768071115016,0.7988540839359164,0.46567456098794935
1761467131376772600,5.127772705078125,0.2255728424489498,0.8329132976651191,0.4891445030983537
1761467131386755600,5.137755615234375,0.22102701571285724,0.8813307070925831,0.5018712982024998
1761467131396738800,5.14773876953125,0.1963537622272968,0.9145788966998457,0.505252903464809
1761467131406720500,5.157720458984375,0.14340426232814787,0.931264658562839,0.490327794598788
1761467131416703700,5.167703857421875,0.09507190083563327,0.9063853611111641,0.47127793395295736
1761467131426686700,5.177686767578125,0.04123626575171947,0.8874626339763403,0.46084787148386236
1761467131436668700,5.187668701171875,0.027622166419029235,0.865924171385169,0.45243879344835874
1761467131446651600,5.197651611328125,0.03303776172697544,0.8442460080623626,0.4207370295654982
1761467131456635000,5.207634765625,0.02038753899037838,0.7922109926596284,0.4070906353984028
1761467131466616600,5.217616455078125,-0.018370938470959663,0.7054308270901442,0.3664246438153088
1761467131476599800,5.227599853515625,-0.11430676265954971,0.5965358603462576,0.3293202171713114
1761467131486582800,5.237582763671875,-0.17645488353669642,0.5070309459879994,0.26695005104131997
1761467131496565800,5.247565673828125,-0.1844984892606735,0.454365815988183,0.22357699245661497
1761467131506547700,5.257547607421875,-0.21460078205764294,0.4313400374487042,0.1632385513499379
1761467131516530700,5.26753076171875,-0.26713819402456285,0.4167217295095324,0.12181611537635326
1761467131526514000,5.277513916015625,-0.30690438722372054,0.3915270824983716,0.09478322008736431
1761467131536495600,5.28749560546875,-0.31171792498528955,0.3689034550189972,0.05449417205788195
1761467131546478800,5.297478759765625,-0.3524760518312454,0.3760413440749049,0.023307664220780133
1761467131556461800,5.3074619140625,-0.34167759444117546,0.35635143195986746,0.0005241700045764446
1761467131566443800,5.31744384765625,-0.25558687244057654,0.2698971373438835,-0.024088804661110044
1761467131576426800,5.3274267578125,-0.15534487549066542,0.16687866141796112,-0.03880984232239425
1761467131586409700,5.33740966796875,-0.03001169190406799,0.05374152705967426,-0.08420885377675294
1761467131596391700,5.3473916015625,0.16832769118249416,-0.0555415622189641,-0.13800941754728555
1761467131606374700,5.357374755859375,0.35197687013745305,-0.14100743031948804,-0.17593612035959957
1761467131616358000,5.36735791015625,0.5038531927347183,-0.16847265261113642,-0.18025106094926593
1761467131626340600,5.377340576171875,0.5442600219249725,-0.19581249495744704,-0.16175211218446492
1761467131636322800,5.38732275390625,0.5774205332487822,-0.23095745809674262,-0.1279320409733802
1761467131646305800,5.397305908203125,0.5803086559057236,-0.23997078563570975,-0.08758096055835485
1761467131656288500,5.40728857421875,0.5647065976262092,-0.23319617693424224,-0.054018005913496016
1761467131666270700,5.417270751953125,0.5624205325156449,-0.22959259948432445,-0.033339740348234774
1761467131676253700,5.427253662109375,0.596257335665822,-0.25021073236018415,-0.03163089060373604
1761467131686236700,5.437236572265625,0.6395195542871952,-0.30146745686680076,-0.044109556165710086
1761467131696218600,5.447218505859375,0.6673620854586363,-0.3409378819897771,-0.04873144381269812
1761467131706201900,5.457201904296875,0.6665659666448831,-0.3348573930323124,-0.032740897672250864
1761467131716184600,5.4671845703125,0.6208738905280828,-0.27043957365751264,-0.023893720480427146
1761467131726166800,5.477166748046875,0.5566179837167262,-0.2017293177857995,-0.013098989417403936
1761467131736149800,5.487149658203125,0.4681961884200573,-0.16800971127450465,-0.00553856410048902
1761467131746132700,5.4971328125,0.40531332352757454,-0.14745792163312435,-0.004991232416033745
1761467131756115700,5.50711572265625,0.3640747196882963,-0.120419692581892,-0.005646554519608616
1761467131766099200,5.51709912109375,0.3330851226627827,-0.11374679068922997,-0.003009776275232434
1761467131776082200,5.527082275390625,0.3185527394413948,-0.13782850802242755,-0.014711027723923324
1761467131786065200,5.537065185546875,0.29308804331719873,-0.148685709862411,-0.007828209407627582
1761467131796047000,5.547047119140625,0.250268892288208,-0.1975289434865117,-0.021810995922237633
1761467131806030300,5.5570302734375,0.2360655948907137,-0.234099263253808,-0.08054397459365427
1761467131816013000,5.567012939453125,0.20345979484021662,-0.2765548416674137,-0.13460625804029405
1761467131825995300,5.576995361328125,0.14524784436821936,-0.32756343663185833,-0.196334765265882
1761467131835978200,5.586978271484375,0.09648118311166763,-0.3757411920845508,-0.28206841745711864
1761467131845961200,5.596961181640625,0.0953495487332344,-0.4474696267336607,-0.38250359889157115
1761467131855944200,5.606944091796875,0.09915420171320438,-0.501876924225688,-0.44393663030192254
1761467131865926100,5.616926025390625,0.1476736102104187,-0.525058770109713,-0.48390528727062043
1761467131875909400,5.626909423828125,0.2041056915283203,-0.5446759092494845,-0.48109899767823516
1761467131885892000,5.63689208984375,0.21265432416498659,-0.5492614834740758,-0.43543475941643117
1761467131895874300,5.646874267578125,0.14017594793140886,-0.5762678560823202,-0.39945436836630105
1761467131905857300,5.656857177734375,0.03569149110615253,-0.595110211457312,-0.3258528333216905
1761467131915840300,5.66684033203125,-0.06164017135500908,-0.6114344465315341,-0.2533100866150111
1761467131925822200,5.676822265625,-0.1252092649459839,-0.590363893713057,-0.16252273123078048
1761467131935805400,5.686805419921875,-0.18007716568708418,-0.5744470703959464,-0.07148834228292107
1761467131945788200,5.6967880859375,-0.21044190881252287,-0.537968520565331,0.025941665986180303
1761467131955770400,5.706770263671875,-0.23798925642967222,-0.5022621241509914,0.10567921956777572
1761467131965753300,5.71675341796875,-0.32960429480969905,-0.49138271047919985,0.19358729318864643
1761467131975736000,5.726736083984375,-0.41601182767450806,-0.4534864028051495,0.26308460778482257
1761467131985719300,5.73671923828125,-0.39403614270985127,-0.47269320757836103,0.3213460234217346
1761467131995701200,5.746701171875,-0.28651217205822466,-0.5805597080573439,0.3773452662803232
1761467132005684200,5.756684326171875,-0.17960194939076898,-0.6730921535432338,0.41668205508626993
1761467132015667200,5.766667236328125,-0.16314239749908446,-0.6995864849761128,0.45024610570967194
1761467132025649400,5.7766494140625,-0.20767244409918784,-0.6801140150040388,0.44457996970675884
1761467132035632000,5.786632080078125,-0.3383464041918516,-0.7132707269355655,0.4388821233913302
1761467132045615000,5.796614990234375,-0.44951837595701216,-0.7180991700053214,0.4624165821053087
1761467132055597300,5.806597412109375,-0.5364326893001794,-0.6258358968496323,0.5006351074710488
1761467132065580000,5.816580078125,-0.6779337483555078,-0.44012744727730746,0.5114519773006438
1761467132075563300,5.826563232421875,-0.8191822939544916,-0.24005787939727305,0.5004901095097885
1761467132085545200,5.836545166015625,-0.856091928678751,-0.04857201546728611,0.41901111908834426
1761467132095528200,5.846528076171875,-0.862473738670349,0.13229337798804044,0.3803044814120978
1761467132105511200,5.85651123046875,-0.8009867120504379,0.29649872854351994,0.3387372301403433
1761467132115494100,5.866494140625,-0.7034212408334016,0.3590405249133706,0.27166107827648517
1761467132125476000,5.87647607421875,-0.5687976663321256,0.39760990954339503,0.21657168027181178
1761467132135459000,5.886458984375,-0.39917292107641694,0.43120238254368304,0.13138594428692013
1761467132145442300,5.8964423828125,-0.20845687247514724,0.48807460884451864,0.056598889252170916
1761467132155424000,5.906424072265625,0.018024316990375516,0.5417009850919247,0.016937142808176577
1761467132165407200,5.9164072265625,0.19118541967868805,0.5852309147387743,0.008818426021374762
1761467132175390200,5.92639013671875,0.3124228583842516,0.6259820273220539,-0.004940817403048276
1761467132185372200,5.9363720703125,0.4404150320470333,0.6950947265148163,0.005302746050618589
1761467132195355100,5.946355224609375,0.5236562098354101,0.7317460025638342,0.05358812659624964
1761467132205338000,5.956338134765625,0.6100526367843151,0.728866647735238,0.0754290062000975
1761467132215321300,5.9663212890625,0.690813103672862,0.7522282341003418,0.12634977675061673
1761467132225303300,5.97630322265625,0.7191057166993617,0.7635901705920696,0.15290741921067236
1761467132235286300,5.986286376953125,0.7535831558406353,0.755944624274969,0.14012275643944738
1761467132245269200,5.996269287109375,0.7558990315675735,0.7550958984911441,0.1017906146313995
1761467132255251200,6.006251220703125,0.7374035899341106,0.7359756029576062,0.04495915873236954
1761467132265234200,6.016234130859375,0.722516401925683,0.7061544651895761,-0.06209631762467324
1761467132275217400,6.026217529296875,0.7104033548057079,0.6635445729970931,-0.17629085208140313
1761467132285199000,6.03619921875,0.7170528758227824,0.6700409492790699,-0.2925821761542931
1761467132295182300,6.046182373046875,0.7016939786493778,0.6985825686305761,-0.4085413456633687
1761467132305165300,6.056165283203125,0.6630494829565287,0.7110194408774375,-0.5079388546131551
1761467132315147300,6.066147216796875,0.6072387484073638,0.6811492032706737,-0.5799232733173295
1761467132325130200,6.076130126953125,0.5625345142841339,0.6360112539052963,-0.6467733248077333
1761467132335113200,6.08611328125,0.5433803164809942,0.5571861389935017,-0.7298996440447867
1761467132345095200,6.09609521484375,0.587433977741003,0.49837213097512717,-0.7625863273117691
1761467132355078100,6.106078125,0.5767606080353259,0.4724766422182321,-0.790012898093462
1761467132365061400,6.116061279296875,0.5400771832823753,0.48165948110520834,-0.7975060303278267
1761467132375044000,6.126044189453125,0.4407242441266775,0.45277182479500766,-0.7582235289923847
1761467132385026300,6.1360263671875,0.3279156110703945,0.3841746739089489,-0.6632505584865808
1761467132395009300,6.14600927734375,0.1975087774813175,0.3233586784183979,-0.5148882353596389
1761467132404992000,6.155991943359375,0.03412555696368217,0.2652405437096953,-0.3789797721469775
1761467132414974200,6.16597412109375,-0.1129085862994194,0.295569923260808,-0.25063801786154505
1761467132424957200,6.175957275390625,-0.2684200505286455,0.3496244617924094,-0.13151377191767097
1761467132434940200,6.185940185546875,-0.4058452384471893,0.3713312666878104,-0.03621978929657489
1761467132444922000,6.195922119140625,-0.4763900162696838,0.3978136154219508,0.08116970527656375
1761467132454905300,6.2059052734375,-0.4803215104997158,0.35334728170782326,0.11331482901275157
1761467132464888000,6.21588818359375,-0.37709085312783713,0.15605945350080727,0.15306513052303344
1761467132474871000,6.22587109375,-0.28752047231793404,0.036246494640409944,0.11226893668901175
1761467132484853200,6.235853271484375,-0.10934650990366936,-0.0844239578321576,0.08689082286972552
1761467132494836200,6.245836181640625,0.13178630524873733,-0.2202025475874543,0.014983232261426746
1761467132504819200,6.255819091796875,0.2840688705593347,-0.3319587489813566,-0.04152940347939729
1761467132514801200,6.26580126953125,0.37894437204003334,-0.4327975427806377,-0.1058235599419102
1761467132524784400,6.275784423828125,0.47211014699339865,-0.5329612137973309,-0.14539788383077829
1761467132534767000,6.28576708984375,0.4859574705600738,-0.5906698909223079,-0.19279197809249163
1761467132544749300,6.295749267578125,0.45560967856943607,-0.6113374158978462,-0.2215303986577317
1761467132554732300,6.305732177734375,0.40567514257729054,-0.6249179052218794,-0.22754531156569718
1761467132564715300,6.31571533203125,0.31381518952548504,-0.5888134494006634,-0.20569562760088592
1761467132574697200,6.325697265625,0.1951174984306097,-0.4844681087851524,-0.14364241846557707
1761467132584680200,6.33568017578125,0.13068740409612656,-0.3940270826205611,-0.07140307515226305
1761467132594663200,6.3456630859375,0.10793372049629688,-0.31723347353637216,-0.045892640190199015
1761467132604646100,6.355646240234375,0.052045244535803795,-0.23501959296911953,-0.02778042572066188
1761467132614628400,6.36562841796875,0.045023383074998855,-0.19363719674497842,-0.0036940687449648975
1761467132624611000,6.375611083984375,0.09235796570181846,-0.21835721198171376,0.004826104982197285
1761467132634594300,6.38559423828125,0.13133622339367865,-0.2418424247264862,-0.008309051727131008
1761467132644576300,6.395576171875,0.17319851208925247,-0.2810810869202018,-0.01547364612687379
1761467132654559200,6.405559326171875,0.2309317391335964,-0.3089098818272352,-0.03135459441300481
1761467132664542200,6.415542236328125,0.2655184838682413,-0.31979952463209627,-0.0686085490629077
1761467132674524400,6.4255244140625,0.2549041508734226,-0.33615210901796816,-0.07939948073364794
1761467132684507100,6.435507080078125,0.22002923684716225,-0.3538783198446035,-0.09531286998465657
1761467132694490000,6.445489990234375,0.18101590784192084,-0.37521395334005353,-0.10640709545090794
1761467132704472300,6.455472412109375,0.1850005935639143,-0.42271746279299255,-0.12392225734274834
1761467132714455000,6.465455078125,0.1673100385725498,-0.4639879230752587,-0.1624722066199407
1761467132724438300,6.475438232421875,0.19608488215804099,-0.475212789183855,-0.21165698369070887
1761467132734421200,6.485421142578125,0.23309680821299553,-0.497647031570971,-0.25907062290310856
1761467132744403200,6.4954033203125,0.2704752294927835,-0.5575634478732944,-0.29252730416189876
1761467132754386200,6.50538623046875,0.32685061218738554,-0.6318219855219125,-0.30332320426870135
1761467132764369200,6.515369140625,0.30684651955664155,-0.6715142367020249,-0.33832930692657825
1761467132774353200,6.525353271484375,0.28589433242082596,-0.6641337710618972,-0.3910200097590685
1761467132784336100,6.535336181640625,0.28114158493578434,-0.6556327769592404,-0.44117249935083086
1761467132794318800,6.54531884765625,0.22937165021002293,-0.6292471665978432,-0.48019463271703566
1761467132804301000,6.555301025390625,0.18100480192601678,-0.6111655664622784,-0.5263514402687549
1761467132814284000,6.565283935546875,0.1360392865180969,-0.5819184291899204,-0.564738417536579
1761467132824267000,6.57526708984375,0.07250058806538581,-0.5092068287223577,-0.5826708549924194
1761467132834250000,6.58525,-0.015403320837020873,-0.40752807696759696,-0.5968246141597628
1761467132844232200,6.595232177734375,-0.09598258593976497,-0.3358993033006787,-0.5983605915553868
1761467132854215000,6.60521484375,-0.1365887370944023,-0.3257058260664344,-0.5709071692993865
1761467132864198000,6.615197998046875,-0.14004150789678096,-0.3967971318557858,-0.5327754089016467
1761467132874180000,6.62518017578125,-0.13919161306917666,-0.5346025512635707,-0.49563985646702347
1761467132884162800,6.635162841796875,-0.1333119073808193,-0.5907169449344277,-0.49283539350554345
1761467132894146000,6.64514599609375,-0.2075613849401474,-0.5320099044218659,-0.5134790626814588
1761467132904128000,6.6551279296875,-0.34612639054358,-0.4423769797697663,-0.5054311461085453
1761467132914111000,6.665111083984375,-0.4845218847990036,-0.44336628306806086,-0.474287783293426
1761467132924094000,6.675093994140625,-0.5602607241332531,-0.37718934506624935,-0.47030488766971973
1761467132934077000,6.685076904296875,-0.6175199039250612,-0.228899648784101,-0.46631030160821973
1761467132944059000,6.695058837890625,-0.6241010358810425,-0.06461918716579676,-0.45564858580771833
1761467132954041900,6.705041748046875,-0.5809761799037456,0.09020458706021309,-0.4654806093184277
1761467132964025000,6.715025146484375,-0.5053758722573518,0.13609335479289292,-0.4455290140599012
1761467132974006800,6.7250068359375,-0.32306524842977524,0.1462877088099718,-0.4488011675983667
1761467132983990000,6.734989990234375,-0.06865501855313777,0.2064502088278532,-0.42498646717090155
1761467132993973000,6.744972900390625,0.10829320145845413,0.30499387742727996,-0.37916192378085106
1761467133003955000,6.754954833984375,0.2177911025315523,0.3174170134097338,-0.2914094791131094
1761467133013938000,6.76493798828125,0.28845103116631504,0.2975251489818096,-0.20386691433638332
1761467133023921000,6.7749208984375,0.31792554745376106,0.3041802229568362,-0.11383432284221053
1761467133033903000,6.784903076171875,0.2975853547364473,0.3527668514713645,-0.04608816276229918
1761467133043885800,6.7948857421875,0.24269056598842143,0.4689461300045252,0.010548208956047892
1761467133053869000,6.804869140625,0.18281974239349363,0.6174748957395553,0.06039090194627642
1761467133063852000,6.81485205078125,0.17289923688173292,0.758052117948234,0.11451594843082129
1761467133073834000,6.824833984375,0.18511048367917537,0.8610416600406169,0.1790369359191507
1761467133083817000,6.83481689453125,0.1985334443539381,0.9188046977013349,0.23717406758926807
1761467133093800200,6.84480029296875,0.19948621503412722,0.927482509675622,0.23613581058271227
1761467133103782000,6.854781982421875,0.22303894005715846,0.9124842625081538,0.2040280962474644
1761467133113765000,6.86476513671875,0.24673311937749384,0.882116012251377,0.17593590116389093
1761467133123748000,6.874748046875,0.28112697188854213,0.8265852636873722,0.17385807197652756
1761467133133730000,6.88472998046875,0.27921558530926704,0.7079863567918538,0.17065547654293475
1761467133143713000,6.894713134765625,0.290170694565773,0.6022586219072341,0.20920367225445805
1761467133153696000,6.904696044921875,0.31383623231351376,0.5194868151962757,0.24000147303491828
1761467133163678000,6.914677978515625,0.28387539381384846,0.5050666601777076,0.245613394632563
1761467133173661000,6.924660888671875,0.26067981166541576,0.5187427188307047,0.2527188427235931
1761467133183644200,6.93464404296875,0.12914485082924365,0.5280798714965581,0.2961377862766385
1761467133193627100,6.944627197265625,-0.04911912795603275,0.555887331354618,0.35905250761210916
1761467133203609000,6.954609130859375,-0.19319032976031303,0.5509142191171645,0.4070339367751032
1761467133213592000,6.964592041015625,-0.29371523530483246,0.5132873760342598,0.4382967977840453
1761467133223575000,6.974574951171875,-0.33010055389404297,0.45178339827954767,0.45610666830614205
1761467133233557000,6.984556884765625,-0.3580658346623182,0.41239013004601,0.45559543084837495
1761467133243540000,6.9945400390625,-0.3449427337169647,0.4123839925661683,0.4151618597816676
1761467133253523200,7.004523193359375,-0.4647270510047674,0.4219397564187646,0.3865181682951748
1761467133263505000,7.0145048828125,-0.5351584315806627,0.41912469899803395,0.3174073687985539
1761467133273488100,7.024488037109375,-0.581632013463974,0.3962567413687706,0.251607009024173
1761467133283471000,7.03447119140625,-0.5954594632863998,0.32426234925985337,0.18091463942453265
1761467133293453800,7.044453857421875,-0.48979777937531466,0.22689356965869664,0.10900851012095808
1761467133303436000,7.05443603515625,-0.37478374522924424,0.1730313388288021,0.009070866412483156
1761467133313419000,7.0644189453125,-0.2642418880611658,0.10993161631524562,-0.11470149759817867
1761467133323402000,7.074402099609375,-0.1504530117958784,0.03907061215043068,-0.22932068720776586
1761467133333384000,7.084384033203125,-0.042298342025279996,-0.02329670443534851,-0.320079802878201
1761467133343367200,7.0943671875,0.00993453403711319,-0.09336714274436235,-0.405241756128706
1761467133353350000,7.104349853515625,0.04203063099980354,-0.1413251179665327,-0.45657220345865934
1761467133363332000,7.11433203125,0.04351940825283527,-0.10338117175847292,-0.4797458295036107
1761467133373315000,7.124315185546875,0.10294950234293937,-0.01255523792952299,-0.4763424873335287
1761467133383298000,7.134298095703125,0.12643500734865665,0.032305063538253305,-0.4960802937109023
1761467133393280000,7.144280029296875,0.15778116272687912,-0.00014466916769742964,-0.5051072479164228
1761467133403263000,7.154262939453125,0.2250496953576803,-0.07147445988804102,-0.4792676905978471
1761467133413246000,7.164245849609375,0.27993396271169185,-0.10338438662886619,-0.46606399869695303
1761467133423229000,7.17422900390625,0.3152706490308046,-0.09780132579952477,-0.4741130112484097
1761467133433211100,7.184211181640625,0.3388134371817112,-0.04422521843463182,-0.44776378737464545
1761467133443193900,7.19419384765625,0.3457458667933941,-0.01946545570939779,-0.41241679885722693
1761467133453177000,7.204177001953125,0.34891046830415723,0.010140870264172553,-0.34809922498650847
1761467133463159000,7.214158935546875,0.31044249822199343,0.0487596469938755,-0.27981654687710106
1761467133473142000,7.22414208984375,0.2793926954418421,0.11560440125465392,-0.21977599273845552
1761467133483125000,7.234125,0.24897709891200065,0.16883447166085241,-0.17015921745859086
1761467133493107200,7.244107177734375,0.2365700372815132,0.2154229120954871,-0.13281637894883752
1761467133503090000,7.25408984375,0.23344401421546934,0.2065542537242174,-0.10448051130250095
1761467133513073000,7.264072998046875,0.26324001754224297,0.15558979016244412,-0.058208808666840195
1761467133523056000,7.27405615234375,0.307563727915287,0.07377718387246131,-0.033870413158833976
1761467133533037800,7.284037841796875,0.3309691534221172,0.000244037888944149,-0.004738426698744296
1761467133543021000,7.29402099609375,0.35383331165909765,-0.056547232130169864,0.015682283908873794
1761467133553004000,7.304004150390625,0.34076924742460246,-0.06727145524024963,0.011028905145078897
1761467133562986000,7.313986083984375,0.29942367607951165,-0.042589433926343914,0.03378397698439657
1761467133572969000,7.323968994140625,0.2809416784495115,-0.04160509906411171,0.0543250991012901
1761467133582952000,7.333951904296875,0.2915332150906324,-0.032249826219677924,0.05797375780194997
1761467133592934000,7.343933837890625,0.2370318095743656,-0.029449089585244653,0.06254676480591297
1761467133602916900,7.353916748046875,0.2105290025740862,-0.03604804945886135,0.06961034651659428
1761467133612900000,7.363900146484375,0.2756394803881645,-0.07105097377896308,0.053143195840343826
1761467133622883000,7.373883056640625,0.35589901201725005,-0.16154519143551588,0.036757001445814966
1761467133632865000,7.383864990234375,0.3766705818891525,-0.2683756268650293,0.027357670263946053
1761467133642848000,7.393847900390625,0.4083212731719017,-0.3741542151540518,0.011986863457038997
1761467133652831000,7.4038310546875,0.4099368916749954,-0.43198155022263524,-0.009393193702027201
1761467133662813000,7.41381298828125,0.39310675290524955,-0.4946534027129411,-0.044569867153838275
1761467133672796000,7.4237958984375,0.3511252217441797,-0.5322966124087571,-0.09488668046183883
1761467133682779100,7.433779052734375,0.27604455405771733,-0.5190905093550682,-0.13185462124459443
1761467133692760800,7.4437607421875,0.2192635131716728,-0.4578256010532379,-0.12115202544443308
1761467133702744000,7.453744140625,0.15462591356635091,-0.3930880482047796,-0.10369885940551757
1761467133712727000,7.46372705078125,0.09634557403326034,-0.32032676337659355,-0.07103197681754828
1761467133722710000,7.4737099609375,0.05746726958453655,-0.2900701568007469,-0.019353008310869335
1761467133732692000,7.48369189453125,0.045510874330997465,-0.28856442841291424,-0.010509776641801
1761467133742675000,7.493675048828125,0.0027940146327018736,-0.2982598929971456,-0.010555734675377607
1761467133752658000,7.503657958984375,-0.010299275696277617,-0.3292448138475418,0.031040085103735324
1761467133762640000,7.513639892578125,-0.009534721064567566,-0.36688100928068157,0.06991875487864017
1761467133772620000,7.5236201171875,0.019145429974794386,-0.4387111507385969,0.12270115458257495
1761467133782603000,7.53360302734375,0.05025251590013504,-0.5318973839581013,0.2179187474992126
1761467133792585000,7.5435849609375,0.023201427367329597,-0.5000263279229402,0.308282178382948
1761467133802568000,7.55356787109375,-0.1131868187189102,-0.3345084334641695,0.30933906702473757
1761467133812551000,7.563551025390625,-0.2501765378296375,-0.20720190397799013,0.2746563145697117
1761467133822534000,7.573533935546875,-0.30376842728555203,-0.2294149048298597,0.26303441196754573
1761467133832515800,7.583515869140625,-0.2754512643396854,-0.3079635408878326,0.25698497573547063
1761467133842499000,7.5934990234375,-0.22925708391964433,-0.3930827875077724,0.24315920641347766
1761467133852482000,7.60348193359375,-0.19876316145658493,-0.4192167611956596,0.21696228702459483
1761467133862464000,7.613464111328125,-0.13033786000609396,-0.41229134584665295,0.1706429093223065
1761467133872447000,7.623447021484375,-0.07784019552767277,-0.39173254194259644,0.12256013867668807
1761467133882430000,7.633429931640625,-0.058441667574644085,-0.37745267217755313,0.08579959356691688
1761467133892412000,7.643411865234375,-0.06670096187591552,-0.35329145986735816,0.06309508287105708
1761467133902395100,7.65339501953125,-0.10984919872879981,-0.2928542345613241,0.03576309503763914
1761467133912378000,7.663378173828125,-0.13996259744167328,-0.16768763971328735,0.02242949314676225
1761467133922360800,7.67336083984375,-0.1418739840209484,-0.06685995182991028,0.03730510031525045
1761467133932343000,7.683343017578125,-0.08972411006689071,0.014555179575085639,0.04713683156501502
1761467133942326000,7.693325927734375,-0.01001812066733837,0.07377718387246131,0.053007879022881385
1761467133952309000,7.70330908203125,0.042057519006729126,0.09873393047451973,0.04569722721595317
1761467133962291000,7.713291015625,0.09144669607579707,0.13702128329277038,0.03145681267846376
1761467133972274200,7.723274169921875,0.10444470933675766,0.1795838292121887,0.03583378565367311
1761467133982257000,7.7332568359375,0.10757716214358806,0.21200258225798604,0.036561003949679434
1761467133992239900,7.743239990234375,0.13919336663484572,0.2840320456802845,-0.006499919945932925
1761467134002222000,7.75322216796875,0.1729874996870756,0.40292788969576354,-0.039395167929679155
1761467134012204800,7.763204833984375,0.23034137202501295,0.5007657481133938,-0.045318201303109526
1761467134022188000,7.77318798828125,0.21963702265918253,0.5930623390167952,-0.04313661948032677
1761467134032170000,7.783169921875,0.23999182842373848,0.6502806022763252,-0.09256327901557088
1761467134042153000,7.793153076171875,0.21329262206852434,0.6699193687260151,-0.13709515224657953
1761467134052136000,7.803135986328125,0.2710428002476692,0.695654698485136,-0.19783311406485735
1761467134062118100,7.8131181640625,0.2813561044692993,0.7114566632509232,-0.24864837841428813
1761467134072100900,7.823100830078125,0.26853578586280347,0.7741869679301977,-0.2932247483741492
1761467134082083800,7.833083740234375,0.24795243203938006,0.831453161984682,-0.38154556751437485
1761467134092067000,7.843067138671875,0.21968904510736464,0.8946125057309865,-0.4830727089039981
1761467134102048800,7.853048828125,0.21581366497874258,0.9138602270364761,-0.5905743215933442
1761467134112032000,7.863031982421875,0.22976327987611292,0.9247802649796009,-0.694837463818118
1761467134122015000,7.873014892578125,0.2562929748833179,0.9105921651512384,-0.8024418792948126
1761467134131997000,7.882996826171875,0.3284031023263931,0.8531997143685818,-0.8579110338646918
1761467134141980000,7.89297998046875,0.3918547070175409,0.7544500018030404,-0.8935197420582175
1761467134151963000,7.902962890625,0.4055319347143173,0.652720396643877,-0.9377993210285901
1761467134161946000,7.912946044921875,0.41886195640861984,0.5573264242470264,-0.9491708290662616
1761467134171927800,7.922927734375,0.4424783943176269,0.5122416663736105,-0.9643271163396536
1761467134181911000,7.9329111328125,0.38537995804548264,0.4953542444586754,-0.9875221139661967
1761467134191894000,7.94289404296875,0.2717529943436384,0.4938000007539987,-0.9898223537325859
1761467134201876000,7.9528759765625,0.19874562579989433,0.4715449143260717,-1.0055060258809476
1761467134211859000,7.96285888671875,0.12157295427024364,0.44166766245663164,-1.0386153184741735
1761467134221842200,7.97284228515625,0.030139702197909353,0.42425592440664767,-1.0653290648113936
1761467134231825000,7.982824951171875,-0.06676058310866355,0.4094330338060856,-1.0697271536398678
1761467134241807000,7.99280712890625,-0.11943126606643199,0.3794669346094131,-1.0309591776978224
1761467134251790000,8.0027900390625,-0.15096096131801603,0.332517551907897,-0.9593957243520765
1761467134261772800,8.012772705078126,-0.1918359925419092,0.2533651047378778,-0.8911002598263322
1761467134271755000,8.022755126953125,-0.20863047547638416,0.26934067250490185,-0.7976858438741415
1761467134281738000,8.032738037109375,-0.2046931360274553,0.27988895452618595,-0.7440246885742992
1761467134291721000,8.042720947265625,-0.15358838721215723,0.20598025322854518,-0.7320179513730108
1761467134301703000,8.052702880859375,-0.06561550472676754,0.08071195157170295,-0.718105599746108
1761467134311686100,8.06268603515625,0.0166962832570076,-0.06690612905919552,-0.7119171203695237
1761467134321668900,8.0726689453125,0.09705810621678829,-0.16028817711174487,-0.6902597075738013
1761467134331651800,8.08265185546875,0.12263269245624542,-0.17656009747684,-0.7005554030735045
1761467134341634000,8.092634033203124,0.1588315485626459,-0.3103092272311449,-0.6779401780962944
1761467134351616800,8.10261669921875,0.20229893436729907,-0.423257561019063,-0.6493147529188543
1761467134361600000,8.11260009765625,0.24556466012001035,-0.4310854781657457,-0.6756416188303381
1761467134371582000,8.12258203125,0.28159692748785015,-0.4207335954993963,-0.7074599948301911
1761467134381565000,8.13256494140625,0.2656605226874351,-0.39852468630075455,-0.7188949234928935
1761467134391548000,8.1425478515625,0.2540589322209358,-0.37388738091140983,-0.7093589603193103
1761467134401531000,8.15253076171875,0.2591366738766432,-0.36913814055770633,-0.7019627856533974
1761467134411512800,8.162512939453125,0.247070388507843,-0.34186610275059937,-0.6745057466682046
1761467134421495800,8.172495849609374,0.26544717219769953,-0.3241632727995515,-0.6274689779441803
1761467134431479000,8.18247900390625,0.28612638761103154,-0.30396658020615575,-0.5894880607265979
1761467134441460700,8.192460693359376,0.2688356455922127,-0.31785306673943997,-0.5321308273877948
1761467134451444000,8.20244384765625,0.3318962051391601,-0.283930338871479,-0.4986897455569356
1761467134461427000,8.212427001953126,0.3957119669675827,-0.17477555214762686,-0.4831577568389475
1761467134471410000,8.222409912109375,0.5587181708663702,-0.03716828566044569,-0.4146619474355131
1761467134481391900,8.232391845703125,0.30471769083440303,0.1678708873257041,-0.2471520023766905
1761467134491374800,8.242374755859375,-0.6237509072691202,-0.03199000623971224,-0.2860161321695894
1761467134501358000,8.252358154296875,-0.1793494359344244,0.056603346231579775,-0.013323591953516005
1761467134511339800,8.26233984375,-0.1709790824741125,0.15107172821611164,-0.049319034442305565
1761467134521323000,8.272322998046874,-0.10326280607581138,0.058497489415109155,-0.08072130392193794
1761467134531306000,8.282305908203124,0.000412087932229042,-0.07131400862932205,-0.13514577174447476
1761467134541289000,8.2922890625,0.02961655510663986,-0.1571530939564109,-0.1416544960513711
1761467134551271000,8.30227099609375,0.08002689191699028,-0.16386895820796488,-0.08116291020959615
