time,seconds_elapsed,z,y,x
1761467281884324000,0.113323974609375,1.1724310837239027,0.10307371324449777,-0.9004425270587205
1761467281894307000,0.12330712890625,1.4095669381946325,-0.07226794835329055,-0.9390215562999248
1761467281904290300,0.133290283203125,1.4945575899988413,-0.2671811563834548,-0.8221230235815048
1761467281914273000,0.14327294921875,1.636419299060106,-0.48466830753237006,-0.660016398870945
1761467281924255000,0.1532548828125,1.7581068196207283,-0.672243135498464,-0.44492169581651686
1761467281934236700,0.163236572265625,1.7793050904721022,-0.7821496173724531,-0.19074059852063655
1761467281944220000,0.173219970703125,1.7443915980011224,-0.7977800249636173,0.08858838403522967
1761467281954203000,0.183202880859375,1.6645628590047359,-0.6372039708212017,0.45749593070745465
1761467281964185900,0.193185791015625,1.5407622918128967,-0.47286885640621185,0.7854138798654079
1761467281974168800,0.2031689453125,1.3825462448000907,-0.3173471630439162,1.0445219121694564
1761467281984151800,0.21315185546875,1.1250579226523638,-0.15047493136674164,1.2457149311214684
1761467281994134800,0.223134765625,0.9146540077626705,0.051827510131895536,1.4324790272265673
1761467282004118000,0.233117919921875,0.7301824065089225,0.2402154080465436,1.525867505019903
1761467282014100700,0.243100830078125,0.5345581275999546,0.314592895899713,1.5214561183184385
1761467282024084000,0.253083984375,0.4137047197759151,0.34646921263188124,1.4501777655243873
1761467282034067000,0.26306689453125,0.3523831128507852,0.32673078519999976,1.3316221132487058
1761467282044050000,0.2730498046875,0.33828619843721386,0.268762288095057,1.117854859405756
1761467282054033000,0.283032958984375,0.3247346429467201,0.2497863694682717,0.9399433473199605
1761467282064016000,0.293015869140625,0.36371465420424937,0.18532441869080066,0.6778957544326781
1761467282073998800,0.302998779296875,0.43245267486572264,0.0782002610117197,0.3866775966405868
1761467282083982000,0.312982177734375,0.6327285789728164,-0.014486205992102623,0.18997019867002962
1761467282093964800,0.32296484375,0.7185445756852626,-0.15027356357574462,0.04152209695577621
1761467282103947800,0.33294775390625,0.6423287664890289,-0.25758272243291136,-0.10748773029446601
1761467282113931000,0.342930908203125,0.6308136852622032,-0.3442021444827318,-0.173654439163208
1761467282123913700,0.352913818359375,0.6571995878845452,-0.4928720722541213,-0.207804546046257
1761467282133896700,0.362896728515625,0.6822890209555625,-0.6317986046463251,-0.28497195687890053
1761467282143880000,0.3728798828125,0.7394815652519464,-0.647699645872414,-0.33748072727322576
1761467282153863000,0.38286279296875,0.7275801150560378,-0.6228481132104993,-0.31484277900755403
1761467282163846000,0.392845947265625,0.595425561016798,-0.5347445900827646,-0.29699381858408447
1761467282173828900,0.402828857421875,0.4577496132075786,-0.5282528899759054,-0.28789105919599534
1761467282183811800,0.412811767578125,0.3732452836155891,-0.5202519543498754,-0.22841946405172348
1761467282193795000,0.422795166015625,0.3908709566771984,-0.45255379813015456,-0.12133856099247932
1761467282203776800,0.43277685546875,0.30737083569169044,-0.4574737188756466,-0.031626141363382335
1761467282213760000,0.442760009765625,0.14441548519730568,-0.5044777543738485,0.0730547148168087
1761467282223743000,0.452742919921875,0.13830956953763962,-0.5482213267713785,0.18075871821045875
1761467282233725700,0.4627255859375,0.12306348508894442,-0.6179851833492517,0.20443536187410352
1761467282243709000,0.472708984375,0.022147534400224683,-0.6909422830104828,0.19613164390921592
1761467282253692000,0.48269189453125,0.029586159968376158,-0.6856295635551214,0.21211481046080588
1761467282263675000,0.4926748046875,0.025325579914450645,-0.7176724690258502,0.1876280194580555
1761467282273657900,0.502657958984375,-0.05709609818458557,-0.7933280139908194,0.054420156973600385
1761467282283640800,0.512640869140625,-0.08705284503102302,-0.7754100799843668,-0.03105097182393074
1761467282293623800,0.522623779296875,-0.15763970842957495,-0.7180354571193456,-0.05937105737924576
1761467282303607000,0.53260693359375,-0.1945727240294218,-0.6720984663307666,-0.1132177983790636
1761467282313589800,0.54258984375,-0.2133820539176464,-0.635629561111331,-0.18773849409520624
1761467282323573000,0.552572998046875,-0.29511458070874214,-0.6296592545300722,-0.21804946120679378
1761467282333556000,0.562555908203125,-0.42776773191988465,-0.6003358371511102,-0.24353812272846698
1761467282343538700,0.57253857421875,-0.42399055146872994,-0.5764271382972598,-0.26740064435303207
1761467282353522000,0.58252197265625,-0.38884266571998594,-0.5919111231550575,-0.3269786224812269
1761467282363505000,0.5925048828125,-0.4114996109470725,-0.5662818841189146,-0.3439619059860706
1761467282373487900,0.60248779296875,-0.40650107200741764,-0.5234226933404803,-0.36440672812163827
1761467282383470800,0.612470947265625,-0.4526373847603798,-0.44977088941335674,-0.40524785707592964
1761467282393453800,0.622453857421875,-0.5655559079319238,-0.38392245271354913,-0.4006044151842594
1761467282403436800,0.632436767578125,-0.6002905367046594,-0.36053923903852697,-0.3833417302161455
1761467282413420000,0.642419921875,-0.5509300012081861,-0.3774994339287281,-0.3897328925579786
1761467282423402800,0.65240283203125,-0.4301923287183046,-0.4008849856913089,-0.40457741046845913
1761467282433385700,0.6623857421875,-0.3227566208720207,-0.5223784449845552,-0.3751426416695118
1761467282443369000,0.672368896484375,-0.28096272123754024,-0.6523430877640843,-0.4270078534632921
1761467282453352000,0.68235205078125,-0.31863077311366794,-0.7201070026963948,-0.4050649017244577
1761467282463334000,0.692333984375,-0.3798258310496807,-0.747302175875008,-0.3027840924233198
1761467282473316900,0.70231689453125,-0.44349137075245376,-0.7320178052425385,-0.2035387052953243
1761467282483300000,0.712300048828125,-0.5183291695937514,-0.7325672558188437,-0.15224223330020903
1761467282493282800,0.72228271484375,-0.5806494321674108,-0.7294529231905936,-0.07155073999464512
1761467282503265800,0.732265869140625,-0.6252011060774326,-0.7379375506803393,-0.06354512819349765
1761467282513249000,0.7422490234375,-0.6728367174774408,-0.7628276617869735,-0.09956395155787467
1761467282523232000,0.75223193359375,-0.6920759632155299,-0.7885489630207418,-0.12625614365041254
1761467282533214700,0.762214599609375,-0.6812441880777478,-0.7806623014241456,-0.1733972495317459
1761467282543198000,0.772197998046875,-0.5355149899333715,-0.7332952778324484,-0.14303425997197627
1761467282553181000,0.782180908203125,-0.39780397081077096,-0.7222413843765855,-0.1770575256049633
1761467282563163600,0.79216357421875,-0.3475903256163001,-0.7452513808250427,-0.279342426559329
1761467282573147000,0.80214697265625,-0.41898470600545407,-0.7322118665099143,-0.3223684983372688
1761467282583129900,0.8121298828125,-0.5772971991300583,-0.7440063492000103,-0.3241851923704147
1761467282593112800,0.82211279296875,-0.8200333578258753,-0.9653902155265212,-0.36751989170610905
1761467282603095800,0.832095703125,-0.9320289209336042,-0.9965630601644515,-0.3383762148082256
1761467282613078800,0.842078857421875,-0.8698568346589803,-0.9653349782079458,-0.19617957470417022
1761467282623062000,0.85206201171875,-0.8095563874751329,-0.8514183839097619,-0.0349433030873537
1761467282633045000,0.862044921875,-0.8008587017565966,-0.7084253327310085,0.15951777726113794
1761467282643027700,0.87202783203125,-0.6478086592048407,-0.47004035498201846,0.3278250101774931
1761467282653011000,0.882010986328125,-0.446413395678997,-0.31023762329965826,0.4461661429196596
1761467282662994000,0.891993896484375,-0.237376092967391,-0.13187427579313515,0.4883727150082588
1761467282672977000,0.901976806640625,-0.019027941074967383,-0.04547609527856111,0.7412082429140806
1761467282682960000,0.9119599609375,0.1386579445838928,0.05810118357390165,0.9889157602816819
1761467282692942800,0.92194287109375,0.18334493531137705,-0.030472002892196176,1.2600848172575234
1761467282702925800,0.93192578125,0.007301847445964813,-0.16005027670264244,1.5801590671777723
1761467282712907800,0.94190771484375,-0.2755833662867546,-0.18584493543356656,1.826053397643566
1761467282722890800,0.951890869140625,-0.3281125949472189,-0.21070172879248855,1.9937375302255151
1761467282732874000,0.9618740234375,-0.11949965512752532,-0.19368541980087756,2.0296330194711683
1761467282742857000,0.97185693359375,0.07569850732386112,-0.15569704992920158,1.8920511796861885
1761467282752839700,0.981839599609375,0.3631748482391238,-0.1310746498480439,1.5200491741299629
1761467282762823000,0.991822998046875,0.7696241900593042,-0.09234189134985207,1.1265163047671318
1761467282772806000,1.001805908203125,1.0345388628154992,-0.04589607425630093,0.7492956877797842
1761467282782788900,1.011788818359375,1.1937824993103743,0.02148410205543041,0.4280395345985889
1761467282792771800,1.021771728515625,1.4223042546927929,0.14290946454852818,0.15035364307463167
1761467282802754800,1.0317548828125,1.7147826416790484,0.2828109794527292,-0.07499708105623722
1761467282812738000,1.041738037109375,1.9233979195863007,0.4674626134485006,-0.2715378902882337
1761467282822720800,1.051720703125,1.9418004222393035,0.6026958442807198,-0.4261579586356878
1761467282832703700,1.061703857421875,1.86836284558475,0.7731623010575771,-0.5072732303112745
1761467282842687000,1.07168701171875,1.6916431736320257,0.9683680622935295,-0.5294780478566885
1761467282852670000,1.081669921875,1.3946563693106173,1.0774293255150318,-0.49733226653337476
1761467282862652700,1.091652587890625,1.0257540833353995,1.12440296587497,-0.3943184667825699
1761467282872636000,1.101635986328125,0.6935363911569118,1.1091764629095793,-0.22580665120482443
1761467282882619000,1.111618896484375,0.46621407469213005,1.0659425935998559,-0.007975216662883759
1761467282892601900,1.121601806640625,0.2228413716584444,0.8790697764232754,0.17385726825892925
1761467282902584800,1.131584716796875,-0.02635609200596809,0.7038131627604365,0.33426936401128765
1761467282912567800,1.14156787109375,-0.15585457857847212,0.5213502709805965,0.48778468598723407
1761467282922551600,1.151551513671875,-0.15800912626385688,0.3671867142289877,0.5828115786373614
1761467282932534800,1.16153466796875,-0.11798223630189895,0.2143906464383006,0.6349000777930021
1761467282942517800,1.171517822265625,-0.13313129011690616,0.09898176775574684,0.6656020900487899
1761467282952500700,1.181500732421875,-0.14961480740606783,-0.034221710814535615,0.6416559817939996
1761467282962483700,1.191483642578125,-0.09978723891973496,-0.10006021064221858,0.43060733925998207
1761467282972465700,1.201465576171875,0.08666004632115364,-0.19628654220998287,0.2178653368115425
1761467282982449000,1.211448974609375,0.38823768556416033,-0.2423676176443696,0.10519289735555648
1761467282992431600,1.221431640625,0.6289309402555227,-0.2525117027789354,-0.06730477298796177
1761467283002414600,1.23141455078125,0.8487655313134193,-0.23689590823501347,-0.2195733097732067
1761467283012397800,1.241397705078125,1.028200307443738,-0.16917027948647737,-0.3036252194225788
1761467283022380800,1.251380859375,0.973372738713026,-0.0960509750008583,-0.3452595445811748
1761467283032363800,1.26136376953125,0.8240648052990436,-0.0004363455906510353,-0.33243513432145116
1761467283042346800,1.2713466796875,0.6793155581027269,0.053149406385421746,-0.34725802492201324
1761467283052329700,1.281329833984375,0.5249269604235888,0.054039633223414416,-0.4081085072040558
1761467283062313000,1.29131298828125,0.4519570012807846,0.03566840249150991,-0.4320563690245151
1761467283072295700,1.301295654296875,0.29271336478590965,0.04562982453554868,-0.43324937820136544
1761467283082278700,1.311278564453125,0.05387187544107437,-0.027788170635700223,-0.4485580064922571
1761467283092262000,1.321261962890625,0.023843232402205466,-0.030795243497192856,-0.500989035475254
1761467283102244900,1.331244873046875,0.07404255681037902,-0.08121756300628184,-0.5373515577107668
1761467283112227600,1.3412275390625,0.04954115276038647,-0.158100311678648,-0.6146370419651269
1761467283122210800,1.3512109375,0.014879589223861693,-0.2160176631182432,-0.6359644921541213
1761467283132193800,1.36119384765625,-0.07782149082720279,-0.21926468221545217,-0.6078606796979904
1761467283142176800,1.3711767578125,-0.16628361813426018,-0.2730141003206372,-0.5708095906764269
1761467283152159700,1.38115966796875,-0.23298574905395505,-0.3867152983024716,-0.5678665229618549
1761467283162142700,1.391142822265625,-0.28439503377377984,-0.4628215096443891,-0.5195815077424049
1761467283172125700,1.401125732421875,-0.3439373560667038,-0.5095546192467212,-0.419777317687869
1761467283182108700,1.411108642578125,-0.4129512710601091,-0.6269602247044443,-0.3951712842196226
1761467283192091600,1.421091552734375,-0.4106266275048256,-0.7432800807520746,-0.4046165734350681
1761467283202075000,1.431074951171875,-0.24386954663991928,-0.8475047175973653,-0.41890696459412574
1761467283212057900,1.441057861328125,-0.12375497448444366,-0.8631000538751482,-0.5141805254817009
1761467283222039800,1.451039794921875,-0.11744038451015948,-0.8507260177314281,-0.5951607726007699
1761467283232022800,1.461022705078125,-0.1508019713640213,-0.8459566113725304,-0.6800666687309742
1761467283242005800,1.471005859375,-0.1883943276554346,-0.8081935746893286,-0.7610732193350791
1761467283251988700,1.48098876953125,-0.2588783152014017,-0.7919698773801326,-0.7764572509497404
1761467283261971700,1.4909716796875,-0.2714104645162821,-0.7076125550433993,-0.7462719560444354
1761467283271954700,1.50095458984375,-0.27595219959914685,-0.5851850297704339,-0.7073767004609107
1761467283281938000,1.51093798828125,-0.37297406545877454,-0.4322416624635458,-0.6076350542485713
1761467283291920600,1.520920654296875,-0.46644496083855624,-0.3736322371065616,-0.5473544808089733
1761467283301903600,1.530903564453125,-0.4622819959402084,-0.35619010391831396,-0.45473406477868555
1761467283311886800,1.540886962890625,-0.4319757050037384,-0.3201522835925221,-0.3293178790837526
1761467283321869800,1.550869873046875,-0.3549062015876174,-0.3044523178964853,-0.17563479932546613
1761467283331852800,1.560852783203125,-0.28369769915938375,-0.28433745836764573,-0.08891045559644699
1761467283341835800,1.570835693359375,-0.25895488756895063,-0.2561848383337259,-0.0654343029409647
1761467283351818800,1.58081884765625,-0.3927133696734905,-0.234343593403697,-0.0996849475890398
1761467283361802000,1.590802001953125,-0.6489332793205976,-0.2263356435149908,-0.09667465985715389
1761467283371784700,1.60078466796875,-0.7439312381371855,-0.24554215602725743,-0.10129062922000884
1761467283381767700,1.610767578125,-0.7293424485534429,-0.32131577441394327,-0.10090835190415381
1761467283391751000,1.6207509765625,-0.668636343178153,-0.427586237873137,-0.10783961247205734
1761467283401733600,1.630733642578125,-0.5737865606606006,-0.5404112375423312,-0.13557634518146514
1761467283411716600,1.640716552734375,-0.5621498988807201,-0.6402618970870971,-0.17312427780926226
1761467283421699800,1.650699951171875,-0.6293371829688549,-0.7227990182593464,-0.1698719980150461
1761467283431682800,1.660682861328125,-0.7045917459174991,-0.7806684389039874,-0.1984369982421398
1761467283441665500,1.67066552734375,-0.6949287222981453,-0.809811823540926,-0.196241534024477
1761467283451648800,1.680648681640625,-0.6566515986129641,-0.8116010450452565,-0.21288813292086123
1761467283461631700,1.6906318359375,-0.6414858859241008,-0.8363736672520637,-0.1960398739725351
1761467283471614700,1.70061474609375,-0.6343377677351236,-0.8595277483463287,-0.14840718518197535
1761467283481596700,1.7105966796875,-0.652418198826909,-0.8610460439547896,-0.10297346774041652
1761467283491579600,1.72057958984375,-0.7346431853100657,-0.8591229669377207,-0.09739069917201995
1761467283501563000,1.73056298828125,-0.8887637797027825,-0.8668421630129217,-0.1527542744755745
1761467283511545600,1.740545654296875,-0.9781541277706622,-0.944731750640273,-0.21737433842420575
1761467283521528800,1.75052880859375,-1.0718360355526209,-0.9833832605957984,-0.2784679818123579
1761467283531511800,1.76051171875,-1.1716659445703028,-1.0255196900576353,-0.35492636759281154
1761467283541494800,1.770494873046875,-1.186628828163445,-0.9480626486286521,-0.392199574932456
1761467283551477800,1.780477783203125,-1.150809619024396,-0.7252171853169799,-0.35772681196629996
1761467283561460700,1.790460693359375,-1.2681269616767763,-0.5361664395794272,-0.2580114692389965
1761467283571443700,1.800443603515625,-1.4123524772599338,-0.436278955155611,-0.14235563005805016
1761467283581427000,1.810427001953125,-1.331608669245243,-0.26425240945518014,0.04470540316700935
1761467283591409700,1.82040966796875,-1.119807454778254,-0.056121700194478034,0.3331885830372572
1761467283601392600,1.830392578125,-0.8647536663010716,0.19282588036209344,0.558802342018485
1761467283611375900,1.8403759765625,-0.6911316681027412,0.3675771748512983,0.7903548433989286
1761467283621358600,1.850358642578125,-0.5923088903009891,0.6289540288701653,1.0607651909619569
1761467283631341600,1.860341552734375,-0.48519583853781223,0.9662877488881348,1.351655431973934
1761467283641324800,1.87032470703125,-0.33859044208079575,1.2139537652015686,1.5627449910402298
1761467283651307800,1.880307861328125,-0.1834893122181296,1.4570365453779697,1.6230489453554153
1761467283661290800,1.890290771484375,-0.14583236625790594,1.5966487219467758,1.5622960782289503
1761467283671273700,1.900273681640625,-0.16898878543972967,1.6011384345814585,1.260307520097494
1761467283681256700,1.910256591796875,0.015527823999524116,1.4284832355886696,0.7522913624644278
1761467283691240000,1.920239990234375,0.35287294219434256,1.1549798904463648,0.3468839309126138
1761467283701222700,1.93022265625,0.6280699395120144,0.9695824065193533,-0.012408230674266815
1761467283711205600,1.94020556640625,0.9623436874374747,0.7242679217681288,-0.3340197731643915
1761467283721188900,1.95018896484375,1.326752169124782,0.40849253808557984,-0.6612029783070087
1761467283731170600,1.960170654296875,1.6585501745864748,0.0845940537020564,-1.0071884990751743
1761467283741153800,1.97015380859375,1.950952865988016,-0.22947335701882837,-1.2518243539124727
1761467283751136800,1.98013671875,2.2232687549114227,-0.5061509482830763,-1.2573358108103274
1761467283761119700,1.99011962890625,2.286295704449713,-0.6306482655674219,-1.1147937182694674
1761467283771102700,2.000102783203125,2.0995050125986334,-0.6657970280990004,-0.8673457286208868
1761467283781085700,2.010085693359375,1.8639511666223405,-0.6387661055713891,-0.543132479199767
1761467283791068700,2.020068603515625,1.723424213296175,-0.495455659006536,-0.1760287670791149
1761467283801052000,2.030052001953125,1.5501190259620545,-0.2519546534180641,0.2140092459052801
1761467283811034600,2.04003466796875,1.3688561576217413,0.08958265576958656,0.6501712966829538
1761467283821017900,2.050017822265625,1.1085609613597391,0.3057125470906496,1.046840710505843
1761467283831000800,2.060000732421875,0.7686462849378586,0.3652648062556982,1.2145879714518786
1761467283840983800,2.06998388671875,0.564084081813693,0.5329965773716568,1.4183920496851206
1761467283850966800,2.079966796875,0.45371816573441026,0.5652405583724379,1.5181722743421793
1761467283860949800,2.08994970703125,0.3313619521319866,0.35818916878104207,1.3451292450755834
1761467283870932700,2.0999326171875,0.329662162476778,0.2665332138687372,1.2320400415122508
1761467283880915700,2.109915771484375,0.36969431313574314,0.24906740754395723,1.2519459344655275
1761467283890898700,2.119898681640625,0.2958352961987257,0.1819432518199086,1.2146721426039933
1761467283900881700,2.129881591796875,0.363278893135488,0.057198681776225564,1.0597989762783049
1761467283910865000,2.139864990234375,0.5166939696073531,-0.06599018325805664,0.8929764289617538
1761467283920847400,2.149847412109375,0.6508592789471149,-0.16153437778055668,0.7400093885183334
1761467283930830600,2.15983056640625,0.6951502560943364,-0.2669564077168703,0.49948038447797294
1761467283940813600,2.1698134765625,0.7556856810778378,-0.3678972005859017,0.2749386386424303
1761467283950796500,2.179796630859375,0.8050035464763641,-0.4391965961679816,0.1157189675450325
1761467283960779500,2.189779541015625,0.9094748515591025,-0.47117812684029337,-0.023235329636931416
1761467283970762500,2.199762451171875,0.9601669279202818,-0.5177449399650097,-0.12633622314929963
1761467283980745500,2.209745361328125,0.9178098414450884,-0.5407034984871745,-0.2717354586869478
1761467283990727400,2.2197275390625,0.7808341508597135,-0.5512456430286169,-0.431221087244153
1761467284000710400,2.22971044921875,0.7058008294463157,-0.5386404284775257,-0.5125596462816
1761467284010693600,2.239693603515625,0.742628631106019,-0.5595101980268955,-0.5852823526650667
1761467284020676600,2.249676513671875,0.7578373061537742,-0.6348936480522155,-0.7024445047557354
1761467284030659300,2.259659423828125,0.7315528180792927,-0.7071081126525998,-0.6787193457752466
1761467284040642600,2.269642578125,0.62355538469702,-0.7805991730600595,-0.5530892250686884
1761467284050625500,2.27962548828125,0.42790743265151976,-0.8070283303022384,-0.4225333383977413
1761467284060608500,2.2896083984375,0.33201194047331806,-0.7781573328658938,-0.20145313119292257
1761467284070591500,2.299591552734375,0.26505846514105796,-0.7500324776217341,0.024686697489023208
1761467284080574500,2.309574462890625,0.1685413339331746,-0.6525801113903522,0.21458266187906264
1761467284090557700,2.3195576171875,0.09178133485764264,-0.6055678925856948,0.2968962034285068
1761467284100540400,2.32954052734375,-0.004861468556523323,-0.5382116816714406,0.3556237022072077
1761467284110523400,2.3395234375,-0.10107552516460418,-0.5230480148091912,0.36034839264154434
1761467284120506600,2.349506591796875,-0.13191957623958586,-0.4751753797829151,0.3048363487780094
1761467284130489600,2.359489501953125,-0.1510275968134403,-0.3882110898181796,0.24409984826445577
1761467284140472300,2.369472412109375,-0.20809037725031374,-0.32322277707904573,0.1587970617711544
1761467284150455600,2.37945556640625,-0.2959828879758715,-0.2773161814287305,0.09143442111611366
1761467284160438500,2.3894384765625,-0.3677952015161514,-0.24933687213510272,0.06223346107304096
1761467284170421500,2.39942138671875,-0.4396878868162632,-0.26414924134165046,-0.04631166931986808
1761467284180404500,2.409404541015625,-0.45341421435177326,-0.27556086219400167,-0.1772095012962818
1761467284190387500,2.419387451171875,-0.42571664460897446,-0.28151334085762497,-0.3119529027849436
1761467284200370400,2.429370361328125,-0.4488450067400932,-0.2940302926033735,-0.4483136763423681
1761467284210353700,2.439353759765625,-0.5006929751381278,-0.3169669315546751,-0.6072556995421647
1761467284220336400,2.44933642578125,-0.4832034956768155,-0.32978871146589517,-0.6992308034062386
1761467284230319600,2.459319580078125,-0.4790931377485394,-0.3973912983566522,-0.7207669279098511
1761467284240302600,2.469302490234375,-0.4323889619797468,-0.48014673845469946,-0.7010586033552885
1761467284250284500,2.479284423828125,-0.3290279562264681,-0.5670198430046439,-0.5947071836143731
1761467284260267500,2.489267578125,-0.20096417863219976,-0.6806500215768814,-0.48189095177352426
1761467284270250500,2.49925048828125,-0.13201660687327385,-0.8308394140005111,-0.40288580411970615
1761467284280233500,2.5092333984375,-0.12724720051437616,-0.9156845198541879,-0.3362397873014211
1761467284290216400,2.519216552734375,-0.23024901756644248,-0.977440426543355,-0.24507015460133552
1761467284300199400,2.529199462890625,-0.3700435649648309,-0.9684288525700568,-0.13670096529722212
1761467284310182700,2.5391826171875,-0.4262871379733085,-0.9285682590857147,-0.11558628107607365
1761467284320165400,2.549165283203125,-0.4098714252233505,-0.8642784500047564,-0.15485563066899777
1761467284330148400,2.5591484375,-0.42613457776010033,-0.8410293841034173,-0.20956395693421362
1761467284340131600,2.569131591796875,-0.48641193632930513,-0.8271399749606847,-0.23526129277050495
1761467284350114600,2.579114501953125,-0.5206663803696632,-0.8200392030447721,-0.23143150534927845
1761467284360097500,2.58909765625,-0.572618393664062,-0.8682257263258099,-0.13679215071201323
1761467284370080500,2.59908056640625,-0.6013461832374334,-0.8659723944410681,0.008804068702459335
1761467284380063500,2.6090634765625,-0.7027040324747562,-0.8977832447215914,0.06329787543416023
1761467284390046700,2.619046630859375,-0.6818482914507389,-0.9658435122519731,0.014058335968852042
1761467284400029400,2.629029541015625,-0.5914496431231498,-0.9841796716704964,-0.09140577954351901
1761467284410012400,2.639012451171875,-0.503089222624898,-0.923491394212842,-0.12914952700436114
1761467284419995600,2.64899560546875,-0.48589141958653925,-0.8529144676864147,-0.12376958753168582
1761467284429978600,2.658978515625,-0.46414428268074986,-0.7312532506108284,0.023752046987414357
1761467284439961300,2.66896142578125,-0.2183446447610855,-0.48441842442452904,0.27571313014626503
1761467284449944600,2.678944580078125,0.05528934102356434,-0.1415270702794194,0.5527238988876343
1761467284459927600,2.688927490234375,0.06786357591450214,0.1699380489885807,0.7356038470357656
1761467284469910300,2.69891015625,-0.08491817108988761,0.36803193288147446,0.8476479254603385
1761467284479893500,2.7088935546875,-0.17374445553421974,0.4790756020918488,1.0009440517276524
1761467284489876500,2.71887646484375,-0.08716916488707065,0.5639493495181203,1.1712141091495751
1761467284499859500,2.728859375,0.11382219401299953,0.48865737716853613,1.3271984515875577
1761467284509841400,2.73884130859375,0.27172084563970567,0.33836043271720406,1.4168909974724053
1761467284519824400,2.748824462890625,0.19141689034700393,0.20810382125377655,1.4521189627200364
1761467284529807600,2.7588076171875,0.021698621588945387,0.09297434403449296,1.4328215570539236
1761467284539790300,2.768790283203125,-0.03218085263669491,0.00540098226070404,1.402697052425146
1761467284549773600,2.778773681640625,0.19696575664579868,0.02368307340443134,1.3473621186941862
1761467284559756500,2.788756591796875,0.4889613285511732,0.06958353157490492,1.1803519398510456
1761467284569739500,2.798739501953125,0.6614461394131184,0.0921624431297183,0.9812532628297805
1761467284579722500,2.808722412109375,0.7991150729596614,0.1042769515544176,0.8226882562488317
1761467284589705500,2.81870556640625,0.9925801280081271,0.07732990791797638,0.6620294922590255
1761467284599688400,2.8286884765625,1.2634697835206985,0.048481414574384686,0.5105687647253274
1761467284609671700,2.838671630859375,1.528840383350849,0.03479717261493206,0.3390139281898737
1761467284619654400,2.848654296875,1.7746534652739763,0.04871259298175573,0.1338444068223238
1761467284629637400,2.858637451171875,2.003545807534456,0.11840806049853562,-0.02778174089491367
1761467284639620600,2.86862060546875,1.9805694210946558,0.2472013214111328,-0.18458032232522964
1761467284649603600,2.878603515625,1.8138205235362053,0.4051423508748412,-0.35021336759626864
1761467284659586300,2.88858642578125,1.6568278808385133,0.6155298991516233,-0.4727005141019821
1761467284669569500,2.898569580078125,1.4601052852988243,0.7660790647983551,-0.5654951176553964
1761467284679552500,2.908552490234375,1.2731360220104455,0.9325190425381064,-0.5822925231993198
1761467284689535700,2.91853564453125,1.0652116489768029,1.0202388270452618,-0.5015910930216312
1761467284699518500,2.9285185546875,0.8021563403517007,1.0747799800500273,-0.4107341795325279
1761467284709501400,2.93850146484375,0.6494587644994259,1.1037456700325012,-0.20550211432278154
1761467284719484700,2.948484619140625,0.5076327112734318,1.1150079455420374,0.043672552987933155
1761467284729467400,2.95846728515625,0.28648586857318875,1.0781053250804542,0.23597616304159164
1761467284739450400,2.968450439453125,0.15392799443006513,0.9658516955584288,0.36356384755671023
1761467284749433600,2.97843359375,0.012306523865461348,0.8457482293188572,0.49057870061993597
1761467284759415300,2.988415283203125,-0.106655955645442,0.6809571878299117,0.505183564555645
1761467284769398500,2.9983984375,-0.1416512811809778,0.4893246089056134,0.47843642740547654
1761467284779381500,3.008381591796875,-0.09052841218709945,0.34694413666725155,0.4936363346248865
1761467284789364500,3.018364501953125,-0.026366028878092765,0.2083303234860301,0.44253217033147807
1761467284799347500,3.028347412109375,0.0349959100574255,0.12275778014063835,0.3811749075710773
1761467284809330400,3.038330322265625,0.12601356706619263,0.050206630931794644,0.2511830845236778
1761467284819313400,3.0483134765625,0.3966676602572202,-0.028219547790288922,0.06250818636119365
1761467284829296600,3.058296630859375,0.6097855102807282,0.04604132794588804,-0.07431085235774516
1761467284839279400,3.068279296875,0.5717652839660644,0.12631167322993278,-0.22421032192409038
1761467284849262600,3.0782626953125,0.4866197338610887,0.18610621671825647,-0.32455753281414507
1761467284859245600,3.08824560546875,0.4201274462997913,0.18141776664108036,-0.3797843299955129
1761467284869228500,3.098228515625,0.39087212572097774,0.21999971849173305,-0.44330490826964375
1761467284879211500,3.10821142578125,0.5093880305081606,0.23143881187289952,-0.5252817652106285
1761467284889194500,3.118194580078125,0.5096528189241886,0.2019251326188445,-0.6460632768422365
1761467284899177500,3.128177490234375,0.3520616258114576,0.15243600230664014,-0.7178302899360657
1761467284909160700,3.13816064453125,0.297625102224946,0.11541676972806453,-0.7412959211975335
1761467284919143400,3.148143310546875,0.24748832165896892,0.11492138742655515,-0.7355255211025477
1761467284929127200,3.158127197265625,0.14002806389331818,0.10927169110178947,-0.7292886725395917
1761467284939110100,3.168110107421875,0.047581250864267344,0.03749854052811861,-0.7383803260117768
1761467284949093000,3.178093017578125,-0.019317279410362244,-0.024360534274578093,-0.7222042672365904
1761467284959076000,3.188076171875,-0.08980126695632934,-0.059418111391365526,-0.6437889021694659
1761467284969059300,3.198059326171875,-0.09703472534120082,-0.14311492399275302,-0.570825957289338
1761467284979042000,3.2080419921875,-0.1886380732834339,-0.20683950040638446,-0.46516135076880455
1761467284989025000,3.21802490234375,-0.3119640087008476,-0.2807595998808741,-0.369250661021471
1761467284999008300,3.22800830078125,-0.40568157231807705,-0.34623248126655815,-0.3601537468522787
1761467285008991200,3.2379912109375,-0.4733662845343351,-0.43111470426023,-0.39692777249813077
1761467285018973200,3.24797314453125,-0.4886351653367281,-0.521380958379805,-0.44511809517145157
1761467285028956200,3.2579560546875,-0.402999785888195,-0.5493824795052409,-0.5058388135939836
1761467285038939100,3.267939208984375,-0.32153497012257576,-0.5350388968542218,-0.5883616139799356
1761467285048922000,3.277922119140625,-0.26231822652220727,-0.5239177833810449,-0.6366343542397022
1761467285058905000,3.287905029296875,-0.3027151188403368,-0.4644631393715739,-0.7156389173716307
1761467285068888000,3.29788818359375,-0.45542204704284667,-0.46112055094540116,-0.7894599403858185
1761467285078871000,3.30787109375,-0.5528314509153366,-0.3754273038297891,-0.8020634013712405
1761467285088854000,3.31785400390625,-0.5178723657369614,-0.2673898306980729,-0.7642308065831661
1761467285098837200,3.327837158203125,-0.4831330607891082,-0.2138417803838849,-0.7510977687656879
1761467285108820200,3.3378203125,-0.45184068142473693,-0.12079290980845689,-0.7090665532439947
1761467285118803000,3.347802978515625,-0.4487678498506546,-0.01713496693521738,-0.6169079095065594
1761467285128786200,3.3577861328125,-0.4916436995029449,0.05131020825952291,-0.5831698905557394
1761467285138769200,3.36776904296875,-0.5028834709197283,0.08012742968201637,-0.6056050097256899
1761467285148752100,3.377752197265625,-0.40678865677714343,0.09464519985616207,-0.6268067877084016
1761467285158735000,3.387735107421875,-0.2898515456140041,0.1607540410578251,-0.6279261471271514
1761467285168718000,3.397718017578125,-0.21947043392062185,0.17292320227921007,-0.6576666208744049
1761467285178701000,3.407701171875,-0.19389935481250284,0.15810469559282064,-0.7119564294666051
1761467285188684300,3.417684326171875,-0.1533107393145561,0.15447890631109476,-0.7408452548205852
1761467285198667000,3.4276669921875,-0.07300853758752346,0.1494835822418332,-0.731546680599451
1761467285208650200,3.437650146484375,-0.06398118152320384,0.1589882004290819,-0.7354232297718525
1761467285218633200,3.44763330078125,-0.14255845915377138,0.11146657079756259,-0.7011614792078733
1761467285228616200,3.4576162109375,-0.3418547045737505,0.007311199796199798,-0.6467594424128532
1761467285238599200,3.46759912109375,-0.5006617032170295,-0.10342851803153753,-0.578963086515665
1761467285248582100,3.47758203125,-0.5810410618335008,-0.28546996952891346,-0.4179804973989725
1761467285258565000,3.487565185546875,-0.6123123984098434,-0.44329614044129845,-0.25789982555806634
1761467285268548000,3.497548095703125,-0.7698992076084017,-0.6125488375142216,-0.12443185083270072
1761467285278531000,3.507531005859375,-0.8686293386906385,-0.7573433851569891,0.0021148001968860626
1761467285288513300,3.51751318359375,-1.0362295923814178,-0.9266025119706988,0.050478141349554057
1761467285298496000,3.52749609375,-1.327712830850482,-1.0163751373544334,0.031953473621606825
1761467285308479000,3.53747900390625,-1.4246137006789446,-1.029433064109087,0.09811024561822414
1761467285318462200,3.547462158203125,-1.4507640409797429,-1.036809145835042,0.036406361377239224
1761467285328445200,3.557445068359375,-1.4318220246225595,-1.0216080695718526,-0.11634732857644557
1761467285338428000,3.567427978515625,-1.3589490961134434,-1.004874376913905,-0.2950596356511116
1761467285348411100,3.5774111328125,-1.290912501719594,-0.9679764326274395,-0.40795653151273725
1761467285358394000,3.58739404296875,-1.1531477065831421,-0.7551134341478347,-0.3002969517827034
1761467285368377000,3.597377197265625,-0.8454138827979564,-0.4941574358895421,-0.007353285372257232
1761467285378360000,3.607360107421875,-0.4654594569325447,-0.3048579760879278,0.2304267122209072
1761467285388343000,3.617343017578125,-0.2712181568145752,-0.03963818290531635,0.34396892024874687
1761467285398326300,3.627326171875,-0.33249709364175795,0.15556640928685664,0.43198038117885584
1761467285408309200,3.637309326171875,-0.34693887597024436,0.35289369272142646,0.6028665246725082
1761467285418292000,3.6472919921875,-0.2545686353087425,0.7086585569649935,0.7838046911031007
1761467285428275200,3.657275146484375,-0.21076807202696798,1.1659440597921609,0.8903162698417901
1761467285438258200,3.667258056640625,-0.18165595931112766,1.549424613957107,0.8495534668207169
1761467285448241200,3.6772412109375,-0.09753156894743442,1.8554887509644031,0.7468290054053067
1761467285458224000,3.68722412109375,-0.18158640120625494,2.1098390673473477,0.5925356847941875
1761467285468207000,3.69720703125,-0.10875088209807872,2.1986811338827015,0.33409108483493327
1761467285478190000,3.707190185546875,0.20150807625055311,2.077334389583766,-0.08113982159495353
1761467285488173000,3.717173095703125,0.5317044917345046,1.9559402990117667,-0.38946927318572994
1761467285498156000,3.727156005859375,0.7390531107068061,1.7306556258544326,-0.5752373439908027
1761467285508139000,3.737138916015625,0.9093553168326616,1.4366832009181378,-0.7237643561601639
1761467285518122200,3.747122314453125,1.1307412289857863,1.1805141446754335,-0.7826420770645142
1761467285528105000,3.75710498046875,1.533154154896736,0.9013280777215957,-0.6997907753765583
1761467285538088200,3.767088134765625,1.711040532541275,0.5343403931960463,-0.6002864450514316
1761467285548071200,3.7770712890625,1.834397447618842,0.20161445923447607,-0.5000783503711224
1761467285558054100,3.78705419921875,1.9893921944975852,-0.13871084381490945,-0.33856092372536656
1761467285568036000,3.7970361328125,2.026689367234707,-0.41435295455157756,-0.14670038126409052
1761467285578019000,3.80701904296875,1.9228642511010168,-0.5861456914961338,0.10321312171518802
1761467285588002300,3.817002197265625,1.7830249877780675,-0.6207663385003804,0.43000002101659773
1761467285597985000,3.826985107421875,1.7342209171205758,-0.6394418128758669,0.7154109538346528
1761467285607968000,3.836968017578125,1.724874996626377,-0.5407619506761432,0.9487743040293455
1761467285617951200,3.846951171875,1.658634053477645,-0.3554997835665941,1.1528799955576658
1761467285627934200,3.856934326171875,1.4525807350128888,-0.15127426505088806,1.3116630288034676
1761467285637917000,3.8669169921875,1.1039695419162512,0.041785131806135176,1.3738240091621874
1761467285647900200,3.876900146484375,0.7855588412940502,0.23253216006755828,1.403368668076396
1761467285657883100,3.886883056640625,0.49417877093851564,0.3617398469999432,1.3660866929084061
1761467285667866000,3.8968662109375,0.3640612756848335,0.4065837818548083,1.2164929282903671
1761467285677849000,3.90684912109375,0.27769290578663347,0.4021484297558665,1.042228832796216
1761467285687832000,3.91683203125,0.31253450206518174,0.4199059125036001,0.9577847089588641
1761467285697815300,3.926815185546875,0.39391047050356864,0.31936317904144523,0.8188648985683917
1761467285707798300,3.93679833984375,0.5518097066521644,0.1541910292804241,0.6227519593596458
1761467285717781000,3.946781005859375,0.703627577060461,0.053471477946639055,0.5192284565210342
1761467285727764200,3.95676416015625,0.7712240264713763,-0.049714463500678534,0.46771863403618336
1761467285737747200,3.966747314453125,0.7578817298173904,-0.11557634420394897,0.4357569771081209
1761467285747730000,3.97672998046875,0.7869616938292979,-0.14680968685746193,0.3856973534315824
1761467285757713200,3.986713134765625,0.8600620013535022,-0.2211895127981901,0.29519173759818074
1761467285767696100,3.996696044921875,0.881832519134879,-0.3595502280011773,0.1637035385131836
1761467285777679000,4.00667919921875,0.8922147969394921,-0.484530360366404,0.042816812941432
1761467285787661000,4.0166611328125,0.8879793513268232,-0.4761111993283033,0.03571721006929874
1761467285797644000,4.02664404296875,0.9299228885650634,-0.5307824084535241,-0.041918987318873405
1761467285807627300,4.036627197265625,0.9177537273436784,-0.6086214349374175,-0.13223463353812695
1761467285817610000,4.04660986328125,0.8442097677052021,-0.6391401995807886,-0.22862053958177564
1761467285827593200,4.05659326171875,0.7768535567909479,-0.6249415783584118,-0.25865210523009297
1761467285837576200,4.066576171875,0.7800017916887998,-0.5581222507998347,-0.3043716538757086
1761467285847559200,4.07655908203125,0.707421124124527,-0.46730742288678884,-0.31963352041542525
1761467285857542100,4.086542236328125,0.6009861177533865,-0.3887149476870894,-0.27923078287839886
1761467285867525000,4.096525146484375,0.5099176073402166,-0.33875966116786,-0.2079915930509567
1761467285877508000,4.106508056640625,0.4433329653203487,-0.3233373433694243,-0.11924597262740134
1761467285887490000,4.116489990234375,0.32986148444116115,-0.2883352958321571,-0.10054828642010688
1761467285897473000,4.12647314453125,0.27505788110792634,-0.29884383036494255,-0.07400047123432159
1761467285907456300,4.136456298828125,0.2819412108808756,-0.2514464116349816,-0.005236147087812423
1761467285917439200,4.146439208984375,0.19678280129432676,-0.23490941059291362,0.013030746486783026
1761467285927422000,4.156421875,0.055552960395812985,-0.24174305600523946,0.027411738538742063
1761467285937405200,4.1664052734375,-0.047183191457390784,-0.23430326139330862,0.08365852641761302
1761467285947388000,4.176387939453125,-0.12655132720470427,-0.2588993579894304,0.13018588431477546
1761467285957371000,4.186370849609375,-0.1802986994832754,-0.284512230412662,0.16541384956240654
1761467285967354000,4.19635400390625,-0.20807693324685095,-0.3102756172224879,0.20017478182017803
1761467285977336800,4.2063369140625,-0.2693371653735637,-0.34915713654160496,0.1946685856193304
1761467285987320000,4.216320068359375,-0.35924013913869857,-0.39146950709223743,0.20623919642567634
1761467285997303000,4.226302978515625,-0.3758861535131931,-0.4005544385626912,0.19829086776971816
1761467286007286000,4.2362861328125,-0.34165947426259513,-0.4348775639250874,0.1414741710484028
1761467286017269000,4.24626904296875,-0.3071294281512499,-0.4650511683925986,0.04975216516256332
1761467286027252000,4.256251953125,-0.19996201585233211,-0.41343496292382476,-0.029925182664394378
1761467286037235000,4.26623486328125,-0.13182839082479475,-0.3780672969445586,-0.11535539492964744
1761467286047218200,4.27621826171875,-0.12829670956730843,-0.32863165038526054,-0.19320143567621706
1761467286057201000,4.286200927734375,-0.15544482873380183,-0.3038096360787749,-0.20348376023769377
1761467286067183900,4.296183837890625,-0.1834615474283695,-0.40668139701038597,-0.2148679085612297
1761467286077167000,4.3061669921875,-0.15220190128982067,-0.5739300607845187,-0.2155342635154724
1761467286087150000,4.316150146484375,-0.032570728737115855,-0.6510393116891384,-0.20074936683773995
1761467286097132800,4.3261328125,-0.0118991121083498,-0.7523550753504037,-0.16810615738630294
1761467286107116000,4.336115966796875,-0.11518646810352802,-0.8528995623782276,-0.18306056541204452
1761467286117099000,4.34609912109375,-0.26331658990979195,-0.9213242793068289,-0.2157604734867811
1761467286127082000,4.35608203125,-0.3273112154364586,-0.9438058679670095,-0.218574946385622
1761467286137065000,4.36606494140625,-0.32243162670135495,-0.9162927148804068,-0.24707623372673987
1761467286147048000,4.3760478515625,-0.27578093468546866,-0.8644277953475713,-0.24542612843215464
1761467286157030100,4.386030029296875,-0.20653028832674025,-0.8188035237699747,-0.22854162912666795
1761467286167012900,4.396012939453125,-0.2518593763500452,-0.8155237714469432,-0.1920809072136879
1761467286176996000,4.40599609375,-0.27872692500948903,-0.7862424396440386,-0.1577379081070423
1761467286186979000,4.41597900390625,-0.2918506104767322,-0.8208034654155373,-0.08318155655562877
1761467286196962000,4.425962158203125,-0.29979777008891106,-0.827790255562961,0.017300094369053838
1761467286206945000,4.435945068359375,-0.31542613185346124,-0.861287743756175,0.11355857464075088
1761467286216928000,4.445927978515625,-0.32101240755319593,-0.8719374403253197,0.18357260658740995
1761467286226911000,4.455910888671875,-0.31950083394646644,-0.8808630895808338,0.24170798469185828
1761467286236894000,4.46589404296875,-0.3049941696882248,-0.8598208860740065,0.2537736855387688
1761467286246877000,4.475876953125,-0.34617841299176216,-0.7954273243576288,0.2420166122496128
1761467286256860000,4.48585986328125,-0.3384393431723118,-0.5996753274157643,0.23859248301982877
1761467286266843100,4.495843017578125,-0.2850041055828333,-0.33231355376839633,0.26461013685166834
1761467286276825900,4.505825927734375,-0.20646248378753662,-0.025697628097236153,0.2697317176491022
1761467286286809000,4.51580908203125,-0.1047170965373516,0.13355097683370112,0.28914135151803494
1761467286296792000,4.5257919921875,0.041268998977541924,0.18296499608308076,0.32318507541716096
1761467286306775000,4.535775146484375,0.11484276923239231,0.14021014246195554,0.5015484229236841
1761467286316758000,4.545758056640625,0.1149824699640274,0.0702618692278862,0.7244920859128237
1761467286326741000,4.555740966796875,0.1286860011458397,0.08797785092145204,1.0441787978202104
1761467286336724000,4.565723876953125,0.17035832022726535,0.20386019233465194,1.3109008122593164
1761467286346709000,4.575708984375,0.16487141324877738,0.25951661310493945,1.2915870399802922
1761467286356692000,4.58569189453125,0.27409926520884037,0.294318461894989,1.1438859572410582
1761467286366675000,4.595675048828125,0.3748725925564766,0.35549686095714567,1.0185679712235927
1761467286376658000,4.605657958984375,0.45566696171462534,0.43646424859464167,0.9289151728272438
1761467286386641200,4.61564111328125,0.6913982100844382,0.4990320561885833,0.7769289601147175
1761467286396624100,4.6256240234375,0.9012988516271114,0.505526678904891,0.6114022978276014
1761467286406606800,4.63560693359375,1.1158569635868072,0.4886515319496393,0.4725356789290905
1761467286416590000,4.645590087890625,1.4159388113141058,0.40724224576354023,0.2860235117584467
1761467286426573000,4.655572998046875,1.757952505841851,0.35724399688541886,-0.005538929426670074
1761467286436556000,4.66555615234375,1.9832675741374493,0.3807251179769635,-0.2527174544841051
1761467286446539000,4.6755390625,2.1447709722578523,0.5119809696108103,-0.45088498813509936
1761467286456522000,4.68552197265625,2.2071984945982694,0.6884358531475067,-0.589655160921812
1761467286466505000,4.6955048828125,2.173080536419153,0.869967601557076,-0.6530787085622549
1761467286476488200,4.70548828125,2.100179550859332,1.0761486380547285,-0.672411185541749
1761467286486471000,4.715470947265625,1.790146217960119,1.2855416223362088,-0.6253033974081278
1761467286496454000,4.725453857421875,1.3830372431874274,1.4560294141620396,-0.5240040003597736
1761467286506437000,4.73543701171875,0.938793592762947,1.540138899217546,-0.4234755876839161
1761467286516419800,4.745419921875,0.5924240411132574,1.6250138156875966,-0.2836643814116716
1761467286526403000,4.755403076171875,0.3435568323165178,1.68687932023108,-0.11084580855071544
1761467286536386000,4.765385986328125,0.2334714867442846,1.795253185710311,0.09320318435430526
1761467286546369000,4.775369140625,0.026835399955511093,1.8062386901050804,0.25635318063795565
1761467286556352000,4.78535205078125,-0.17616612972319126,1.7294751838982105,0.41874972820580003
1761467286566335000,4.7953349609375,-0.26989479925632476,1.5265882205098866,0.44719197883605954
1761467286576318000,4.80531787109375,-0.24056290630996227,1.316505792659521,0.4611410092115402
1761467286586301200,4.81530126953125,-0.0958551601678133,1.0919584938660263,0.5017459913223982
1761467286596284000,4.825283935546875,0.10381459473967551,0.8795414855882525,0.41898002983033655
1761467286606266000,4.83526611328125,0.34452772317528724,0.6585536328420043,0.353463309302926
1761467286616249000,4.8452490234375,0.39968613129556174,0.4665265016421675,0.3148135529130697
1761467286626231800,4.855231689453125,0.31862872728705405,0.38163083464503283,0.18980419445335864
1761467286636215000,4.865215087890625,0.270478152102232,0.308932678180933,0.1108083991497755
1761467286646198000,4.875197998046875,0.24508944382369516,0.23264964896738527,-0.06617839930653571
1761467286656181000,4.885180908203125,0.29257775570750233,0.23200112193077801,-0.334680867421627
1761467286666164000,4.8951640625,0.3865805660068989,0.18813275410979985,-0.6185007316559553
1761467286676147000,4.90514697265625,0.41266777794361115,0.17979717970192433,-0.8645961376518011
1761467286686130000,4.9151298828125,0.3165145116120577,0.20897008269429207,-0.9728852474570274
1761467286696113200,4.925113037109375,0.24284078811407087,0.21059417676478623,-0.964812415638566
1761467286706095900,4.935095947265625,0.23995032736957073,0.2471796941012144,-0.9398480702519416
1761467286716079000,4.9450791015625,0.3174760501205921,0.2816927890777588,-0.8940466885417699
1761467286726062000,4.95506201171875,0.29672669208049773,0.30055180332660675,-0.8990221388667822
1761467286736044800,4.965044921875,0.25626725592017174,0.2867190928071737,-0.9382020566105842
1761467286746028000,4.975028076171875,0.20748013639748095,0.27778642928898334,-0.9515028522104024
1761467286756011000,4.985010986328125,0.1476014217570424,0.3330772316172719,-1.0000701915025711
1761467286765994000,4.994993896484375,0.1069172369301319,0.3460109474703669,-1.030367130088806
1761467286775977000,5.00497705078125,0.0328086291462183,0.35690702001601454,-1.0773626900196074
1761467286785960000,5.0149599609375,-0.037328152397274966,0.41589843042790886,-1.081524485874176
1761467286795943000,5.02494287109375,-0.12489654573500156,0.4127846823215484,-1.0520803647249937
1761467286805926100,5.034926025390625,-0.2052370336458087,0.4556403659686446,-0.9954209043920039
1761467286815908900,5.044908935546875,-0.27233400910198685,0.5020405903548002,-0.879913533771038
1761467286825892000,5.05489208984375,-0.3385954105168581,0.4698240818828344,-0.8408534430146217
1761467286835875000,5.064875,-0.3561167464211583,0.412621308453381,-0.7756646392673253
1761467286845858000,5.074858154296875,-0.36913083403408525,0.3214969761997461,-0.7665162871718406
1761467286855841000,5.084841064453125,-0.45177346140742297,0.17644406988173722,-0.8259843751847743
1761467286865824000,5.094823974609375,-0.44460313138663765,0.06650251669436692,-0.9082926560372113
1761467286875807000,5.104806884765625,-0.3120399965465069,0.0018710545688867567,-1.0005530065834523
1761467286885790200,5.114790283203125,-0.24684914697259663,0.004633505019545555,-1.1175982542961835
1761467286895773000,5.12477294921875,-0.19937895526736973,0.0983057681903243,-1.2135878544986247
1761467286905756000,5.134755859375,-0.1644225004374981,0.2741115401685238,-1.2676982148706912
1761467286915739100,5.1447392578125,-0.1414054897263646,0.4682990642726421,-1.336273153924942
1761467286925721600,5.1547216796875,-0.14707505979537963,0.714071521924436,-1.3324509652882814
1761467286935703800,5.164703857421875,-0.26674773340225216,0.9206570475697516,-1.288036654022336
1761467286945686800,5.174686767578125,-0.4149082503467798,1.0894175772115589,-1.2156944713890552
1761467286955669800,5.184669677734375,-0.45032384712100026,1.2453151181489228,-1.1725614321053028
1761467286965652700,5.19465283203125,-0.4694029338613152,1.3399670400068162,-1.0917278999805449
1761467286975635700,5.2046357421875,-0.5118175957426429,1.3332728030651806,-0.9331471113085746
1761467286985619000,5.214618896484375,-0.6564239273369312,1.2958560956016183,-0.7625199110120534
1761467286995601700,5.2246015625,-0.7612678651243447,1.183079611249268,-0.5989928981095552
1761467287005584600,5.234584716796875,-0.788629042519629,1.013815515999496,-0.4613748179674148
1761467287015568000,5.24456787109375,-0.8664823897898196,0.7955188020333648,-0.3971808704763651
1761467287025550800,5.25455078125,-0.9602069676697254,0.5518918319776653,-0.37009295706450934
1761467287035533600,5.264533447265625,-0.9540633503481745,0.2472743866473436,-0.359850964513421
1761467287045516800,5.274516845703125,-0.9715975457340479,0.007142565231025219,-0.41445290779471394
1761467287055499800,5.284499755859375,-1.0305085843861101,-0.2019189951390028,-0.49014440085589883
1761467287065482800,5.294482666015625,-1.1636100638866425,-0.3861944892987609,-0.6219096633166075
1761467287075465700,5.3044658203125,-1.3196569501668214,-0.4989169053763151,-0.7675754408359527
1761467287085448700,5.31444873046875,-1.5022276862353086,-0.5227142528101801,-0.7779676555126905
1761467287095431700,5.324431640625,-1.5691858377426862,-0.451851787340641,-0.7578437358945608
1761467287105415000,5.334414794921875,-1.2856874605476856,-0.2620306417524814,-0.608590747538209
1761467287115397600,5.344397705078125,-0.8472750004947185,-0.06683657095432281,-0.3016588877856731
1761467287125380900,5.354380859375,-0.5519739573031663,0.0575432574301958,-0.14160101229846478
1761467287135363800,5.36436376953125,-0.19553718514740465,0.308606222705543,0.024209727627038956
1761467287145346600,5.3743466796875,0.024063889415562152,0.669843088619411,0.34887890412211414
1761467287155329800,5.384329833984375,0.10472060366868972,1.1282102492034434,0.7331710669308901
1761467287165312800,5.394312744140625,0.20940262889266012,1.5452370991393922,1.1189835711747407
1761467287175295700,5.404295654296875,0.13690087178349494,1.8813865778088568,1.4156366134971379
1761467287185278700,5.41427880859375,-0.18053659989237783,2.0027242620185017,1.5123048436135054
1761467287195261700,5.42426171875,-0.4673337263718247,1.831096360246837,1.464203368267417
1761467287205244700,5.43424462890625,-0.26442367436885833,1.6829969258397817,1.3028192126125095
1761467287215228000,5.444227783203125,0.12272387787103652,1.5562193886637687,0.9954998148471117
1761467287225210600,5.454210693359375,0.40441432886123657,1.2677131201788783,0.6056833356589079
1761467287235193900,5.46419384765625,0.6976935108363628,0.8845216120883822,0.05821779569089412
1761467287245176800,5.4741767578125,1.0374199712097645,0.47212096064835785,-0.4462801246881485
1761467287255159800,5.484159912109375,1.3875544283509254,0.0376402870863676,-0.8540712365061044
1761467287265142800,5.494142822265625,1.7748668157637117,-0.39015988579839467,-1.1521101802289486
1761467287275125800,5.504125732421875,2.0688257966965438,-0.8097861045777798,-1.3257722181767224
1761467287285108700,5.514108642578125,2.3217817361116406,-1.116873739413917,-1.300254330560565
1761467287295092000,5.524092041015625,2.4337679468691347,-1.2876780498430132,-1.0959493170678616
1761467287305074700,5.53407470703125,2.3620646466612816,-1.2645721918046473,-0.7053039858400821
1761467287315057700,5.5440576171875,2.178109178236127,-1.118255841422081,-0.19529811569452285
1761467287325041000,5.554041015625,1.9131074117183684,-0.8491554074138402,0.3429904306054115
1761467287335023600,5.564023681640625,1.660808474907279,-0.5155906845405698,0.8319786471635102
1761467287345005800,5.574005859375,1.3533645739793776,-0.2228124378249049,1.2189181096106767
1761467287354988800,5.58398876953125,0.9765192200452089,0.06784954738914967,1.5487112049907445
1761467287364971500,5.593971435546875,0.6832289321541786,0.3289575213387608,1.7567752787560222
1761467287374954800,5.603954833984375,0.42633039259314537,0.5259796843469142,1.8881816447764634
1761467287384937700,5.613937744140625,0.22056261307150124,0.6849059254556894,1.9038655361205339
1761467287394920700,5.623920654296875,0.14374094693660736,0.6829357944265008,1.8014070321649311
1761467287404903700,5.633903564453125,0.208763161945343,0.5599436210080981,1.5877929230570793
1761467287414886700,5.64388671875,0.33526714287698267,0.39171939020007845,1.3533335943192242
1761467287424870000,5.653869873046875,0.4357353497982025,0.1890080756396055,1.137612283799052
1761467287434852900,5.663852783203125,0.5906207910835742,-0.02478548168838024,0.9084171591997146
1761467287444835600,5.673835693359375,0.8045008576512336,-0.20303689325302837,0.668684858494997
1761467287454818800,5.68381884765625,0.9496358892947435,-0.3160939481124282,0.49148997024595736
1761467287464801800,5.6938017578125,1.0166413870751858,-0.43342356572449203,0.3345072644203901
1761467287474784800,5.70378466796875,1.0672563065469265,-0.5156351082041859,0.188259303098917
1761467287484767700,5.713767822265625,1.1576280668675898,-0.5886793016269802,0.06464402934610844
1761467287494750700,5.723750732421875,1.2245675136744976,-0.656077305856347,-0.02983224368393421
1761467287504733700,5.733733642578125,1.276723232847452,-0.6764093152672052,-0.11579495539069175
1761467287514717000,5.743717041015625,1.323712363037467,-0.7198992051646113,-0.18320611136257647
1761467287524699600,5.75369970703125,1.3011708608835935,-0.7322501526936889,-0.25494623644948006
1761467287534682600,5.7636826171875,1.1559575033068656,-0.704293347492814,-0.2892167548418045
1761467287544665900,5.773665771484375,1.0673287872612476,-0.6249900936752557,-0.31866146051287647
1761467287554648600,5.783648681640625,1.0235516048550606,-0.554628563465178,-0.30953239763975143
1761467287564631800,5.7936318359375,0.9090537035375833,-0.5136836818754673,-0.28988077170848847
1761467287574614800,5.80361474609375,0.8352654137492179,-0.49065761107504363,-0.22051205192804335
1761467287584597800,5.81359765625,0.8371645253688097,-0.4221709348261356,-0.08049801656007766
1761467287594580700,5.823580810546875,0.7599971145361661,-0.33009120154380794,0.08072598009705544
1761467287604563700,5.833563720703125,0.6557935204789042,-0.24987784714400768,0.23295009321868418
1761467287614546700,5.843546630859375,0.537379030239582,-0.2358341242223978,0.3170475955754518
1761467287624530000,5.853530029296875,0.40218028619885443,-0.2120338541790843,0.4351566731274128
1761467287634512600,5.8635126953125,0.23903028991520403,-0.1763920474335551,0.5518973849356175
1761467287644495600,5.87349560546875,0.1568777841463685,-0.14544102885276078,0.6323901407986879
1761467287654478800,5.883478759765625,0.1537859556108713,-0.14416472530663013,0.5991606558918953
1761467287664461800,5.8934619140625,0.07088146243095397,-0.09749825119972229,0.5534662416875362
1761467287674444800,5.90344482421875,-0.004385959999263287,-0.010052899719774723,0.4701859009325504
1761467287684427800,5.913427734375,-0.1262929685294628,-0.01706307074278593,0.27143676800131794
1761467287694410800,5.92341064453125,-0.17135405326634645,-0.02434095279127359,0.06982698494195938
1761467287704394000,5.93339404296875,-0.15546587152183056,-0.041731063531339166,-0.1032879405170679
1761467287714376700,5.943376708984375,-0.06786416043639183,-0.016053309178352355,-0.27226971169412134
1761467287724359700,5.953359619140625,-0.05253332031369209,-0.032871172988414764,-0.3624234453499317
1761467287734343000,5.963343017578125,-0.055798167328536506,-0.017690847252309322,-0.39073710116446014
1761467287744325600,5.97332568359375,-0.11402911476194857,-0.03526479012668132,-0.4060299473643303
1761467287754308600,5.98330859375,-0.12413754406124353,-0.025315935303270816,-0.4244979164689779
1761467287764291800,5.993291748046875,-0.09885112711340188,-0.06824526870846748,-0.4097895921587944
1761467287774274800,6.00327490234375,-0.03680354400128126,-0.1356868198186159,-0.4135480679094791
1761467287784257500,6.013257568359375,-0.012718904058635233,-0.21496084754168987,-0.4307365185976028
1761467287794240800,6.02324072265625,-0.0690440178707242,-0.36523733372688294,-0.46858021930158134
1761467287804223700,6.0332236328125,-0.11502367875725031,-0.5149734294250607,-0.5370967061668634
1761467287814206700,6.043206787109375,-0.1729787318587303,-0.5626379746586084,-0.5332043749034404
1761467287824189700,6.053189697265625,-0.29430326432585713,-0.5789540264263748,-0.48404842206835746
1761467287834172700,6.063172607421875,-0.4716965977564454,-0.6175196116641164,-0.4322100982815027
1761467287844156000,6.073156005859375,-0.4891141810253262,-0.6971256478205323,-0.4119096530526876
1761467287854139000,6.083138916015625,-0.2999059066385031,-0.7712310407340526,-0.3553127365618944
1761467287864121600,6.09312158203125,-0.1493815831720829,-0.8674363295137881,-0.31186288641393184
1761467287874104800,6.103104736328125,-0.1521785204142332,-0.9436556458413601,-0.2224801371306181
1761467287884087800,6.113087890625,-0.24010376436561345,-0.994568379215896,-0.07762684503793715
1761467287894070800,6.12307080078125,-0.38428514854609963,-0.9761953949183225,0.043318332722783084
1761467287904052700,6.133052734375,-0.6225263339102268,-0.9140604257836937,0.14935703325271604
1761467287914035700,6.14303564453125,-0.8265934469938278,-0.8438231064751743,0.2479460022985935
1761467287924022500,6.1530224609375,-0.9433522789806127,-0.7948460173383355,0.22742636136114597
1761467287934005500,6.163005615234375,-0.900288797801733,-0.7216293899580836,0.20682430283725262
1761467287943988500,6.172988525390625,-0.8727569400146603,-0.6583630787059664,0.08471300390660762
1761467287953971500,6.182971435546875,-0.8410445816725493,-0.6004772914484143,-0.04754793311655521
1761467287963954400,6.192954345703125,-0.7931357062891126,-0.5588526109009981,-0.1307674835950136
1761467287973937400,6.2029375,-0.6783616183787584,-0.5838236782893538,-0.19922960992455482
1761467287983920600,6.212920654296875,-0.6140706402540207,-0.5868985556900501,-0.2240776354551315
1761467287993903400,6.2229033203125,-0.5625345142841339,-0.5970771276161074,-0.2201174996525049
1761467288003886300,6.23288623046875,-0.5573574039071798,-0.5428738282635808,-0.1599216818869114
1761467288013869600,6.24286962890625,-0.6111427701085805,-0.44996845781207084,-0.16304302877783775
1761467288023852500,6.2528525390625,-0.5699222864478826,-0.19876608406603335,-0.10357494076490402
1761467288033835500,6.26283544921875,-0.49054889000356194,0.2495318101853132,0.08826222082078457
1761467288043818500,6.272818603515625,-0.4883452424794435,0.7221399698287249,0.206014155498147
1761467288053801500,6.282801513671875,-0.6041185705602169,0.6968734266251325,0.33713761292397976
1761467288063784700,6.29278466796875,-0.6453700338810682,0.7705810523927211,0.40441082172989845
1761467288073767400,6.302767333984375,-0.5128583369672298,0.7806471038550138,0.4893693248301744
1761467288083750400,6.31275048828125,-0.27372312537282706,0.6294681158721447,0.6679150431662797
1761467288093733600,6.322733642578125,0.023304303219914436,0.29691753847748037,0.8050994080662727
1761467288103716600,6.332716552734375,0.22159341742396355,-0.07007540674507617,0.8903367281079292
1761467288113699300,6.34269921875,0.300853416621685,-0.3960989204585552,0.9849100317716598
1761467288123682600,6.3526826171875,0.06950608242452144,-0.8020841518983245,1.0229998161911964
1761467288133665500,6.36266552734375,0.2946148144930601,-1.005337025989592,0.9957786317884921
1761467288143648500,6.3726484375,0.6184779353022575,-1.0709437628880143,0.8885252947717904
1761467288153631500,6.382631591796875,0.7569552626222371,-1.0540256535738706,0.7309837860196828
1761467288163614500,6.392614501953125,0.9904548064172267,-0.9781967978686094,0.5781774890959263
1761467288173597700,6.40259765625,1.257957742100954,-0.7406476864218712,0.4523492154687643
1761467288183580400,6.412580322265625,1.4180693936020135,-0.39371553245335816,0.30302608448565005
1761467288193563400,6.4225634765625,1.4927318358764052,0.004488543590903282,0.13963935683667658
1761467288203546600,6.432546630859375,1.5188804226115344,0.4268228522852063,-0.08868249205946922
1761467288213529600,6.442529541015625,1.5725944771423934,0.887940480621159,-0.2944879732429981
1761467288223512300,6.45251220703125,1.6502362274885176,1.2973103860631585,-0.4118985471367836
1761467288233495600,6.46249560546875,1.6368927617907523,1.5884136853039263,-0.46623920913338657
1761467288243478500,6.472478515625,1.4944149666577577,1.8209408769354223,-0.40313305687904355
1761467288253461500,6.48246142578125,1.333988550119102,1.9480559755027294,-0.1916279027491808
1761467288263444500,6.492444580078125,1.188100069759786,1.9739432809531687,0.06795476132929325
1761467288273427500,6.502427490234375,0.934867651490867,1.9694912699803708,0.37160628423690795
1761467288283410400,6.512410400390625,0.4903258949026465,1.7024278947576879,0.6322521936327219
1761467288293393700,6.5223935546875,0.10875643505603075,1.4297013792067765,0.8552396957635879
1761467288303376400,6.53237646484375,0.11124620604515074,1.2198676654204725,0.897687090870738
1761467288313359600,6.542359619140625,0.12580664631724356,0.9323495311900972,0.8671902457982301
1761467288323342600,6.552342529296875,0.16963468212783336,0.6480047662988305,0.8117506826490163
1761467288333325300,6.5623251953125,0.22803718673586845,0.450693557216227,0.6792541833043098
1761467288343308500,6.57230859375,0.36785774535834787,0.27914018198549745,0.5233429061025381
1761467288353291500,6.58229150390625,0.4638666347831487,0.12846768222004173,0.28587328963279723
1761467288363274500,6.5922744140625,0.5207306777775287,0.03409866895675659,0.019976035580039023
1761467288373257500,6.602257568359375,0.5415215368717908,-0.10196399843692779,-0.19115034836530684
1761467288383240400,6.612240478515625,0.5399287147223949,-0.10489975962787866,-0.42310032463073727
1761467288393223400,6.622223388671875,0.5951368072032928,-0.06501783109456301,-0.5705599998295307
1761467288403206700,6.63220654296875,0.6386521238029003,0.05338116931468248,-0.6556774928838014
1761467288413189400,6.642189453125,0.6358715531736612,0.14893939236253498,-0.7869733842670917
1761467288423172400,6.65217236328125,0.6449287198543548,0.23477643186300992,-0.8600795370101928
1761467288433155600,6.662155517578125,0.653190352243185,0.24834464622735974,-0.9218722685784101
1761467288443138600,6.672138671875,0.7140612927913665,0.3531210717365145,-0.9224883546501398
1761467288453121500,6.68212158203125,0.6192594410687685,0.4459729584351182,-0.8357949905812739
1761467288463104500,6.6921044921875,0.42300300173610444,0.4716439907863736,-0.7135229481309652
1761467288473087500,6.70208740234375,0.2789882062941789,0.464231668703258,-0.6264747792750597
1761467288483070700,6.71207080078125,0.12634323741197584,0.41620208954960103,-0.5945253973066806
1761467288493053400,6.722053466796875,-0.03010579992830753,0.40238516112118955,-0.6190642107576132
1761467288503036400,6.732036376953125,-0.1390162565022707,0.3654033379435539,-0.6454758323431015
1761467288513019600,6.74201953125,-0.1922545102149248,0.3407154714107513,-0.6570481967151165
1761467288523002400,6.75200244140625,-0.25992227129638196,0.2577466808229685,-0.6680868926018476
1761467288532985300,6.7619853515625,-0.24379911175221203,0.11533405988067388,-0.6485019021660089
1761467288542968600,6.771968505859375,-0.23714023838490247,0.05024696294218301,-0.6101847387313842
1761467288552951600,6.78195166015625,-0.2977478518217802,-0.0229334240809083,-0.5695657280951738
1761467288562934300,6.791934326171875,-0.37481764749884605,-0.14371844284385443,-0.6031669689238071
1761467288572917500,6.80191748046875,-0.41046471494138237,-0.3014534283414483,-0.712411772018671
1761467288582900500,6.811900390625,-0.5185960038363934,-0.33897534974515436,-0.791745420974493
1761467288592883700,6.8218837890625,-0.6126999364227056,-0.3654699734389782,-0.8850783691883086
1761467288602866400,6.831866455078125,-0.6704904466122389,-0.45941345476657147,-0.9588046996563673
1761467288612849400,6.841849365234375,-0.6837415578514338,-0.48051527950614686,-1.0682225212305783
1761467288622832600,6.85183251953125,-0.5770166286230087,-0.48932577794939275,-1.1834744557857513
1761467288632815600,6.861815673828125,-0.4901099140644073,-0.5314791585460305,-1.2585492782533167
1761467288642798300,6.87179833984375,-0.5655939018547534,-0.5800035354793072,-1.274222648203373
1761467288652781600,6.881781494140625,-0.5908645367115736,-0.5377563391193747,-1.180171907109022
1761467288662764500,6.8917646484375,-0.6332903045088052,-0.6069426880702375,-1.144845157662034
1761467288672747500,6.90174755859375,-0.7064689379662275,-0.5647238410219549,-1.0984873111128806
1761467288682730500,6.91173046875,-0.7590279772430658,-0.535103778783977,-0.9420002798497676
1761467288692713500,6.92171337890625,-0.6504588814526796,-0.5117959684327245,-0.8985328940451145
1761467288702696400,6.931696533203125,-0.38880233370959755,-0.3450166757360101,-0.9489157583266496
1761467288712679400,6.941679443359375,-0.27457506602704523,-0.11884586739391088,-0.9560025017172098
1761467288722662400,6.951662353515625,-0.3617302023887634,0.147188164781034,-0.971973977831006
1761467288732645600,6.961645751953125,-0.4285477763816714,0.42300884695500135,-0.9341653484404087
1761467288742628600,6.971628662109375,-0.4972597858190536,0.6303060280010104,-0.8688210618704557
1761467288752611300,6.981611328125,-0.4953337861925363,0.8083408742055297,-0.7262012279182672
1761467288762594600,6.991594482421875,-0.5242173508495092,0.9343252151772379,-0.5370072743177413
1761467288772577500,7.00157763671875,-0.637636224758625,1.0375111566245556,-0.32757308124303813
1761467288782560500,7.011560546875,-0.8949889378279448,1.0157391775384546,-0.18720307204425335
1761467288792544500,7.02154443359375,-1.1665046162843704,0.9449135369479655,-0.06666881317198275
1761467288802527500,7.031527587890625,-1.2873825740277767,0.7623281878322362,0.03248071236610412
1761467288812509400,7.041509521484375,-1.1744973686039446,0.50406449739784,0.048151159706711764
1761467288822493400,7.051493408203125,-1.0571604444682599,0.22338322345018385,-0.061736617466807364
1761467288832476700,7.0614765625,-1.076296814353764,-0.03157937961220741,-0.2847065839409828
1761467288842459400,7.07145947265625,-1.2112930215597153,-0.2094248407244682,-0.3597878361493349
1761467288852442600,7.081442626953125,-1.219730595037341,-0.3170101861745119,-0.2871972317129373
1761467288862425600,7.091425537109375,-0.8650959038674831,-0.4048080043539405,-0.0881780496686697
1761467288872408300,7.101408203125,-0.2732645679503679,-0.2921189060240984,0.19922318018376825
1761467288882391600,7.1113916015625,0.13194295711517334,-0.21831921805888413,0.4034282404333353
1761467288892374500,7.12137451171875,0.14883154807388782,0.036542262716591355,0.679005761501193
1761467288902357500,7.131357421875,-0.0427034156948328,0.25588234825581313,0.8966308598160743
1761467288912340500,7.141340576171875,-0.42038171332180496,0.5872472229972482,1.0912848323881625
1761467288922318800,7.15131884765625,-0.74366177354604,0.9259773658096789,1.2486509845733642
1761467288932301800,7.1613017578125,-0.784859753113985,1.1729200362846255,1.2506284221261739
1761467288942284800,7.171284912109375,-0.5432353550523519,1.3091694584220648,1.086378940168023
1761467288952267800,7.181267822265625,-0.21276479880213736,1.3638389139816165,0.892533945891261
1761467288962251000,7.1912509765625,0.020674539238214492,1.4515630824029444,0.617467881476879
1761467288972233700,7.201233642578125,0.15379238535165785,1.5139289376839995,0.37078620002567764
1761467288982217000,7.211217041015625,0.3603016308903694,1.5728262400716542,0.05757131448090076
1761467288992200000,7.221199951171875,0.59931964584589,1.5412123736679553,-0.215385794955492
1761467289002183000,7.231182861328125,0.7597545379519463,1.4769471145063637,-0.4014081327825784
1761467289012166000,7.241165771484375,0.9567682253926992,1.2994792545348406,-0.4823252515375614
1761467289022148900,7.25114892578125,1.250909577155113,0.9923162163749336,-0.48753743322789667
1761467289032131800,7.2611318359375,1.581498791348934,0.6721990040957927,-0.5261024339437484
1761467289042115000,7.271114990234375,1.9961919376403092,0.2939826540693641,-0.5189058004379272
1761467289052097800,7.281097900390625,2.2581617891162633,-0.05845657288283109,-0.40368367649912834
1761467289062080800,7.291080810546875,2.2881875095456836,-0.4017600149601698,-0.21912731957137582
1761467289072064000,7.30106396484375,2.23649648527503,-0.6373828345194459,0.019741057780385016
1761467289082047000,7.311046875,2.1902193027466534,-0.7240633391067385,0.24118600664436815
1761467289092029700,7.32102978515625,1.9985452227681875,-0.4916264561071992,0.24907529858946797
1761467289102013000,7.331012939453125,1.989075383633375,-0.8466998309552669,0.6943851169407367
1761467289111996000,7.340995849609375,2.052560890594125,-0.9443263847097754,1.1059481485128402
1761467289121979000,7.350978759765625,1.6727490880697964,-0.7993164407506584,1.2717179719060658
1761467289131961900,7.3609619140625,1.1748542192175984,-0.4422743961781263,1.3533710037201643
1761467289141944800,7.37094482421875,0.8931085309088229,-0.14343319616168737,1.4359452420324086
1761467289151928000,7.380927978515625,0.6716641665667296,0.08243687566816807,1.3735709111839531
1761467289161910800,7.390910888671875,0.4208279957845807,0.3239998989313841,1.2570610855221747
1761467289171893800,7.400893798828125,0.2792991719394922,0.45708208920955656,1.0723147589802742
1761467289181877000,7.410876953125,0.2440337972909212,0.5279755343392492,0.8015022603571414
1761467289191860000,7.42085986328125,0.27537235388457776,0.4738888471037149,0.5504349111676216
1761467289201842700,7.4308427734375,0.45596272979080676,0.4064242073789239,0.3534510343432426
1761467289211826000,7.440825927734375,0.6155997495174408,0.31031098079681396,0.18388415675461292
1761467289221809000,7.450808837890625,0.8453732585266232,0.2651490660339594,0.1334258891493082
1761467289231791900,7.4607919921875,1.0277826665535568,0.16634703875929116,0.08696750483512877
1761467289241774800,7.47077490234375,1.144481585046649,0.031303485280275344,0.031796237233281135
1761467289251757800,7.4807578125,1.1034525323048234,-0.11080723010599612,-0.0333446357190609
1761467289261740800,7.49074072265625,0.9986410354822873,-0.2541714526847005,-0.01628010367155075
1761467289271724000,7.50072412109375,0.9558967032551765,-0.312962956610322,0.0026654198169708252
1761467289281706800,7.510706787109375,0.9622796822905539,-0.40211715783476826,0.028310148683190345
1761467289291690000,7.52068994140625,0.9705436527669429,-0.5277236054047942,-0.013872458007931708
1761467289301673000,7.5306728515625,0.9241241391584276,-0.6498094776332378,-0.10374795924425124
1761467289311655700,7.54065576171875,0.8130050666242837,-0.7484367328628897,-0.14297873039245604
1761467289321639000,7.550638916015625,0.7153460719048976,-0.8374407119616866,-0.1754670415431261
1761467289331622000,7.560621826171875,0.6925996948286891,-0.9002136867389082,-0.2402653846681118
1761467289341604900,7.57060498046875,0.7309890467166901,-0.9333797510206698,-0.2790168478667736
1761467289351588900,7.5805888671875,0.693800887311995,-0.8419467912092804,-0.28758067807257176
1761467289361571800,7.59057177734375,0.6422849273473024,-0.7543810282200575,-0.251296481770277
1761467289371554800,7.600554931640625,0.6063216335624456,-0.6340457990512252,-0.1636152757078409
1761467289381537800,7.610537841796875,0.44533962896764273,-0.5355263881102204,-0.057847208812832826
1761467289391521000,7.62052099609375,0.2777519424974918,-0.4491837371751666,0.023971827217936514
1761467289401503700,7.630503662109375,0.19642565841972826,-0.3261974089756608,0.11670154884159564
1761467289411487000,7.640487060546875,0.07682429648339748,-0.26314298690855503,0.1282978786110878
1761467289421470000,7.650469970703125,0.015197276870906351,-0.20424217738956213,0.09315934521257876
1761467289431453000,7.660452880859375,-0.04533610228598117,-0.15549100596308707,0.08613222305476664
1761467289441436000,7.670435791015625,-0.1879223262295127,-0.11890461184382438,0.08266776181459426
1761467289451419000,7.6804189453125,-0.2895388264030218,-0.059174950285255906,0.0775029263973236
1761467289461401900,7.69040185546875,-0.3843950386613607,-0.02631342190802097,0.04314882137477398
1761467289471384800,7.700384765625,-0.45171325565278525,-0.038163141916692254,-0.05065875861346721
1761467289481367800,7.710367919921875,-0.45223903309255836,-0.0889814750060439,-0.16466098536849022
1761467289491350800,7.720350830078125,-0.4320642600700259,-0.187804252807796,-0.2654828280329704
1761467289501334000,7.730333984375,-0.4128755754753947,-0.31763708590120077,-0.31735213147997854
1761467289511316700,7.740316650390625,-0.3770803317338228,-0.4125482432171702,-0.32707682215869427
1761467289521299700,7.7502998046875,-0.3832324246227741,-0.47512306507378815,-0.3045785746246576
1761467289531283000,7.760282958984375,-0.39245091934502124,-0.5575216545581817,-0.26195173129737376
1761467289541266000,7.770265869140625,-0.34856560038924217,-0.6079197164088487,-0.1875876874476671
1761467289551249000,7.780248779296875,-0.3657368076816201,-0.5772904771283268,-0.04579144483804703
1761467289561232000,7.79023193359375,-0.4455915579020977,-0.5455442165166139,0.06002046119868755
1761467289571214800,7.80021484375,-0.5141013227656483,-0.5218702032014727,0.12960136242508888
1761467289581198000,7.810197998046875,-0.43725393766760823,-0.554632362857461,0.17279460746347902
1761467289591180800,7.820180908203125,-0.3216606423288584,-0.612701105466485,0.12111878076195716
1761467289601163800,7.830163818359375,-0.15417992336452008,-0.6675365652427077,0.009081132078170776
1761467289611147000,7.84014697265625,0.04905775315761566,-0.7159039980486035,-0.10464636938869952
1761467289621130000,7.8501298828125,0.1803837474182248,-0.6883437909498811,-0.2542325352221727
1761467289631112700,7.86011279296875,0.2401446808978915,-0.5751356371819972,-0.3156862440943718
1761467289641096000,7.870095947265625,0.239880769264698,-0.38286622165888545,-0.28314415692985057
1761467289651079000,7.880078857421875,0.16970891640782354,-0.2139025706604123,-0.24741759451031684
1761467289661062000,7.890061767578125,0.05061842660307884,-0.1620294678211212,-0.22500527169406412
1761467289671044900,7.900044921875,0.008234159860014915,-0.11417699880003929,-0.21583879941999912
1761467289681027800,7.91002783203125,-0.037482466176152224,-0.046238604083657264,-0.24112170923650264
1761467289691011000,7.920010986328125,-0.1639683269292116,-0.03536883502304554,-0.26339900749623774
1761467289700995000,7.9299951171875,-0.3524591006964445,-0.06002338380813598,-0.21250117942988872
1761467289710977800,7.939977783203125,-0.4899719668984413,-0.14843465771079062,-0.17055764219164848
1761467289720960800,7.949960693359375,-0.587120674008131,-0.25561083783805366,-0.1685568237632513
1761467289730944000,7.959944091796875,-0.7162547111824155,-0.39728754572123287,-0.14896540358662605
1761467289740927000,7.969927001953125,-0.7778121726900339,-0.5416513007313013,-0.10097966357469558
1761467289750909700,7.97990966796875,-0.7275450437426567,-0.6684916740104556,-0.06685819826424122
1761467289760893000,7.989892822265625,-0.8087029855161905,-0.7913613900929689,-0.06091185708045959
1761467289770876000,7.9998759765625,-0.9371411493808031,-0.916340937936306,-0.011988543957471847
1761467289780855800,8.009855712890625,-0.896610986071825,-0.8988923750072717,0.0053308396339416505
1761467289790839000,8.019839111328125,-0.8005366301953792,-0.9487561838507652,0.0732248106867075
1761467289800821800,8.02982177734375,-0.6048068450853228,-0.902086494873464,0.26438217331469055
1761467289810804700,8.0398046875,-0.5930243450939655,-0.7143243276417255,0.5001771345704794
1761467289820788000,8.0497880859375,-0.7725766101241112,-0.5752101637229323,0.6309516324281692
1761467289830771000,8.05977099609375,-0.8092004136443137,-0.39368163018375635,0.7668734300464392
1761467289840754000,8.06975390625,-0.606888035273552,-0.17711393196731806,0.9076362379550933
1761467289850737000,8.07973681640625,-0.31591128502190113,-0.03525368421077728,0.9890484467506409
1761467289860719900,8.089719970703126,0.15367840358316898,0.111243867957592,1.08873456338346
1761467289870703000,8.099703125,0.546164978763461,0.14089081820249558,1.1951508650541305
1761467289880685800,8.109685791015625,0.846964619371295,0.3186030083239078,1.2558312514662742
1761467289890669800,8.119669921875,1.1075222659617663,0.40206279729902744,1.354675072056055
1761467289900652800,8.12965283203125,1.5335972224891186,0.41173663457334037,1.2460931167840956
1761467289910636000,8.139635986328125,1.944013422113657,0.49891135241836304,1.0635229652374982
1761467289920618800,8.14961865234375,2.2440748115748166,0.48721682297140356,0.7297890232771634
1761467289930603000,8.15960302734375,2.391258007919788,0.568623478808999,0.272289000916481
1761467289940586000,8.1695859375,2.283636422112584,0.72459203915596,0.04009527902305126
1761467289950569200,8.1795693359375,1.9845763186484575,0.8655354643285273,-0.09245908798873424
1761467289960552200,8.18955224609375,1.6800690556943416,1.0887503454744816,-0.13603344129920006
1761467289970535000,8.199534912109375,1.406522163671255,1.3014558153048157,-0.11461129856407641
1761467289980518100,8.20951806640625,0.9927461322247981,1.4554700267136096,-0.11607903302907943
1761467289990501000,8.219501220703124,0.5960258649975061,1.5285092517003416,-0.07817337300479411
1761467290000484400,8.229484375,0.21917057419121264,1.5261945450171828,-0.056175476208329196
1761467290010467000,8.239467041015626,0.04819090719521046,1.485535202370584,0.04506137699782848
1761467290020450000,8.249449951171876,0.05200257443785667,1.3834472852930426,0.15223463451564312
1761467290030433300,8.259433349609376,0.05584171420931816,1.24570294842273,0.2988344780147075
1761467290040416300,8.269416259765626,0.009019757279753685,1.1148194372326135,0.359850964513421
1761467290050399000,8.27939892578125,0.05090542685091495,0.9214990513518452,0.32832652995884415
1761467290060382200,8.28938232421875,0.16632161205708978,0.7857461805596947,0.27737083422541614
1761467290070365200,8.299365234375,0.27288462872207164,0.6769923758521675,0.1984580410301685
1761467290080348000,8.309347900390625,0.302985167953372,0.6469304150655866,0.03818038531243801
1761467290090331100,8.3193310546875,0.345050285744667,0.6178349612236023,-0.05524491735994815
1761467290100314000,8.329314208984375,0.5126946708381176,0.6034241585552692,-0.14564415020942686
1761467290110297000,8.339297119140625,0.682420538380742,0.6158247904449701,-0.2379465863317251
1761467290120280000,8.349280029296875,0.8182803766787051,0.552153697784245,-0.3108738753765821
1761467290130263000,8.359262939453124,0.9236685043454169,0.462225005055964,-0.3598053718060255
1761467290140247000,8.3692470703125,0.9741226802974938,0.37095015841573475,-0.36889001101553437
1761467290150230300,8.379230224609374,0.8206044357120991,0.32296061901152134,-0.34929683727324007
1761467290160213200,8.389213134765624,0.6429594656080008,0.19121435351222751,-0.39944881540834903
1761467290170196000,8.399196044921876,0.5798047980368137,0.14559095871746539,-0.4859855276107788
1761467290180179200,8.40917919921875,0.5244599274337292,0.15506635081022976,-0.49633448766767974
1761467290190162200,8.419162109375,0.3565338027894497,0.1401046362608671,-0.5960603517889976
1761467290200145000,8.429144775390625,0.5889736083984375,0.07201192776560783,-0.661786331152916
1761467290210128100,8.439128173828125,0.24869652840495107,0.08096738763749599,-0.7827478755265473
1761467290220111000,8.449111083984375,0.06479191338419914,0.08854366811066866,-0.8442910162478685
1761467290230094000,8.459093994140625,0.3216641494601965,0.030426702445745465,-0.8754021938264369
1761467290240077000,8.4690771484375,0.19759820933043956,0.037816228175163266,-0.8740852660089731
1761467290250060000,8.47906005859375,-0.010260697251558303,0.07444003169536591,-0.8000304342389106
1761467290260043300,8.489043212890625,-0.21127660607099533,0.0797165107935667,-0.6940244669348001
1761467290270026200,8.499026123046875,-0.38372517657577987,0.12597791123092172,-0.5862427221298218
1761467290280009000,8.509009033203125,-0.46449265772700304,0.18404519253522156,-0.5610737940818071
1761467290289992200,8.5189921875,-0.5279284803271294,0.17130758377611635,-0.5552940416365861
1761467290299975200,8.52897509765625,-0.5279302338927984,0.13630144458562135,-0.553843258306384
1761467290309958100,8.538958251953124,-0.3722194476991892,0.11461334439069032,-0.5951584345132113
