time,seconds_elapsed,z,y,x
1761467185626839600,0.114839599609375,-0.4757698385447263,-0.017627426627278328,-0.7639654336452484
1761467185636822500,0.124822509765625,-0.35300621318519115,0.02363397356569767,-0.7207154899835586
1761467185646805500,0.134805419921875,-0.3363859177738428,0.06680588355511427,-0.6423667604118585
1761467185656788500,0.14478857421875,-0.3132230688512325,0.057875558124482626,-0.5875426988124847
1761467185666771500,0.154771484375,-0.27311785295605656,0.15655220545381307,-0.6018436113655566
1761467185676754400,0.16475439453125,-0.23604513662457466,0.16034955191016195,-0.5998346096307039
1761467185686737700,0.174737548828125,-0.20865970157086847,0.19017419680953024,-0.5564987412512302
1761467185696719400,0.18471923828125,-0.30572832918167114,0.2337333525508642,-0.5136708223938942
1761467185706702600,0.19470263671875,-0.4446574919223785,0.23841771097481249,-0.49634676262736316
1761467185716685600,0.204685546875,-0.5686690715163946,0.2826508204549551,-0.5138192909538746
1761467185726668500,0.21466845703125,-0.6479559587210416,0.23212270248383282,-0.47291211102604863
1761467185736651500,0.224651611328125,-0.6271235985726118,0.18600860156267882,-0.4310024760574102
1761467185746634500,0.234634521484375,-0.6554664804816246,0.12864245426505802,-0.403078111821413
1761467185756617500,0.244617431640625,-0.7851011606544256,0.038266310030221934,-0.3782219029843807
1761467185766599400,0.254599365234375,-0.8754033628702164,-0.0371022346869111,-0.3688742289245128
1761467185776582400,0.26458251953125,-0.9238730870068073,-0.13691723839640615,-0.34796120475530623
1761467185786565600,0.274565673828125,-0.9577233341604471,-0.2318058916196227,-0.3556441604733467
1761467185796548600,0.284548583984375,-1.0030734649717807,-0.290816006731987,-0.40843174780905245
1761467185806531300,0.29453125,-1.0801672260463238,-0.3831014917194843,-0.44400165836215016
1761467185816514600,0.3045146484375,-1.1263298422843218,-0.4158256574526429,-0.43956163008809085
1761467185826498000,0.314498046875,-1.0882377197772264,-0.5040715116605162,-0.40494682830274104
1761467185836481000,0.32448095703125,-0.8962281242340803,-0.544076482051611,-0.2575561266869306
1761467185846463000,0.334462890625,-0.5704553704112768,-0.5314242134884,0.01612228276133537
1761467185856446000,0.344446044921875,-0.3483084107577801,-0.5492363490328193,0.27738018657565117
1761467185866429200,0.35442919921875,-0.29645430487990376,-0.48765901378095144,0.4438485136270523
1761467185876412000,0.364411865234375,-0.32654023106396196,-0.4984533795177936,0.6495832676619291
1761467185886395000,0.374394775390625,-0.3081236998856067,-0.37982086261361836,0.8922317480742931
1761467185896378000,0.384378173828125,-0.34415713629722594,-0.23264351148754356,1.0548094974279403
1761467185906361000,0.394361083984375,-0.5531611212611198,-0.12368424733579159,1.025379989326
1761467185916343000,0.404343017578125,-0.678036039686203,0.005921499003469943,0.9688198977142571
1761467185926326000,0.414325927734375,-0.7187702011346817,0.10848024846315384,0.7807219226568937
1761467185936309000,0.42430908203125,-0.42860359822213645,0.3671986969277262,0.5313426726847886
1761467185946292000,0.4342919921875,-0.20649463249146938,0.5769836031362414,0.21933190223276613
1761467185956275000,0.44427490234375,0.06302607275545596,0.7089876427888869,-0.06992752270698548
1761467185966258200,0.454258056640625,0.3405038744866848,0.9099421768099069,-0.29218495699763297
1761467185976241200,0.4642412109375,0.5926771390914917,1.051344743926823,-0.4087058885753155
1761467185986223000,0.47422314453125,0.7592641240864991,1.0869596626654268,-0.44272740064263344
1761467185996206000,0.4842060546875,0.6816448778331279,1.051589074076712,-0.39987376282215115
1761467186006189000,0.49418896484375,0.7577765158772468,0.9062775168225169,-0.20229718080163
1761467186016172000,0.504172119140625,1.0119207882940768,0.7979547970086336,0.03964519716799259
1761467186026155000,0.514155029296875,1.2289502588033676,0.6138873926416039,0.23411095369160173
1761467186036138000,0.524137939453125,1.4070160846680402,0.4255471332609653,0.35165772118568417
1761467186046121200,0.534121337890625,1.540824835655093,0.22945289875268934,0.46395314402282234
1761467186056103000,0.54410302734375,1.5876842019855975,0.031656244240701195,0.6062374624103307
1761467186066086100,0.554086181640625,1.5300608650565146,-0.14743717110604046,0.7543254986405372
1761467186076069000,0.564069091796875,1.4215771094620226,-0.19681699582487344,0.7962059075146913
1761467186086051800,0.5740517578125,1.395638366085291,-0.44602761123180384,0.7943231625080108
1761467186096035000,0.58403515625,1.4238754495322703,-0.7619628616511821,0.8079384308844805
1761467186106018000,0.59401806640625,1.4240712643653153,-0.688974197807908,0.650713732996583
1761467186116001000,0.6040009765625,1.3698399079620838,-0.75781714014858,0.6110065765082836
1761467186125983000,0.61398291015625,1.2214619488745928,-0.7602344304233789,0.6204524502456188
1761467186135966000,0.623966064453125,0.979849825772643,-0.7434422855764627,0.5831833345592021
1761467186145949200,0.63394921875,0.7443003637105227,-0.6863400499120355,0.5906558623969554
1761467186155932000,0.643931884765625,0.5492974315702915,-0.6298705591931939,0.6167278767645359
1761467186165915100,0.6539150390625,0.5232002827614546,-0.5867609007850288,0.6481751544296741
1761467186175898000,0.663898193359375,0.48403147093355653,-0.5241042458638548,0.6750491328299045
1761467186185881000,0.673881103515625,0.4636562069028616,-0.5122048414945602,0.6973141561299562
1761467186195864000,0.683864013671875,0.37412732714712615,-0.4622676751539111,0.6449380722045898
1761467186205846000,0.693845947265625,0.2984931172311306,-0.46699031976163385,0.5774602807372808
1761467186215829200,0.703829345703125,0.24700141492486,-0.480455366012454,0.4995744925022125
1761467186225812000,0.71381201171875,0.28090602261424064,-0.47289282180368897,0.3861906899064779
1761467186235795000,0.723794921875,0.37091421031951904,-0.45229339362829923,0.31648119386434553
1761467186245778200,0.733778076171875,0.45567456049919125,-0.5118231487005949,0.32971652301251886
1761467186255761000,0.743760986328125,0.6272732361763715,-0.5479229283466935,0.27185879280567166
1761467186265744000,0.753743896484375,0.6395733303010463,-0.61760612090379,0.19358312847018241
1761467186275726000,0.76372607421875,0.5677461114525795,-0.7156865559056401,0.14229542430341244
1761467186285709000,0.773708984375,0.5887088199824094,-0.7761816488787532,0.053718730705976485
1761467186295692000,0.783692138671875,0.6990016708254814,-0.8314151680618524,-0.0037491234004497524
1761467186305675000,0.793675048828125,0.7884095545500517,-0.8153476842276751,-0.03993512002527713
1761467186315658000,0.803657958984375,0.7758464255750179,-0.7983242148429155,-0.08531330788731574
1761467186325641000,0.813640869140625,0.7078641917169094,-0.807942814798653,-0.15463760400414467
1761467186335624000,0.8236240234375,0.4987169988900423,-0.7925007693864404,-0.19161971944272518
1761467186345606100,0.833606201171875,0.3283259454369545,-0.746533091198653,-0.2290542548239231
1761467186355588900,0.8435888671875,0.267436300188303,-0.6799500566139817,-0.21037351975142954
1761467186365572000,0.853572021484375,0.27376784129738807,-0.638021278553456,-0.2152203752607107
1761467186375555000,0.86355517578125,0.12365794385075568,-0.6257556712202728,-0.25362170984745025
1761467186385538000,0.8735380859375,-0.0061129299223423,-0.6113038058891892,-0.3458931663095951
1761467186395521000,0.88352099609375,-0.06502747570574283,-0.5960808100551367,-0.38846448005735873
1761467186405504000,0.89350390625,-0.028563246661424634,-0.5523940824113786,-0.38919162528812884
1761467186415486200,0.903486328125,0.030927053183317184,-0.4940560213416815,-0.4020546139925718
1761467186425469000,0.913468994140625,0.04988602067530155,-0.47601679904311894,-0.4345242204427719
1761467186435452000,0.923451904296875,-0.021105331870913506,-0.4749133678458631,-0.4193862725436687
1761467186445435100,0.93343505859375,-0.1633674384266138,-0.5024992939077317,-0.3724614397615194
1761467186455418000,0.943418212890625,-0.26377777768075467,-0.5086379427932203,-0.30524726766645904
1761467186465400800,0.95340087890625,-0.3416962991416454,-0.5239934789657592,-0.2517629302382469
1761467186475384000,0.963384033203125,-0.4155108924150467,-0.5514104782015085,-0.23557868815660477
1761467186485366000,0.973365966796875,-0.5508972679823637,-0.6124573598384857,-0.2552934424519539
1761467186495349000,0.983348876953125,-0.6376438235431909,-0.6678804102443158,-0.35568215439617634
1761467186505332000,0.99333203125,-0.7286807697743177,-0.6821545809209346,-0.4565969360411167
1761467186515315000,1.00331494140625,-0.7742331451594829,-0.7160808159202336,-0.5668745893150567
1761467186525298200,1.013298095703125,-0.8179781788617372,-0.685291856033355,-0.6437783807754516
1761467186535281000,1.023281005859375,-0.7729191399514674,-0.6907834391869604,-0.6601397329896688
1761467186545264000,1.03326416015625,-0.6180979960739612,-0.6636378042384982,-0.6139110657781363
1761467186555246000,1.04324609375,-0.4527998818457126,-0.5729409036166966,-0.6013175416648388
1761467186565229000,1.05322900390625,-0.36506723785698414,-0.6797972041398287,-0.603928016424179
1761467186575212000,1.0632119140625,-0.3123480395823717,-0.8951613717854022,-0.5952279926180839
1761467186585195000,1.073195068359375,-0.300609086471796,-1.0766424129210412,-0.4678074813634157
1761467186595178200,1.08317822265625,-0.4620259753525257,-1.1849610410816966,-0.2656973475664854
1761467186605161000,1.093160888671875,-0.6854191356748343,-1.2443820750825105,-0.06125730951726436
1761467186615144000,1.10314404296875,-0.752910371145606,-1.2552927606754005,0.059596682828664774
1761467186625126100,1.113126220703125,-0.7489595876932144,-1.216239538051188,0.06419745462238788
1761467186635108900,1.12310888671875,-0.7600245870649814,-1.1918066691927611,0.07102700838148593
1761467186645092000,1.133092041015625,-0.7740145339727401,-1.1694679961346088,0.10404372732043266
1761467186655075000,1.143074951171875,-0.73222004981637,-1.1132895973168313,0.0827881733238697
1761467186665058000,1.15305810546875,-0.7142886718064546,-1.1766206443682312,0.014542904615402221
1761467186675041000,1.163041015625,-0.7197317396432161,-1.1468263946071267,-0.11780512616932391
1761467186685024000,1.17302392578125,-0.9435480938136577,-1.1063096753016113,-0.22041735938191412
1761467186695006200,1.183006103515625,-0.809000507158041,-0.7938349405996501,-0.20351707798540591
1761467186704989000,1.192989013671875,-0.43900574977099893,-0.5227082614608108,0.14854162521660327
1761467186714972000,1.202971923828125,-0.24050562316477297,-0.03668663962334394,0.49050446633994577
1761467186724955100,1.212955078125,-0.34161621964275835,0.3751929105520248,0.7224170332044363
1761467186734938000,1.222938232421875,-0.49091070905327794,0.6826014479056001,0.9710632927268743
1761467186744921000,1.232921142578125,-0.41145898667573927,0.7953741328656673,1.3252110771626233
1761467186754904000,1.242904052734375,-0.17901450489163398,0.865913796121627,1.668001601281762
1761467186764886000,1.252885986328125,0.0634516046911478,0.9132806735828518,1.966917327839136
1761467186774869000,1.262868896484375,0.01834697307348251,0.5101214593492448,2.1150854435682294
1761467186784852000,1.27285205078125,-0.13575170174837112,0.11754793653786182,2.0971236704200504
1761467186794835200,1.282835205078125,0.08816635923087596,0.04336830934435129,1.9884592975616453
1761467186804818000,1.29281787109375,0.48659869107306003,-0.16125234596878288,1.6874170803695916
1761467186814801000,1.30280078125,0.7688368390738963,-0.39280762382820245,1.3964964442193508
1761467186824784600,1.31278466796875,0.9199380856454372,-0.5281938532650471,0.9993407081842421
1761467186834766600,1.3227666015625,1.0399632259517908,-0.6753479696460067,0.5315162756860256
1761467186844749600,1.33274951171875,1.2522387799322605,-0.7067826800905168,0.07425766086578368
1761467186854732500,1.342732666015625,1.5470143379449843,-0.6429878149196505,-0.28160043461918827
1761467186864715500,1.352715576171875,1.8484037611395119,-0.47623102631568903,-0.6391197413146495
1761467186874698800,1.36269873046875,2.136194867092371,-0.2616369662597775,-0.8473527419060468
1761467186884681700,1.372681640625,2.2887656016945837,0.019936141961067914,-0.8988701631754636
1761467186894664400,1.38266455078125,2.312647997063398,0.32059549731537695,-0.8914309530854224
1761467186904646700,1.392646728515625,2.1557295886456966,0.5731373029716312,-0.8520312551110982
1761467186914629600,1.402629638671875,1.9624866519153117,0.7251606328241527,-0.7160188565999269
1761467186924612600,1.412612548828125,1.7473492787629366,0.8682827172100543,-0.43628304680883884
1761467186934595600,1.422595703125,1.3740315144330262,1.0697473927102983,-0.10885083534121513
1761467186944578600,1.43257861328125,1.0983937876105307,1.1290044683210552,0.2405827800542116
1761467186954561800,1.442561767578125,0.8412976796507835,1.1586632551342249,0.43313714999854563
1761467186964544500,1.45254443359375,0.6956786638826131,1.1479485305048525,0.5553226832091808
1761467186974526700,1.462526611328125,0.5190589451730251,1.083535241174698,0.7282891401082277
1761467186984509700,1.472509765625,0.31017595624029637,1.0030604593597352,0.8029588889062405
1761467186994492400,1.482492431640625,0.18149989196658134,0.9407751219689845,0.7733955252915621
1761467187004475600,1.4924755859375,0.17309914336800575,0.8360023497216403,0.7383171976476908
1761467187014458600,1.502458740234375,0.10452361979186535,0.7006935694351792,0.7000339364826679
1761467187024441600,1.512441650390625,-0.024140754044055936,0.5882406179487705,0.6830816326379776
1761467187034424600,1.522424560546875,0.06403904919028282,0.5713727775171399,0.5988660568594932
1761467187044406500,1.532406494140625,0.18090309511721134,0.4260767100930214,0.49646483604907987
1761467187054389800,1.5423896484375,0.30867782663702964,0.3335829891823232,0.37302141173183917
1761467187064372500,1.55237255859375,0.47622810370624064,0.2781412340760231,0.2680418648660183
1761467187074355700,1.562355712890625,0.662688832950592,0.25800708532482386,0.1330804367125034
1761467187084338700,1.572338623046875,0.6996247711598873,0.18250380831211804,0.020001170021295547
1761467187094321700,1.58232177734375,0.6809913823604583,0.1330547177493572,-0.08634674258828162
1761467187104304600,1.5923046875,0.7249807462126017,0.1822375585913658,-0.19485271001458168
1761467187114286600,1.60228662109375,0.8028110048681497,0.21175153010636566,-0.2882879495590925
1761467187124269800,1.612269775390625,0.7860697134256363,0.20163871689289808,-0.38473815301060676
1761467187134252500,1.62225244140625,0.6611445261180401,0.25457974122464655,-0.5253431400090456
1761467187144235500,1.632235595703125,0.5678939954906702,0.34151275926828384,-0.6426181048244237
1761467187154218800,1.64221875,0.5230903926461935,0.38893735826611514,-0.716725543564558
1761467187164201500,1.652201416015625,0.4263970280885696,0.43539223544895644,-0.7692495115280151
1761467187174184400,1.662184326171875,0.31643326306939124,0.4625964687168598,-0.8605757960945367
1761467187184166700,1.672166748046875,0.2345440844118595,0.47220717762708664,-0.9264812236785888
1761467187194149400,1.6821494140625,0.18479601090252398,0.48344022704213857,-0.8774895214945078
1761467187204132600,1.692132568359375,0.1810012947946787,0.4665092582464218,-0.7974182059139013
1761467187214115600,1.702115478515625,0.057411155483126634,0.43048751227259635,-0.7239420508146286
1761467187224098600,1.7120986328125,-0.0845744722187519,0.31576164741814133,-0.6753028153300284
1761467187234081500,1.72208154296875,-0.1471761820822954,0.23366963966488838,-0.5761164649128914
1761467187244064500,1.732064453125,-0.30109599320590497,0.1557990489989519,-0.4040601085960865
1761467187254046700,1.742046630859375,-0.3587421264886856,0.08957038080990314,-0.3414613213419914
1761467187264029400,1.752029541015625,-0.3676782971382141,0.020838205367326734,-0.3663923489809036
1761467187274012700,1.7620126953125,-0.35711832467913623,-0.23142829047888516,-0.30010230599343773
1761467187283995600,1.77199560546875,-0.2938911763936281,-0.2125274829149246,-0.30297347751557824
1761467187293978600,1.781978515625,-0.2154869172424078,-0.23565672182887792,-0.3942705359876156
1761467187303961600,1.791961669921875,-0.2590565943777561,-0.26226678859591485,-0.5108218627035618
1761467187313944600,1.801944580078125,-0.4048024513959884,-0.17025924376696347,-0.602273819476366
1761467187323926800,1.8119267578125,-0.5778361283123493,-0.07695142999440431,-0.644268210119009
1761467187333909500,1.821909423828125,-0.7191255904436111,-0.01393207924067974,-0.6783230399340391
1761467187343892500,1.831892578125,-0.8179454456359148,0.03276186739504337,-0.7389660169452429
1761467187353875700,1.841875732421875,-0.857904531058669,0.04273702570348978,-0.8179471992015838
1761467187363858700,1.851858642578125,-0.8544745566099882,0.09995002826601267,-0.8840326595276594
1761467187373841400,1.86184130859375,-0.8281880227088928,0.13504443026185034,-1.012476084089279
1761467187383824600,1.87182470703125,-0.6423357807517052,0.1718891830563545,-1.127444525527954
1761467187393806600,1.881806640625,-0.3974479969799518,0.25625936487466094,-1.1252706886202097
1761467187403789600,1.89178955078125,-0.23105741133987903,0.37840602737963197,-1.0850468147814274
1761467187413772500,1.9017724609375,-0.2097965966463089,0.44426820034384723,-1.0334861388921737
1761467187423755500,1.911755615234375,-0.26974633069634435,0.4906505968123674,-0.9203437438368797
1761467187433738800,1.92173876953125,-0.48843876598179337,0.48132864171564577,-0.7441910581171512
1761467187443721500,1.931721435546875,-0.7421089911460876,0.4110898611024022,-0.5169534973263741
1761467187453704700,1.94170458984375,-0.8105892376542091,0.3190346777394414,-0.2927092731326818
1761467187463686700,1.951686767578125,-0.6815361567616463,0.2548079970225692,-0.08051438317298888
1761467187473669600,1.961669677734375,-0.47922144030332564,0.19244389530718325,0.00014788403809070586
1761467187483652600,1.971652587890625,-0.4441021961271763,0.09930588514357805,-0.009044891721010207
1761467187493635600,1.981635498046875,-0.5262047252744436,0.09854279181659222,-0.13110709081292152
1761467187503618800,1.991618896484375,-0.6305857217252254,0.08005261088013649,-0.3009182985514402
1761467187513601500,2.0016015625,-0.6722025112271308,0.1414358848646283,-0.481091325828433
1761467187523584500,2.01158447265625,-0.7979238173484802,0.16390315273851155,-0.5955827974051237
1761467187533566700,2.021566650390625,-0.986032313799858,0.19491466933488844,-0.6286404328763484
1761467187543549400,2.031549560546875,-1.2033546297758817,0.17651333572566508,-0.5765916812092066
1761467187553532700,2.04153271484375,-1.3132669568687676,0.20529402453005313,-0.3647819911748171
1761467187563515600,2.051515625,-1.1071803206562996,0.24306553678065537,0.043590719923377035
1761467187573498600,2.06149853515625,-0.6614367870628833,0.2951382538452744,0.4941974756389856
1761467187583481600,2.071481689453125,-0.376617390397191,0.42339872305542225,0.8159563176453113
1761467187593463600,2.081463623046875,-0.5565677148342132,0.30524551410079,1.0286562345176935
1761467187603446800,2.09144677734375,-0.6853308728694916,0.287632408259809,1.2394722373396156
1761467187613429500,2.101429443359375,-0.49007834988236426,0.43800417151302096,1.5163199244737624
1761467187623412700,2.111412841796875,-0.23056349034309387,0.5402624767214059,1.7672019802242516
1761467187633395700,2.121395751953125,-0.11770400388240813,0.5762304466813802,1.8764754248917102
1761467187643378400,2.13137841796875,-0.1414993054896593,0.600283814702928,1.7652444164156913
1761467187653361700,2.141361572265625,0.07967910139262675,0.5582385706558823,1.387598267492652
1761467187663344600,2.1513447265625,0.6119897423267364,0.5016457458183169,0.916010683068633
1761467187673326600,2.16132666015625,1.0791863983154297,0.48136780468225476,0.41805239359140395
1761467187683309600,2.1713095703125,1.2767004364937544,0.5192752182722091,-0.014762684845924377
1761467187693292500,2.18129248046875,1.2904992447435855,0.5724988589376211,-0.3596002046227455
1761467187703275800,2.19127587890625,1.4017489579200744,0.61380146792382,-0.5661462750405073
1761467187713258500,2.201258544921875,1.6869997317403553,0.6075868311926722,-0.6853098300814628
1761467187723241500,2.211241455078125,2.066883430457115,0.4424541366592049,-0.7250953125029802
1761467187733223700,2.2212236328125,2.4014555768072605,0.18175795838087797,-0.6497293981343507
1761467187743206400,2.231206298828125,2.5541893930166957,-0.17047317877858875,-0.43216801270544525
1761467187753189600,2.241189697265625,2.457044193038344,-0.4942568046107888,-0.16449673471748827
1761467187763172600,2.251172607421875,2.1906290525913237,-0.48301498736739157,0.06110591834783554
1761467187773155600,2.261155517578125,1.7601269272714852,-0.8821201039046048,0.37353462195098397
1761467187783138600,2.271138671875,1.4575123461961745,-0.8707426775828003,0.6307569866389036
1761467187793121500,2.28112158203125,1.2823714678674936,-0.738935914067924,0.8953945960193872
1761467187803103700,2.291103759765625,1.1026543676644562,-0.6798378284111618,1.0859767891079186
1761467187813086500,2.30108642578125,0.8857575836241245,-0.509170880626142,1.244651101282239
1761467187823069200,2.311069091796875,0.6356757383406162,-0.44230303775072094,1.3604150770127772
1761467187833052200,2.32105224609375,0.4178758679807186,-0.44831542990803713,1.3597095590919255
1761467187843035100,2.33103515625,0.2989052051633596,-0.45070933930724855,1.3148293838799
1761467187853018000,2.34101806640625,0.34090134937167166,-0.4024032812997699,1.236092531773448
1761467187863001000,2.3510009765625,0.3190016522526741,-0.377809230530262,1.073847959896922
1761467187872983300,2.3609833984375,0.2588642866760492,-0.31105420037955045,0.8384908055365086
1761467187882966000,2.370966064453125,0.2958487402021885,-0.2446212417900562,0.6562421410292386
1761467187892949000,2.380948974609375,0.41582945684492584,-0.12489829930067062,0.5466133070528507
1761467187902932200,2.39093212890625,0.5665034179151058,0.037054596152901645,0.448584309977293
1761467187912915200,2.400915283203125,0.7801321400701999,0.16370485368743537,0.4028939874261617
1761467187922898200,2.410898193359375,0.9630664487540721,0.22250074152722954,0.3054366527587175
1761467187932881200,2.420881103515625,0.9822738380491733,0.152830700712651,0.1456687001287937
1761467187942863000,2.430863037109375,0.9281377587139606,0.026193302659690377,0.007523381242156029
1761467187952846000,2.44084619140625,0.8614403039693832,-0.10377250916361808,-0.08977730155885219
1761467187962829000,2.4508291015625,0.8446399758160114,-0.23484072927087543,-0.15273030907809734
1761467187972812300,2.460812255859375,0.8946960923612117,-0.31802257808744905,-0.22811901980042457
1761467187982795300,2.470795166015625,0.9180085788875818,-0.36155718390941616,-0.32416941027939317
1761467187992778000,2.480778076171875,0.8080962517946958,-0.4476622266963124,-0.3790887489467859
1761467188002761200,2.49076123046875,0.6739870565563439,-0.4504246771469712,-0.42359307658374307
1761467188012743200,2.5007431640625,0.5334650716662407,-0.4725080602698028,-0.4892448216676712
1761467188022726100,2.51072607421875,0.4033025682270527,-0.5244285093821585,-0.5369885696172714
1761467188032709000,2.520709228515625,0.36747546804249287,-0.5405909780234098,-0.480130956363678
1761467188042692000,2.530692138671875,0.3533826452821493,-0.5416187136359513,-0.3543196338713169
1761467188052675300,2.54067529296875,0.2713525968492031,-0.5639277222082019,-0.22260522481501102
1761467188062658000,2.550657958984375,0.20390753860771654,-0.5978615559920668,-0.11666472396254539
1761467188072641000,2.56064111328125,0.18165712835490702,-0.589256955384463,-0.03703355336487293
1761467188082623200,2.570623291015625,0.19492752881646155,-0.5373804915443062,0.048561494073271746
1761467188092606000,2.58060595703125,0.17979542613625527,-0.4526977366454899,0.10063830279111861
1761467188102589200,2.590589111328125,0.10207330403029918,-0.3505506367266178,0.06374386563599109
1761467188112572200,2.600572265625,0.02221884607076645,-0.24151421568542716,-0.0059451721400022505
1761467188122555100,2.61055517578125,-0.07037526647448539,-0.12111074358597397,-0.0302291340470314
1761467188132538000,2.6205380859375,-0.1711620378255844,-0.02608443545773625,-0.0368605348855257
1761467188142521000,2.63052099609375,-0.35139351729154583,0.010194500147551298,-0.08006839297115802
1761467188152503300,2.64050341796875,-0.4273264178931713,0.02822714657485485,-0.17639233969449997
1761467188162486000,2.650486083984375,-0.4309925391852855,0.040191432873904705,-0.26901509381234645
1761467188172469200,2.66046923828125,-0.43287353062629697,0.0390869787633419,-0.3187012080013752
1761467188182452200,2.6704521484375,-0.4441653244912624,0.06602379326671362,-0.37537995755672454
1761467188192435200,2.680435302734375,-0.4322428315073251,0.09703983990773558,-0.449141943860054
1761467188202418200,2.690418212890625,-0.4077022644907236,0.13098989417403936,-0.4738263032615185
1761467188212401200,2.700401123046875,-0.36852585387825965,0.1533389424957335,-0.5013105225145816
1761467188222383400,2.71038330078125,-0.2267541611880064,0.14171630924120546,-0.5358201103597879
1761467188232366000,2.720365966796875,-0.1607452732294798,0.10061462965458631,-0.49272214238941664
1761467188242349000,2.73034912109375,-0.08717208749651909,0.04266527564153075,-0.4025555492520332
1761467188252332300,2.740332275390625,-0.04330605776309967,-0.09183657217621803,-0.3574287058025598
1761467188262315000,2.75031494140625,-0.07627309234142303,-0.22837854751944542,-0.2963087589293718
1761467188272298000,2.760298095703125,-0.09411386945843696,-0.32332214580029245,-0.2105763488471508
1761467188282280200,2.7702802734375,-0.08758066829741,-0.37561230500787496,-0.1969996589154005
1761467188292263200,2.78026318359375,-0.11779986547231673,-0.4224301702842116,-0.19530337639153003
1761467188302246100,2.79024609375,-0.17128244933485984,-0.4113949815288186,-0.17172434788346289
1761467188312229000,2.80022900390625,-0.17048925313055513,-0.4293947485998273,-0.12234335412085055
1761467188322212000,2.810212158203125,-0.21133564278185366,-0.4407717365302145,-0.12836860575973988
1761467188332195000,2.820195068359375,-0.29419337421059605,-0.40826574359238144,-0.18232874400615692
1761467188342178000,2.830177978515625,-0.36284897728562354,-0.4878590663976967,-0.1405494574189186
1761467188352160300,2.84016015625,-0.40180969932079313,-0.4719587558239698,-0.15533084696531294
1761467188362143000,2.85014306640625,-0.3411129462957382,-0.497830717574805,-0.20408055708706377
1761467188372126200,2.860126220703125,-0.30030864222049714,-0.4609279509827494,-0.2684767491519451
1761467188382109200,2.870109130859375,-0.2810363709956407,-0.4931830378994345,-0.36087037068903444
1761467188392092200,2.880092041015625,-0.24754677384793758,-0.4853121583938598,-0.46929041339755057
1761467188402075100,2.8900751953125,-0.26120588136613365,-0.5350644696868956,-0.5202689054846763
1761467188412058000,2.90005810546875,-0.3894154971718788,-0.5662396524123847,-0.5251724596172571
1761467188422040300,2.910040283203125,-0.5566752668619156,-0.649168403250724,-0.46352702756524083
1761467188432023000,2.92002294921875,-0.6416156497836113,-0.5572732327550649,-0.3498217379301786
1761467188442006000,2.930006103515625,-0.5628384656667709,-0.42558366587907076,-0.10428221225142478
1761467188451989200,2.9399892578125,-0.4581178619980812,-0.14566490073651076,0.18399580043554306
1761467188461972200,2.94997216796875,-0.5657563989400863,0.07446838100701571,0.40100189006924625
1761467188471955000,2.959954833984375,-0.6169850663959979,0.180250038035959,0.5434194794476032
1761467188481938200,2.969938232421875,-0.5086731602370739,0.19765330051854252,0.7194254501730203
1761467188491920100,2.979920166015625,-0.34610710132122036,0.11375424334332346,0.9719400755614042
1761467188501903000,2.989903076171875,-0.14295418047308922,-0.18010741469487546,1.1824299151688813
1761467188511886000,2.999885986328125,-0.17816461006402967,-0.2621585059158504,1.389082368570566
1761467188521869000,3.009869140625,-0.184590843719244,-0.4732128475382924,1.4510346746146678
1761467188531852300,3.019852294921875,-0.03666238196492195,-0.61295303440094,1.4496072721600533
1761467188541835000,3.0298349609375,0.13056933067440987,-0.7156346795879304,1.335588678792119
1761467188551818200,3.039818359375,0.3218669785559177,-0.7468528246723115,1.0032681107610464
1761467188561800200,3.04980029296875,0.4666898755103349,-0.7394403564587235,0.6591518909960985
1761467188571783200,3.059783203125,0.5747802478730678,-0.603528787973523,0.319389774787426
1761467188581766100,3.06976611328125,0.5771493150919675,-0.5071626095436513,-0.04320318191051483
1761467188591749000,3.0797490234375,0.6424491779983044,-0.34165523647889495,-0.2504249596327543
1761467188601732400,3.089732421875,0.7560989380538463,-0.12491890369728206,-0.3040688715368509
1761467188611715000,3.099715087890625,0.900633665716648,0.0515862487219274,-0.23011048587858676
1761467188621697300,3.109697265625,1.1079752704262733,0.2359920912630856,-0.17199673508405686
1761467188631680300,3.11968017578125,1.3534598510473965,0.3998780006058514,-0.18771394417583942
1761467188641663000,3.1296630859375,1.5517220772445202,0.556397472833842,-0.14079086495935916
1761467188651646200,3.139646240234375,1.721706303462386,0.7303656541213392,-0.04925298346877098
1761467188661629200,3.149629150390625,1.830824265307188,0.8438568626143038,0.012704583272337913
1761467188671612200,3.159612060546875,1.857297846212983,0.9889435250714421,0.12210077753663062
1761467188681595100,3.16959521484375,1.8124457280516624,1.148205135614425,0.2823708344697952
1761467188691577000,3.1795771484375,1.7277011599630117,1.323894003214687,0.40606501867771144
1761467188701560300,3.189560302734375,1.536349151545763,1.4996169192150235,0.5876157640486955
1761467188711543000,3.19954296875,1.3174129706323146,1.6368571059554815,0.7302958037555217
1761467188721526300,3.2095263671875,1.1024614754408597,1.639062507045269,0.8390320728063583
1761467188731509200,3.21950927734375,0.8706021000683307,1.5503889289446173,0.8812573495954275
1761467188741492000,3.229491943359375,0.6558446661442517,1.3329583302885293,0.8953975186288357
1761467188751475200,3.23947509765625,0.5879045178622007,1.1308895514152943,0.8803706298887729
1761467188761457200,3.24945703125,0.60905485791862,0.9790579447425901,0.8566875564843416
1761467188771440400,3.2594404296875,0.6176408999562263,0.7935260207809507,0.7117424944549798
1761467188781423000,3.269423095703125,0.5343476997196674,0.6681159725658595,0.43787236182689665
1761467188791406000,3.279406005859375,0.46737785777449603,0.5221127797856927,0.14574351893067358
1761467188801389300,3.289389404296875,0.533162289327383,0.4070771183297038,-0.0478361024081707
1761467188811372000,3.2993720703125,0.7118944701462984,0.2646821791745722,-0.11618132435977459
1761467188821355000,3.30935498046875,0.7739332854300737,0.23127704543992875,-0.1313046592116356
1761467188831333400,3.31933349609375,0.6797621328264475,0.201935361751914,-0.20835516566634177
1761467188841316400,3.32931640625,0.5344821397542954,0.24860943464338778,-0.31364392461180685
1761467188851299300,3.33929931640625,0.42645548027753827,0.28817630587816234,-0.36965865730047226
1761467188861282300,3.3492822265625,0.433412459808588,0.38149449491426346,-0.3792144211530685
1761467188871265500,3.359265625,0.395916549628973,0.48348026679158207,-0.3868576293826103
1761467188881248500,3.36924853515625,0.40431379109621046,0.5021830675654113,-0.4057715886890888
1761467188891230500,3.37923046875,0.38129999525547026,0.5746563292324542,-0.37015082473158833
1761467188901213400,3.38921337890625,0.4251391369819641,0.8135254372365772,-0.20696166548132897
1761467188911196400,3.399196533203125,0.45812312269508837,0.7318024089261889,-0.27935820865035055
1761467188921179400,3.409179443359375,0.41380759562849995,0.7019676810242236,-0.37071021218001843
1761467188931162400,3.419162353515625,0.333867797473073,0.6648873659081757,-0.38166941308975216
1761467188941145300,3.429145263671875,0.29622400325536724,0.6119260294407606,-0.43092648821175095
1761467188951128300,3.43912841796875,0.208410695245862,0.5073636850737036,-0.4649643668919801
1761467188961110300,3.4491103515625,0.1124947448015213,0.46827261465713377,-0.5487497345596551
1761467188971093500,3.459093505859375,0.10282733726799488,0.36758491976633667,-0.5890875901669264
1761467188981076500,3.469076416015625,0.10258534520566463,0.3297666457645595,-0.5802163014471531
1761467188991059200,3.47905908203125,0.10062427426576613,0.2847248502500355,-0.6246382114976644
1761467189001042400,3.48904248046875,0.0638742140173912,0.07212152561992406,-0.4563397464096546
1761467189011025400,3.499025390625,-0.08024170371145009,0.17256109096854924,-0.4540595265179872
1761467189021008100,3.509008056640625,-0.30230010829865933,0.17020722131878135,-0.517550294175744
1761467189030990300,3.518990234375,-0.4859899115249514,-0.11224749204218387,-0.38873803630173204
1761467189040973300,3.528973388671875,-0.5937859771162272,0.04418430190235376,-0.511336241966486
1761467189050956300,3.538956298828125,-0.6515238803356885,0.08025105606168507,-0.6765443398237228
1761467189060939300,3.548939208984375,-0.6316302623420953,0.025913024413585662,-0.8227811952292918
1761467189070922500,3.558922607421875,-0.6150549751162528,0.12276830153465271,-0.9710188690632581
1761467189080905500,3.568905517578125,-0.7635407784923911,0.1989075383633375,-1.0631868651509284
1761467189090888200,3.57888818359375,-0.8351829961627721,0.2720858795598149,-1.1570762782037258
1761467189100870400,3.588870361328125,-0.7744929651394487,0.4457435335934162,-1.1352315261423587
1761467189110853400,3.598853271484375,-0.8524173318192362,0.6131923961147666,-1.0688000288575887
1761467189120836400,3.60883642578125,-1.063286818394065,0.7695464486479758,-0.9932540817469357
1761467189130819300,3.6188193359375,-1.116771155822277,0.956544938030839,-0.8817103540599346
1761467189140802300,3.62880224609375,-0.9385106841683387,1.0499755014002323,-0.8105132498085499
1761467189150785500,3.63878564453125,-0.542573091751337,1.1445276161454618,-0.8220084572911261
1761467189160767200,3.648767333984375,-0.2814128030925989,1.212581161674112,-0.8583575355231762
1761467189170750500,3.65875048828125,-0.12087795774340629,1.2927246657080949,-0.9318909737676382
1761467189180733400,3.6687333984375,-0.073494275277853,1.3220631345257163,-0.9713824416786432
1761467189190716200,3.678716064453125,-0.044865562164783476,1.3596435081183909,-0.7975070532411337
1761467189200699400,3.688699462890625,-0.04234568829834461,1.4345492576293646,-0.4812082302063703
1761467189210682400,3.698682373046875,-0.07937748809754848,1.3757707593157886,-0.1212958908945322
1761467189220665300,3.708665283203125,-0.12065408585965633,1.1821527056626975,0.46961365400254723
1761467189230647300,3.718647216796875,-0.2665256150841713,0.9892593130223453,1.2811381266802548
1761467189240630300,3.72863037109375,-0.7119160974562168,0.7576949750736355,1.8823025236099957
1761467189250613500,3.738613525390625,-1.2932242857933043,0.577001138792932,2.1303601695895193
1761467189260596200,3.74859619140625,-1.3911439772754908,0.26781360906809565,2.4728140091001984
1761467189270579500,3.758579345703125,-0.9567354921668767,-0.12698372727259993,2.574226218873262
1761467189280562400,3.7685625,-0.16616788280010222,-0.4611715504802763,2.2270120330929757
1761467189290545400,3.77854541015625,0.5437187546551228,-0.7192458558224141,1.4122709364563226
1761467189300527400,3.78852734375,0.9525450547397136,-0.5558960991829633,0.42810675461590286
1761467189310510300,3.79851025390625,0.9325438847184181,-0.3244491040036082,-0.03891103767454624
1761467189320493600,3.80849365234375,0.8390057693213224,0.016165391250699757,-0.25793957304656506
1761467189330476300,3.818476318359375,0.6511842731177806,0.42340588344857094,-0.3183084092915058
1761467189340459300,3.828459228515625,0.6160030696213245,0.7085168104067444,-0.3440542604446411
1761467189350442500,3.8384423828125,0.8843781119644641,0.8887520892649888,-0.4017623530477285
1761467189360425500,3.848425537109375,1.2794418441563844,1.0005774103723466,-0.3779606216996908
1761467189370407400,3.858407470703125,1.598929234099388,1.0104916322737931,-0.31252865684628484
1761467189380390400,3.868390380859375,1.8077338970988988,0.9457533487729728,-0.1162502979427576
1761467189390373400,3.878373291015625,1.9603391184926031,0.8905090159349143,0.19102876781225203
1761467189400356400,3.8883564453125,1.9292022219508884,0.8069331993646919,0.41563831818699837
1761467189410339300,3.89833935546875,1.8470114299982785,0.7052659919172525,0.5941022034585476
1761467189420322300,3.908322265625,1.826983956491947,0.5778697383210063,0.7080027234047651
1761467189430304300,3.91830419921875,1.8182143745809793,0.4513838775679469,0.7195213117629289
1761467189440287200,3.928287353515625,1.7180962962716817,0.1642322385624051,0.7221487376570701
1761467189450270500,3.9382705078125,1.6651655010730027,-0.0734536510065198,0.6320137087017298
1761467189460253400,3.94825341796875,1.6178011078298091,-0.33720001063570376,0.5162146616578102
1761467189470236400,3.958236328125,1.5866303090184926,-0.6412529539510607,0.41905718671977515
1761467189480219400,3.968219482421875,1.5460931314468382,-0.5969596387162804,0.2974818943619728
1761467189490202400,3.978202392578125,1.3805512715905903,-0.5571086898431181,0.2533376322090626
1761467189500184300,3.988184326171875,1.201682897171378,-0.38826077417880295,0.27265783422887324
1761467189510167300,3.998167236328125,1.0489432357430457,-0.20565876618921755,0.3918389249265194
1761467189520148200,4.008148193359375,0.9006313276290893,-0.052536242923140526,0.4794616787999868
1761467189530131500,4.01813134765625,0.8295382682740687,0.10721592761576175,0.5588549489885568
1761467189540114400,4.028114501953125,0.819733498096466,0.20622107624709604,0.6035229427546263
1761467189550097400,4.038097412109375,0.8328238658159971,0.267979028762877,0.6682593265593052
1761467189560080400,4.048080322265625,0.8410007425308227,0.3860354993447661,0.7260662033617497
1761467189570063400,4.0580634765625,0.856759452676773,0.44430327165722844,0.7711246577501296
1761467189580046300,4.06804638671875,0.9241747003018855,0.5615089706286788,0.7679249849259853
1761467189590028300,4.0780283203125,0.9713356799274683,0.6377692034885287,0.6972831764698029
1761467189600011300,4.08801123046875,1.0070943910509347,0.6150647658579051,0.6098965694397688
1761467189609994500,4.097994384765625,1.0233335781902073,0.5634115893796086,0.49992929728925223
1761467189619977500,4.1079775390625,1.0388806914120912,0.4811433482766151,0.36460429652035237
1761467189629960200,4.117960205078125,1.1470260088324546,0.3358345675013959,0.2129495077192783
1761467189639943400,4.127943359375,1.1961188333034514,0.22211130381822586,0.12793021434247492
1761467189649926400,4.137926513671875,1.221539690285921,0.1315329150095582,0.0336363121420145
1761467189659908400,4.147908447265625,1.118249996203184,0.02465498717650771,-0.0659001668870449
1761467189669891300,4.157891357421875,0.9688216512799263,-0.07375263395309448,-0.17823533721268175
1761467189679874300,4.167874267578125,0.8843646679610013,-0.22434636939391492,-0.23969722939133642
1761467189689857300,4.177857177734375,0.7610042457520961,-0.29974004855230446,-0.3252835090011358
1761467189699840300,4.18784033203125,0.37644671000540253,-0.34032194204851984,-0.40227556326687336
1761467189709823500,4.197823486328125,0.384970792722702,-0.33295594332516193,-0.2423082886725664
1761467189719805400,4.207805419921875,0.48496729047894477,-0.28122078765183683,-0.08626315595805645
1761467189729788400,4.217788330078125,0.43574470214843747,-0.2476198390841484,-0.0034480946272611615
1761467189739771400,4.227771484375,0.42264556660056113,-0.16405089064612985,0.05732873789668083
1761467189749754400,4.23775439453125,0.45468496493995186,-0.054846273431181904,0.12209843944907188
1761467189759737300,4.2477373046875,0.46982291283905503,0.023943624036759138,0.23194354652464388
1761467189769720300,4.25772021484375,0.383396675273776,0.1128835979886353,0.3379588661789894
1761467189779703300,4.267703369140625,0.2892892355561256,0.16434812002703547,0.40668987257778644
1761467189789685200,4.277685302734375,0.1879500910192728,0.19742197598069905,0.45780222017765043
1761467189799668200,4.287668212890625,0.12049918755888939,0.23142069169431922,0.44055122564733024
1761467189809651500,4.2976513671875,0.1390472361624241,0.24283435837328432,0.35718963634967804
1761467189819634400,4.307634521484375,0.2459989598840475,0.27194690948054195,0.2736620428353548
1761467189829618000,4.317617919921875,0.35152912636995315,0.3285575622357428,0.20170389108359812
1761467189839601000,4.327600830078125,0.3458066570699215,0.382887556707859,0.1178448736578226
1761467189849583900,4.337583984375,0.2926724482536316,0.4090871429778635,0.018114333361387253
1761467189859566000,4.347566162109375,0.22167817309796808,0.4139443737506866,-0.0577004938185215
1761467189869548800,4.357548828125,0.2620534381061792,0.3611168927960098,-0.08132979120910168
1761467189879531800,4.36753173828125,0.3299894947350025,0.22775559331551193,-0.1081985089123249
1761467189889515000,4.377514892578125,0.33014030138254163,0.08693477160930634,-0.19776830520033836
1761467189899497700,4.387497802734375,0.27254911315739155,-0.02261851291283965,-0.29071313087940215
1761467189909480700,4.397480712890625,0.19348843592405318,-0.1288832772836089,-0.35207857694625855
1761467189919463000,4.407462890625,0.14886135869026182,-0.18478417433425784,-0.3842009773939848
1761467189929445600,4.417445556640625,0.1366927819907665,-0.2148401437714696,-0.38365854108035563
1761467189939428900,4.427428955078125,0.040703766310214995,-0.22520240170136094,-0.32268355563580986
1761467189949411800,4.437411865234375,-0.039485622692108154,-0.25092750232741234,-0.20954934388697147
1761467189959394800,4.447394775390625,-0.09674012630879879,-0.23613339942991732,-0.08612520879209042
1761467189969377800,4.457377685546875,-0.2314063709080219,-0.1921944505907595,-0.013862521135807037
1761467189979360800,4.46736083984375,-0.34396307502984996,-0.09568404138460755,-0.039862639310956
1761467189989343000,4.477343017578125,-0.3938075946509838,-0.04666252858415246,-0.11623802298307419
1761467189999325700,4.48732568359375,-0.44046997710466385,0.035954525956511496,-0.22690847496688366
1761467190009309000,4.497308837890625,-0.43799101977050303,0.12456760604158043,-0.43531390951573845
1761467190019292000,4.5072919921875,-0.5214338576108217,0.11121566477641463,-0.627236995819211
1761467190029275000,4.51727490234375,-0.5789864673912525,0.12311360784098506,-0.7063894429892301
1761467190039257900,4.5272578125,-0.5054600434094667,0.12258520005270838,-0.7815133652955293
1761467190049239800,4.53723974609375,-0.439682626119256,0.0969245429649949,-0.8700690161049366
1761467190059223000,4.54722314453125,-0.44183717380464077,0.11810542429015039,-0.9170581462949514
1761467190069205800,4.557205810546875,-0.5103606749325991,0.16233356533423066,-0.9396446566343307
1761467190079188700,4.567188720703125,-0.5386562105685472,0.21126725372076033,-0.9494920969098806
1761467190089172000,4.577171875,-0.5393365940481424,0.2510249713525176,-0.9284206673085689
1761467190099155000,4.587155029296875,-0.483389081376791,0.28231121323704716,-0.8983674743503332
1761467190109137700,4.5971376953125,-0.4397960233658552,0.2802104415655136,-0.8830021474361419
1761467190119120000,4.607119873046875,-0.38807226586937904,0.24976167341843247,-0.8439999243468046
1761467190129102800,4.617102783203125,-0.34359365719556806,0.24426658313348887,-0.8130950829952954
1761467190139085800,4.6270859375,-0.3332084567815065,0.3120775520779192,-0.7334832016199827
1761467190149068800,4.63706884765625,-0.3485679384768009,0.34943916835337874,-0.6930471463352441
1761467190159051800,4.6470517578125,-0.4282739278763532,0.3943612830109894,-0.7538637263476848
1761467190169035000,4.657034912109375,-0.5323597407728433,0.41962300390899177,-0.8121440658807754
1761467190179017700,4.667017822265625,-0.621612141674757,0.3902519479960203,-0.8977315145343542
1761467190189000000,4.677,-0.6238076058924198,0.38081133495569225,-0.9318898047238587
1761467190198983000,4.68698291015625,-0.676689301252365,0.3790891873382032,-0.9407014722108841
1761467190208966000,4.6969658203125,-0.7891524818718433,0.3957400240182876,-0.9497206449687481
1761467190218948900,4.706948974609375,-0.9316331996142864,0.45611894326582547,-0.9680167646378278
1761467190228931800,4.716931884765625,-1.076207090243697,0.4900467857003212,-1.0012351436287164
1761467190238915000,4.7269150390625,-1.1099673210263252,0.5698581351704896,-1.0269383246839046
1761467190248896800,4.736896728515625,-1.0886872171103954,0.6501905859053134,-1.0400199245750903
1761467190258880000,4.7468798828125,-1.177922666877508,0.7547425550088286,-1.020227428868413
1761467190268863000,4.756863037109375,-1.3485405148237943,0.8032567028090357,-0.8790215533673763
1761467190278845700,4.766845703125,-1.1709843920469283,0.8354768645428121,-0.43770226595699785
1761467190288829000,4.776828857421875,-0.6195616388857365,1.2888541078850626,0.1689221499443054
1761467190298812000,4.78681201171875,-0.2749246101170778,1.5509833877064287,0.7997095317214727
1761467190308795000,4.796794921875,-0.15863865633904933,1.61434892154932,1.3330349026560782
1761467190318776800,4.80677685546875,-0.20099778864085674,1.3927645642146467,1.7257196307569742
1761467190328759800,4.816759765625,-0.30055823306739327,0.792635793942958,1.9341472771376371
1761467190338743000,4.826742919921875,-0.27469313944876195,0.3146874423153698,2.159990168699622
1761467190348725800,4.836725830078125,-0.06919044060409069,-0.005174480028450489,2.179753438311815
1761467190358708700,4.846708740234375,0.3013958529353142,-0.3334460649296641,2.063794816792011
1761467190368692000,4.85669189453125,0.6758475897312164,-0.33721886146664615,1.8251017960071563
1761467190378674700,4.8666748046875,1.1715747591555117,0.021388824987411497,1.423171100655198
1761467190388657000,4.876656982421875,1.6378922942221164,-0.07615253470167517,0.9494996956944465
1761467190398639900,4.886639892578125,2.009689717116952,0.09945172335505485,0.4199538432985544
1761467190408622800,4.896622802734375,2.119072467377782,0.16349866359084844,0.02975508679449558
1761467190418605800,4.906605712890625,2.0655846228182315,0.15046616353839634,-0.23768238243758677
1761467190428588800,4.9165888671875,2.016088478243351,0.23683511795848608,-0.2642763748526573
1761467190438572000,4.926572021484375,1.947631028088927,0.2504077162370086,-0.1544172392517328
1761467190448553700,4.9365537109375,1.8856430662095545,0.2786586820788681,0.016634908458590506
1761467190458537000,4.946536865234375,1.8537176496386527,0.07969371443986892,0.19075345800220966
1761467190468520000,4.95652001953125,1.5105600457727908,-0.09776903096511959,0.4635311192184686
1761467190478502700,4.966502685546875,1.2605422056362032,-0.15789909001812338,0.7864496526539325
1761467190488486000,4.97648583984375,0.8864140017062425,-0.2885357868403196,1.0628811602026222
1761467190498468900,4.98646875,0.44590866102725263,-0.3615953239627182,1.3095394607782362
1761467190508451800,4.996451904296875,0.3660021806195378,-0.3743266491115093,1.606163861528039
1761467190518433800,5.006433837890625,0.45916181809306145,-0.5516635761797428,1.7314760023266076
1761467190528416800,5.016416748046875,0.4945891053050756,-0.646952773027867,1.6058499732732772
1761467190538400000,5.02639990234375,0.4798310966342687,-0.6576267272554338,1.4441215342253446
1761467190548382700,5.0363828125,0.5579746590226888,-0.5441245589770376,1.1281284161388874
1761467190558365700,5.04636572265625,0.726272539588809,-0.39355142793282866,0.7535679582715034
1761467190568349000,5.056348876953125,0.8994175679251551,-0.1248888008199632,0.37173371000885963
1761467190578331000,5.066330810546875,0.963081646323204,0.007120353399217128,0.06989245139360427
1761467190588313900,5.07631396484375,0.9398661904305219,0.08715046018660068,-0.17145546781420706
1761467190598296800,5.086296875,0.8976602028638124,0.17801190372034906,-0.2937994064569473
1761467190608280000,5.096280029296875,0.7855299074605107,0.2261034421943128,-0.328097397378087
1761467190618262800,5.1062626953125,0.7159495907559991,0.18322028601840137,-0.26328911738097666
1761467190628245800,5.116245849609375,0.6565154050126671,0.23912542085275051,-0.2660124048650265
1761467190638229000,5.12622900390625,0.5513318600073457,0.23293299595341085,-0.24316870489418504
1761467190648210700,5.136210693359375,0.5499778150498866,0.25406214709132907,-0.23706980349719523
1761467190658194000,5.14619384765625,0.6187982532978058,0.28574396416470405,-0.2161222925364971
1761467190668177000,5.156177001953125,0.6937967956587672,0.31816900082081556,-0.22974165256619453
1761467190678160000,5.166159912109375,0.6495376749545335,0.38084626013860107,-0.21447277176380156
1761467190688142800,5.176142822265625,0.6221046013668179,0.37468437650799746,-0.21164953103661535
1761467190698125800,5.186125732421875,0.5605278506368399,0.30541853258013724,-0.2100613850623369
1761467190708108800,5.19610888671875,0.5214996163234115,0.2434066053032875,-0.15583119770288467
1761467190718090800,5.2060908203125,0.39247050082832574,0.15708938107043505,-0.06984744320809841
1761467190728073700,5.21607373046875,0.3414817796081304,0.06844342162907123,-0.002345686343312263
1761467190738057000,5.226056884765625,0.215865102905035,-0.03788549401909113,0.010252513945102692
1761467190748040000,5.2360400390625,0.06358604472577571,-0.08272709078639745,0.063682490837574
1761467190758023000,5.24602294921875,0.05444470689296722,-0.18026070556044577,0.051208209189772605
1761467190768006000,5.256005859375,0.06185322958379984,-0.330268311676383,0.008586626559495925
1761467190777987800,5.26598779296875,-0.03515197740197182,-0.3974193554073572,-0.025042671319842336
1761467190787970800,5.275970703125,0.00483282698392868,-0.576581452076137,-0.021552491116523742
1761467190797953800,5.285953857421875,0.10695055467784405,-0.7539104880988597,-0.06177519591152668
1761467190807937000,5.29593701171875,0.07341887195408343,-0.8094649097993969,-0.12259937470853328
1761467190817920000,5.305919921875,0.056659752593934534,-0.8606663969874382,-0.15993629493415354
1761467190827903200,5.3159033203125,0.02447831543534994,-0.9135779029637575,-0.15265373671054838
1761467190837886200,5.32588623046875,-0.06171645146161318,-0.7799486001968383,-0.09382570016682147
1761467190847868200,5.3358681640625,-0.22328473151177167,-0.5963984977021813,-0.05590659613907337
1761467190857851400,5.345851318359375,-0.308473828497529,-0.40997371655404563,-0.07177168926894664
1761467190867834400,5.35583447265625,-0.27041531599909063,-0.2924903696849942,-0.0757207191556692
1761467190877817000,5.365817138671875,-0.19364274970293044,-0.13302461487203834,-0.17631342923939228
1761467190887800300,5.37580029296875,-0.1552291401565075,-0.07008534361720084,-0.2471697572290897
1761467190897783300,5.385783203125,-0.15515373683273792,0.05915653784573078,-0.33437750056087967
1761467190907765200,5.39576513671875,-0.20065555107444524,0.16361936736106872,-0.43176819973289965
1761467190917748200,5.405748291015625,-0.20478490596413612,0.232137315531075,-0.5784603976905346
1761467190927731200,5.415731201171875,-0.2643547007858753,0.26065029330998657,-0.7282201665252447
1761467190937714400,5.42571435546875,-0.3121510557055473,0.36869039679020643,-0.8452250822275876
1761467190947697200,5.435697265625,-0.2657008546978235,0.32041736426949496,-0.904947437262535
1761467190957680000,5.44568017578125,-0.21213351516127585,0.35268297258019443,-0.9614327100723982
1761467190967663400,5.455663330078125,-0.11747136417031287,0.2887172808870673,-1.0320125592082738
1761467190977645000,5.46564501953125,-0.09477262562811374,0.2767535791099071,-1.103771973517537
1761467190987628300,5.475628173828125,-0.14611527485251427,0.19326047238707542,-1.146273729160428
1761467190997611300,5.485611328125,-0.2845440868556499,0.2409244330987334,-1.140919508650899
1761467191007594200,5.49559423828125,-0.4341559716522693,0.1736214136764407,-1.040451301729679
1761467191017577200,5.5055771484375,-0.4461830940544605,0.10114186839908361,-0.91191318462193
1761467191027560200,5.515560302734375,-0.3884738324075937,0.09831190567016601,-0.8572545427173376
1761467191037542400,5.52554248046875,-0.38852468581199645,-0.047752515777945516,-0.8480085754662752
1761467191047525000,5.535525146484375,-0.4370037622988224,-0.07716711857169867,-0.8881815959006547
1761467191057508400,5.54550830078125,-0.5271054735064507,-0.13561638493090866,-0.9423036467105149
1761467191067491300,5.5554912109375,-0.5713602102965116,-0.2138289209023118,-0.9415800086110829
1761467191077474000,5.56547412109375,-0.4547790729641914,-0.3318295696437359,-0.8852747685432434
1761467191087457300,5.575457275390625,-0.27143676800131794,-0.4044125752955675,-0.7904711632549762
1761467191097440300,5.585440185546875,-0.24202245746850967,-0.5738461818933487,-0.6400397787690162
1761467191107422500,5.59542236328125,-0.21843583017587662,-0.6813108235731721,-0.4542448199570179
1761467191117405200,5.6054052734375,-0.24002923782467842,-0.7722086535945534,-0.27592063541710377
1761467191127388200,5.61538818359375,-0.3500701597332954,-0.8213689903438091,-0.08400339433252811
1761467191137371400,5.625371337890625,-0.5325631543904542,-0.8100064693301916,0.09539572596251963
1761467191147354000,5.63535400390625,-0.7416665080755949,-0.8295628181934356,0.18340601784884927
1761467191157337000,5.645337158203125,-0.9246259512007236,-0.847236714310944,0.16032207938134668
1761467191167319300,5.6553193359375,-1.1253022528022527,-0.8851064262390136,0.09330138403177261
1761467191177302000,5.665302001953125,-1.1553005007028578,-0.8942509789422154,0.02724164266884327
1761467191187285200,5.67528515625,-1.0539438205093146,-0.8689949571326374,-0.049801849523186684
1761467191197268200,5.685268310546875,-1.0573124201595783,-0.9872229848891496,-0.13397884685695172
1761467191207251200,5.695251220703125,-1.001376013404131,-1.088984446491301,-0.2700532046884298
1761467191217234200,5.705234130859375,-1.0117384174644946,-1.1208750840097665,-0.36689153067469593
1761467191227217200,5.715217041015625,-1.1018763690292834,-1.004596436755359,-0.4115630315721035
1761467191237199400,5.725199462890625,-1.1833259872257709,-0.8419821547836065,-0.3919114056408405
1761467191247182000,5.73518212890625,-1.2346435020089148,-0.5022384510144591,-0.29872049624621866
1761467191257165300,5.745165283203125,-1.1525690299123525,-0.12789338946342468,-0.07136895368695259
1761467191267148300,5.755148193359375,-0.968853799983859,0.09955284564197063,0.20548457866609096
1761467191277131300,5.76513134765625,-1.0611451301902532,0.31993045753538607,0.4427583803027868
1761467191287114200,5.7751142578125,-1.2727315328627824,0.5456278031468391,0.7138876897901296
1761467191297096200,5.78509619140625,-1.069070077970624,0.64990796957165,0.9051222093075514
1761467191307079400,5.795079345703125,-0.5193862774312495,0.6883227481618523,1.09102822727859
1761467191317062100,5.805062255859375,-0.1489969677686691,0.7885410719752312,1.1405576896011829
1761467191327045000,5.815045166015625,-0.008585457515716552,0.8935656270265578,1.122562014183402
1761467191337028400,5.8250283203125,0.05608721340298652,0.980012030597031,1.0853186174601315
1761467191347011300,5.83501123046875,0.3363105144500732,1.1324611846461892,1.0557570074111222
1761467191356993300,5.8449931640625,0.8328560145199299,1.2098977678090332,0.897629223203659
1761467191366976300,5.854976318359375,1.3667670763880013,1.28182815477103,0.5398503887891769
1761467191376959200,5.864959228515625,1.80566176699996,1.3951172648206351,0.14793664506077767
1761467191386942200,5.874942138671875,2.151088484841585,1.312608200699091,-0.23305589168071744
1761467191396925200,5.88492529296875,2.3496786278188226,1.1437994480013847,-0.45696986100673676
1761467191406908200,5.894908203125,2.358048396757245,1.0798039456918835,-0.5250000256597995
1761467191416891400,5.904891357421875,2.3706582874834536,0.9330953811213374,-0.5894698674827814
1761467191426873000,5.914873046875,2.2267881612092255,0.5558566439554095,-0.5031418295949697
1761467191436856300,5.924856201171875,2.0804653810858724,0.1420280055388808,-0.23277765926122665
1761467191446839300,5.93483935546875,1.952854900217056,-0.049587329989671705,0.16941782450675963
1761467191456822300,5.944822265625,1.6301479637056588,-0.24291999083012342,0.5775701708525419
1761467191466805200,5.95480517578125,1.2584312048316002,-0.32848902704417704,0.9540104511171579
1761467191476788200,5.964788330078125,0.937922655147314,-0.29968495736420153,1.3148597790181635
1761467191486770200,5.974770263671875,0.7062988420963286,-0.2260299385666847,1.504666311559081
1761467191496753200,5.984753173828125,0.5178507384270429,-0.17499869337901472,1.5580162089526652
1761467191506736400,5.994736328125,0.445415616813302,-0.08833572444841264,1.4625778128921985
1761467191516719400,6.00471923828125,0.48811786346435543,-0.13386968739405275,1.3033674941450357
1761467191526702000,6.0147021484375,0.509909424033761,-0.14228110351711512,1.0177572393625973
1761467191536685300,6.024685302734375,0.5572913529336452,-0.1623094538062811,0.7832938189715146
1761467191546668300,6.034668212890625,0.6274199511706828,-0.22610037345439193,0.6249959388941526
1761467191556650200,6.044650146484375,0.6146411336183547,-0.259095026692003,0.5167553444057703
1761467191566633200,6.05463330078125,0.6285854878187179,-0.2242078377060592,0.39159517929852006
1761467191576616200,6.0646162109375,0.7054758352756499,-0.14928528319075704,0.24322657256126404
1761467191586599400,6.074599365234375,0.7043728424698114,-0.019242168347537517,0.13076923716068267
1761467191596582100,6.08458203125,0.6325421164900064,0.06689429249092936,0.08012509159445762
1761467191606565000,6.094565185546875,0.5740209539383649,0.1464963831245899,0.08953940114974974
1761467191616547300,6.10454736328125,0.6746545805543661,0.13860986765846608,0.009039046502113342
1761467191626530000,6.114530029296875,0.7186614800632,0.045183542072772975,-0.07015314815640449
1761467191636513300,6.12451318359375,0.6778641902506352,-0.06599310586750506,-0.13162965338230131
1761467191646496300,6.134496337890625,0.6479506980240345,-0.20459157534912228,-0.1792050590276718
1761467191656479200,6.144479248046875,0.638331805807352,-0.33159795284494753,-0.18479484185874462
1761467191666462200,6.154462158203125,0.6411228978306055,-0.4474873085208237,-0.1887690061867237
1761467191676445200,6.164445068359375,0.7033522672504187,-0.5396490209981799,-0.25618717642128463
1761467191686427100,6.17442724609375,0.665143240365386,-0.6077528354093432,-0.3384814287483692
1761467191696410000,6.18441015625,0.5483768095940351,-0.6525434326417744,-0.34487551369965075
1761467191706393300,6.194393310546875,0.4377519503176212,-0.6711236299492418,-0.3812544025480747
1761467191716376300,6.204376220703125,0.3317190950065851,-0.6489193969257175,-0.41735915063023565
1761467191726359000,6.214359130859375,0.27244214565157887,-0.5889756542250514,-0.3946346931248903
1761467191736342300,6.22434228515625,0.19923545514345167,-0.47813875963315366,-0.3526695285767317
1761467191746324200,6.23432421875,0.09915011005997657,-0.3717114981770515,-0.3174018158406019
1761467191756307200,6.24430712890625,-0.05376373889148235,-0.30140564367696643,-0.32150106785297394
1761467191766290200,6.254290283203125,-0.16916823365986347,-0.20331220306307077,-0.25542145274579525
1761467191776273200,6.264273193359375,-0.19781565147340296,-0.08647270705550908,-0.17744038744270801
1761467191786256400,6.27425634765625,-0.20618015971481798,0.014404665188491343,-0.20224749644100665
1761467191796239000,6.284239013671875,-0.20239187334775924,0.0963372445963323,-0.21920564550459384
1761467191806221300,6.29422119140625,-0.10649170499444008,0.1702323557600379,-0.22573943118751047
1761467191816204300,6.304204345703125,-0.06677285806834697,0.2096292772553861,-0.32437866911590096
1761467191826187000,6.31418701171875,-0.14122341115772724,0.23840353631898759,-0.4508177681177854
1761467191836169700,6.324169677734375,-0.25049860939085483,0.2485258480131626,-0.5187754520565271
1761467191846152700,6.334152587890625,-0.32211130870580673,0.2849257796496153,-0.5494827250093222
1761467191856136000,6.344135986328125,-0.3659218088597059,0.28941622293666003,-0.5736112040936947
1761467191866118700,6.35411865234375,-0.34472704513967034,0.263384540579468,-0.5661638106971979
1761467191876100900,6.364100830078125,-0.34513153428733345,0.26851547372713686,-0.6305933205097913
1761467191886083800,6.374083740234375,-0.3997580274879932,0.21485358777493238,-0.7014461413681506
1761467191896066600,6.384066650390625,-0.4756839138269424,0.15906258083954453,-0.7148030510693788
1761467191906049800,6.3940498046875,-0.4898667529582977,0.11793985846489667,-0.6807055511564016
1761467191916032800,6.40403271484375,-0.35945875032544133,0.05971417172849178,-0.5986883622050285
1761467191926015700,6.414015625,-0.16021920352876184,-0.07594809817075729,-0.5574129334867001
1761467191935997700,6.423997802734375,-0.03463759813904762,-0.25338088682889937,-0.5741799438923597
1761467191945980700,6.433980712890625,-0.027682956695556638,-0.38686873529851434,-0.6161223120868206
1761467191955964000,6.4439638671875,-0.08224924414157866,-0.46644773731753225,-0.5886877771943807
1761467191965946600,6.453946533203125,-0.0888794759362936,-0.4776746492527425,-0.5065291339457034
1761467191975929900,6.463929931640625,-0.09020283349454403,-0.4643281148150563,-0.393128380215168
1761467191985912800,6.473912841796875,-0.167697576585412,-0.4121073675818741,-0.27491408872306344
1761467191995894800,6.483894775390625,-0.27692659758925436,-0.3703847796179354,-0.1714227345883846
1761467192005877800,6.493877685546875,-0.4011585419356823,-0.3202411309197545,-0.11774199780523777
1761467192015860700,6.50386083984375,-0.5386012655109167,-0.3061670128598809,-0.10100596705973147
1761467192025843700,6.51384375,-0.6588374182194471,-0.28815380178540945,-0.14198913483321665
1761467192035826700,6.52382666015625,-0.6960726316362619,-0.23432576548606157,-0.2784364176303148
1761467192045809700,6.5338095703125,-0.6473650070905685,-0.1703343548297882,-0.4776800560802221
1761467192055793000,6.54379296875,-0.5495172118008136,-0.11498977648764848,-0.6681126115649938
1761467192065774600,6.553774658203125,-0.5163631302177906,-0.05807108069658279,-0.8475088092505931
1761467192075757800,6.5637578125,-0.5806114382445812,-0.09392404597476124,-1.0178472557336091
1761467192085740800,6.57374072265625,-0.72619596722126,-0.21318930782452225,-1.0104057075560093
1761467192095723500,6.5837236328125,-0.9107435563206672,-0.2509035369299352,-0.8490952016592025
1761467192105706800,6.593706787109375,-1.1190069520503283,-0.25162556759417054,-0.6127484517395496
1761467192115689700,6.603689697265625,-1.3110329142063855,-0.18876652196869254,-0.3011550299167633
1761467192125671700,6.613671630859375,-1.1543524061977863,-0.09212459533736109,0.05675123026967048
1761467192135654700,6.623654541015625,-0.9033668900728226,0.2310322768986225,0.4638035064190626
1761467192145637600,6.6336376953125,-0.724914695239067,0.2646760416947305,0.7755699467211962
1761467192155620900,6.643620849609375,-0.5325976411819457,0.27971958930864926,1.0769874269664288
1761467192165603600,6.653603515625,-0.3487584926128387,0.22005685550644993,1.4064490984350442
1761467192175586800,6.6635869140625,-0.22614392033517358,0.03722250006571412,1.5581144086301326
1761467192185569800,6.67356982421875,-0.23497370800077913,-0.18979674179926515,1.574946885487437
1761467192195551700,6.6835517578125,-0.2617319510668516,-0.4466327375181019,1.7006120775073765
1761467192205534700,6.69353466796875,-0.30126901168525216,-0.5843225677222013,1.8737340172290802
1761467192215517700,6.703517578125,-0.24200609085559843,-0.5779882501341402,1.9209294836461543
1761467192225501000,6.7135009765625,-0.11655892550051211,-0.6400484004668892,1.7918857551038265
1761467192235483600,6.723483642578125,0.043210780695080754,-0.5337288371689617,1.5025094257861376
1761467192245466600,6.733466552734375,0.22581892616450785,-0.5108646789319813,1.099777350923419
1761467192255448800,6.74344873046875,0.447469042211771,-0.36748365134894845,0.5976888297736644
1761467192265431600,6.753431640625,0.8530676124215125,-0.2727709392145276,0.12638707655370235
1761467192275414800,6.763414794921875,1.2918342927396296,-0.23732699312865732,-0.25033611230552194
1761467192285397800,6.773397705078125,1.5609119303941725,-0.08642652982622384,-0.4918108727633953
1761467192295380700,6.783380615234375,1.629216820335388,0.06708645406216382,-0.6578185965657234
1761467192305363700,6.79336376953125,1.7225094365388154,0.2270155886031687,-0.7164151624411345
1761467192315345700,6.803345703125,1.8113240305453537,0.44831046147197484,-0.7029594685405492
1761467192325329000,6.813328857421875,1.8813222804009913,0.6856365778177976,-0.663873074299097
1761467192335311600,6.8233115234375,1.8053168990850448,0.9025009208932518,-0.5493050303548574
1761467192345294600,6.833294677734375,1.6314420951694248,1.1342512829333544,-0.2753770300596952
1761467192355277800,6.84327783203125,1.364184658679366,1.3418443781860172,-0.0077735566109418865
1761467192365260800,6.8532607421875,1.1952332826405763,1.4594080968149006,0.1522083310306072
1761467192375242800,6.86324267578125,1.0153262128233909,1.5717489662289619,0.3176210115492344
1761467192385225700,6.873225830078125,0.780900201833248,1.6016007913962005,0.4607762675523758
1761467192395209000,6.883208984375,0.5407347704082727,1.694531296288967,0.6022036768496036
1761467192405191700,6.893191650390625,0.31810558019578455,1.6386280611507593,0.7837316258668899
1761467192415174700,6.903174560546875,0.16308569887578486,1.5256474325284362,0.9424538688361644
1761467192425158000,6.913157958984375,0.1399526605695486,1.3307295483231543,1.0580956794917582
1761467192435140900,6.923140869140625,0.3078425448566675,1.1071418883420527,1.0220441229015589
1761467192445122800,6.933122802734375,0.49873395002484316,0.8872738334059714,0.8889198470473288
1761467192455105800,6.943105712890625,0.6077437753200531,0.7057955687493086,0.7248012979924678
1761467192465088800,6.9530888671875,0.7088052719593048,0.6296667071841657,0.5822352400541305
1761467192475071700,6.96307177734375,0.8144061655938625,0.5924456684231758,0.410687417781353
1761467192485054700,6.9730546875,0.9009382016211748,0.5148701151810586,0.38948797788619993
1761467192495037700,6.98303759765625,0.9706161334812641,0.5898382624037564,0.23315759848952292
1761467192505019600,6.99301953125,0.9684767833650112,0.5274377742007375,0.07937047383487224
1761467192515002600,7.003002685546875,0.8639549171388149,0.6573628156222403,-0.12007833179831504
1761467192524985900,7.01298583984375,0.7201344752252101,0.6895299319945275,-0.2751385451287031
1761467192534968800,7.02296875,0.7628413980513811,0.7389576875083148,-0.38028526525497436
1761467192544951600,7.03295166015625,0.9636953943073749,0.7938042532004416,-0.5167302099645138
1761467192554934800,7.042934814453125,1.0604898811519146,0.8226078844889998,-0.7159761865019798
1761467192564917800,7.052917724609375,1.0007207643657923,0.6881248875021934,-0.7937105835676193
1761467192574899700,7.062899658203125,0.8645476223349571,0.7154432486690581,-0.8416869712293148
1761467192584882700,7.072882568359375,0.7721376341849565,0.6098287649005651,-0.7842430825203657
1761467192594866000,7.082865966796875,0.5998001228392124,0.6801654529303311,-0.7580722839534282
1761467192604848600,7.0928486328125,0.639005175024271,0.6021200902193784,-0.6514642591029405
1761467192614831600,7.10283154296875,0.498014403578639,0.6501124061025678,-0.6052928750365972
1761467192624814800,7.11281494140625,0.33677579387426376,0.616491876051575,-0.6245148773789405
1761467192634796500,7.122796630859375,0.2816384285420179,0.5688248465999961,-0.6529875231474638
1761467192644779800,7.13277978515625,0.11304828703105449,0.42432825899049637,-0.6661690762817859
1761467192654762800,7.1427626953125,-0.10457330415248871,0.3423483333095908,-0.6478367162555456
1761467192664745700,7.152745849609375,-0.1696937188386917,0.3072827190168202,-0.5848392850726842
1761467192674728700,7.162728759765625,-0.16140812105238436,0.359486368984729,-0.5372457592487335
1761467192684711700,7.172711669921875,-0.17826631687283515,0.34081469400152564,-0.5362029721975327
1761467192694694000,7.18269384765625,-0.210827693259716,0.48035643568262454,-0.6116998194694518
1761467192704676600,7.192676513671875,-0.24369185198545454,0.4539148573502898,-0.6021978316307067
1761467192714659600,7.20265966796875,-0.3201180890619755,0.5155301865249872,-0.5876245318770408
1761467192724642800,7.212642822265625,-0.30957506773769855,0.4319093617692589,-0.5403700287491083
1761467192734625800,7.222625732421875,-0.4188157791793346,0.4318171534411609,-0.6102507897049189
1761467192744608800,7.23260888671875,-0.48600773944258685,0.28982582665085793,-0.6492495056629181
1761467192754590700,7.2425908203125,-0.558371549385786,0.26929274170994755,-0.5836112045824527
1761467192764573700,7.25257373046875,-0.5526017338126897,0.3477861404493451,-0.5587456433951854
1761467192774556700,7.262556640625,-0.4407657451808452,0.4765815933190286,-0.637125352627039
1761467192784539600,7.27253955078125,-0.3906085063487291,0.662731795309484,-0.6662713676124811
1761467192794523000,7.28252294921875,-0.27973230265974997,0.9576258651353419,-0.6298270123124122
1761467192804505900,7.292505859375,-0.09654898765087128,1.1583772777996957,-0.5797013376623392
1761467192814488600,7.302488525390625,0.1716238101184368,1.315908995810151,-0.5567904176741838
1761467192824470800,7.312470703125,0.24806875189542768,1.4411125616677105,-0.5354980387985706
1761467192834453200,7.322453369140625,0.24900457144081592,1.575633406446874,-0.46282384773194785
1761467192844436200,7.332436279296875,0.11662614551782607,1.6575003732725977,-0.28150691111683845
1761467192854419200,7.342419189453125,-0.22162088995277882,1.5181303348965942,0.03750760061740875
1761467192864402200,7.352402099609375,-0.6001596038013697,1.216341098729521,0.5077531227827072
1761467192874385200,7.36238525390625,-0.8310475037932396,0.9060520375035702,1.147336974477768
1761467192884367000,7.3723671875,-0.8808733187139034,0.5485827074296772,1.6233774466574191
1761467192894350300,7.382350341796875,-0.9847463656425476,0.1008548681512475,1.7512988931715487
1761467192904333300,7.392333251953125,-1.0916881524920463,-0.20823679998368025,1.7775597081094978
1761467192914316300,7.40231640625,-0.6478659423500299,-0.531117485626787,1.5680337450981139
1761467192924299300,7.41229931640625,0.15168284585177896,-0.7584552919216454,1.1285405040711163
1761467192934282200,7.4222822265625,0.9428747245967387,-0.7585001539766788,0.5615414115935564
1761467192944265200,7.43226513671875,1.2619997109681367,-0.4882208854474127,0.04149813155829906
1761467192954247200,7.4422470703125,1.2650666973233222,-0.09749898185208439,-0.3568751635730266
1761467192964230400,7.45223046875,1.180173660674691,0.22622312305122613,-0.5926677867412566
1761467192974213000,7.462213134765625,1.0696166059374808,0.5912481292016804,-0.6336994698315859
1761467192984196000,7.472196044921875,0.8599252232313156,0.8933807719789445,-0.6140466748565435
1761467192994179300,7.482179443359375,0.8039619284689425,1.089739648772776,-0.571432106488943
1761467193004162300,7.492162353515625,0.891719122377038,1.2114803608253597,-0.45366146711111066
1761467193014144300,7.502144287109375,0.9969529362648725,1.2364509898222982,-0.3626666064560413
1761467193024127200,7.512127197265625,1.1496966893464327,1.2171005387946963,-0.2954454200983047
1761467193034110200,7.522110107421875,1.2488292637497187,1.1357852145023644,-0.234656897136569
1761467193044093200,7.53209326171875,1.3452186769247054,0.9256381969831884,-0.19181611879765986
1761467193054076200,7.542076171875,1.3953706550598144,0.6711977180987596,-0.1278571491062641
1761467193064059100,7.55205908203125,1.3765864596128463,0.38730844189003105,0.03623451194167137
1761467193074041000,7.562041015625,1.2452058125555514,0.1595828053213656,0.20799334661662577
1761467193084024000,7.572024169921875,1.1629185744911432,-0.15779636029601096,0.2802577878385782
1761467193094007300,7.58200732421875,0.9866250189960002,-0.314276815687865,0.3775497028112411
1761467193103990300,7.591990234375,0.9401461764156818,-0.5058981425657868,0.45135728182196616
1761467193113973200,7.60197314453125,0.8723398836463689,-0.6479388614557683,0.5077426013886929
1761467193123956200,7.611956298828125,0.6058481708317994,-0.7611398548305034,0.6398299354106187
1761467193133939200,7.621939208984375,0.35151509784460067,-0.7975247350282967,0.7327870360493659
1761467193143921200,7.631921142578125,0.16344284175038337,-0.8259557336121797,0.8075017930328845
1761467193153904000,7.641904052734375,-0.0014455226331949232,-0.765436529111117,0.8800994117319584
1761467193163887400,7.651887451171875,-0.06748772833943367,-0.7299648182354868,0.8584913910359143
1761467193173870300,7.661870361328125,0.04549918389320373,-0.7599661348760127,0.8300742748469114
1761467193183853000,7.67185302734375,0.23244915795922277,-0.6902034473419189,0.8011895411461591
1761467193193836300,7.681836181640625,0.3604863398075104,-0.6663831574238837,0.7393143919914961
1761467193203818200,7.691818359375,0.3782821087390184,-0.5307376925289631,0.6786608935862779
1761467193213801200,7.70180126953125,0.34330665694773194,-0.40370413476526734,0.6246686066359282
1761467193223784200,7.7117841796875,0.2891992191851139,-0.3115283937625587,0.553755580022931
1761467193233767200,7.72176708984375,0.24317455011308192,-0.2315812890835106,0.45441666939258574
1761467193243750400,7.73175048828125,0.3136345722615719,-0.18499167960509658,0.35146365991830825
1761467193253733000,7.741733154296875,0.3926888197541237,-0.11180340153649448,0.22082184852957723
1761467193263716000,7.751716064453125,0.45159284414350986,-0.10088248681053519,0.11664426569640636
1761467193273698300,7.7616982421875,0.4429261380851269,-0.034245676212012764,0.011877484798431396
1761467193283681300,7.771681396484375,0.35975919457674027,-0.03063040832430124,-0.06737082396149635
1761467193293664300,7.781664306640625,0.422563733536005,0.012118746208399533,-0.06548164921402931
1761467193303647200,7.791647216796875,0.49294016905426974,0.07674100211411714,-0.020430793610215187
1761467193313630500,7.80163037109375,0.5992758067041635,0.028321839120984075,0.030179449686408042
1761467193323613200,7.81161328125,0.6260463247299194,0.07664265630617738,-0.013798223727941513
1761467193333595400,7.821595458984375,0.6258943490386009,0.09325856780335307,-0.09860475113689898
1761467193343578400,7.831578369140625,0.66733636649549,0.036721564806252716,-0.19746318477392197
1761467193353561000,7.84156103515625,0.6756827545583248,-0.018828180719166993,-0.2183177567541599
1761467193363544300,7.85154443359375,0.6384463720977306,-0.06030103170573711,-0.2171510510623455
1761467193373527300,7.86152734375,0.5621428846180438,-0.151133541405946,-0.2307043601185083
1761467193383510300,7.87151025390625,0.4831143560886383,-0.22871157886609433,-0.2968254762798548
1761467193393492200,7.8814921875,0.3864917186796665,-0.35207390077114104,-0.3362678443521261
1761467193403475200,7.89147509765625,0.2769774509936571,-0.4065180231422186,-0.27268413771390915
1761467193413458400,7.90145849609375,0.1851917322218418,-0.42602950995042915,-0.21415011568069456
1761467193423441200,7.911441162109375,0.1461135212868452,-0.4526007060118019,-0.04627542896270752
1761467193433424100,7.921424072265625,0.07559680051505566,-0.42058205819949507,0.07877776863873004
1761467193443407400,7.931407470703125,-0.03236965320706367,-0.34775749887675045,0.19002280564010143
1761467193453390000,7.94139013671875,-0.05734510450959205,-0.3439687741182744,0.28135844255685805
1761467193463372300,7.951372314453125,-0.0677343965768814,-0.31993586436286564,0.3450426869601011
1761467193473355300,7.961355224609375,-0.15431144078969955,-0.4080081155695021,0.3739905490249395
1761467193483338200,7.971338134765625,-0.22480828781723974,-0.34379458659514783,0.30043314538300037
1761467193493321200,7.9813212890625,-0.19788287149071693,-0.27050343267396093,0.1710100621342659
1761467193503304200,7.99130419921875,-0.1202326455771923,-0.17075068054571746,0.06454232253730297
1761467193513287400,8.001287353515625,-0.04185527443289756,0.009493658401817083,-0.07332417940795422
1761467193523269000,8.01126904296875,-0.0067179100781679145,0.053917029757052655,-0.19213059157431125
1761467193533252400,8.02125244140625,0.03721066349744796,0.2393244505561888,-0.24948212582468984
1761467193543235300,8.0312353515625,0.027606384328007695,0.30757161896079777,-0.28104923047721386
1761467193553218000,8.041218017578124,-0.04122808244526386,0.2836535677567124,-0.28244214614033697
1761467193563201300,8.051201171875,-0.13722645047605037,0.30569997987002134,-0.22536066100299357
1761467193573184300,8.061184326171874,-0.22325813576579093,0.3480919915281236,-0.2509481067240238
1761467193583166200,8.071166259765626,-0.2706330504029989,0.3170627931445837,-0.3352542833954096
1761467193593149200,8.081149169921876,-0.2005857007086277,0.31860987645611166,-0.450033339741826
1761467193603132200,8.091132080078125,-0.11256021125316619,0.3210296509489417,-0.5439128159224986
1761467193613115400,8.101115478515625,-0.04561199661791324,0.3314382322385907,-0.5928495730489493
1761467193623098000,8.11109814453125,-0.025820669955015182,0.32298312310427424,-0.603005056360364
1761467193633081000,8.1210810546875,-0.09299860169291496,0.2744485170379281,-0.6457476350218058
1761467193643064300,8.131064208984375,-0.12749766814410685,0.17639730813056229,-0.7094552603006362
1761467193653046000,8.1410458984375,-0.13909107530415057,0.08955927489399909,-0.7454869431465864
1761467193663029200,8.151029296875,-0.2093769099295139,-0.05060322903394699,-0.7379325822442769
1761467193673012200,8.16101220703125,-0.3225859404802322,-0.11343436373919248,-0.6424824957460165
1761467193682995200,8.1709951171875,-0.3057300827473402,-0.18821648687049744,-0.516422166928649
1761467193692978200,8.180978271484374,-0.27907179292440415,-0.22495047276690602,-0.4090133470892906
1761467193702961200,8.190961181640626,-0.2567243520379066,-0.22455533596947788,-0.34838965930044646
1761467193712943400,8.200943359375,-0.33805180515944955,-0.17195143463760612,-0.2926578352063894
1761467193722926000,8.210926025390625,-0.4834019408583641,-0.13317396021485328,-0.23971359600424766
1761467193732909300,8.220909423828125,-0.6082458796232938,-0.05772387469410896,-0.19014029453992842
1761467193742892300,8.230892333984375,-0.6020750820338726,-0.03338394481614232,-0.2527607091039419
1761467193752875300,8.240875244140625,-0.5198755222529172,-0.07349851306155324,-0.3352279799103737
1761467193762858200,8.250858154296875,-0.45147067906856536,-0.038475422736257314,-0.44242929447889323
1761467193772841200,8.26084130859375,-0.48211307009160514,0.017646131327748296,-0.5881628765374421
1761467193782823400,8.270823486328124,-0.5160831442326307,0.084560297562927,-0.7341080555200576
1761467193792806100,8.28080615234375,-0.5205313558131456,0.15941183266863226,-0.7845382660746574
1761467193802789000,8.2907890625,-0.4598082993030548,0.2782781583286822,-0.7433043384104967
1761467193812772400,8.3007724609375,-0.44619244640469546,0.31035102054625746,-0.7084481290847062
1761467193822755300,8.31075537109375,-0.4606389049082994,0.3289369169421494,-0.6708791536688804
1761467193832738300,8.32073828125,-0.45580432435870166,0.3873101954557001,-0.6826636994868517
1761467193842720500,8.330720458984375,-0.4032938003987074,0.3836367676399648,-0.6742337247937917
1761467193852703200,8.340703125,-0.36287002007365227,0.3900252996332943,-0.6570616407185792
1761467193862686500,8.3506865234375,-0.3706868313044309,0.4449630507402122,-0.6863438493043184
1761467193872669400,8.36066943359375,-0.3853103999406099,0.5305350095637142,-0.7136532965123653
1761467193882652200,8.370652099609375,-0.3581581891208887,0.5760046751014888,-0.773533472457528
1761467193892635400,8.380635498046875,-0.400232074740529,0.5828649162597954,-0.8536965579748154
1761467193902617300,8.390617431640624,-0.3712631698876619,0.5214737512297928,-0.8162596845060587
1761467193912600600,8.4006005859375,-0.41816871344745155,0.5020421977899968,-0.7460550984233617
1761467193922583300,8.410583251953126,-0.5502040250211954,0.4115459343068301,-0.6536217293977737
1761467193932566500,8.42056640625,-0.7146399694621562,0.406496688093245,-0.6337368792325258
1761467193942549500,8.430549560546876,-0.8390835107326508,0.3402442006371915,-0.5584159730494022
1761467193952532200,8.4405322265625,-0.92787764647305,0.4192246522411704,-0.4208019845604896
1761467193962515500,8.450515380859375,-0.828202635756135,0.5252452325925231,-0.1772615237444639
1761467193972497400,8.460497314453125,-0.6989309436768293,0.6679940997518599,0.046530280506610865
1761467193982480400,8.47048046875,-0.6693243254423141,0.8378872866854071,0.2873462847948074
1761467193992463400,8.48046337890625,-0.5035761293590069,0.9295936566106975,0.5573556503415107
1761467194002446300,8.4904462890625,-0.15163666862249373,0.8352557691380381,0.697393066585064
1761467194012429600,8.5004296875,-0.05394435615539551,0.5561062348023057,0.8355155891180038
1761467194022412300,8.510412353515624,-0.0876987417191267,0.13840046269148587,0.9621358899056911
1761467194032394500,8.52039453125,-0.053827451777458186,-0.15858341902047396,1.1054518894284964
1761467194042377500,8.53037744140625,0.11680910086929798,-0.41745033604502674,1.2116408120840787
1761467194052360200,8.540360107421876,0.4938227971076965,-0.6034703357845544,1.1517594670951365
1761467194062343400,8.550343505859376,1.056785181415081,-0.6695728933759033,1.0502607480823993
1761467194072326400,8.560326416015625,1.448115572297573,-0.6307948344312608,0.7889128278970718
1761467194082309400,8.570309326171875,1.7937462882786988,-0.586011982113868,0.46268239343464374
1761467194092292400,8.580292236328125,1.9703531475067138,-0.4858377897031605,0.2203191597044468
1761467194102274300,8.5902744140625,2.0487305186510083,-0.26111995664834975,0.11240998912751674
1761467194112257500,8.600257568359375,1.992768392932415,-0.03487242980822921,0.12508476178348063
1761467194122240300,8.610240234375,1.797999854069948,0.11454466306865214,0.09703823247253894
1761467194132223500,8.620223388671874,1.4577309573829174,0.24770634832382202,0.09641630118191241
1761467194142206500,8.63020654296875,1.109480998814106,0.3583494739092886,0.22437340353131294
1761467194152189400,8.640189453125,0.7780652706682681,0.5431451925508678,0.4156745585441589
1761467194162171400,8.65017138671875,0.4628770392239093,0.6516422460183501,0.6166197402149438
1761467194172154400,8.660154296875,0.2690004807651043,0.5965351296938955,0.772024821460247
1761467194182137600,8.6701376953125,0.15496493626236915,0.560263792873174,0.916588775217533
1761467194192120300,8.680120361328125,0.11718494844436644,0.47226913694739336,0.9686784434169531
1761467194202103300,8.690103271484375,0.003969488152861595,0.33979368039071556,0.9624234746754169
1761467194212086500,8.70008642578125,-0.03450432714819908,0.24704729989320037,0.896073810455203
1761467194222068200,8.710068115234375,-0.06774900962412357,0.15276421134769916,0.7845768445193767
1761467194232051500,8.720051513671875,-0.04976794725358486,0.19320947285220025,0.6385702907383441
1761467194242034400,8.730034423828124,-0.12751461927890778,0.28608693238347765,0.43916590876877304
1761467194252017400,8.740017333984374,-0.19610884755551813,0.31770269848331806,0.24373978278040884
1761467194262000400,8.75000048828125,-0.1050391680985689,0.36247912105992436,0.1059673888593912
1761467194271983400,8.7599833984375,0.10890753396451473,0.37928076438754793,0.05920446864068508
1761467194281966300,8.76996630859375,0.41255438069701195,0.3535112400978803,-0.013994038560986518
1761467194291948300,8.7799482421875,0.9325573287218809,0.3335753903977573,-0.14775076709985732
1761467194301931300,8.78993115234375,1.132125961342454,0.24624372842535375,-0.22906536073982714
1761467194311914500,8.79991455078125,0.10462065042555331,0.3018637627080083,-0.20336744038164614
1761467194321897500,8.8098974609375,-0.24100714294612408,0.3817208510160446,-0.4985930802494287
1761467194331880400,8.81988037109375,0.10090133764147757,0.28263313866779205,-0.7308586983352899
1761467194341863400,8.829863525390625,0.3804085993736982,0.08551803667917847,-0.6657821227908134
1761467194351845400,8.839845458984374,0.4952291567742824,0.24389044329747556,-0.7096241871267557
1761467194361828400,8.849828369140624,0.4209481150329113,0.26385420391783115,-0.7628525039672851
1761467194371811300,8.859811279296874,0.3186532772064209,0.1385598910368979,-0.8044809839069843
1761467194381794600,8.869794677734374,0.22286066088080406,0.2132949601560831,-0.8202870403259992
