time,seconds_elapsed,z,y,x
1761467154810624300,0.112624267578125,0.9599059388965367,0.6395452732503414,0.505381132954359
1761467154820607200,0.122607177734375,0.8790963721692562,0.8110628465153277,0.6616670886874199
1761467154830590200,0.132590087890625,0.7528677010476589,0.9913589156500995,0.7541320218950509
1761467154840573200,0.1425732421875,0.671336834308505,1.0771930325411259,0.7663760019183159
1761467154850556400,0.152556396484375,0.5922048454046249,1.070180815691501,0.7052233218193054
1761467154860539100,0.1625390625,0.5129518604695796,0.9779743872895836,0.630515579098463
1761467154870521300,0.172521240234375,0.5708832404345273,0.8926283461764455,0.5288274749934673
1761467154880504300,0.18250439453125,0.5990168635070323,0.7848959934711456,0.3909755860954523
1761467154890487300,0.1924873046875,0.6289291866898536,0.6544830224022269,0.28698271217942234
1761467154900470300,0.20247021484375,0.5191220735371113,0.6386030239641666,0.2435761166512966
1761467154910453200,0.212453369140625,0.41986616501510143,0.664824383674562,0.17334639612734318
1761467154920436500,0.2224365234375,0.31207214525043964,0.7420306652128696,0.12243863118886947
1761467154930419200,0.232419189453125,0.1099368770122528,0.7806900662139058,0.03893675663769245
1761467154940401400,0.2424013671875,0.019230770170688628,0.7880093031860887,-0.036543724021315574
1761467154950384400,0.25238427734375,0.10077508091330528,0.7820388504743575,-0.02641103706359863
1761467154960367000,0.2623671875,0.1782820989638567,0.7696845419444144,0.015482815814018249
1761467154970350300,0.272350341796875,0.23415479283332824,0.728748428183049,0.08022738292515277
1761467154980333300,0.282333251953125,0.3455167342126369,0.6468823381401598,0.04970657245516777
1761467154990316300,0.29231640625,0.48426586421132084,0.5788038043007254,-0.02301905653774738
1761467155000299300,0.30229931640625,0.5605950706541538,0.5327411413058638,-0.11776596320271492
1761467155010281200,0.31228125,0.5959072070538998,0.5361734538421035,-0.19901041421592233
1761467155020264400,0.322264404296875,0.6604483605474233,0.5031389069855213,-0.276593420112133
1761467155030247200,0.3322470703125,0.7662789712846279,0.44986061352342366,-0.35511925981640813
1761467155040230400,0.34223046875,0.7826771483778953,0.38354996613934633,-0.407763054767251
1761467155050213400,0.35221337890625,0.7777034516185521,0.3176037681534886,-0.4891442839026451
1761467155060196400,0.3621962890625,0.7165665536105632,0.25005656471177934,-0.5318441924661398
1761467155070179300,0.372179443359375,0.6005845512151717,0.19686682631596922,-0.5300146389514208
1761467155080162300,0.382162353515625,0.46487318147718903,0.1520455416843295,-0.49839142019748683
1761467155090144500,0.39214453125,0.35987083825767036,0.11972265022844075,-0.437774746671319
1761467155100127200,0.402127197265625,0.39175300020873544,0.09252250861376524,-0.3425812652826309
1761467155110110200,0.412110107421875,0.4062596644669771,0.03917728739529848,-0.30808044526576994
1761467155120093400,0.422093505859375,0.36261750661730763,0.02466565470099449,-0.3505804473429918
1761467155130076400,0.432076416015625,0.24717735601365565,-0.0241445534363389,-0.3812380359351635
1761467155140059100,0.44205908203125,0.036384149545431135,-0.07510200273543596,-0.3648269993603229
1761467155150041300,0.452041259765625,-0.15490765311717986,-0.0878770208954811,-0.34847499949634075
1761467155160024300,0.4620244140625,-0.15002397272884846,-0.12001578795611857,-0.3060404638707638
1761467155170007300,0.47200732421875,-0.01855798547565937,-0.023805238479375837,-0.3162871325969696
1761467155179990300,0.481990234375,0.06220598854422569,0.07053747129887342,-0.3951923270076513
1761467155189973200,0.49197314453125,0.07514379605054855,0.14879472319483755,-0.4659072007000446
1761467155199956500,0.50195654296875,0.08122925344407558,0.2318997073829174,-0.5268886158853769
1761467155209939200,0.511939208984375,0.0955149684280157,0.2938859156966209,-0.5695552067011594
1761467155219921400,0.52192138671875,0.08888590567708014,0.34485242508500813,-0.5688906053125858
1761467155229904400,0.531904296875,0.05246785386204719,0.3656687108814716,-0.6187766259878873
1761467155239887400,0.541887451171875,-0.007462006443738937,0.40052141307592387,-0.7050093868076801
1761467155249870300,0.551870361328125,-0.08173018870353699,0.4003200452849269,-0.7632733597278595
1761467155259853300,0.561853271484375,-0.21023791067302225,0.3918289880543947,-0.8188210594266653
1761467155269836300,0.571836181640625,-0.3237199129462242,0.3949713777333498,-0.8816799589216708
1761467155279819300,0.5818193359375,-0.37934886118769645,0.4032793334819376,-0.9252192409187555
1761467155289801500,0.591801513671875,-0.45610710669755933,0.43265462717860936,-0.9471060785561799
1761467155299784400,0.601784423828125,-0.48430210456848144,0.4647887180641293,-0.9572276595979928
1761467155309767200,0.61176708984375,-0.3486322358846664,0.44291547056064007,-0.8911188183963298
1761467155319750400,0.62175048828125,-0.11258476117253303,0.5684193345390259,-0.819037917047739
1761467155329733400,0.6317333984375,-0.02447743865251541,0.7784419950261712,-0.8777876276582479
1761467155339716000,0.641716064453125,0.03583703705668449,0.7471814721047878,-0.9279764306724071
1761467155349699300,0.65169921875,0.009197451934218406,0.7331466631419956,-0.9762474173665047
1761467155359681300,0.661681396484375,-0.15338029741942882,0.7065723983407021,-0.9333183762222528
1761467155369664300,0.671664306640625,-0.39499943478405475,0.6488393174268305,-0.8611492120683193
1761467155379647200,0.681647216796875,-0.5483423228025436,0.5147532108031213,-0.8037824802488088
1761467155389630200,0.691630126953125,-0.725459469640255,0.37208793027400966,-0.6699088473320007
1761467155399613400,0.701613525390625,-0.75133625369668,0.2792971261128783,-0.47222120615243907
1761467155409596200,0.71159619140625,-0.7333692198514938,0.2524590958088636,-0.3154319770723581
1761467155419579400,0.721579345703125,-0.7345733349442481,0.19865181003659962,-0.21281389864087102
1761467155429561300,0.731561279296875,-0.8173673534870147,0.11909092819616197,-0.11174889487028121
1761467155439544300,0.74154443359375,-0.9081143768608569,0.06455284393131733,0.048967736786603926
1761467155449527300,0.75152734375,-0.9774994632542133,0.04949979783669114,0.25091478897631164
1761467155459510300,0.76151025390625,-1.0666308681249619,0.05742547626942396,0.4231266281157732
1761467155469493500,0.771493408203125,-1.054563998234272,0.09838570155873894,0.4596539855241775
1761467155479476200,0.781476318359375,-1.0007102429717778,0.1277450670339167,0.37708676147460934
1761467155489458400,0.79145849609375,-0.8142214566767215,0.180967100264132,0.23120938703119753
1761467155499441400,0.80144140625,-0.4832441199481487,0.29096622885763646,0.10033025975525378
1761467155509424000,0.811424072265625,-0.14834756394922732,0.3575849192775786,-0.03560790447592735
1761467155519407400,0.821407470703125,0.15041501787304878,0.35672011914178725,-0.22400749282836913
1761467155529390300,0.831390380859375,0.24056349083185194,0.36060704357773066,-0.3513835804194212
1761467155539373300,0.841373291015625,0.07915244717001914,0.39016587714776396,-0.3789198221206665
1761467155549356300,0.851356201171875,-0.1363064130216837,0.43950610050857064,-0.32740883059203624
1761467155559338200,0.861338134765625,-0.34975451791286466,0.5518677204497158,-0.2756897492706776
1761467155569321500,0.871321533203125,-0.4657873737126589,0.6586845657452941,-0.22466040377914903
1761467155579304200,0.88130419921875,-0.3863648774296045,0.7603238622725009,-0.2037082166433334
1761467155589287200,0.891287109375,-0.15795476572811604,0.8316353866837918,-0.21166414408385753
1761467155599270400,0.9012705078125,0.08645078748464584,0.8950963437251747,-0.2001280200690031
1761467155609253400,0.91125341796875,0.24163375041186808,0.9637725511968135,-0.16854221071600914
1761467155619236400,0.921236328125,0.23440087654888628,0.9011327012799679,-0.15435352636575697
1761467155629218300,0.93121826171875,0.006012976679205894,0.8285134552709758,-0.049686114189028734
1761467155639201300,0.941201171875,-0.21011574559807777,0.6745844379276037,0.13561959980130195
1761467155649184300,0.951184326171875,-0.19707447771728037,0.5498378220573067,0.29581951410770413
1761467155659167200,0.961167236328125,0.021244448080658913,0.38046909738928075,0.41505145820975303
1761467155669150500,0.971150390625,0.32835166440010066,0.29332784342244267,0.4409411017477512
1761467155679133400,0.981133544921875,0.5222621251285076,0.2592500711232424,0.3959206412822008
1761467155689115400,0.991115478515625,0.6562263589382171,0.220287011000514,0.43354280818998814
1761467155699098400,1.001098388671875,0.7690256396442652,0.15655600484609603,0.47730713111460205
1761467155709081300,1.011081298828125,0.7997814279139042,0.10640665705949068,0.4680675936043262
1761467155719064300,1.021064208984375,0.8780582612931728,0.058913230609148735,0.4052952033489942
1761467155729047300,1.03104736328125,0.9836159003078937,0.016563012266159055,0.3133721219331026
1761467155739030300,1.0410302734375,1.0602496426552535,-0.015208967308700083,0.26807401356995103
1761467155749013200,1.05101318359375,1.1161860494107008,-0.07946765059903263,0.19724398906528948
1761467155758995200,1.0609951171875,1.2307429874390363,-0.1936424574419856,0.08557575821578502
1761467155768978400,1.070978515625,1.364106332746148,-0.35568975318074225,-0.041535540959239
1761467155778961400,1.08096142578125,1.3604372888445853,-0.505304852847755,-0.13661387153565882
1761467155788948000,1.090947998046875,1.2369511944293976,-0.6270008489757776,-0.08553951785862446
1761467155798931200,1.10093115234375,1.008919852912426,-0.7537583662770688,-0.04083469921350479
1761467155808914200,1.1109140625,0.7991355312258005,-0.8551698453977703,-0.02622808171212673
1761467155818896400,1.120896484375,0.653220162859559,-0.8411968496248126,0.09088730862736702
1761467155828879000,1.130879150390625,0.5319651884973049,-0.8087691826201975,0.2721405323565006
1761467155838862000,1.140862060546875,0.36124855635166164,-0.7756761835746466,0.4182663286030292
1761467155848845300,1.15084521484375,0.27909692736566066,-0.7466419584006071,0.4842763856053352
1761467155858828000,1.160828125,0.2991395984411239,-0.7177068096868694,0.5250082089662551
1761467155868811000,1.17081103515625,0.1949690298706293,-0.6617511137090623,0.5458242025017738
1761467155878794200,1.180794189453125,0.11256781003773211,-0.660929275932163,0.5377940407812595
1761467155888776000,1.19077587890625,-0.010370002844929695,-0.5811708256930113,0.5319792170226574
1761467155898759200,1.20075927734375,-0.0788011495143175,-0.4795519874319434,0.4821066403508186
1761467155908742100,1.2107421875,-0.058009121376276014,-0.37619419654905795,0.4228250148206949
1761467155918725400,1.220725341796875,-0.021257892084121703,-0.2252257825769484,0.36973347610235213
1761467155928708000,1.2307080078125,0.09886778598725796,-0.07805003888607025,0.35607319954037664
1761467155938691000,1.240691162109375,0.12215046189725398,0.19325813429951666,0.12588497225046158
1761467155948674300,1.25067431640625,0.2832721672236919,-0.007833908496052026,0.23118249902427196
1761467155958656000,1.260656005859375,0.47786534951925275,0.1891422234132886,0.21628478962182998
1761467155968639200,1.27063916015625,0.43884383720755576,0.24548750323057172,0.14324001167714595
1761467155978622200,1.280622314453125,0.5079693958818913,0.22769509529992937,0.058925651699304575
1761467155988605200,1.290605224609375,0.6353828928738832,0.15682356974110007,-0.06009411095678806
1761467155998588200,1.300588134765625,0.7075865438193082,0.055622956892102955,-0.11975742928087711
1761467156008571100,1.310571044921875,0.7019850705504417,0.050397185067832466,-0.22476912485063075
1761467156018553300,1.32055322265625,0.7064841355353594,-0.0037714813627302644,-0.40966801160573957
1761467156028536000,1.3305361328125,0.6374041695684194,-0.10301394588127731,-0.5116612361371516
1761467156038519000,1.34051904296875,0.4327823452115059,-0.2038274591088295,-0.5287070634841918
1761467156048502300,1.350502197265625,0.3378320249289274,-0.27953984882757066,-0.4984031106352806
1761467156058485200,1.3604853515625,0.381184844443202,-0.297607420437783,-0.481257330045104
1761467156068468000,1.370468017578125,0.4550853624343872,-0.3153495594859123,-0.39530806234180926
1761467156078451200,1.380451171875,0.40770927875339985,-0.33150545225590466,-0.27386487193107606
1761467156088433200,1.39043310546875,0.25506489439308644,-0.34931481132134795,-0.09222937088608742
1761467156098416000,1.400416015625,0.05438625470399856,-0.34024040124490856,0.12931962287425994
1761467156108399000,1.410399169921875,-0.1270557695955038,-0.332806597982347,0.26878303862214087
1761467156118382300,1.42038232421875,-0.28229367758035656,-0.32853491201251744,0.3826443956017494
1761467156128365300,1.430365234375,-0.35142858860492704,-0.2580532625541091,0.40718671618402
1761467156138348000,1.44034814453125,-0.3200467773914337,-0.2359070433281362,0.3638134384036064
1761467156148330200,1.450330322265625,-0.2026204214066267,-0.2059438667409122,0.300002937272191
1761467156158313200,1.460313232421875,-0.08569383163750172,-0.20486162446215747,0.18705401896238327
1761467156168296200,1.470296142578125,0.007467851662635803,-0.16525763608738778,0.047887540334463116
1761467156178279200,1.480279052734375,0.0003004442512989044,-0.15894538420066237,-0.03642974225282669
1761467156188262100,1.49026220703125,-0.09028291299343108,-0.1689592670843005,-0.05624152718186378
1761467156198245400,1.500245361328125,-0.16698153727054596,-0.15827113820090888,-0.11817629756927489
1761467156208228000,1.51022802734375,-0.16503391033411025,-0.1729138499289751,-0.2354056696772575
1761467156218210300,1.520210205078125,-0.11614508400261402,-0.19527166607901453,-0.3428951535373926
1761467156228193300,1.530193359375,-0.10463175634145735,-0.18607319123148916,-0.37129590311348437
1761467156238176000,1.540176025390625,-0.11289338873028755,-0.16092179884016514,-0.4189893821805715
1761467156248159200,1.5501591796875,-0.1459644682049751,-0.14138298563361168,-0.48939913544654845
1761467156258142200,1.56014208984375,-0.22500118004083633,-0.14099910088256,-0.5254647205621004
1761467156268125200,1.570125244140625,-0.34243922646343705,-0.10149272766336798,-0.5635609347224235
1761467156278108200,1.580108154296875,-0.4362848003745079,-0.08009352741241454,-0.5949550208956003
1761467156288090000,1.590090087890625,-0.44706455306410786,-0.08423457273989915,-0.6066670859992503
1761467156298073300,1.6000732421875,-0.4417313753426075,-0.048271132824569934,-0.6309212372899055
1761467156308056000,1.61005615234375,-0.45297816102206706,-0.05165566069632768,-0.6315560280621051
1761467156318039300,1.620039306640625,-0.5445926148802042,-0.04326762544885278,-0.5474135175198316
1761467156328022300,1.630022216796875,-0.6021224283069372,-0.06961290379986167,-0.44459903973340986
1761467156338005000,1.6400048828125,-0.6068985566675663,-0.17317483895272015,-0.384892466789484
1761467156347987200,1.6499873046875,-0.6153752931118011,-0.2577794140487909,-0.36574294516146183
1761467156357970200,1.65997021484375,-0.6830161661863327,-0.3901575477108359,-0.39612288585603234
1761467156367953200,1.669953125,-0.7337760470867156,-0.5593098531492054,-0.40761224811971186
1761467156377936100,1.67993603515625,-0.7157102290421724,-0.6180911279417574,-0.4307189829409122
1761467156387919000,1.689919189453125,-0.6329319925904273,-0.6441757095299661,-0.48554713619351386
1761467156397902300,1.69990234375,-0.5641226602584123,-0.6589005465835333,-0.5136994639664888
1761467156407885000,1.709885009765625,-0.5474076723009348,-0.646968701249361,-0.5792471641540528
1761467156417867300,1.7198671875,-0.5741776058048009,-0.652944268527627,-0.670868632274866
1761467156427850200,1.729850341796875,-0.6156663850128651,-0.6623517099507152,-0.7136854452162981
1761467156437833000,1.7398330078125,-0.6565256341457366,-0.7243475628755986,-0.6782371152162552
1761467156447816200,1.749816162109375,-0.6102285778731107,-0.7039212993100286,-0.6096066465824842
1761467156457799200,1.759799072265625,-0.5660948371142148,-0.6700668143726884,-0.5369587590008974
1761467156467782100,1.7697822265625,-0.6379027667403221,-0.6276319864861667,-0.46236850517988204
1761467156477764000,1.77976416015625,-0.7475234174102544,-0.5593389331132174,-0.4217664456784725
1761467156487747000,1.7897470703125,-0.8205605965703725,-0.5118940219797193,-0.44237610298693175
1761467156497730300,1.799730224609375,-0.7846528323650359,-0.43813788089528677,-0.45807928355336186
1761467156507713000,1.809713134765625,-0.7642074257075786,-0.33478096679523583,-0.4208955080628395
1761467156517696300,1.8196962890625,-0.7295330026894807,-0.29809593460708855,-0.41421325381994245
1761467156527679200,1.82967919921875,-0.6693699181497097,-0.310165434846282,-0.3956716349571943
1761467156537662200,1.839662109375,-0.6481283926784992,-0.33251024538427587,-0.4139391130536794
1761467156547644200,1.84964404296875,-0.6650637453883886,-0.3282256999328732,-0.3979875106841326
1761467156557627100,1.859627197265625,-0.647664282298088,-0.2844412110030651,-0.22828151688575743
1761467156567610400,1.8696103515625,-0.679971976184845,-0.18115517018213867,0.09896247853338717
1761467156577593000,1.879593017578125,-0.7911252432495355,0.07410290869548916,0.28262743957936765
1761467156587576000,1.889576171875,-0.816173175266385,0.17702566916197537,0.42423371257483955
1761467156597559300,1.899559326171875,-0.7747597993820905,0.29356004474312064,0.45166649390161034
1761467156607542300,1.909542236328125,-0.6621990036070347,0.33373671843931074,0.46405777344107624
1761467156617524200,1.919524169921875,-0.4491238236814737,0.3275951469443738,0.5546259331166744
1761467156627507200,1.929507080078125,-0.22742811492681503,0.25754677433669565,0.6918862858623266
1761467156637490200,1.939490234375,-0.07340133629739284,0.05805120695233345,0.7641998269230127
1761467156647473200,1.94947314453125,0.052989831909537315,-0.1788756809428334,0.6902654066622257
1761467156657456000,1.9594560546875,0.18243629603385925,-0.28439897929653524,0.5371294393926859
1761467156667439000,1.969439208984375,0.22827917879819867,-0.39490912615209817,0.4385650202661752
1761467156677421000,1.979421142578125,0.23267361436486242,-0.41865781213864683,0.3455255020409822
1761467156687404000,1.989404052734375,0.28935061035454274,-0.40067996463850136,0.309881941729784
1761467156697387300,1.99938720703125,0.3430868767172098,-0.3723201315946877,0.09679331780076027
1761467156707370200,2.009370361328125,0.5119365459471941,-0.3647153556793928,-0.09383154538571833
1761467156717353200,2.019353271484375,0.6297609613388776,-0.26295214051157234,-0.20409517013430595
1761467156727336200,2.029336181640625,0.7299135264396667,-0.11474544633775949,-0.2522498369723558
1761467156737319200,2.039319091796875,0.8026432470858097,0.07479118322059512,-0.2691074482709169
1761467156747301000,2.049301025390625,0.7886264121711254,0.25366452607586976,-0.26665070276856423
1761467156757284000,2.0592841796875,0.7879828535705804,0.33101386934667826,-0.14184183531701564
1761467156767267300,2.069267333984375,0.7754489506900311,0.3613385727226734,0.07101824055314064
1761467156777250300,2.079250244140625,0.6463204664736986,0.29684651906788345,0.2636626268684864
1761467156787233000,2.08923291015625,0.5986696575045586,0.22720541208684444,0.3309913652539253
1761467156797213200,2.099213134765625,0.6490028374254703,0.14231471352577207,0.37760464786887166
1761467156807196000,2.10919580078125,0.702279085060954,0.15428908282741904,0.49974341932833194
1761467156817178000,2.11917822265625,0.8359294306159019,0.22204510671421884,0.6010048224538564
1761467156827161000,2.1291611328125,0.969478653883934,0.314750570679456,0.661377750352025
1761467156837143800,2.139143798828125,1.1499725836783647,0.42297172981500625,0.6189841312587261
1761467156847127000,2.149126953125,1.2089169400781392,0.44399975866600866,0.5438888505250216
1761467156857110000,2.159110107421875,1.0459621741056442,0.48265769836232064,0.5688713160902261
1761467156867093000,2.169093017578125,0.8503051619708537,0.4940943075254559,0.6150923845171928
1761467156877076000,2.179075927734375,0.6750199067354202,0.4892018593087792,0.6541109742194414
1761467156887058000,2.189057861328125,0.5455313570350409,0.5049265210546553,0.695186496451497
1761467156897041200,2.199041259765625,0.5520020143538713,0.5198030415385961,0.6784720930159092
1761467156907024000,2.20902392578125,0.5922954462975263,0.4756456276431679,0.6235457400858402
1761467156917006800,2.2190068359375,0.5856283896237612,0.4857954118661582,0.5490449181139468
1761467156926990000,2.228989990234375,0.5774310546427965,0.4837988312214613,0.4184878623992204
1761467156936972800,2.238972900390625,0.5792413189351558,0.4724262272052467,0.21364859589934349
1761467156946955000,2.248955078125,0.558929183268547,0.4350432758808136,-0.0006897358298301697
1761467156956938000,2.25893798828125,0.5188303971141577,0.4406320357985794,-0.21013328125476835
1761467156966921000,2.2689208984375,0.501048656708002,0.43963221110627054,-0.4444003022909164
1761467156976904000,2.278904052734375,0.5303413866877555,0.4559180138662457,-0.5866705921530723
1761467156986887000,2.288886962890625,0.5097334829449653,0.5171279771104454,-0.5870335802465677
1761467156996870100,2.2988701171875,0.4080757739782333,0.5682929316803813,-0.567526915743947
1761467157006852900,2.308852783203125,0.2198433588862419,0.5686056508913636,-0.54210138258636
1761467157016835000,2.3188349609375,0.047452071526646614,0.5208282929331064,-0.5161573785126209
1761467157026818000,2.328818115234375,-0.06819733791351318,0.49647769553065296,-0.4880938980668783
1761467157036800800,2.33880078125,-0.10775193418860435,0.4699588141784072,-0.49406654273569584
1761467157046784000,2.348783935546875,-0.11274492017030716,0.464455540587008,-0.5567652832329273
1761467157056767000,2.35876708984375,-0.06221534089446067,0.45147886237502094,-0.6275526376396418
1761467157066750000,2.36875,-0.05492167675495147,0.38564240837395186,-0.6379834307610989
1761467157076733000,2.37873291015625,-0.0726800362855196,0.36013913380503654,-0.6393307537168263
1761467157086715000,2.38871484375,-0.019344167417287825,0.31472879723906516,-0.6533201161026955
1761467157096698000,2.398697998046875,0.15567513035833835,0.2830529715150595,-0.6622030952602624
1761467157106680800,2.408680908203125,0.20559739139080047,0.258999018971622,-0.6651683748066425
1761467157116663800,2.418663818359375,0.21342881566882133,0.22987696938365695,-0.6696265232592821
1761467157126647000,2.42864697265625,0.055552375873923296,0.22239976537078618,-0.6287631824731826
1761467157136630000,2.438630126953125,-0.0671767626941204,0.26184827092289925,-0.5607224964261055
1761467157146613000,2.448613037109375,-0.15755553727746008,0.23498335261195896,-0.5839999116390944
1761467157156595000,2.458594970703125,-0.24192776492238044,0.18283669352829454,-0.6230149942100047
1761467157166578200,2.468578125,-0.2959644755363464,0.15990589979588984,-0.6718529671370983
1761467157176561000,2.478560791015625,-0.3053255935996771,0.147438047888875,-0.7249117726296186
1761467157186543900,2.4885439453125,-0.30027590899467466,0.15969576417654752,-0.7714642649680375
1761467157196527000,2.498527099609375,-0.2976730330199003,0.1638791873410344,-0.7433534382492304
1761467157206510000,2.508510009765625,-0.3658428984045982,0.18233254339843988,-0.6728069068610668
1761467157216492800,2.518492919921875,-0.5048971488296985,0.19777502720206974,-0.6601935090035199
1761467157226475000,2.52847509765625,-0.6789929020196199,0.1891173812329769,-0.643514761403203
1761467157236458000,2.5384580078125,-0.8904144695192575,0.21351327908188103,-0.5707412016153335
1761467157246441000,2.54844091796875,-1.0061153168857098,0.22574586092829704,-0.5401058248549699
1761467157256424000,2.558423828125,-0.9193319364458322,0.25292846688628196,-0.5319605123221874
1761467157266407000,2.568406982421875,-0.6857686797648668,0.35345658730119467,-0.5424041649252176
1761467157276390100,2.57839013671875,-0.5563233846843242,0.47202597584128375,-0.6181774910509586
1761467157286372900,2.588372802734375,-0.5338555322885513,0.5557274646177888,-0.6852414410203694
1761467157296355000,2.59835498046875,-0.5067494986981154,0.6592875000745058,-0.7732616697788238
1761467157306338000,2.608338134765625,-0.4393476950764656,0.7160346386909484,-0.9285264657706022
1761467157316321000,2.618321044921875,-0.40340076790452,0.7255535776644945,-1.0823141749471425
1761467157326304000,2.628303955078125,-0.3599836509823799,0.7113160857364534,-1.14958972184062
1761467157336287000,2.638286865234375,-0.36182957111001013,0.6947282312899827,-1.1696294703066348
1761467157346270200,2.648270263671875,-0.46333062821030613,0.6176762635305524,-1.0858990476965904
1761467157356253000,2.6582529296875,-0.6032891339987516,0.5758183587491512,-0.9459896417468786
1761467157366236000,2.66823583984375,-0.7000386126577853,0.5474290073499083,-0.8364180909156799
1761467157376218000,2.678218017578125,-0.7443734289467334,0.469856522847712,-0.6976847430080175
1761467157386200800,2.688200927734375,-0.7873334497511386,0.4178597936287522,-0.40709436172544955
1761467157396184000,2.69818408203125,-0.710375297755003,0.3712567401468754,-0.0026344401568174363
1761467157406167000,2.7081669921875,-0.6372773283183575,0.3067395520508289,0.3299000628858805
1761467157416149800,2.718149658203125,-0.6725146459162235,0.25355741243958474,0.5079331555247306
1761467157426133000,2.728133056640625,-0.6598638386577368,0.18566139556020497,0.5453583385556936
1761467157436116000,2.738115966796875,-0.6149900931864977,0.10761018763035535,0.530334956946969
1761467157446098000,2.748097900390625,-0.5890566105067729,-0.00438099156320095,0.5100701675534248
1761467157456081000,2.758080810546875,-0.52671501288414,-0.10810162440910935,0.43133331544697284
1761467157466064000,2.76806396484375,-0.39955695195794105,-0.21912688117995857,0.2380260813087225
1761467157476047000,2.778047119140625,-0.22884733407497404,-0.3049059068828821,0.0796948834836483
1761467157486029800,2.78802978515625,-0.031121114450693127,-0.2495864629819989,-0.05900573119819164
1761467157496012800,2.7980126953125,0.17485504712462424,-0.18021598963588475,-0.1282803429543972
1761467157505996000,2.80799609375,0.2765893284589052,-0.10413199012577533,-0.07663900304436683
1761467157515978000,2.81797802734375,0.301938873770833,0.002613105107843876,-0.018240005567669866
1761467157525961000,2.8279609375,0.35018647958934307,0.11293342847973108,0.004684942945837974
1761467157535944000,2.83794384765625,0.4202916969507932,0.2317316573396325,0.03690378950536251
1761467157545927200,2.84792724609375,0.550368860194087,0.3349161374822259,0.16423720699846744
1761467157555910000,2.857909912109375,0.6659224080443382,0.41978272451534865,0.35959085227251053
1761467157565892900,2.867892822265625,0.6815045925796032,0.4949887721471488,0.49070904900133605
1761467157575876000,2.8778759765625,0.7161895369917154,0.5060822669610381,0.6162853936940431
1761467157585859000,2.887859130859375,0.7845727528661489,0.5132929289922118,0.6941185749590396
1761467157595841000,2.897841064453125,0.881069718068838,0.4649922778122127,0.7599567825257778
1761467157605824000,2.907823974609375,0.9134615831077099,0.416444666133821,0.8016565741360187
1761467157615807000,2.917806884765625,0.8969511778116226,0.3383342753626406,0.7940157039940356
1761467157625790000,2.9277900390625,0.8775818759530782,0.24109599027335643,0.7199678864866494
1761467157635773000,2.93777294921875,0.8348527412950992,0.11490107529088854,0.6190390763163566
1761467157645756000,2.947755859375,0.8212637764036655,0.011167436832934618,0.5089736044883728
1761467157655739100,2.9577392578125,0.8395347616314888,-0.08925488511994481,0.3489250813513994
1761467157665720800,2.967720947265625,0.8782347869038581,-0.2964345772661269,0.2019359462738037
1761467157675704000,2.9777041015625,0.8840963724136353,-0.4986227447353303,0.13078618829548358
1761467157685687000,2.98768701171875,0.8882979157567024,-0.7029569843225181,0.13014379873871804
1761467157695670000,2.997669921875,0.9325058907955884,-0.9011287557572126,0.10483107830584049
1761467157705653000,3.007653076171875,1.0078291350662707,-1.058508644206822,0.13242518767416475
1761467157715636000,3.017635986328125,1.0387427442461252,-1.126596822657436,0.22926176009476185
1761467157725619200,3.027619140625,1.044761566144228,-1.1359424508906901,0.2651730314314365
1761467157735602000,3.037601806640625,0.8667103533267975,-1.0520568377189337,0.2952209636926651
1761467157745584000,3.047584228515625,0.6929074456036091,-0.951237917663902,0.3738216221988201
1761467157755567000,3.057567138671875,0.47841363105177875,-0.8613895966954529,0.5024918412536382
1761467157765549800,3.0675498046875,0.2057096195936203,-0.7054134375639259,0.5992360592156648
1761467157775533000,3.077532958984375,-0.06684416973888874,-0.5800726551927626,0.6658902593404055
1761467157785516000,3.08751611328125,-0.2408136662006378,-0.4390022426396608,0.739948598241806
1761467157795502800,3.0975029296875,-0.24883739818036554,-0.3263536224506795,0.7311305010139941
1761467157805486000,3.107486083984375,-0.20682488735914228,-0.260403332811594,0.6713122843891381
1761467157815469000,3.117468994140625,-0.13082242865264415,-0.21806100551411509,0.590201688888669
1761467157825451000,3.127450927734375,0.014563362881541251,-0.20444807522520422,0.5047323136568069
1761467157835434000,3.13743408203125,0.15354747067987917,-0.19903087248206136,0.38480011233091355
1761467157845417000,3.1474169921875,0.2698714183807373,-0.19578268434107302,0.25479367623627186
1761467157855400200,3.157400146484375,0.3989133933573961,-0.13636749555915592,0.1634855118483305
1761467157865383000,3.1673828125,0.5637748697340488,-0.08888809763416647,0.0591775806337595
1761467157875366000,3.177365966796875,0.6870037745177745,-0.06372983711063862,0.02330021156668663
1761467157885349000,3.18734912109375,0.714584439882636,-0.05699643720239401,-0.013887071055173873
1761467157895330800,3.197330810546875,0.7176911737263202,-0.09044467942640184,-0.0665671063631773
1761467157905314000,3.20731396484375,0.6991419560790062,-0.1700786265030503,-0.1410720199882984
1761467157915297000,3.217297119140625,0.6879945391207933,-0.21381109298467635,-0.17950550327897072
1761467157925279700,3.22727978515625,0.7179080313473939,-0.29372809478640555,-0.19577800816595553
1761467157935263000,3.237262939453125,0.7714233484357595,-0.43266003400608893,-0.291755917930603
1761467157945246000,3.247245849609375,0.6923515652865171,-0.5753577555000782,-0.4092518320202827
1761467157955229000,3.25722900390625,0.5535059891760349,-0.7374110425882041,-0.4764204114079475
1761467157965212000,3.2672119140625,0.4011269777536392,-0.8809950453974306,-0.45452363689839836
1761467157975193900,3.27719384765625,0.2548234868526459,-0.9891187355078757,-0.3928080622196197
1761467157985177000,3.287177001953125,0.08959726881682872,-1.0658036235205828,-0.25671616873145103
1761467157995159800,3.297159912109375,-0.10168985767066478,-1.0680066865228115,-0.12148644503057002
1761467158005143000,3.30714306640625,-0.22833704646527767,-1.0744080779977143,-0.05027823486328125
1761467158015126000,3.3171259765625,-0.326120544347167,-1.0737401156082749,0.01908522422015667
1761467158025109000,3.32710888671875,-0.40862756264209743,-1.01859617440477,0.15325637877881526
1761467158035092000,3.337092041015625,-0.4693973809033632,-0.9434605616606772,0.2601642633587122
1761467158045075000,3.347074951171875,-0.45827860551774496,-0.8678948869362473,0.27238661607205866
1761467158055057200,3.35705712890625,-0.3942600145936012,-0.7674464076288045,0.18676994132399558
1761467158065040000,3.367039794921875,-0.3750140468537807,-0.6879078837506473,0.04328618401885032
1761467158075022800,3.37702294921875,-0.34675708966255187,-0.6364473072350025,-0.05053951614797115
1761467158085006000,3.387006103515625,-0.30539690527021884,-0.5463812518626451,-0.12077566641271113
1761467158094989000,3.396989013671875,-0.3114513830035925,-0.4847643152527511,-0.19577625460028647
1761467158104971800,3.4069716796875,-0.3058949179202318,-0.438699752561748,-0.2402028408259153
1761467158114955000,3.416955078125,-0.32739947824180127,-0.3674941727429628,-0.27704876266419887
1761467158124938000,3.42693798828125,-0.34781098262965676,-0.3207230692178011,-0.3136456781774759
1761467158134920000,3.436919921875,-0.34814123749732967,-0.3062735419742763,-0.3749900814563036
1761467158144903000,3.44690283203125,-0.3168219701260328,-0.31521804206073284,-0.4586316567391157
1761467158154886000,3.456885986328125,-0.2637333540171385,-0.26586042917370795,-0.5400052870899439
1761467158164869000,3.466869140625,-0.25670973899066446,-0.21855492651090025,-0.6027969665676355
1761467158174851800,3.476851806640625,-0.22361820124983786,-0.20337576981857416,-0.641099516955018
1761467158184835000,3.4868349609375,-0.1676373708307743,-0.2249646474227309,-0.6955611749827861
1761467158194818000,3.496818115234375,-0.18445581916272638,-0.25213307872489094,-0.7972299898654222
1761467158204801000,3.506801025390625,-0.28305998577773567,-0.3204895527228713,-0.8265174591481685
1761467158214783000,3.516782958984375,-0.3951514104753732,-0.4309397860847413,-0.7499830855220556
1761467158224766000,3.526765869140625,-0.5795528691023588,-0.5335613716475666,-0.6261199744880199
1761467158234749200,3.536749267578125,-0.7750310175389051,-0.6301311098255217,-0.5001175133377314
1761467158244732000,3.54673193359375,-0.9203133486986159,-0.6985064346544444,-0.39173371098637577
1761467158254715000,3.55671484375,-0.9880851546764373,-0.7652674561545252,-0.3604916005045175
1761467158264698000,3.566697998046875,-0.9165425979882478,-0.8213891563490032,-0.3651397185713052
1761467158274680800,3.576680908203125,-0.7560486691713333,-0.8938139026992022,-0.329408479976654
1761467158284663800,3.586663818359375,-0.576124648219347,-0.896489697779715,-0.2990887450367212
1761467158294647000,3.59664697265625,-0.4226496582537889,-0.9027639557436108,-0.26036241627931594
1761467158304629000,3.60662890625,-0.269206232470274,-0.9471138234712183,-0.22471593335866927
1761467158314612000,3.616612060546875,-0.16453706672787666,-0.9296291663154959,-0.1487578983157873
1761467158324595000,3.626594970703125,-0.2792167543530464,-0.8871342788048088,-0.039543490359187125
1761467158334578000,3.636577880859375,-0.4360556677937507,-0.8193401148647069,0.017073884397745133
1761467158344561000,3.646560791015625,-0.5778595091879367,-0.7567964187987148,-0.0011824877828359604
1761467158354543900,3.6565439453125,-0.7492799056887626,-0.6755021372944117,-0.05626724614500999
1761467158364527000,3.666527099609375,-0.7985475022047758,-0.6103937053069471,-0.11068331146538257
1761467158374510000,3.676510009765625,-0.7928601042181253,-0.4880170334383845,-0.04929448452293873
1761467158384492000,3.686491943359375,-0.8458359076023101,-0.27329642439335583,0.14890928948521615
1761467158394475000,3.69647509765625,-0.8110223683744668,-0.030488077244162557,0.4051403050482273
1761467158404458000,3.7064580078125,-0.7487246098935604,0.2288376894637942,0.6096832189500332
1761467158414441000,3.71644091796875,-0.688642189374566,0.398053853918612,0.7838438540697097
1761467158424424000,3.726423828125,-0.6309621538221836,0.47702363799810404,0.8640203835904597
1761467158434407000,3.736406982421875,-0.39346448030173775,0.4629610642455518,0.8642582839995622
1761467158444390100,3.74639013671875,-0.10000000488758086,0.2699105813473463,0.7756938653618097
1761467158454372900,3.756372802734375,0.2068681419789791,0.056014732688665386,0.6609767683357
1761467158464355000,3.76635498046875,0.3884475289225578,-0.15496435174047946,0.5289911411225795
1761467158474338000,3.776338134765625,0.49356502295434473,-0.36640608524531126,0.3630722646474838
1761467158484320800,3.78632080078125,0.5343219807565212,-0.6033097383953631,0.12707096716463565
1761467158494304000,3.796303955078125,0.5132265857577324,-0.7717720157429575,-0.0860170722424984
1761467158504287000,3.806286865234375,0.5817845736771822,-0.8607721954494715,-0.3293289849996567
1761467158514270000,3.81627001953125,0.6839239286810159,-0.9413910619102418,-0.43777591571509833
1761467158524253000,3.8262529296875,0.7156330721527338,-1.0133785858869553,-0.4634808503359556
1761467158534236000,3.83623583984375,0.7945943806648254,-1.000921693765372,-0.3824970960855484
1761467158544219100,3.84621923828125,0.7971388044506311,-0.8757340561293065,-0.25093816985189915
1761467158554200800,3.856200927734375,0.668470338961482,-0.6958867536753416,-0.032818566018342966
1761467158564184000,3.86618408203125,0.4915782330513,-0.5428130379870534,0.14165069665908814
1761467158574167000,3.8761669921875,0.3664367726445198,-0.33092209940999745,0.2149018108308315
1761467158584150000,3.88614990234375,0.3172439949303865,-0.1382318281263113,0.27250527401566504
1761467158594133000,3.896133056640625,0.36945875081419943,0.013356909701228142,0.3945423386663198
1761467158604116000,3.906115966796875,0.46584757946729655,0.15665917295962573,0.5405927315890788
1761467158614099000,3.916098876953125,0.5696224267184734,0.2536787007316947,0.6685048257529735
1761467158624082200,3.926082275390625,0.7582569928705691,0.2945157380327582,0.7807768677145243
1761467158634065000,3.93606494140625,0.9918003758072853,0.333611338493973,0.8531313253074884
1761467158644047000,3.946047119140625,1.1449334204673767,0.3078027973681688,0.8939064032882451
1761467158654030000,3.956030029296875,1.2021768181681631,0.2748402928344905,0.8825316073149442
1761467158664012800,3.9660126953125,1.201694003087282,0.28546368591859933,0.8143500514924525
1761467158673996000,3.97599609375,1.2963468017280102,0.30869302420616146,0.6915139454185962
1761467158683979000,3.98597900390625,1.4123440016925335,0.3513132916621864,0.539529486271739
1761467158693962000,3.9959619140625,1.4005425047397613,0.3854148832283914,0.4037450512975454
1761467158703945000,4.005945068359375,1.3271265553951264,0.4475007525242865,0.3412093924075365
1761467158713928000,4.015927978515625,1.2221826643645763,0.4946820442855358,0.30381635808050633
1761467158723910000,4.025909912109375,1.0357003078103064,0.5221589570149779,0.305754632666707
1761467158733892900,4.035892822265625,0.7816039661884308,0.5336209928803145,0.35075755747556686
1761467158743875000,4.045875,0.535941106390953,0.5392408785887062,0.3091056966602802
1761467158753857800,4.05585791015625,0.3062561524480581,0.5127066535368562,0.22275135528743265
1761467158763841000,4.065841064453125,0.11181786845326423,0.4985545018047094,0.13362462659180163
1761467158773824000,4.075823974609375,-0.018945523488521576,0.5147732306778431,0.05723579891622066
1761467158783807000,4.085806884765625,-0.020444237613677977,0.5705060776852071,-0.009096914169192314
1761467158793786000,4.0957861328125,-0.04466214854717254,0.5970058159455657,-0.10189736294150352
1761467158803769000,4.10576904296875,-0.030465865412354468,0.5771503380052745,-0.16653846967816352
1761467158813751800,4.115751708984375,0.01927519383430481,0.6036994683653116,-0.15188859755694864
1761467158823735000,4.125735107421875,0.12315174789428711,0.6078254622541368,-0.16880232295691966
1761467158833717000,4.135717041015625,0.1767512361347675,0.5945179446525871,-0.17135200743973253
1761467158843700200,4.1457001953125,0.2190115842372179,0.6099028530500828,-0.15211246944069862
1761467158853683000,4.155682861328125,0.16210136401355266,0.6046772273562848,-0.116633744302392
1761467158863666200,4.165666259765625,0.07528758843541145,0.5736198257915676,-0.067996262383461
1761467158873649200,4.175649169921875,0.06739537388086318,0.5215529539458453,-0.0035293431699275966
1761467158883631900,4.1856318359375,0.11111585766375064,0.46212300598621364,0.009981295788288116
1761467158893615000,4.195614990234375,0.13558803561925886,0.44228141044080255,0.012856558963656424
1761467158903598000,4.20559814453125,0.21491700839996336,0.39964565315470096,-0.02401858896911144
1761467158913581000,4.2155810546875,0.3442752097189426,0.30357845767140385,-0.11917290739119052
1761467158923563000,4.22556298828125,0.4331605308741331,0.16502660381048917,-0.19973463683724402
1761467158933546000,4.2355458984375,0.4814321020901203,0.03404138581156731,-0.2122311303168535
1761467158943529200,4.245529296875,0.37675533756315704,-0.06311024390757083,-0.2528898884415626
1761467158953512000,4.255511962890625,0.22947569510638713,-0.1293564477533102,-0.33315409624576564
1761467158963495000,4.265494873046875,0.10067337410449981,-0.16132278085649013,-0.38751287842094895
1761467158973478100,4.27547802734375,-0.0209007492095232,-0.13518968395143746,-0.4620265598744154
1761467158983461000,4.285461181640625,-0.15836393105089663,-0.12722469642162323,-0.5412982495099306
1761467158993443800,4.29544384765625,-0.2342828031271696,-0.06819324626028538,-0.59613049441576
1761467159003427000,4.305427001953125,-0.25402152281999585,-0.03856090906262397,-0.6134937171489
1761467159013409000,4.315408935546875,-0.2809294034898281,-0.02307663194388151,-0.5986807634204626
1761467159023392000,4.32539208984375,-0.332743177357316,-0.0217743171736598,-0.6091659170776605
1761467159033375000,4.335375,-0.3732254098713398,-0.036781039908528324,-0.6314437998592853
1761467159043358200,4.345358154296875,-0.42228608563840386,-0.03853840496987104,-0.668060004594922
1761467159053341200,4.355341064453125,-0.4505868819713592,-0.0433177482008934,-0.6843932997584342
1761467159063324000,4.365323974609375,-0.4630488886594772,-0.05481324794441461,-0.6646890668570995
1761467159073307100,4.37530712890625,-0.41194297080039977,-0.02838087583184242,-0.619754531109333
1761467159083290000,4.3852900390625,-0.36400223897397516,-0.02076484787017107,-0.6220026022970676
1761467159093273000,4.395273193359375,-0.3283341287434101,-0.010574877767264842,-0.6464046376258135
1761467159103256000,4.405256103515625,-0.24308511826395987,-0.012514613658189773,-0.6655629270821809
1761467159113238000,4.415238037109375,-0.2073784295886755,-0.029865561431646346,-0.6799538560062647
1761467159123221200,4.42522119140625,-0.2608557527542114,-0.04350684103220701,-0.6976771442234516
1761467159133204000,4.435203857421875,-0.30347850442826746,-0.06304623876065016,-0.7204056933820248
1761467159143187000,4.44518701171875,-0.36046412797570226,-0.07602467053830624,-0.7355833887696266
1761467159153170200,4.455170166015625,-0.4209481150329113,-0.046644846796989436,-0.7174240472227335
1761467159163153200,4.465153076171875,-0.469733480989933,0.00639963790923357,-0.7492553557693958
1761467159173136000,4.475135986328125,-0.4735802195459604,0.023579613029956818,-0.8275766128122806
1761467159183119000,4.485119140625,-0.6098685123890638,0.16385171481221913,-0.9793056358933449
1761467159193102000,4.49510205078125,-0.6796528272330761,0.3863949803069234,-0.9925503173917531
1761467159203085000,4.5050849609375,-0.41708910151720047,0.6429770012646913,-0.7997609696477651
1761467159213067000,4.51506689453125,-0.28175942457318304,0.5107116803273558,-0.7920750913202762
1761467159223050200,4.52505029296875,-0.5785942532032727,0.6170251061454415,-0.8496814771145582
1761467159233033000,4.535032958984375,-0.7223685178875923,0.655972968699038,-0.7724930234938859
1761467159243016000,4.545015869140625,-0.7415700619637966,0.7051987718999385,-0.7081172896951436
1761467159252999200,4.554999267578125,-0.8241513145387173,0.7147162495687603,-0.6888537862986326
1761467159262982100,4.564982177734375,-0.8724632177650928,0.7230640989363193,-0.6910322993814945
1761467159272964900,4.57496484375,-0.826872848457098,0.6963780443236232,-0.720101157477498
1761467159282948000,4.584947998046875,-0.7379711606889963,0.6077127956598997,-0.8156897756636142
1761467159292931000,4.59493115234375,-0.6193225694328546,0.494868214507401,-0.9029074558675289
1761467159302914000,4.6049140625,-0.5860778869569301,0.4065317594066262,-0.9551876782029867
1761467159312896000,4.61489599609375,-0.6069535017251968,0.33671997203379866,-0.9835638778597116
1761467159322879000,4.62487890625,-0.6355705244004726,0.2775622651442885,-0.956145709580183
1761467159332862200,4.6348623046875,-0.7226958501458167,0.18738252026438712,-0.8765449341207742
1761467159342845000,4.644844970703125,-0.8459896368592977,0.10071955133378505,-0.7214654315680264
1761467159352828000,4.654827880859375,-0.8910352317661047,0.06581248860359191,-0.4757885432451963
1761467159362811100,4.66481103515625,-0.923002733913064,-0.0312748437076807,-0.18989479534626005
1761467159372794000,4.674794189453125,-0.9194576086521148,-0.038732173976302145,-0.006392915907502174
1761467159382777000,4.684777099609375,-0.870980285730958,-0.05446458063721656,0.10150690231919288
1761467159392760000,4.694760009765625,-0.7663052747696638,-0.052747547586262225,0.1862982321590185
1761467159402743000,4.704742919921875,-0.6245125392913818,-0.06312456469386815,0.21227380041480062
1761467159412725000,4.71472509765625,-0.47013913918137545,-0.03315262027829885,0.21670915251374243
1761467159422708000,4.7247080078125,-0.3347264601290226,0.03316138810664415,0.20731647026836872
1761467159432691200,4.734691162109375,-0.171423903632164,0.020638591141998768,0.1939443629980087
1761467159442674200,4.744674072265625,-0.07323942373394966,0.04537292716503143,0.1915653589069843
1761467159452657000,4.754656982421875,-0.029368717825412748,0.05106207871735096,0.2160048036366701
1761467159462640000,4.76464013671875,0.07556640537679195,0.061894730637967584,0.24743863729834556
1761467159472623000,4.774623046875,0.2516764209985733,0.06749386581927537,0.2326572477519512
1761467159482605800,4.784605712890625,0.4144599220573902,0.13348755620867014,0.11494096890985965
1761467159492589000,4.794589111328125,0.6050035367012023,0.17267390369325875,0.04663900157809257
1761467159502572000,4.804572021484375,0.7189023030817508,0.26081951239705087,0.08161562241315841
1761467159512554200,4.81455419921875,0.6959130571603774,0.3384393431723118,0.17544833684265612
1761467159522537000,4.824536865234375,0.5645639742851257,0.3798889594137668,0.28628537756502626
1761467159532520000,4.83452001953125,0.432023051276803,0.35324060646295546,0.4216828590482473
1761467159542503200,4.844503173828125,0.4799053309142589,0.3745107735067606,0.5407932225972414
1761467159552486000,4.85448583984375,0.6086643972963094,0.38322131870687004,0.5868699141174555
1761467159562469000,4.86446923828125,0.7449655496209859,0.3860246856898069,0.6207324362307787
1761467159572452000,4.8744521484375,0.8171095793336629,0.35156156733483074,0.6902192294329405
1761467159582435000,4.88443505859375,0.8006967891931533,0.33261487480252977,0.7365232999682426
1761467159592418000,4.89441796875,0.7893313455700874,0.25714257744997737,0.7265139471292495
1761467159602401000,4.904401123046875,0.8177911318570374,0.1529021585136652,0.6885059957742691
1761467159612384000,4.914384033203125,0.9410884257018566,0.02574409758746624,0.6758113493740558
1761467159622366000,4.924365966796875,1.1002876385331153,-0.1381771753296256,0.6771925745993852
1761467159632349000,4.934348876953125,1.1509037270486353,-0.2919508559808135,0.6630196723401546
1761467159642332200,4.944332275390625,1.1514999393761158,-0.4791840309023857,0.5888344921886921
1761467159652315100,4.954315185546875,1.0698223576426504,-0.7421189280182122,0.5365712209880352
1761467159662297900,4.9642978515625,0.9414274483978747,-0.9333429261416196,0.4379571175009012
1761467159672281000,4.974281005859375,0.8090753259599208,-1.14230687135607,0.38515082546472545
1761467159682264000,4.98426416015625,0.6656266399681567,-1.2343176310554147,0.3355412836432457
1761467159692247000,4.9942470703125,0.5391945552289485,-1.2722969408378004,0.3232920429229736
1761467159702230000,5.00422998046875,0.4375298319995403,-1.191106558099389,0.3065875763595104
1761467159712213000,5.014212890625,0.37016777586638927,-1.0638868301138282,0.32927403994202614
1761467159722196200,5.0241962890625,0.37574528373777866,-0.9544602407112717,0.3491816864609718
1761467159732178000,5.034177978515625,0.35029052448570724,-0.8616866799458861,0.39361704051494595
1761467159742161200,5.0441611328125,0.26967794163525105,-0.7647919475972652,0.46822775260210037
1761467159752144100,5.05414404296875,0.14859481670856475,-0.6964394191220402,0.5316776037275791
1761467159762127000,5.064127197265625,0.02317980005741119,-0.6211021463260055,0.5987205109089613
1761467159772110000,5.074110107421875,-0.04645663074851036,-0.5532721804201602,0.6038859308481216
1761467159782093000,5.084093017578125,-0.04011807537674904,-0.4966074593901634,0.6003653555065394
1761467159792076000,5.094075927734375,-0.04233867403566837,-0.4257590224459767,0.5777443583756685
1761467159802059300,5.104059326171875,-0.006889174991846084,-0.402524277330935,0.5506394938290119
1761467159812042200,5.114042236328125,0.03232581406533718,-0.37267215990275143,0.49971828488707537
1761467159822025000,5.12402490234375,0.1558423036187887,-0.35216640136018396,0.437334601688385
1761467159832007200,5.134007080078125,0.3231494195818901,-0.30560134180113674,0.35934126142561434
1761467159841990100,5.143990234375,0.551844193443656,-0.31964608763605357,0.20987726066708565
1761467159851973400,5.153973388671875,0.694616003087163,-0.37427228857576844,0.10519757353067398
1761467159861956000,5.1639560546875,0.753812872943282,-0.43431744582429527,-0.009672083708643912
1761467159871939000,5.17393896484375,0.7342460026860237,-0.5153334949091076,-0.11993746202290058
1761467159881922300,5.18392236328125,0.684328417828679,-0.6088889998324215,-0.25578619440495964
1761467159891905000,5.193905029296875,0.5794938323915004,-0.7469717748768627,-0.4244032239228487
1761467159901888300,5.20388818359375,0.4766857843458652,-0.8557435536324978,-0.5301794741243123
1761467159911871200,5.213871337890625,0.40478140860795975,-0.9296459713198244,-0.5878016420096158
1761467159921854200,5.223854248046875,0.405444840952754,-0.9756514972999691,-0.5695446853071451
1761467159931837200,5.233837158203125,0.3968973773598671,-0.9637507777564227,-0.4732739300757646
1761467159941819100,5.243819091796875,0.31722704379558564,-0.9491201948575675,-0.3724690385460853
1761467159951802400,5.25380224609375,0.147868840521574,-0.9269288213156163,-0.2645294728308916
1761467159961785000,5.26378515625,-0.08890227228999137,-0.8702053558357059,-0.1551326940447092
1761467159971768000,5.27376806640625,-0.20750936249196528,-0.8214613448023795,-0.07015782433152198
1761467159981751300,5.283751220703125,-0.2936643819004297,-0.8307596267625689,-0.028577275186777114
1761467159991734300,5.293734375,-0.32152561777234073,-0.7841286623604595,-0.03691372637748718
1761467160001717000,5.303717041015625,-0.2954161940038204,-0.7466817058891058,-0.038624621948599815
1761467160011700200,5.3137001953125,-0.3326128289759159,-0.6463040998607874,-0.03189151430130005
1761467160021683200,5.32368310546875,-0.367048182541132,-0.5360134409748017,-0.07002513786256313
1761467160031666200,5.333666259765625,-0.42138533740639683,-0.4106026621073484,-0.17739070308208466
1761467160041649200,5.343649169921875,-0.5019733703374862,-0.302185980399698,-0.27386896358430385
1761467160051631000,5.353631103515625,-0.5343570520699024,-0.2571915311582386,-0.372370838868618
1761467160061614300,5.3636142578125,-0.5511971277117729,-0.1749466709308326,-0.45407998478412626
1761467160071597000,5.37359716796875,-0.5230968223869801,-0.0853751210771501,-0.5187976638883351
1761467160081580300,5.383580322265625,-0.4853483987510204,-0.030626901192963123,-0.6140162797182798
1761467160091563300,5.393563232421875,-0.4858481649667024,0.022443156345933673,-0.6747434278815985
1761467160101546200,5.403546142578125,-0.524933974686265,0.07164967032447457,-0.7011515423357486
1761467160111529200,5.413529296875,-0.492848399117589,0.0667737348511815,-0.7448316941082477
1761467160121512200,5.42351220703125,-0.44622517963051794,0.06270531636849046,-0.7914221803694963
1761467160131495200,5.4334951171875,-0.3868015152812004,0.056362815473973746,-0.808670252290368
1761467160141478100,5.44347802734375,-0.3997106812149286,0.012502630959451198,-0.7952081286489963
1761467160151461000,5.453461181640625,-0.46407647814154623,-0.030596798315644262,-0.7615057655334472
1761467160161444000,5.463444091796875,-0.5523123954772949,-0.0855837953917682,-0.7309077981740236
1761467160171426300,5.47342626953125,-0.6176584356129169,-0.1763866406060755,-0.6522264756470918
1761467160181409000,5.483408935546875,-0.6051233636885881,-0.19638795675784348,-0.5961041909307241
1761467160191392300,5.493392333984375,-0.5099626155257225,-0.23799524777904152,-0.5441431175470351
1761467160201375200,5.503375244140625,-0.30879473101496696,-0.28018326129764315,-0.518264579924941
1761467160211358000,5.51335791015625,-0.013249942195415495,-0.38431422851011154,-0.47901627312004563
1761467160221341200,5.523341064453125,0.2413724691271782,-0.4680132330685854,-0.4331897569686174
1761467160231324200,5.53332421875,0.3947188642770052,-0.5226087466090917,-0.3692939156413078
1761467160241307100,5.54330712890625,0.35931612698435783,-0.527346150394529,-0.40249242088794707
1761467160251290000,5.5532900390625,0.12505319760143757,-0.5614964034080505,-0.5369020603775978
1761467160261273000,5.563273193359375,-0.18413959282040596,-0.6833214327432214,-0.6115343997746706
1761467160271256300,5.57325634765625,-0.36707273246049876,-0.6738048318572342,-0.5967430733561515
1761467160281238000,5.583238037109375,-0.7572592140048742,-0.5496640729255974,-0.5334206480026245
1761467160291221200,5.59322119140625,-1.008677276328206,-0.6413209046207368,-0.49484454137086864
1761467160301204200,5.603204345703125,-1.1776333285421132,-0.6588387333936989,-0.46644496083855624
1761467160311187200,5.613187255859375,-1.2638006229102612,-0.6829520149089395,-0.45538580668568607
1761467160321170200,5.623170166015625,-1.2053484339416027,-0.7808965485714375,-0.4186579582691192
1761467160331153200,5.633153076171875,-1.1253490145534277,-0.7732935262218117,-0.3624193536967039
1761467160341136100,5.64313623046875,-1.1926087793558835,-0.7236582654371857,-0.2224748764336109
1761467160351119400,5.653119384765625,-1.2867951295286417,-0.6254276083096861,-0.028946108499169346
1761467160361102000,5.66310205078125,-1.3108534659862519,-0.4951905783295631,0.27486966505944727
1761467160371085000,5.6730849609375,-1.2469511949181555,-0.25623642239049077,0.4998521403998136
1761467160381068300,5.683068359375,-1.1154629958331583,-0.011859803011268377,0.6386778427660464
1761467160391050000,5.693050048828125,-0.935632498383522,0.1584757208622992,0.7156815874695778
1761467160401033200,5.703033203125,-0.6328776320546865,0.24055837626531718,0.7672551228404044
1761467160411016200,5.71301611328125,-0.2709820099711418,0.2894295208096504,0.888080473613739
1761467160420999200,5.722999267578125,-0.016640169155597687,0.27343291025459765,1.008440544962883
1761467160430982100,5.732982177734375,0.14164075978696344,0.1084955921627581,1.038418334597349
1761467160440965000,5.742965087890625,0.1154004031151533,-0.08155366309285163,0.976338018259406
1761467160450948400,5.7529482421875,0.06031622927486896,-0.33274668448865413,0.9170879569113254
1761467160460931000,5.76293115234375,0.1480301685631275,-0.47459392663314937,0.9161585671067237
1761467160470914000,5.7729140625,0.31344694073498247,-0.5553332046031951,0.813112618651986
1761467160480897300,5.782897216796875,0.517266801059246,-0.6544834607936442,0.5276356348603963
1761467160490880300,5.79288037109375,0.6301297946512698,-0.6740703509256243,0.16235270842611788
1761467160500862200,5.8028623046875,0.7093991461992263,-0.6215205178685486,-0.2032815156638622
1761467160510845200,5.81284521484375,0.8799532812595366,-0.5344013296030461,-0.3916542160093784
1761467160520828200,5.822828125,1.0408663122713566,-0.4517208544373512,-0.39019232676327226
1761467160530811100,5.83281103515625,1.0680132623940706,-0.3236497703194618,-0.23645547099113462
1761467160540794000,5.842794189453125,0.9195277512788772,-0.23637524536177515,-0.0557569585353136
1761467160550777000,5.852777099609375,0.7246586746513843,-0.2638112415589392,-0.0034662148058414457
1761467160560760300,5.86276025390625,0.6670458591163158,-0.339206382022053,-0.018471476235985756
1761467160570743000,5.872742919921875,0.9129565561950206,-0.3955743120625615,0.026841829696297646
1761467160580726300,5.882726318359375,1.212485446214676,-0.32774975298419595,0.12965630748271942
1761467160590709200,5.892709228515625,1.494289294451475,-0.2035791834361851,0.13845979166328906
1761467160600692200,5.902692138671875,1.7842109826922417,-0.1289966745302081,0.10388999806344508
1761467160610674200,5.912674072265625,2.0270307280182838,-0.02506751350015402,0.13307926766872405
1761467160620657200,5.9226572265625,1.910816085910797,0.03045738984495401,0.2449310383915901
1761467160630640400,5.932640380859375,1.3771119447916744,-0.04451338772624731,0.44611528951525686
1761467160640623000,5.942623046875,1.4540882169663905,0.33936946362927556,0.6716115595966577
1761467160650606000,5.952606201171875,0.9101374071210623,0.3416328785166144,0.7412158416986465
1761467160660589300,5.96258935546875,0.3282517111569643,0.4191647387474775,0.9121943396508693
1761467160670572300,5.972572265625,0.32416181149482726,0.5180499142609536,0.9573042319655418
1761467160680555000,5.982554931640625,0.2713742241591215,0.5274579402059316,0.8311205690294504
1761467160690538200,5.992538330078125,0.10978665488660334,0.6103751467369496,0.7517974414676427
1761467160700521200,6.002521240234375,0.023712299498915672,0.6438191511772573,0.7481383344382048
1761467160710504200,6.012504150390625,0.0032400048345327375,0.6300583368502557,0.6765092685103417
1761467160720487200,6.022487060546875,-0.00026771102547645565,0.5877559031717479,0.5529109458923339
1761467160730469000,6.03246923828125,0.11092296544015406,0.4834665305271744,0.36263971844911574
1761467160740452400,6.042452392578125,0.1887906334966421,0.402969975271821,0.1561480085670948
1761467160750435000,6.05243505859375,0.1901326957553625,0.32939430532082914,0.04441664935350418
1761467160760418300,6.062418212890625,0.15691607033014296,0.2501163320749998,-0.06120820967853069
1761467160770401300,6.0724013671875,0.10850889003574847,0.2239963869124651,-0.13360124571621418
1761467160780384000,6.082384033203125,0.18153847041130064,0.21987726115584372,-0.19262392804920672
1761467160790367200,6.0923671875,0.38592297888100147,0.2394061374902725,-0.3599468261033296
1761467160800353800,6.102353759765625,0.4876140055954456,0.27835575360953807,-0.4699123446881771
1761467160810336800,6.112336669921875,0.651010085594654,0.3169014651030302,-0.5242372245937585
1761467160820319700,6.12231982421875,0.6248784499943256,0.26745091323554515,-0.5173106402009725
1761467160830302700,6.132302734375,0.36775311594009397,0.24708295572847128,-0.4840080900579691
1761467160840285000,6.142284912109375,-0.06955927391648292,0.14945143353790044,-0.40611879469156265
1761467160850267600,6.152267578125,-0.1764946310251951,0.12880728943794964,-0.29152736987173555
1761467160860250600,6.162250732421875,-0.10630465798974037,0.08246434819698334,-0.33334289681613444
1761467160870233900,6.17223388671875,-0.07786532996892928,-0.005182371073961258,-0.3793862705886364
1761467160880216800,6.182216796875,0.015199322697520255,-0.08945698356330395,-0.34859482648372647
1761467160890199600,6.192199462890625,0.02370703880190849,-0.2107783011600375,-0.3906003230422735
1761467160900182800,6.202182861328125,-0.03555646654963493,-0.2635819628477096,-0.4158317949324846
1761467160910165800,6.212165771484375,-0.026174305698275564,-0.27512480886429547,-0.3666407707840204
1761467160920148700,6.222148681640625,0.04034253178238868,-0.3683127956494689,-0.3064145578801632
1761467160930131700,6.232131591796875,0.045399230650067325,-0.27549305765479803,-0.35684710652232166
1761467160940114700,6.24211474609375,-0.025703765577077865,-0.2663330151215195,-0.3722650404065847
1761467160950098000,6.252097900390625,-0.1870569415718317,-0.2534051444873214,-0.3767126674652099
1761467160960079600,6.26207958984375,-0.4009299938768148,-0.21459493683874606,-0.40509821947216984
1761467160970062800,6.272062744140625,-0.25924188781678675,-0.2467678984299302,-0.4357043701380491
1761467160980045800,6.2820458984375,-0.2980406972885132,-0.28259587539732456,-0.5497112730681896
1761467160990028500,6.292028564453125,-0.37987493088841434,-0.20486147833168505,-0.5844137531369924
1761467161000011800,6.30201171875,-0.348043622341752,-0.135142045417428,-0.5997966157078742
1761467161009994800,6.311994873046875,-0.4078033867776394,-0.08722878611981869,-0.6058358958721161
1761467161019977700,6.321977783203125,-0.4801169278383255,-0.029902678571641444,-0.5918816047996283
1761467161029960700,6.331960693359375,-0.5262210918873548,-0.021056232032179833,-0.5562111564815044
1761467161039943700,6.341943603515625,-0.5701508345067501,-0.037628888909518717,-0.5049778128504753
1761467161049926700,6.3519267578125,-0.55422378205657,-0.044207682777941223,-0.4593745840609073
1761467161059910000,6.361909912109375,-0.5590899267882108,0.12098083359599113,-0.48630759917199606
1761467161069891600,6.3718916015625,-0.4450456144571304,-0.28290099582374095,-0.3443810081809759
1761467161079874800,6.381874755859375,-0.49902796453535553,-0.18766601338088512,-0.3336977016031742
1761467161089857800,6.39185791015625,-0.4356424108177423,-0.2053890093371272,-0.32475860834419723
1761467161099840800,6.4018408203125,-0.29659166752398014,-0.16036854887157678,-0.35515374660789967
1761467161109823700,6.41182373046875,-0.24448504818975925,-0.044728784042596816,-0.4267798899263143
1761467161119806700,6.421806640625,-0.27953824139237404,0.0351505160972476,-0.5035439806550741
1761467161129790000,6.4317900390625,-0.3880038768082857,0.11183598863184452,-0.5416244127243757
1761467161139772700,6.441772705078125,-0.5008820679694413,0.17100509369820355,-0.5638508575797081
1761467161149755600,6.451755615234375,-0.49920916632115836,0.23397359104752538,-0.5911182192116975
1761467161159739000,6.46173876953125,-0.37192660223245616,0.27146307148635385,-0.655756403338909
1761467161169721600,6.4717216796875,-0.2542512399226427,0.3315548443555832,-0.7069166817337275
1761467161179704600,6.48170458984375,-0.23760347198247908,0.36394232548028227,-0.7765005055695772
1761467161189686800,6.491686767578125,-0.3483358832865953,0.36285131537318227,-0.8413035248696804
1761467161199669800,6.501669677734375,-0.5282435376256704,0.340701150624454,-0.8788339218407869
1761467161209652700,6.51165283203125,-0.7370043614834546,0.26958938656896353,-0.8652332665115594
1761467161219635700,6.5216357421875,-0.8270359300643205,0.18979893375635146,-0.8699503581613302
1761467161229618700,6.53161865234375,-0.7644085012376308,0.10258183807432651,-0.8857757038027048
1761467161239601700,6.5416015625,-0.7493857041507959,0.00873626416325569,-0.8893477170705795
1761467161249584600,6.551584716796875,-0.8777326826006173,-0.038165187743306156,-0.8637976807504892
1761467161259567600,6.561567626953125,-1.086024719902873,0.043836511377990245,-0.8235404891639947
1761467161269550800,6.57155078125,-1.1902005491703749,-0.233541629371047,-0.6376607746779919
1761467161279533600,6.581533447265625,-1.17913145814538,-0.14494506202936172,-0.3344862216323614
1761467161289516800,6.591516845703125,-0.702993370810151,-0.0469295089572668,0.09036883771121501
1761467161299498800,6.601498779296875,-0.06245733295679092,-0.08185381508320569,0.4374304632782936
1761467161309481700,6.611481689453125,-0.016637831068038938,-0.15622721128314732,0.5736480289727449
1761467161319464700,6.621464599609375,-0.4002537020504474,-0.18806524183154105,0.6670978815644979
1761467161329447700,6.63144775390625,-0.6380307770341634,-0.15583324352949857,0.9120838650137185
1761467161339431000,6.641430908203125,-0.6315162805736064,-0.10442220524400472,1.1124679056704043
1761467161349413600,6.65141357421875,-0.4724713815212249,0.0645601504549384,1.0904904671400786
1761467161359396600,6.661396728515625,-0.12418050642013549,0.11375146686434745,0.8792255515068769
1761467161369379800,6.6713798828125,0.057555532389879226,0.10290215606987475,0.5514052175045013
1761467161379362800,6.68136279296875,0.061119946873188016,0.22734335925281046,0.3891156374424696
1761467161389345500,6.691345458984375,0.11854279279410838,0.37232670746594665,0.21116671595573425
1761467161399328800,6.701328857421875,0.22173662528693674,0.5502928723484277,0.024066519764065743
1761467161409311700,6.711311767578125,0.35958033087849617,0.6866469239041209,-0.18928806162476539
1761467161419293700,6.721293701171875,0.47881461306810374,0.8041933991372585,-0.3203507287740707
1761467161429276700,6.731276611328125,0.47017070336341854,0.9531605562895535,-0.35878187397718425
1761467161439259600,6.741259765625,0.4269844725877046,1.1152782869160174,-0.3447060023516416
1761467161449243000,6.751242919921875,0.3966033628493547,1.2047680037051438,-0.21042846480906008
1761467161459225600,6.7612255859375,0.41872284019887446,1.3097723927512763,-0.05031915139555931
1761467161469208800,6.771208740234375,0.5338426728069782,1.2574006927400827,0.04968202253580093
1761467161479191800,6.78119189453125,0.686861151176691,1.1832859474763273,0.14392507133185864
1761467161489174500,6.791174560546875,0.7541811217337846,1.0451809606000781,0.20759879434108733
1761467161499157800,6.80115771484375,0.9057704440832137,0.8625219617262482,0.18531272825300693
1761467161509140700,6.811140625,1.0389940886586904,0.5762371686831116,0.18538988514244556
1761467161519123700,6.821123779296875,1.1547528036922217,0.31547961560636756,0.22358839063346383
1761467161529105700,6.831105712890625,1.1321920123159885,0.06955225965380668,0.28152386225163933
1761467161539088600,6.841088623046875,1.100756425088644,-0.1285179511025548,0.3315916692346334
1761467161549072000,6.85107177734375,1.1015905378252266,-0.2667974177628755,0.41460546800792214
1761467161559054600,6.8610546875,1.15309568413496,-0.4030009549319744,0.40244215200543404
1761467161569037600,6.87103759765625,1.2105237907528876,-0.5821200892418623,0.2733966698974371
1761467161579020800,6.881020751953125,1.1824895364016295,-0.688082801926136,0.22170623014867305
1761467161589003800,6.891003662109375,1.0030682042747736,-0.6877393953159451,0.2672901697158813
1761467161598986800,6.90098681640625,0.808004481858015,-0.6624772360265254,0.3692752109408378
1761467161608969700,6.9109697265625,0.6600608225345611,-0.6102189332619309,0.44967385877966876
1761467161618952700,6.92095263671875,0.59413493668437,-0.5830836735770106,0.5193523751616478
1761467161628936000,6.93093603515625,0.5504501087367535,-0.5718345498099923,0.5414502252012491
1761467161638918700,6.940918701171875,0.5322527732670307,-0.5688765767872334,0.5556295572012663
1761467161648900900,6.95090087890625,0.5001438168227672,-0.5802107484892011,0.5961567979007959
1761467161658883800,6.9608837890625,0.414092842310667,-0.6158899646356701,0.6213134509891272
1761467161668866600,6.970866455078125,0.3086018387913704,-0.6349249199733138,0.6571054798603058
1761467161678849800,6.980849853515625,0.23617431596219537,-0.6474000784039498,0.6806476834893226
1761467161688832800,6.990832763671875,0.20710604238808153,-0.6187807176411152,0.6319523339033126
1761467161698815700,7.000815673828125,0.29285832621455193,-0.5663178322151303,0.5880675994694232
1761467161708798700,7.010798828125,0.4261398384571075,-0.511297078999877,0.5291460394233465
1761467161718781700,7.02078173828125,0.4930465520381927,-0.445421169771254,0.4832002808064222
1761467161728764700,7.0307646484375,0.5072697231799363,-0.4075415209710598,0.4280407036423683
1761467161738748000,7.040747802734375,0.5127700741618871,-0.35472295397520065,0.4313917676359415
1761467161748730600,7.050730712890625,0.5351397268801927,-0.2950003066793084,0.4467623552471399
1761467161758712800,7.060712890625,0.5105208339303732,-0.25773177551478144,0.42389878153204913
1761467161768695800,7.07069580078125,0.4809516250967979,-0.2253114150337875,0.43144554364979265
1761467161778678500,7.080678466796875,0.48348961914181704,-0.17121449866518376,0.34704467443227766
1761467161788661800,7.090661865234375,0.576469516134262,-0.14605433844551444,0.20327976209819315
1761467161798641000,7.100640869140625,0.6726654525637626,-0.12276055661961435,0.07497194661498069
1761467161808624000,7.1106240234375,0.7186562193661927,-0.10757701601311564,-0.0452174443423748
1761467161818606800,7.12060693359375,0.7968588184654712,-0.11116393458917737,-0.23676526759266853
1761467161828589800,7.13058984375,0.8367828325748443,-0.16147621785253286,-0.37643501956760883
1761467161838573000,7.140572998046875,0.7412684486687183,-0.2238885426238179,-0.40194940005242824
1761467161848556000,7.15055615234375,0.5606622906714678,-0.2715202085010707,-0.40037060642838473
1761467161858538800,7.160538818359375,0.4320703975498676,-0.38749841150417924,-0.356641354817152
1761467161868522000,7.17052197265625,0.3860901521414518,-0.4889762338593602,-0.2729080095976591
1761467161878504000,7.18050390625,0.35181671113967894,-0.5884777877055108,-0.19980653302967546
1761467161888487000,7.19048681640625,0.31298224583268164,-0.6816003080390394,-0.1314519587278366
1761467161898470000,7.200469970703125,0.2770417484015226,-0.772016492023319,-0.0771025289028883
1761467161908452900,7.210452880859375,0.20084932008087633,-0.7790563275322318,-0.011925415593385696
1761467161918435800,7.220435791015625,0.11740122154355048,-0.7738732258059084,0.08519055829048157
1761467161928418800,7.230418701171875,0.04873334350883961,-0.6814633837863803,0.19654840801656245
1761467161938402000,7.240402099609375,0.02679448342323303,-0.5763951357237994,0.301498728787899
1761467161948385000,7.250385009765625,-0.00483282698392868,-0.49301557237803934,0.33954233597815037
1761467161958367700,7.26036767578125,-0.029356442865729332,-0.4783240530721843,0.28584640162587166
1761467161968351000,7.27035107421875,-0.08671557590067386,-0.4442880740880966,0.23614567438960074
1761467161978334000,7.280333984375,-0.16041268027424813,-0.4438694102846086,0.1642296082139015
1761467161988316000,7.29031591796875,-0.20951193448603153,-0.41373803752362726,0.06137947459220886
1761467161998299000,7.300298828125,-0.24523908142745493,-0.40648412087261676,-0.03219371211826801
1761467162008281900,7.31028173828125,-0.2396890460848808,-0.387186422945559,-0.057304772499203675
1761467162018265000,7.32026513671875,-0.19948446146845816,-0.3462159685231745,-0.12254267608523368
1761467162028247800,7.330247802734375,-0.20927637216448783,-0.314511793487519,-0.18481588464677332
1761467162038230800,7.340230712890625,-0.2642553320646286,-0.24743439951464533,-0.25390403392016886
1761467162048214000,7.350214111328125,-0.2983820580720901,-0.1926116530895233,-0.30888942356109617
1761467162058197000,7.360197021484375,-0.2826712787210941,-0.17842749878391623,-0.39263621278405186
1761467162068180000,7.370179931640625,-0.2736614583134651,-0.1657883819632232,-0.49556759494841096
1761467162078163000,7.380162841796875,-0.314577990591526,-0.17426307258084414,-0.5806617071270942
1761467162088145000,7.390144775390625,-0.3971487217724323,-0.13609613127186893,-0.6413081912696361
1761467162098128000,7.4001279296875,-0.35147593487799167,-0.1232543314859271,-0.7221013913840055
1761467162108110800,7.41011083984375,-0.3204167797476053,-0.17170841966196893,-0.707178547540307
1761467162118094000,7.420093994140625,-0.1833575025320053,-0.2144682417191565,-0.6469803916871547
1761467162128077000,7.4300771484375,0.006173135676980019,-0.3177192112267017,-0.6056447572141885
1761467162138059800,7.440059814453125,-0.04940846629142761,-0.4005139604218304,-0.5676110868960619
1761467162148043000,7.45004296875,-0.2839841148853302,-0.5169494056731462,-0.5212883116602898
1761467162158026000,7.46002587890625,-0.4963952779442072,-0.6300261881463229,-0.484220856025815
1761467162168009000,7.470009033203125,-0.6218360135585069,-0.7300788000039756,-0.5039128139674663
1761467162177992000,7.479991943359375,-0.6677613139092922,-0.800576085422933,-0.5958621988683939
1761467162187975000,7.489974853515625,-0.6599655454665422,-0.8153672657109796,-0.6607505583643913
1761467162197958000,7.4999580078125,-0.719377519378066,-0.8009284059919416,-0.6794283708274365
1761467162207939800,7.50993994140625,-0.7877882077813148,-0.8043279853023588,-0.5958505084306002
1761467162217922800,7.5199228515625,-0.8228893317788839,-0.7047155184276401,-0.39664311033785343
1761467162227906000,7.529906005859375,-0.7277882048487663,-0.6767346016988158,-0.21116203978061676
1761467162237888800,7.539888671875,-0.6590104366987943,-0.6195828278042376,-0.04554477660059929
1761467162247872000,7.5498720703125,-0.5817050787001848,-0.6495338755622506,0.013798223727941513
1761467162257855000,7.55985498046875,-0.5753349591463804,-0.7917053812250494,-0.0020066636472940444
1761467162267838000,7.569837890625,-0.6422568702965974,-0.8037488702401518,-0.03826689455211162
1761467162277821000,7.579821044921875,-0.5194032285660505,-0.8183426282599567,-0.06866846255660057
1761467162287804000,7.589803955078125,-0.5082470437794924,-0.85653178140074,-0.14219956271350384
1761467162297787000,7.599786865234375,-0.562491259664297,-0.8519597973100841,-0.2855868739068508
1761467162307770000,7.60977001953125,-0.6264502293556928,-0.8393855624191463,-0.40484570601582526
1761467162317751800,7.619751708984375,-0.6985948435902595,-0.7845137161552905,-0.5040022458165884
1761467162327735000,7.629735107421875,-0.7777811930298805,-0.7219355332978069,-0.4974655375242233
1761467162337718000,7.639718017578125,-0.7664116577535868,-0.5857194289080798,-0.3053320233404636
1761467162347700700,7.64970068359375,-0.585900776824355,-0.35319559827744956,-0.014562778359651564
1761467162357684000,7.65968408203125,-0.4472685512036085,-0.16311477883979678,0.18018471771478653
1761467162367667000,7.6696669921875,-0.46139936788678165,-0.15982348220944403,0.22323007871508596
1761467162377650000,7.67964990234375,-0.4971452195286751,-0.2558868783004582,0.29932664544582366
1761467162387633000,7.6896328125,-0.4493289908647537,-0.34864158823490143,0.3839642460286617
1761467162397615900,7.699615966796875,-0.27386370288729667,-0.4620455568358302,0.33247488180994983
1761467162407598800,7.709598876953125,-0.10497194808125496,-0.7378169930405915,0.21932138083875177
1761467162417580800,7.719580810546875,-0.013645078992843626,-0.8870129905126989,0.13289689683914183
1761467162427564000,7.72956396484375,0.11833879465460777,-0.9671391050204634,0.11045184079706669
1761467162437547000,7.739547119140625,0.1570528484523296,-0.941567879781872,0.11730243734419345
1761467162447530000,7.749530029296875,0.0892062236726284,-0.8286652848318219,0.12222060452401637
1761467162457513000,7.759512939453125,0.0013438158243894577,-0.7589823845356702,0.16747253565788267
1761467162467496000,7.769495849609375,-0.007965864312648773,-0.5856916641183197,0.2708662746369839
1761467162477479000,7.77947900390625,0.03991699984669685,-0.4198663111455738,0.3181429895967245
1761467162487462100,7.789462158203125,0.13240356036424636,-0.29399492902904745,0.31400574366152284
1761467162497444900,7.79944482421875,0.23534780201017855,-0.17518457133993506,0.27933775038421155
1761467162507427800,7.809427734375,0.3383861516803503,-0.09459200836420059,0.24280805488824844
1761467162517411000,7.8194111328125,0.34241292297840115,-0.025444676249474284,0.19769991613924504
1761467162527392800,7.829392822265625,0.32185528811812397,0.02279007008746266,0.20743629725575446
1761467162537376000,7.8393759765625,0.3197475021839142,0.04150412290766835,0.2041664818048477
1761467162547359000,7.84935888671875,0.31636662757396694,0.047531566503643985,0.1996703394293785
1761467162557341700,7.859341796875,0.40007776096165176,0.12778174578249454,0.23134733419716358
1761467162567325000,7.869324951171875,0.5297334839224815,0.2164380804874003,0.286834243619442
1761467162577308000,7.879307861328125,0.669995941093564,0.3284698839522898,0.3435147467404604
1761467162587291000,7.889290771484375,0.8638461960673331,0.40262832222729916,0.46066813100278375
1761467162597273900,7.89927392578125,1.0528361515283584,0.4645929032310843,0.5275748445838689
1761467162607256800,7.9092568359375,1.197123041909933,0.47298576078414917,0.46151685678660864
1761467162617240000,7.919239990234375,1.3184008126258848,0.4477564808510244,0.3272317204594612
1761467162627223000,7.92922314453125,1.4077262787640095,0.44050475615710016,0.2681359728902578
1761467162637205000,7.939205078125,1.5053110392034053,0.46139936788678165,0.20971943975687027
1761467162647188000,7.94918798828125,1.485620834827423,0.495627216181159,0.17456337070167063
1761467162657171000,7.9591708984375,1.3237901044487952,0.559014085073024,0.2069470524340868
1761467162667154000,7.96915380859375,1.1859621809482574,0.667901599162817,0.25696342149078844
1761467162677137000,7.979136962890625,1.101541437986493,0.7433733119934797,0.3121598235338926
1761467162687120000,7.989119873046875,0.8939566721707582,0.7818887744791805,0.3846563199460506
1761467162697103000,7.99910302734375,0.6479355004549026,0.8066270560249685,0.46064299656152724
1761467162707085800,8.0090859375,0.44384909814894197,0.7725473840296267,0.5187655151844024
1761467162717068800,8.01906884765625,0.24058570266366003,0.714437140366435,0.5625415285468102
1761467162727052000,8.029052001953126,0.05547989515960216,0.6218278302520514,0.5530407097518444
1761467162737033700,8.03903369140625,-0.0012830255478620527,0.5298603251725434,0.4362169958353042
1761467162747017000,8.049016845703125,0.004819967502355575,0.4825932548239827,0.28822131406366824
1761467162757000000,8.059,0.10948562611341475,0.47496904355585573,0.16943302207589148
1761467162766983000,8.06898291015625,0.2469786185711622,0.42978287113457914,0.05970365033447742
1761467162776966000,8.0789658203125,0.36582886987924573,0.49161067401617764,-0.005850479593873023
1761467162786948900,8.088948974609375,0.46129707655608654,0.4814741876661777,-0.06257949803173542
1761467162796932900,8.098932861328125,0.506239211088419,0.45728111891299483,-0.09844225405156612
1761467162806916000,8.108916015625,0.42228140946328635,0.44238925472944973,-0.19608488215804099
1761467162816898800,8.11889892578125,0.30682489224672316,0.38615854120254517,-0.23536475314497945
1761467162826881800,8.1288818359375,0.19434359144866464,0.35723522905707356,-0.24492343960702417
1761467162836864000,8.138864013671874,0.11267185493409633,0.3157949651658535,-0.24193068753182886
1761467162846846700,8.1488466796875,0.06210661982297897,0.2857657376050949,-0.1966372553437948
1761467162856830000,8.158829833984376,0.06271919876337051,0.2872355178967118,-0.2021492967635393
1761467162866813000,8.16881298828125,0.11934534134864806,0.27761107272207736,-0.1968944449752569
1761467162876796000,8.1787958984375,0.21832535553872584,0.24025837040543555,-0.21621932317018508
1761467162886779000,8.18877880859375,0.33761049113273617,0.1821396511748433,-0.2951069819241762
1761467162896761900,8.198761962890625,0.29114333899021144,0.1404217393860221,-0.2941699933350086
1761467162906744800,8.208744873046875,0.15922434727251528,0.0992535704344511,-0.300334945705533
1761467162916728000,8.21872802734375,0.13159224398136138,0.04048252477496862,-0.36061201201379295
1761467162926710800,8.228710693359375,0.08265957850813865,-0.029898294657468794,-0.41330666036903857
1761467162936694000,8.238694091796875,0.004721767824888229,-0.0030821839243173597,-0.5364437952160835
1761467162946676000,8.248676025390624,-0.031744799306988716,0.022190204498171804,-0.6447019253611564
1761467162956659000,8.258658935546874,-0.056575873702764505,0.014722645096480845,-0.7522346638411284
1761467162966642000,8.268641845703126,-0.023227730852365493,0.0637587709441781,-0.7824877632856369
1761467162976625000,8.278625,0.0815899034500122,0.09053250384032725,-0.7443073779731988
1761467162986608000,8.288608154296876,0.053480830296874046,0.13357757257968186,-0.6903776348650456
1761467162996590800,8.2985908203125,0.0003267477363348007,0.14651099617183208,-0.6249544378399848
1761467163006573800,8.30857373046875,-0.02665244460403919,0.1341577105551958,-0.600073094561696
1761467163016557000,8.31855712890625,-0.1238186873704195,0.11488719289600849,-0.6574117693305015
1761467163026540000,8.3285400390625,-0.24139409643709658,0.09635112699121236,-0.6607686785429716
1761467163036522800,8.338522705078125,-0.25743337709009645,0.07486994754523038,-0.682085022816062
1761467163046505000,8.3485048828125,-0.20575170516967772,0.02119359467625618,-0.7492705533385277
1761467163056488000,8.358488037109375,-0.27865327525138855,0.03690174367874861,-0.8505226041138172
1761467163066471000,8.368470947265624,-0.3536135314285755,0.06459872889965772,-0.8650503111600876
1761467163076454000,8.378453857421874,-0.34311610281169413,0.09285831643939017,-0.8390817571669816
1761467163086436900,8.388436767578124,-0.4271779493331909,0.10041852256059645,-0.815632492518425
1761467163096419800,8.398419921875,-0.5693816036999225,0.1110150276377797,-0.8168523897022009
1761467163106402800,8.40840283203125,-0.6111807640314102,0.07683832500874996,-0.8198404656022786
1761467163116386000,8.418385986328126,-0.6629062750935554,0.06072773268520832,-0.724558721408248
1761467163126369000,8.428369140625,-0.7446434780597686,0.04516337606757879,-0.6325549759715795
1761467163136351700,8.438351806640625,-0.714770902365446,-0.03600041092485189,-0.7107493917644023
1761467163146334000,8.448333984375,-0.5648094734787941,-0.30464696368575095,-0.8522598031699657
1761467163156317000,8.45831689453125,-0.8292810786426067,0.15753274092376232,-1.088427104869485
1761467163166300000,8.4682998046875,-0.16664134553074836,0.5468409783288836,-0.5880336971998215
1761467163176283000,8.478282958984375,0.11500643536150455,0.33181992503255603,-0.5285480735301971
1761467163186265900,8.488265869140625,0.10467150382995605,0.5100625687688589,-0.6601677900403737
1761467163196249000,8.4982490234375,-0.21065409025847912,0.4616638640418648,-0.7821803047716617
1761467163206231800,8.508231689453124,-0.5015992763280869,0.4179521480873227,-0.8256430144011974
1761467163216214800,8.51821484375,-0.7936994776517152,0.3736830905109644,-0.7190525252074003
1761467163226198000,8.528197998046876,-1.0037520948857068,0.35156419768333436,-0.562498858448863
1761467163236181000,8.538180908203126,-0.9852110605448484,0.29184388847500087,-0.3635217619806528
1761467163246163000,8.548162841796875,-0.8094085034370422,0.23767069199979304,-0.0031990883022546767
1761467163256146000,8.55814599609375,-0.5623895528554916,0.2102449249356985,0.4619669386416673
1761467163266129000,8.56812890625,-0.41800738540589805,0.16322160021513699,0.9060480919808149
1761467163276112000,8.57811181640625,-0.4773141453772783,0.06184913793057203,1.1019710615754126
1761467163286094800,8.5880947265625,-0.6822890209555625,-0.027445348547399044,1.156605738082528
1761467163296078000,8.598078125,-0.8072761675834655,-0.06172346572428941,1.1268810464262962
1761467163306061000,8.60806103515625,-0.83789108607769,-0.1093771973028779,0.9816016378760337
1761467163316043800,8.618043701171874,-0.5778191771775484,-0.12244096927642821,0.7464584185272455
1761467163326027000,8.628027099609374,-0.20905893002152443,-0.11394055969566107,0.42461657441258427
1761467163336010000,8.638010009765624,0.12461071453094481,-0.07369622759073972,0.04122399079203606
1761467163345992000,8.647991943359376,0.26695406962931156,-0.043509471380710596,-0.2339513792157173
1761467163355975000,8.657974853515626,0.2493225513488054,0.04177577945590019,-0.3909820158362388
1761467163365958000,8.6679580078125,0.1097673656642437,0.11949001051634549,-0.41654257355034346
1761467163375941000,8.677941162109375,0.07553776380419731,0.2321981058076024,-0.3879635447978973
1761467163385923800,8.687923828125,0.12413082205951213,0.32785131366252895,-0.3022176907122135
1761467163395906800,8.69790673828125,0.1802911006987095,0.43903351456075906,-0.21552608020901678
1761467163405890000,8.70789013671875,0.2866086181700229,0.5209115873023867,-0.1777986993610859
1761467163415872800,8.717872802734375,0.48904023900628085,0.500285855641961,-0.10726853458583355
1761467163425856000,8.72785595703125,0.6165688868105411,0.49711102499812837,-0.038324177697300905
1761467163435839000,8.7378388671875,0.722978758740425,0.45587709733396764,-0.02147942588031292
1761467163445821000,8.747821044921874,0.7631348280400038,0.42357407962232824,0.030631869629025456
1761467163455804000,8.757803955078124,0.7236293316036463,0.3848004045918584,0.12053484339416026
1761467163465787000,8.767786865234376,0.7416647545099257,0.33524200843572616,0.19445698869526384
1761467163475770000,8.77777001953125,0.8158926047593354,0.32610125512480737,0.21861644743978975
1761467163485752800,8.7877529296875,0.8519827397942542,0.27187837428897615,0.1671878734976053
1761467163495735800,8.79773583984375,0.8411392742186784,0.18315818056762218,0.15399813705682755
1761467163505719000,8.807718994140625,0.7791641718208789,0.12198971837759018,0.19013795645236967
1761467163515702000,8.817701904296875,0.7545920406222343,0.005433423225581646,0.22042203555703163
1761467163525684700,8.827684814453125,0.7701631192415952,-0.12689853320717812,0.2720405791133642
1761467163535668000,8.83766796875,0.8759230028301477,-0.2822767264455557,0.3020271365761757
1761467163545650000,8.84764990234375,1.0265817663311958,-0.5103773338064551,0.3154705555170774
1761467163555633000,8.8576328125,1.0472872852295636,-0.7148702710866928,0.3372948493123054
1761467163565615900,8.867615966796874,0.9764110834956169,-0.8916703147992491,0.4212169951021671
1761467163575598800,8.877598876953124,0.9580173486709594,-1.0623667809396982,0.5246551577448845
1761467163585582000,8.88758203125,0.9487263732343911,-1.063704459284246,0.6895780089199542
1761467163595564800,8.897564697265626,0.8725883054494857,-1.0725570433035492,0.8484656715840101
1761467163605548000,8.907548095703126,0.7197177111178636,-1.0546785645246506,0.971601052865386
1761467163615531000,8.917531005859376,0.5244377156019211,-1.0144193271115423,1.0322896225839853
1761467163625514000,8.927513916015625,0.3204775700241327,-0.9386869175180792,1.0751339080542326
1761467163635497000,8.9374970703125,0.21408874088227747,-0.849558727517724,1.0119301406443117
1761467163645479000,8.94747900390625,0.13829261840283869,-0.7832605012238025,0.8922615586906671
1761467163655462100,8.957462158203125,0.12410685666203498,-0.6894403540149331,0.824448251658678
1761467163665444900,8.96744482421875,0.2584410928279161,-0.5780658454149961,0.786687553063035
1761467163675427800,8.977427734375,0.34086861614584923,-0.5545531601414084,0.7347831783026456
1761467163685411000,8.9874111328125,0.3416799325287342,-0.5238450104057788,0.6509107168734073
1761467163695394000,8.99739404296875,0.27457506602704523,-0.5377773819074034,0.524497336834669
1761467163705376800,9.007376708984374,0.21238953574895858,-0.5504132838577032,0.4111526972055435
1761467163715360000,9.017360107421876,0.14359890811741352,-0.5087590849548578,0.37226679397225376
1761467163725343000,9.027343017578126,0.10634849713146687,-0.4323956839814782,0.40468554701805115
1761467163735325000,9.037324951171875,0.49230420923829077,-0.5267857400327921,0.2925800937950611
1761467163745308000,9.047307861328125,0.4835720367282629,-0.48296881013810633,0.15635551383793353
1761467163755291000,9.057290771484375,0.6364788714170455,-0.4174512128278613,0.11107494113147258
1761467163765273900,9.06727392578125,0.7637000607073307,-0.3503089369252324,0.10491641850173472
1761467163775256800,9.0772568359375,0.7780781301498413,-0.31844372610896826,0.11236264285445213
1761467163785239800,9.08723974609375,0.7001023255437612,-0.32571766263470053,0.10238076254427432
1761467163795223000,9.09722314453125,0.5529331577241421,-0.34590734096542,0.06682137338519097
1761467163805205200,9.107205322265624,0.4745347437918186,-0.3505577971197665,-0.0062456163913011545
1761467163815188500,9.1171884765625,0.47294718233942984,-0.317734554926306,-0.06423369497954845
1761467163825171200,9.127171142578124,0.44135260515809055,-0.3416260103844106,-0.0905529621064663
1761467163835153400,9.1371533203125,0.37061201250255105,-0.36349122071191664,-0.10395955616831778
1761467163845136400,9.147136474609376,0.3106967652440071,-0.41361572631821036,-0.13667816894352436
1761467163855119000,9.157119140625,0.3197147689580917,-0.5127976928211748,-0.1394903037548065
1761467163865102300,9.167102294921875,0.34602643730044363,-0.5540713679738343,-0.1035275944918394
1761467163875085300,9.177085205078125,0.33751229145526884,-0.5940433128781616,-0.052936055895686146
1761467163885068500,9.187068603515625,0.2900292402684688,-0.6123151748888194,0.022254501906037328
1761467163895051300,9.19705126953125,0.21242577610611915,-0.5916703001365066,0.09819383224844933
1761467163905034200,9.2070341796875,0.18212649943232534,-0.5636271318264305,0.1610708519220352
1761467163915017500,9.217017578125,0.09407879814505576,-0.5453114306740462,0.1949041479408741
1761467163925000200,9.227000244140624,-0.014105682241916656,-0.5256245872989297,0.2274643552839756
1761467163934982400,9.236982421875,-0.09528525132536887,-0.5321062044031918,0.2614724233478308
1761467163944965400,9.24696533203125,-0.14158172307610511,-0.5163628379568457,0.22783143503069878
1761467163954948000,9.256947998046876,-0.1103121400654316,-0.5374833673968911,0.1394084706902504
1761467163964931300,9.266931396484376,-0.0925654709726572,-0.5588030726708472,0.08745616513490677
1761467163974914300,9.276914306640625,-0.0344815307945013,-0.5489709760949015,0.03974807302057743
1761467163984897300,9.286897216796875,-0.0493523521900177,-0.5602791365727782,-0.028570260924100876
1761467163994880300,9.29688037109375,-0.11440613138079643,-0.5850409451246261,-0.12288579043447971
1761467164004863200,9.30686328125,-0.19893851802349088,-0.5822226728335023,-0.15454232693612574
1761467164014846200,9.31684619140625,-0.23446225134730336,-0.5246173099525272,-0.16704817276597023
1761467164024828200,9.326828125,-0.14358429507017134,-0.5129319867253304,-0.22774434126913545
1761467164034811100,9.33681103515625,-0.07549334014058112,-0.5132983358196914,-0.2959171292632818
1761467164044794400,9.34679443359375,-0.10973054078519344,-0.5171633406847715,-0.31793957597911354
1761467164054777300,9.35677734375,-0.13216273734569547,-0.5373455663613975,-0.3536450956106186
1761467164064760300,9.36676025390625,-0.18182020996212958,-0.5362305908568203,-0.40952188113331794
1761467164074743300,9.376743408203126,-0.1803904694199562,-0.5527379274129868,-0.47269759149253365
1761467164084726300,9.386726318359376,-0.1873474489510059,-0.5636304928272963,-0.4775245732575655
1761467164094709500,9.39670947265625,-0.22209376816153525,-0.5572253019601107,-0.47818683655858035
1761467164104692200,9.406692138671875,-0.2134247240155935,-0.5551278912894427,-0.4910866501420736
1761467164114674400,9.41667431640625,-0.1649228511750698,-0.5512522188998759,-0.5468342563271522
1761467164124657400,9.426657470703125,-0.14812836824059486,-0.5803730994440615,-0.6179986273527145
1761467164134640000,9.43664013671875,-0.22109540477395057,-0.640952217438817,-0.6239063900917768
1761467164144623400,9.446623291015625,-0.2653390356481075,-0.6685032183177769,-0.6208657072216271
1761467164154606300,9.4566064453125,-0.2627285608887672,-0.7252940499454736,-0.6030564942866563
1761467164164589300,9.46658935546875,-0.18465923278033733,-0.7636810637459158,-0.5442500850528478
1761467164174572300,9.476572265625,-0.16421148803532123,-0.7344425481714307,-0.42051790692210195
1761467164184555300,9.48655517578125,-0.24862521673440932,-0.7224694940440356,-0.29858079551458355
1761467164194538200,9.496538330078126,-0.34175241324305533,-0.7017211589172482,-0.194773799559474
1761467164204521500,9.506521484375,-0.49716333970725535,-0.6935654711209237,-0.05953998420536518
1761467164214503200,9.516503173828125,-0.7281231358915567,-0.6396488797552883,0.007494739669561386
1761467164224486400,9.526486328125,-0.7446680279791354,-0.6074019761450589,-0.054956748068332666
1761467164234469400,9.536469482421875,-0.6614496465444565,-0.5516055623821914,-0.11285539480745792
1761467164244452400,9.546452392578125,-0.6297036781936883,-0.5179590211071073,-0.18172902454733847
1761467164254435300,9.556435302734375,-0.7163333293765783,-0.47256928893774747,-0.19124211830198765
1761467164264418300,9.566418212890625,-0.7455389655947685,-0.3053878451809287,-0.031007132682204244
1761467164274401300,9.5764013671875,-0.5987737024009228,-0.14409107554852962,0.1995084268659353
1761467164284384300,9.58638427734375,-0.366579980507493,0.04111249324157834,0.47640112218558783
1761467164294367200,9.5963671875,-0.2395546060502529,0.2590999951280653,0.6306734000086784
1761467164304349200,9.60634912109375,-0.021707389417290685,0.2897460394129157,0.5964145720541477
1761467164314332200,9.616332275390626,-0.010685060143470763,0.26334260113388297,0.4720353281915188
1761467164324315400,9.6263154296875,-0.1493903510004282,0.3844583131559193,0.5414847119927406
1761467164334298400,9.63629833984375,-0.10762626198232174,0.26066709831431506,0.5916752685725689
1761467164344281000,9.646281005859375,-0.06958382383584975,0.1538600437603891,0.5816816978245973
1761467164354264300,9.656264404296875,-0.16233867990076542,-0.04690598195120692,0.6546826366275549
1761467164364247300,9.666247314453125,-0.3277332402408123,-0.21850407310649753,0.704595545309782
1761467164374230300,9.676230224609375,-0.3711012573242187,-0.4404366593569517,0.5812246017068624
1761467164384213200,9.686213134765625,-0.13235738313496112,-0.6704419312953949,0.402460856705904
1761467164394195200,9.6961953125,0.21186697317957878,-0.7996504950106144,0.3112204968571663
