time,seconds_elapsed,z,y,x
1761467165412125200,0.115125244140625,0.12028525254726409,0.5886380928337573,-0.5512392132878303
1761467165422108200,0.125108154296875,0.06366027900576592,0.6732771547213197,-0.4996534029573202
1761467165432091100,0.135091064453125,0.16309914287924765,0.7616118562564254,-0.38665480028688903
1761467165442073000,0.145072998046875,0.42808571182787414,0.8249491869181395,-0.26732874816060065
1761467165452056000,0.15505615234375,0.6643798547774553,0.8522063194170594,-0.15548340717852116
1761467165462039300,0.165039306640625,0.802683579096198,0.8587497497111558,-0.007975216662883759
1761467165472022300,0.175022216796875,0.8303367251753807,0.821380388520658,0.18739888687729833
1761467165482005000,0.1850048828125,0.8126654594063758,0.7458122295781969,0.386339742988348
1761467165491988200,0.19498828125,0.8794371484309434,0.6454658954709768,0.5684487067639827
1761467165501971200,0.20497119140625,1.0225316141575573,0.49332887611091136,0.7089099013775587
1761467165511954400,0.214954345703125,1.2146294725060462,0.393766093596816,0.7398878079652785
1761467165521937200,0.224937255859375,1.4464099374234676,0.23367285453528164,0.6463660591810941
1761467165531919400,0.23491943359375,1.6217735185921192,0.06521306140571832,0.5170376684784889
1761467165541902300,0.24490234375,1.6775497663497925,-0.10979659175872802,0.41793490469157696
1761467165551885000,0.254885009765625,1.6832821725219487,-0.3098281657159328,0.3478063064545393
1761467165561868300,0.264868408203125,1.60129420966506,-0.5095478972449898,0.30234920813739297
1761467165571851300,0.274851318359375,1.4416115972310304,-0.7179816811054944,0.316437354722619
1761467165581834200,0.284834228515625,1.3035101174861192,-0.8937281241118907,0.3376438088804483
1761467165591817200,0.294817138671875,1.1955161912351846,-1.0201184155359864,0.44488194832801814
1761467165601800200,0.30480029296875,1.082856026738882,-1.0419064689740538,0.5353378798007965
1761467165611782400,0.314782470703125,0.9420739296078682,-1.0456485781118272,0.5997358254313468
1761467165621765000,0.32476513671875,0.7670581389635801,-1.0105737575992941,0.6686743371009827
1761467165631748000,0.334748046875,0.5637713626027107,-0.979616601538658,0.7698328643739223
1761467165641731300,0.3447314453125,0.38388007487654685,-0.8927189470693468,0.8198924880504608
1761467165651714300,0.35471435546875,0.2464689154833555,-0.7784729746863246,0.8323270222097635
1761467165661697000,0.364697021484375,0.11699731691777705,-0.7040390804708003,0.8923936606377363
1761467165671680300,0.37468017578125,0.01854629503786564,-0.634305326770246,0.9340455214530229
1761467165681663200,0.384663330078125,-0.015075988578796386,-0.647002311258018,0.9580711246848106
1761467165691645200,0.394645263671875,-0.021674071669578552,-0.6113771633863448,0.8994967706412076
1761467165701628200,0.404628173828125,0.047070963254570955,-0.617003771096468,0.6851479175180196
1761467165711611400,0.414611328125,0.1561567763954401,-0.6089324005827307,0.5234229856014252
1761467165721594000,0.424593994140625,0.31316987735927104,-0.5285518729224801,0.4759855271220207
1761467165731577000,0.4345771484375,0.3973293390363455,-0.4742100418820977,0.42963235674798483
1761467165741560300,0.444560302734375,0.6138812551617622,-0.42244054554775357,0.314275792774558
1761467165751543300,0.454543212890625,0.855196441143751,-0.4084935609988868,0.1821206542134285
1761467165761526000,0.464526123046875,0.9094938485205173,-0.34160379855260253,0.07600012061893939
1761467165771509200,0.47450927734375,0.8461451196819544,-0.28035934851691124,0.04225567192733288
1761467165781491200,0.4844912109375,0.8056792537808418,-0.2491502635218203,-0.016896774265170098
1761467165791474200,0.49447412109375,0.822325852677226,-0.2739391062110662,-0.11366963379979132
1761467165801457200,0.50445703125,0.7921148388087749,-0.29523353091329335,-0.19237784433364866
1761467165811440000,0.514440185546875,0.6949708078742027,-0.3037858168117702,-0.2700719093888998
1761467165821423400,0.52442333984375,0.5600941353946924,-0.31995880684703587,-0.36148411867320535
1761467165831406000,0.534406005859375,0.47942543844282626,-0.37100890286564825,-0.4354740685135126
1761467165841389000,0.54438916015625,0.43959319427013394,-0.43204979315325615,-0.47588732744455337
1761467165851372300,0.554372314453125,0.4212707711160183,-0.4928336399398744,-0.4107002772629261
1761467165861354200,0.564354248046875,0.343953722679615,-0.5519321639880538,-0.27016952454447746
1761467165871337200,0.574337158203125,0.16666647997200487,-0.6138818396836518,-0.17662381036281585
1761467165881320200,0.5843203125,0.0596218172699213,-0.6400026616290211,-0.06278758782446384
1761467165891303400,0.594303466796875,-0.08375380348563194,-0.8112493089981376,0.13594284040629864
1761467165901286100,0.6042861328125,-0.15354045641720293,-0.6712040017090738,0.2425432664722204
1761467165911269000,0.61426904296875,-0.11528875943422316,-0.6703741267561912,0.2827618796139955
1761467165921252400,0.62425244140625,-0.1663911701619625,-0.6205291687436402,0.23167875810861585
1761467165931235300,0.6342353515625,-0.25775077247619627,-0.6086062373682857,0.16970073310136793
1761467165941217300,0.64421728515625,-0.4044914857506752,-0.578823093523085,0.06335282049179077
1761467165951200300,0.6542001953125,-0.5061638077646493,-0.5697641732767224,-0.03385667689442634
1761467165961183200,0.664183349609375,-0.554546438139677,-0.5791681075684726,-0.10027882182896136
1761467165971166200,0.674166259765625,-0.5520739105463027,-0.6002130875542759,-0.1856055737197399
1761467165981149200,0.684149169921875,-0.5167401468366384,-0.6189794550836086,-0.26664018137454987
1761467165991132200,0.694132080078125,-0.47637189609110353,-0.6141502813614904,-0.3516922079771757
1761467166001115400,0.704115478515625,-0.4183937543749809,-0.5813089189894497,-0.4469762902587652
1761467166011098000,0.71409814453125,-0.4084071978896856,-0.523676960362494,-0.5307020366936922
1761467166021080300,0.724080322265625,-0.41100539768934247,-0.4277135175146162,-0.5943821894437075
1761467166031063300,0.734063232421875,-0.44222821894884107,-0.3584185936227441,-0.6871803001284599
1761467166041046000,0.7440458984375,-0.5186439346313476,-0.29944544951990243,-0.7752882071703672
1761467166051029200,0.754029296875,-0.5699293007105588,-0.255429343791306,-0.8340595450907945
1761467166061012200,0.76401220703125,-0.5148790291398764,-0.20603300632908939,-0.8334136484026908
1761467166070995500,0.773995361328125,-0.5541483787328004,-0.2535289169974625,-0.7986416102290153
1761467166080978200,0.783978271484375,-0.49522740320861336,-0.2689909822843969,-0.7726070052623748
1761467166090961200,0.793961181640625,-0.459179353749752,-0.4221177433341741,-0.7415180395156145
1761467166100943400,0.803943359375,-0.3859101193994283,-0.4942243636459112,-0.6391466293215752
1761467166110926000,0.813926025390625,-0.3052852615892887,-0.6010550913363695,-0.5175561393946408
1761467166120909300,0.823909423828125,-0.2859305727779865,-0.6769809776753187,-0.4061678945302963
1761467166130892300,0.833892333984375,-0.3384644776135683,-0.7618957877643406,-0.29554303525388237
1761467166140875000,0.843875,-0.41713995492160316,-0.8311781444355845,-0.21177111158967016
1761467166150858200,0.853858154296875,-0.4489204100638628,-0.872688550953567,-0.12212532745599745
1761467166160841200,0.86384130859375,-0.4549135129988193,-0.8930636688537895,-0.05973462999463081
1761467166170824200,0.87382421875,-0.48883302599638695,-0.9265307619087397,-0.0392132354915142
1761467166180806100,0.88380615234375,-0.49490065547227857,-0.9219923878267406,-0.04841770168840885
1761467166190789000,0.8937890625,-0.5365931405588984,-0.9051654639273882,-0.005352466943860054
1761467166200772400,0.9037724609375,-0.5831251746311783,-0.8591701670803129,0.06661445263624191
1761467166210755000,0.913755126953125,-0.6810249923691153,-0.7597229737699032,0.09996259548664092
1761467166220738000,0.923738037109375,-0.7902078361436724,-0.6909893370226026,0.12112345693707466
1761467166230721300,0.93372119140625,-0.6722530723705887,-0.5394619739934802,0.22535656934976575
1761467166240704300,0.943704345703125,-0.4014356053113937,-0.3010591683268547,0.47024493764340874
1761467166250687200,0.953687255859375,-0.06965045933127403,-0.05651932120993733,0.7563888609111309
1761467166260669200,0.963669189453125,-0.011739537632465363,0.1165399285390973,0.9154857824116944
1761467166270652400,0.97365234375,-0.08612228618264198,0.20496318514049053,0.9718173259645699
1761467166280635100,0.98363525390625,-0.06059037004113197,0.25896102504879237,1.012888756543398
1761467166290618000,0.9936181640625,0.011774316684901713,0.3085870796136558,0.9695926356524228
1761467166300601300,1.003601318359375,0.16325257987529038,0.2076471635274589,0.917028920200467
1761467166310584300,1.013584228515625,0.17492402070760726,0.09714958389252423,0.8642956934005022
1761467166320567000,1.023567138671875,0.03662438804209232,-0.03289133899360895,0.8114911549299955
1761467166330550300,1.03355029296875,-0.05406476766467094,-0.039704526139795776,0.7747212209373712
1761467166340532200,1.0435322265625,-0.057471653498709196,-0.056509384337812656,0.6419815604865551
1761467166350515200,1.05351513671875,-0.04868658175766468,-0.08935323092788457,0.41898821313679213
1761467166360498200,1.063498291015625,-0.02656798119097948,-0.0859064514748752,0.26333587913215156
1761467166370481200,1.073481201171875,0.12020721887499093,-0.05054039293080568,0.24642507634162902
1761467166380464400,1.08346435546875,0.3413499699220061,-0.05050049931183457,0.2595534379839897
1761467166390447000,1.093447021484375,0.5243608509734272,-0.10692118245288729,0.22804420099854467
1761467166400430000,1.10343017578125,0.6502440696582198,-0.15845906198844312,0.17884908519685266
1761467166410413300,1.113413330078125,0.8142886766940355,-0.21059300772100686,0.130104635772109
1761467166420395000,1.12339501953125,0.9634276832818984,-0.20995631725266575,0.07015840885341167
1761467166430378200,1.133378173828125,1.151482988241315,-0.1464592659845948,-0.029139000722765922
1761467166440361200,1.143361328125,1.4095815512418746,-0.04110314089134335,-0.14286942479908465
1761467166450344400,1.153344482421875,1.6123878506094216,0.051194034533947705,-0.23230770366191864
1761467166460327200,1.1633271484375,1.7144529713332652,0.19653920179679987,-0.26404373514056206
1761467166470310100,1.17331005859375,1.6993869196265934,0.3582270165733993,-0.2184580420076847
1761467166480293400,1.18329345703125,1.6240964085817335,0.4769751226812601,-0.12668927437067032
1761467166490275000,1.193275146484375,1.458964298570156,0.6097744043648242,0.02162789444029331
1761467166500258300,1.20325830078125,1.3189724750339984,0.7289164782263338,0.17488135060966015
1761467166510241300,1.2132412109375,1.203601882535219,0.8468111823752522,0.2951274401903152
1761467166520224000,1.22322412109375,1.0676795003950594,0.9649180679701268,0.4017512471318245
1761467166530207200,1.233207275390625,0.8997428543567657,1.0774040449433029,0.4780331073015928
1761467166540190200,1.243190185546875,0.7370359256654977,1.1278023990549146,0.4514543124556541
1761467166550173200,1.253173095703125,0.6037631812512875,1.1420419368095696,0.4394248519659042
1761467166560156200,1.26315625,0.48163902283906934,1.1329815552584825,0.4312035515874624
1761467166570138000,1.27313818359375,0.376410469648242,1.0520450011506677,0.46059389672279355
1761467166580121300,1.283121337890625,0.28367198019623757,0.9460952940784394,0.5382850391685963
1761467166590104000,1.29310400390625,0.2243313179552555,0.7847163991205394,0.5704483561486006
1761467166600087000,1.303087158203125,0.2850193031519651,0.6391371308408678,0.5468623133778572
1761467166610070300,1.3130703125,0.4510077377319336,0.5350302751563489,0.37903263484537597
1761467166620053200,1.32305322265625,0.5793944636702537,0.45174160496443505,0.19719488922655581
1761467166630036200,1.3330361328125,0.6047948623865842,0.47638709366023535,0.08435060033500194
1761467166640019200,1.343019287109375,0.5488660544157028,0.4989155902020633,0.014577391406893729
1761467166650001400,1.35300146484375,0.4646440488964319,0.5393829174079,-0.054207975527644156
1761467166659984100,1.362984130859375,0.40851124278604983,0.5797483916744589,-0.08464286127984523
1761467166669967000,1.372967041015625,0.4523047918051481,0.6379254169635474,-0.07139701073765754
1761467166679950300,1.382950439453125,0.5542851568549871,0.6889199834026396,-0.12072189039885997
1761467166689933300,1.392933349609375,0.6003478198498488,0.7176426584094763,-0.18989479534626005
1761467166699916000,1.402916015625,0.5433931759625673,0.7304771516717969,-0.24717794053554534
1761467166709899300,1.412899169921875,0.43443420407176014,0.7230617608487606,-0.3414426166415214
1761467166719882200,1.42288232421875,0.38436405900120735,0.6613356647759676,-0.41820787641406054
1761467166729864200,1.4328642578125,0.3875672389566898,0.5897869706079364,-0.4430179080218076
1761467166739847200,1.44284716796875,0.38670740725696084,0.4944137487381696,-0.5109551336944103
1761467166749830100,1.452830078125,0.3870306478619575,0.36145533097013827,-0.6523346121966839
1761467166759813400,1.4628134765625,0.36276948230862616,0.26699133289977905,-0.750267747682333
1761467166769796000,1.472796142578125,0.2961901009857654,0.20452742407172916,-0.7506102775096893
1761467166779779000,1.482779052734375,0.20643968743383884,0.15017799424678085,-0.7059107195615768
1761467166789762300,1.49276220703125,0.1386363172739744,0.14804142060950398,-0.691262601006031
1761467166799745300,1.502745361328125,0.11914718842804431,0.19968816734701395,-0.67015259296
1761467166809727200,1.512727294921875,0.009447042781114579,0.25576865874826904,-0.6363800872176886
1761467166819710200,1.522710205078125,-0.13613047193288802,0.3366471990585327,-0.618089228245616
1761467166829693400,1.532693359375,-0.295894332909584,0.4413476367220282,-0.6160591837227344
1761467166839676200,1.54267626953125,-0.3793307410091161,0.4816571430176496,-0.6216805307358503
1761467166849659100,1.5526591796875,-0.3704232119321823,0.5053621359929442,-0.5261082791626454
1761467166859642400,1.562642333984375,-0.3595166179925203,0.5633016992643475,-0.5089718509227037
1761467166869625300,1.572625244140625,-0.373359265384078,0.5172960271537304,-0.5622779091745614
1761467166879607300,1.582607177734375,-0.3853858032643795,0.48406946485638613,-0.5768640684098005
1761467166889590300,1.59259033203125,-0.45551673958897587,0.44831250729858874,-0.5333902528643608
1761467166899573200,1.6025732421875,-0.5143149655163288,0.4072638730734586,-0.4890776484072208
1761467166909556200,1.61255615234375,-0.5432020373046398,0.29293489858210087,-0.48506315206885336
1761467166919539200,1.622539306640625,-0.5250783515930175,0.23087124111801385,-0.48867549734711646
1761467166929522200,1.632522216796875,-0.42735681303143497,0.18431465712636708,-0.5235334602385759
1761467166939505200,1.642505126953125,-0.2989186491668224,0.18734423408061265,-0.6072708971112967
1761467166949488000,1.652488037109375,-0.2086199540823698,0.21747867558151482,-0.7135258707404136
1761467166959470300,1.66247021484375,-0.12786416336894035,0.3220531487777829,-0.8231254786223172
1761467166969453000,1.672453125,-0.10280746352374553,0.4986982941895723,-0.9240461054861545
1761467166979436000,1.68243603515625,-0.08633212954103946,0.6599366116330028,-0.9400438850849866
1761467166989419300,1.692419189453125,-0.06090659638345241,0.8524763685300946,-0.8760019132852553
1761467166999402200,1.70240234375,-0.11268529893755912,1.0332201814323663,-0.8359861292392015
1761467167009385200,1.71238525390625,-0.23540099350214003,1.1473653237894177,-0.8242495142161845
1761467167019368200,1.7223681640625,-0.41343934683799743,1.186402910453081,-0.822667213460803
1761467167029351200,1.73235107421875,-0.6388157899320125,1.1897235793083905,-0.784320823931694
1761467167039333000,1.7423330078125,-0.8704214828044176,1.1166828930169344,-0.765558840316534
1761467167049316000,1.752316162109375,-1.163733982527256,1.0368161600977182,-0.7606909420192242
1761467167059299300,1.76229931640625,-1.3975970989376305,0.9690582365147768,-0.726734896403551
1761467167069282300,1.7722822265625,-1.5751801097214222,0.9212230108894407,-0.5872691425681114
1761467167079265000,1.78226513671875,-1.3668091619640588,0.9443285766668618,-0.3246405349224806
1761467167089248300,1.792248291015625,-0.576311110702157,0.8661046425186097,0.1401619194060564
1761467167099231200,1.802231201171875,0.16398235545456408,0.7977737413533031,0.6935393137663602
1761467167109213200,1.812213134765625,0.07753858223259448,0.6220518482662737,1.0181845248639583
1761467167119196200,1.822196044921875,-0.3449684526801109,0.420197004404664,1.3218839785665273
1761467167129179100,1.83217919921875,-0.4420364957690239,0.2982273059017956,1.638859093427658
1761467167139162400,1.842162353515625,-0.09807809691429138,0.19204247489944098,1.8148264857083558
1761467167149145000,1.85214501953125,0.29772213285863397,0.011358283229917287,1.7674574162900447
1761467167159128000,1.862128173828125,0.4777122047841549,-0.06788154996261,1.5018746350139378
1761467167169111300,1.872111328125,0.5600543879061937,-0.14785349682196974,1.1200117451786995
1761467167179094300,1.88209423828125,0.6022334874659776,-0.10803060499951243,0.7874649671763181
1761467167189076200,1.892076171875,0.6789514009654521,-0.0021615619480609893,0.5315034162044525
1761467167199059200,1.90205908203125,0.7912538380652666,0.13521701034978031,0.2767471493691206
1761467167209042400,1.91204248046875,0.918024945500493,0.3096560240194201,0.005271802923083305
1761467167219025200,1.922025146484375,1.058849712729454,0.3886575184114277,-0.16279051532149313
1761467167229008100,1.932008056640625,1.1773895829141139,0.5080655497327446,-0.2100923647224903
1761467167238991400,1.941991455078125,1.3056956448316572,0.5939860297329723,-0.1968728176653385
1761467167248974300,1.951974365234375,1.4089566973417997,0.5767627999924123,-0.05469722034931183
1761467167258957000,1.96195703125,1.451176128911972,0.5160099328659474,0.12993395538032054
1761467167268939300,1.971939208984375,1.474796658474207,0.3505525364227593,0.315723068973422
1761467167278922200,1.981922119140625,1.477707577484846,0.12835925340950488,0.5192945074945688
1761467167288905200,1.9919052734375,1.454258897358179,-0.08813990961536765,0.7177011105984449
1761467167298888200,2.00188818359375,1.4514824183821677,-0.28672479189559813,0.8406827626228333
1761467167308871200,2.01187109375,1.4643003989011047,-0.4698889638125896,0.8895376866847277
1761467167318854400,2.0218544921875,1.427511175686121,-0.5928614096172153,0.8952385286748409
1761467167328837000,2.031837158203125,1.3971686443924902,-0.6576802110083401,0.8694891703903674
1761467167338819300,2.0418193359375,1.3455530234456061,-0.6926015945248305,0.8416133214712143
1761467167348802300,2.05180224609375,1.3020926519036293,-0.7518091319054365,0.8324252218872308
1761467167358785300,2.061785400390625,1.2629378686010837,-0.7185419453367591,0.7701917608141898
1761467167368768300,2.071768310546875,1.2044079382210968,-0.707181324019283,0.764863259267807
1761467167378751200,2.081751220703125,1.1490987234532832,-0.6561021480366587,0.7714256865233182
1761467167388734200,2.091734130859375,1.0121282935649156,-0.5892113626770675,0.8064841404229403
1761467167398717200,2.10171728515625,0.9259452171057462,-0.5056793852485716,0.863960177835822
1761467167408700200,2.1117001953125,0.894988353306055,-0.3843577753908932,0.8299544478595257
1761467167418682000,2.12168212890625,0.8953869972348213,-0.3661920041032135,0.8153162661761045
1761467167428665000,2.1316650390625,0.8227560607880353,-0.23365590340048073,0.8103723800331354
1761467167438648300,2.1416484375,0.7897761667281389,-0.08992372429221868,0.8147229764580726
1761467167448631300,2.15163134765625,0.8406056057333946,-0.018258125746250152,0.7378618550956249
1761467167458614000,2.161614013671875,0.9262766410171985,0.03674363050758839,0.621231617924571
1761467167468597200,2.17159716796875,0.9520511337429285,0.0730291419841349,0.5038566998660564
1761467167478580200,2.181580322265625,0.9462719658195972,-0.0010778583645820617,0.387650825586915
1761467167488562200,2.191562255859375,0.96803137768507,-0.16032047194615007,0.3111977005034685
1761467167498545200,2.201545166015625,0.9706716630607842,-0.2782014398306608,0.29202538252174853
1761467167508528000,2.211528076171875,1.0040636450529097,-0.42477439532279965,0.27754093009531494
1761467167518511400,2.221511474609375,1.0390279909282922,-0.5674731397300958,0.23624855024218558
1761467167528494000,2.231494140625,1.0651952823638915,-0.6895404533885419,0.19514087930619717
1761467167538477000,2.24147705078125,1.0455027399003505,-0.7475181567132473,0.1507061097741127
1761467167548460300,2.251460205078125,0.9418313530236482,-0.7781136398546398,0.14300561839938164
1761467167558443300,2.261443359375,0.9178770614624023,-0.7541855056479573,0.1421352653056383
1761467167568425200,2.27142529296875,0.8695230726599693,-0.7064207149103283,0.25701135228574273
1761467167578408200,2.281408203125,0.8198837202221154,-0.6215957750618457,0.3994505689740181
1761467167588391400,2.291391357421875,0.7447557062625885,-0.565817627608031,0.48938510692119597
1761467167598374100,2.3013740234375,0.6814309428215026,-0.49674087651148435,0.5636527046591043
1761467167608357000,2.311357177734375,0.6143371822357178,-0.37689942220896483,0.6129197166532278
1761467167618340400,2.32134033203125,0.6196843884825706,-0.2859609679162502,0.5824573583722115
1761467167628323300,2.3313232421875,0.6367004052132368,-0.21853227628767488,0.49080491059124465
1761467167638306000,2.34130615234375,0.6452431926310062,-0.1808684621952474,0.3979588691115379
1761467167648288300,2.351288330078125,0.624256518703699,-0.14534005269631742,0.29903496902287
1761467167658271200,2.361271240234375,0.5844488244503736,-0.0847891378827393,0.21329262206852434
1761467167668254200,2.371254150390625,0.508764345651865,-0.06242226164340973,0.20693010129928588
1761467167678237200,2.3812373046875,0.3599608546286821,-0.012335603829473256,0.24732640909552572
1761467167688220200,2.39122021484375,0.2494932317405939,0.012338964830338955,0.23347324030995367
1761467167698203400,2.401203369140625,0.20461831722557544,0.06310775968953966,0.21227496945858002
1761467167708186000,2.41118603515625,0.18832243146300315,0.08816314436048268,0.21965923449099062
1761467167718168300,2.421168212890625,0.19936288091540336,0.10236717241033912,0.2116734964340925
1761467167728151300,2.4311513671875,0.19210019643604753,0.09707359604686498,0.20819500666856763
1761467167738134300,2.44113427734375,0.11132862363159655,0.07461553439274429,0.2051595844954252
1761467167748117200,2.4511171875,0.027819150295853613,0.044046939258277414,0.21338497652709482
1761467167758100200,2.461100341796875,0.05968903728723526,0.03341609352007508,0.21537059738636016
1761467167768083200,2.471083251953125,0.14866963551044463,0.035421880384534594,0.1890092446833849
1761467167778066200,2.481066162109375,0.17842413778305052,0.018665829764306544,0.16999065595865248
1761467167788048400,2.49104833984375,0.17921090424656866,0.008799392527341842,0.11099778424203395
1761467167798031400,2.50103125,0.1713181051701307,-0.0035325580403208733,0.010336100575327873
1761467167808014000,2.51101416015625,0.1728659191340208,-0.0335904271736741,-0.0623971272021532
1761467167817997000,2.5209970703125,0.21143267341554164,-0.0784453218139708,-0.09650047233402728
1761467167827980000,2.53097998046875,0.2019827080249786,-0.13452347512766719,-0.10282967535555362
1761467167837963000,2.540962890625,0.16414894419312476,-0.1842696489408612,-0.1242757834881544
1761467167847946200,2.5509462890625,0.15748714821636675,-0.2418275194182992,-0.16283026280999183
1761467167857929000,2.560928955078125,0.1471241596341133,-0.25221958796456456,-0.15223580355942248
1761467167867911200,2.5709111328125,0.18324995050430296,-0.2208465445794165,-0.11912673016190528
1761467167877894100,2.58089404296875,0.23734628235101699,-0.18014321666061878,-0.11146131010055542
1761467167887876900,2.590876953125,0.2254068382322788,-0.14731588281393052,-0.1106388878017664
1761467167897860000,2.600860107421875,0.24474983660578725,-0.1503079042367637,-0.1442798761188984
1761467167907843000,2.610843017578125,0.2628723532736301,-0.20172420321926474,-0.23058920930624008
1761467167917826000,2.620825927734375,0.2418897709995508,-0.2530693366616964,-0.27870646674335003
1761467167927809000,2.63080908203125,0.24656302350759504,-0.26988120912238955,-0.2858352957099676
1761467167937791200,2.640791259765625,0.22642799797356128,-0.2315649224705994,-0.27627660924792286
1761467167947774200,2.650774169921875,0.0935930604547262,-0.20634134162589907,-0.20452070206999778
1761467167957757000,2.6607568359375,-0.04884323362410068,-0.180394561073184,-0.15618483344614506
1761467167967740200,2.670740234375,-0.15089198773503304,-0.20572101777046917,-0.13649346002638338
1761467167977723100,2.68072314453125,-0.12467618098258972,-0.16186010260358452,-0.14060849412977694
1761467167987706000,2.6907060546875,-0.07239069795012473,-0.19098405188769102,-0.19005670790970325
1761467167997689000,2.700689208984375,-0.06108253747224807,-0.2287444582223892,-0.2385749473631382
1761467168007672000,2.710672119140625,-0.058714054775238035,-0.20732479970529674,-0.27530221125781534
1761467168017654300,2.720654296875,-0.12918109118640422,-0.18117679749205706,-0.33122400496602056
1761467168027637000,2.730636962890625,-0.24126842423081396,-0.12491525043547153,-0.3896282631397247
1761467168037620000,2.740619873046875,-0.40804362527430055,-0.05547755707204342,-0.42838790964484214
1761467168047603200,2.750603271484375,-0.5249596936494112,0.00645560588017106,-0.4399000682622194
1761467168057586200,2.760586181640625,-0.5164315192788839,0.07102335511967539,-0.4498118059456348
1761467168067569000,2.77056884765625,-0.44431320852935313,0.11720029214397072,-0.5104705650478601
1761467168077552000,2.78055224609375,-0.4038549414128065,0.15315350292623042,-0.539051931887865
1761467168087534000,2.7905341796875,-0.4248071285486221,0.20737916024103759,-0.5444207654446364
1761467168097517000,2.80051708984375,-0.46352585852146144,0.22991204069703816,-0.5498024584829807
1761467168107500000,2.8105,-0.46950844006240366,0.2024652308449149,-0.5553600926101208
1761467168117483300,2.820483154296875,-0.44825522415339947,0.19055004438459872,-0.5398889672338962
1761467168127466200,2.83046630859375,-0.42616906455159187,0.18715163411796093,-0.5813976201862097
1761467168137449000,2.840448974609375,-0.35981413963437076,0.1623857339128852,-0.6410486635506153
1761467168147432200,2.85043212890625,-0.21094518215954303,0.14277707034051418,-0.7131734040409327
1761467168157414100,2.8604140625,-0.03508417286276817,0.1254316755250096,-0.8024369108587502
1761467168167397000,2.870397216796875,-0.025806056907773017,0.09049816317930817,-0.8395505437225103
1761467168177380000,2.880380126953125,-0.06353285323381423,0.06467500900626182,-0.8219576038867235
1761467168187363000,2.890363037109375,-0.11638882963061332,0.02978182867094874,-0.7646732896536588
1761467168197346000,2.900345947265625,-0.23954583822190761,0.006368950510025024,-0.7028355498999357
1761467168207329000,2.9103291015625,-0.3530851236402988,-0.018237813610583544,-0.5891916350632905
1761467168217312000,2.92031201171875,-0.37836218823790546,-0.028913959795236584,-0.4950251586347818
1761467168227295200,2.930295166015625,-0.43794075088798995,-0.03503755724206566,-0.4331453333050012
1761467168237277000,2.94027685546875,-0.5205290177255869,-0.06752893713265656,-0.4071037140756845
1761467168247260200,2.95026025390625,-0.5158136796414852,-0.09374825101643801,-0.413387908911705
1761467168257243100,2.9602431640625,-0.4907078799575567,-0.10404577314704656,-0.3796761934459209
1761467168267225900,2.970225830078125,-0.3704004155784845,-0.10364654469639062,-0.3169219233691692
1761467168277209000,2.980208984375,-0.28512276352643967,-0.1388961372539401,-0.16817980714440345
1761467168287192000,2.990192138671875,-0.2545510996520519,-0.11551073162183165,0.06030979953408241
1761467168297175300,3.00017529296875,-0.27426994560062884,-0.04836348728314042,0.3176286103338003
1761467168307157000,3.010156982421875,-0.3407674938589334,-0.00785027510896325,0.5271463900387287
1761467168317140200,3.02014013671875,-0.29310148732066155,0.09705094582363963,0.6334843657761812
1761467168327123200,3.030123291015625,-0.2625111187458038,0.3771073658712208,0.6283966872483492
1761467168337106000,3.04010595703125,-0.12069967856705188,0.35060499726235866,0.5465595310389996
1761467168347089200,3.050089111328125,0.04529752384126186,0.44145913427248595,0.3860615105688572
1761467168357072100,3.060072021484375,0.295560570910573,0.4243104310728609,0.31828853554725645
1761467168367055000,3.07005517578125,0.4532499637007713,0.3945272872276604,0.28622224920094014
1761467168377037000,3.080037109375,0.46367432708144185,0.11052724412083625,0.2990893295586109
1761467168387020000,3.09002001953125,0.3477577911376953,-0.10225202159807086,0.4673457090705633
1761467168397003300,3.100003173828125,0.25876667152047156,-0.3151099055111408,0.710699707403779
1761467168406986000,3.109986083984375,0.3064285864055157,-0.5748848772913218,0.7986351804882288
1761467168416969000,3.119968994140625,0.3636801674127578,-0.8100071999825537,0.5880278519809246
1761467168426952200,3.1299521484375,0.472413513854146,-0.9604191491156816,0.3128805390238762
1761467168436935200,3.13993505859375,0.5901397295683622,-1.0566269221134483,0.10523381388783454
1761467168446917000,3.149917236328125,0.7118658285737037,-0.9804352244451642,0.029018004691600797
1761467168456900000,3.159900146484375,0.7772294043660164,-0.822871357730776,0.07093290035724639
1761467168466883000,3.169883056640625,0.8412246144145726,-0.6035955695994198,0.14943886631727218
1761467168476866000,3.179865966796875,0.9019207829177379,-0.3525225213214755,0.2992150017648935
1761467168486849000,3.18984912109375,0.981256185439229,-0.0963452817723155,0.4521311888039112
1761467168496832300,3.199832275390625,0.9591980828881264,0.20499182671308516,0.5384931289613246
1761467168506815200,3.209815185546875,0.8702607392847538,0.4432647223897278,0.553636337557435
1761467168516798000,3.2197978515625,0.7118453703075647,0.6809203629508614,0.54562604958117
1761467168526780200,3.2297802734375,0.524251253119111,0.8933646976269781,0.5708201120704413
1761467168536763100,3.23976318359375,0.3614420330971479,1.0357660665228963,0.6390215416371822
1761467168546746000,3.24974609375,0.31259529234170913,1.1380289017759262,0.7326280460953712
1761467168556729000,3.25972900390625,0.2562076346874237,1.2201752700649202,0.838976543226838
1761467168566712000,3.269712158203125,0.21265373964309692,1.2064512806169687,0.8561024500727653
1761467168576695300,3.2796953125,0.2305360178142786,1.1385624241307377,0.819310304248333
1761467168586678000,3.289677978515625,0.41064474768340586,1.049194580155611,0.6416735174506902
1761467168596660200,3.29966015625,0.6371680227249861,0.9112839468076824,0.47652913247942924
1761467168606643200,3.309643310546875,0.7432716051846742,0.7181441781908273,0.33330724098086356
1761467168616626000,3.3196259765625,0.7771212678164243,0.5440975248396396,0.14241291320323943
1761467168626609200,3.329609130859375,0.8200234209537506,0.3850814134903252,-0.026318682605028152
1761467168636592000,3.339592041015625,0.895499225437641,0.28487974855080245,-0.10009352838993071
1761467168646574800,3.349574951171875,0.9033674745947122,0.20388737260252235,-0.11159867274463176
1761467168656558000,3.35955810546875,0.8160287983596325,0.10428279677331447,-0.1644225004374981
1761467168666540000,3.3695400390625,0.7006470999449491,0.05273585714846849,-0.11775719537436961
1761467168676523000,3.37952294921875,0.6229600491523742,0.07121113277673721,-0.07465162861943245
1761467168686506000,3.389506103515625,0.5788765772759914,0.07149491815418005,-0.08589081551432609
1761467168696489200,3.3994892578125,0.5080255099833011,0.09174450997859239,-0.14730185428857803
1761467168706472200,3.40947216796875,0.38901276158988474,0.08336714225560427,-0.21410452297329902
1761467168716455000,3.419454833984375,0.25789222677350043,0.08334405364096165,-0.2714005276441574
1761467168726438100,3.429438232421875,0.15156243434250355,0.11942556697800755,-0.3322609467983246
1761467168736420000,3.439420166015625,0.0682791709780693,0.11937032965943216,-0.3766524617105722
1761467168746403000,3.449403076171875,-0.004414309310913086,0.11830153138414025,-0.41270168021321296
1761467168756386000,3.459385986328125,-0.03589548924565315,0.14704115752577782,-0.4290566026866436
1761467168766369000,3.469369140625,-0.11904548161923885,0.14437997549250722,-0.36809856837689875
1761467168776352300,3.479352294921875,-0.2167635130494833,0.17190408836454152,-0.35599838073849677
1761467168786335000,3.4893349609375,-0.4089619091629982,0.11695011677518487,-0.3410305287092924
1761467168796318000,3.49931787109375,-0.5737953284889459,0.09991159595176577,-0.2947182748675346
1761467168806304500,3.509304443359375,-0.6254121184796094,0.13219824705049396,-0.30302725352942944
1761467168816287500,3.51928759765625,-0.46798342245221136,0.10122983894348143,-0.4142126692980528
1761467168826270500,3.5292705078125,-0.32245676114261146,0.013738164103776216,-0.41628421487510203
1761467168836253400,3.53925341796875,-0.21882629079818725,0.11889613627642392,-0.38896950697004795
1761467168846236400,3.549236328125,0.047207741376757616,0.007860065850615501,-0.5059831905007363
1761467168856219600,3.5592197265625,0.037816228175163266,-0.03904883871003985,-0.5833002389371394
1761467168866202400,3.569202392578125,-0.01082768348455429,0.055918724968284365,-0.5648603268831968
1761467168876184600,3.5791845703125,-0.11779285120964049,0.13307298405840992,-0.615569354379177
1761467168886167600,3.58916748046875,-0.26441432201862336,0.21647855862826107,-0.6691279260873794
1761467168896150300,3.599150390625,-0.471700981670618,0.30320261009633537,-0.7252770988106727
1761467168906133500,3.609133544921875,-0.6761386816322803,0.3684234164170921,-0.8256547048389912
1761467168916116500,3.619116455078125,-0.7907119862735271,0.4445196908868849,-0.9243886353135108
1761467168926099500,3.629099365234375,-0.8175035470873117,0.5394184271126985,-0.9934224240511655
1761467168936082400,3.63908251953125,-0.581281300330162,0.6326994990088045,-1.0640069493621587
1761467168946065400,3.6490654296875,-0.4457832810819149,0.783387196343392,-1.1875111639559268
1761467168956047600,3.659047607421875,-0.32618776436448094,0.8756661054596304,-1.26281394996047
1761467168966030300,3.6690302734375,-0.24439444729685783,1.1170403281524777,-1.3300222768366337
1761467168976013300,3.679013427734375,-0.15667174018025398,1.2305448345184324,-1.3938245946615933
1761467168985996500,3.68899658203125,-0.3284253141582012,1.2966745723776518,-1.3308470372229815
1761467168995979500,3.6989794921875,-0.3923381066203117,1.366205496982485,-1.2234557530403136
1761467169005962500,3.70896240234375,-0.45903322327733037,1.4059005246415734,-1.0448276171177624
1761467169015945500,3.718945556640625,-0.5620277338057756,1.4149848715901374,-0.753762604060769
1761467169025927400,3.728927490234375,-0.5656044232487678,1.3910915164358912,-0.5517296271532773
1761467169035910400,3.738910400390625,-0.4595511096715927,1.2813625830858946,-0.39473230828046796
1761467169045893400,3.748893310546875,-0.37666824380159375,1.1350935789763927,-0.19549685313701629
1761467169055876600,3.758876708984375,-0.3312777809798717,0.9859868672229349,0.027356793481111526
1761467169065859600,3.768859619140625,-0.36311902639865873,0.7305063777662814,0.2930938885360956
1761467169075842300,3.77884228515625,-0.46478959484696386,0.5239475939974189,0.6851520091712474
1761467169085825500,3.788825439453125,-0.7342559395581484,0.3638575698062777,1.0907815590411425
1761467169095807500,3.798807373046875,-1.0207032296866179,0.07150032498165965,1.468423616310954
1761467169105790500,3.80879052734375,-1.1741361340761185,-0.26037469123899937,1.8053747667521238
1761467169115773400,3.8187734375,-0.8708136969923973,-0.5054856162421405,1.9959546217530966
1761467169125756400,3.82875634765625,-0.20617139188647268,-0.8154951298743486,1.824932869181037
1761467169135739600,3.83873974609375,0.4769698619842529,-1.0421807558707892,1.3542495401203631
1761467169145722400,3.848722412109375,0.9418810373842715,-1.074470037318021,0.932728593635559
1761467169155705300,3.858705322265625,1.1774690778911112,-1.0299794459454714,0.652026569160819
1761467169165687600,3.8686875,1.2207236977279186,-0.8385844751693308,0.40546471469700335
1761467169175670300,3.878670166015625,1.2051637250244618,-0.5189158834405243,0.22086510314941404
1761467169185653500,3.888653564453125,1.1113695890396833,-0.1303049806497991,0.12835048558115958
1761467169195636500,3.898636474609375,1.080880927273631,0.12021394087672232,0.06991232513785361
1761467169205619500,3.908619384765625,1.0844313132315873,0.34457565397024154,0.06394669473171234
1761467169215602400,3.9186025390625,1.1873054122507571,0.47765141450762744,0.2592261057257652
1761467169225585400,3.92858544921875,1.270344929987192,0.6051824003994465,0.4003934027820825
1761467169235567600,3.938567626953125,1.3160872749865054,0.551591241595894,0.43463177247047424
1761467169245550300,3.94855029296875,1.3098089253693819,0.4417512490868568,0.4340051650047302
1761467169255533600,3.958533447265625,1.3551725001841783,0.30779490632265805,0.429205071246624
1761467169265516500,3.9685166015625,1.3760522066056728,0.1326860305674374,0.429225529512763
1761467169275499500,3.97849951171875,1.403873694989085,-0.11340338407903909,0.39325522146522995
1761467169285482500,3.988482421875,1.4212415938973426,-0.3198009859368205,0.35723756714463234
1761467169295465500,3.998465576171875,1.3965560654520988,-0.5469551062278449,0.2578764446824789
1761467169305447700,4.00844775390625,1.2600666970789431,-0.7070230647176504,0.18031272800862788
1761467169315430400,4.018430419921875,1.131355561491847,-0.7550413918249309,0.17683716085255144
1761467169325413400,4.028413330078125,0.960880921408534,-0.7515095644369721,0.18443185376524923
1761467169335396600,4.038396728515625,0.7950275113850831,-0.7055936164364218,0.2324047342956066
1761467169345379300,4.04837939453125,0.6070505323588847,-0.6549114769473672,0.336088980653882
1761467169355362300,4.0583623046875,0.4203974954128265,-0.6052868836872279,0.431426254427433
1761467169365345500,4.068345458984375,0.33396073645353314,-0.555446163458377,0.5431763183414936
1761467169375327200,4.0783271484375,0.3371522259712219,-0.48046311092749233,0.6285463248521089
1761467169385310500,4.088310546875,0.3983692034780979,-0.4541558264993131,0.6821493202239275
1761467169395293400,4.09829345703125,0.4553852221637964,-0.43483518608808513,0.7099474277317523
1761467169405276400,4.1082763671875,0.49434652872085566,-0.4380363202169537,0.7657271826207638
1761467169415259400,4.11825927734375,0.4779676408499479,-0.43032136192545295,0.788429428294301
1761467169425242400,4.128242431640625,0.46634909924864765,-0.5276584312140942,0.8508826695978641
1761467169435225600,4.1382255859375,0.47688335274457927,-0.5390060469195246,0.8337526710987091
1761467169445207300,4.148207275390625,0.5378250204414129,-0.5826648636430501,0.7506395036041736
1761467169455190500,4.1581904296875,0.5816238301575184,-0.6358727222174406,0.5784124668955802
1761467169465173500,4.168173583984375,0.6116442898899317,-0.6007688217408955,0.38823768556416033
1761467169475156500,4.178156494140625,0.614435381913185,-0.5337241609938442,0.20780688413381576
1761467169485139500,4.188139404296875,0.5757669208228587,-0.49422670173346994,0.10515782604217529
1761467169495122400,4.198122314453125,0.544411997616291,-0.4408946322575211,0.02938917609155178
1761467169505105400,4.20810546875,0.5500450350672006,-0.43391032632812854,-0.06239362007081508
1761467169515087400,4.21808740234375,0.5404734891235828,-0.4223682109639048,-0.13569500312507152
1761467169525070300,4.2280703125,0.5123918884992599,-0.38845395866334437,-0.12364976054430007
1761467169535053600,4.238053466796875,0.4806733926773071,-0.38737040121033783,-0.06904489465355873
1761467169545036500,4.24803662109375,0.4331704677462578,-0.43043212882354853,-0.03288520151376724
1761467169555019300,4.258019287109375,0.37597149370908733,-0.47321343206018207,-0.01409457632601261
1761467169565002500,4.26800244140625,0.356904389667511,-0.5930797285430133,-0.02556640293300152
1761467169574985500,4.2779853515625,0.3306611103862524,-0.6324024157583713,-0.012125906601548194
1761467169584967400,4.287967529296875,0.31631460512578485,-0.6553247339233755,0.0034083471387624737
1761467169594950400,4.297950439453125,0.30941140160858627,-0.664888534951955,-0.03510229304134845
1761467169604933400,4.307933349609375,0.2684270647913217,-0.6556644872717559,-0.04943886142969131
1761467169614916600,4.31791650390625,0.21522388239204882,-0.6170857502914965,-0.03596037117540836
1761467169624899300,4.3278994140625,0.2175426807284355,-0.5200353889897465,-0.03298690832257271
1761467169634882600,4.337882568359375,0.18277531872987746,-0.43031274022758004,-0.021072598645091055
1761467169644865500,4.347865478515625,0.14931027150154114,-0.30893647757321596,0.01587327643632889
1761467169654847500,4.357847412109375,0.21174597714841364,-0.19993001327887178,0.05683072524666786
1761467169664830500,4.36783056640625,0.25005729536414145,-0.15179215144515038,0.026930677023530004
1761467169674813400,4.3778134765625,0.17560849584043026,-0.15367825745269656,-0.06970131273567676
1761467169684796700,4.387796630859375,0.016373627173900604,-0.2028796568647027,-0.17367255934178827
1761467169694779400,4.397779296875,-0.0751028795182705,-0.23127295378670096,-0.23123042981922626
1761467169704762400,4.407762451171875,-0.07748363717496394,-0.24939780854210256,-0.2965226939409971
1761467169714745600,4.41774560546875,-0.06439619206488133,-0.2636523977354169,-0.4004816655874252
1761467169724727300,4.427727294921875,-0.015738836401700974,-0.24909400328993797,-0.4727145426273346
1761467169734710500,4.43771044921875,-0.008926818299293518,-0.16418006998375057,-0.5260422281891107
1761467169744693500,4.447693603515625,-0.054504328125715255,-0.13963555744439363,-0.506319290587306
1761467169754676500,4.457676513671875,-0.0763788908034563,-0.07704612254053354,-0.4784340893179178
1761467169764659500,4.467659423828125,-0.1727431695371866,-0.08168839538842439,-0.5429828415960073
1761467169774642400,4.477642333984375,-0.21581424950063227,-0.13838190412148832,-0.5897089369356632
1761467169784625400,4.48762548828125,-0.2908762124866247,-0.1670459808088839,-0.6028098260492086
1761467169794607400,4.497607421875,-0.36404257098436354,-0.17459449649229644,-0.5850391915589571
1761467169804590300,4.50759033203125,-0.38182840304374693,-0.18488763470873235,-0.563761425730586
1761467169814568700,4.517568603515625,-0.3843447697788477,-0.20927871025204658,-0.4853600891888141
1761467169824552000,4.527552001953125,-0.37426819692254065,-0.24110446584075687,-0.38014556452333925
1761467169834535000,4.537534912109375,-0.3538485092282295,-0.30188641293123364,-0.23954291561245916
1761467169844518000,4.547517822265625,-0.40041035391688345,-0.32504838507100936,-0.1768348227649927
1761467169854500900,4.5575009765625,-0.4720809208989143,-0.4195692278951406,-0.1379740539729595
1761467169864482800,4.56748291015625,-0.5270119500041007,-0.506173013984412,-0.1464174726694822
1761467169874466000,4.577466064453125,-0.5231307246565818,-0.5946861408263444,-0.21758418178260325
1761467169884448800,4.58744873046875,-0.5238227985739707,-0.6756640498578548,-0.26071020680367946
1761467169894432800,4.597432861328125,-0.5538958652764558,-0.7854486589178442,-0.28810382516384125
1761467169904415700,4.607415771484375,-0.6460708756268024,-0.8210267527773976,-0.26244389872848983
1761467169914399000,4.61739892578125,-0.7759072158515453,-0.8218443527705966,-0.1802203735500574
1761467169924380700,4.627380615234375,-0.881869928535819,-0.7985401956811546,-0.13851824385225772
1761467169934364000,4.637364013671875,-0.9405927511394023,-0.7695799125261604,-0.08219371456205844
1761467169944347000,4.647346923828125,-0.9356061948984861,-0.7089085862033069,-0.03990414036512375
1761467169954329900,4.657329833984375,-0.8561340142548084,-0.6534741376206279,-0.046021161940693854
1761467169964312800,4.667312744140625,-0.8552443719387054,-0.6218354290366173,-0.10980652863085269
1761467169974295800,4.6772958984375,-0.9938234060674905,-0.560138705188781,-0.13363222537636757
1761467169984279000,4.687279052734375,-1.000958080253005,-0.42102556418329473,-0.08515665602087974
1761467169994260700,4.6972607421875,-0.8343763559550046,-0.20094649684503674,0.11271510955393314
1761467170004244000,4.707243896484375,-0.5915466737568378,0.007929039433598517,0.3700011871278286
1761467170014227000,4.71722705078125,-0.5325666615217923,0.16524477660581469,0.48216450801789756
1761467170024209700,4.727209716796875,-0.4435854787766933,0.26071751332730053,0.5372095188915729
1761467170034193000,4.73719287109375,-0.1767658491820097,0.264212515836209,0.611028203818202
1761467170044176000,4.74717578125,0.11381868688166141,0.17806860234364866,0.7797662293672561
1761467170054158800,4.757158935546875,0.25195289985239505,0.026409868019819257,0.8298878123641014
1761467170064140800,4.767140869140625,0.32408231651782987,-0.21671075994893907,0.7815431759119034
1761467170074123800,4.777123779296875,0.37683074088692664,-0.43523996749669314,0.7129565464198588
1761467170084107000,4.78710693359375,0.38715982719957825,-0.6156187464788556,0.5850409451246261
1761467170094089700,4.79708984375,0.46169162883162496,-0.7049307686135172,0.4727992983013391
1761467170104072700,4.80707275390625,0.6036831017524004,-0.6859707782082259,0.34678806932270523
1761467170114056000,4.817055908203125,0.712812754034996,-0.6627833793662488,0.20922376519441604
1761467170124039000,4.827038818359375,0.7330529935091733,-0.5560765703164041,0.08664601779580115
1761467170134020900,4.837020751953125,0.6800555628150701,-0.49029491524249313,0.07489829685688018
1761467170144003800,4.84700390625,0.6204822608619928,-0.4116624002933502,0.031527357164025306
1761467170153986800,4.85698681640625,0.6622773295402526,-0.309625482750684,-0.03892506619989872
1761467170163969800,4.8669697265625,0.8086755129873752,-0.17327435380443929,-0.11688333514928817
1761467170173952800,4.876952880859375,0.9282985022336244,-0.06837664000317453,-0.14669628961086273
1761467170183936000,4.88693603515625,1.079165355527401,0.04387801243215799,-0.13062719834148884
1761467170193919000,4.8969189453125,1.1269514813140034,0.2412977964557707,-0.08572714938521385
1761467170203901000,4.90690087890625,1.1638698838666082,0.41732670966535806,-0.01764262419641018
1761467170213884000,4.9168837890625,1.190244972833991,0.637458091712743,0.13003507766723632
1761467170223867000,4.926866943359375,1.4445374215498565,0.6658575261145829,0.16506839712560176
1761467170233849900,4.936849853515625,1.4501649060428141,0.7639832615628838,0.27643150754868984
1761467170243832800,4.946832763671875,1.4428756258174775,0.8452928867667913,0.47420039727091784
1761467170253815800,4.95681591796875,1.2813079302892088,0.8115722573421895,0.652405339345336
1761467170263799000,4.966799072265625,1.0848600600376725,0.7530303442634642,0.8352700899243354
1761467170273780700,4.97678076171875,0.9140890673562884,0.6549209754280746,0.9668407065957784
1761467170283764000,4.986763916015625,0.7046615962833166,0.5431570291191339,1.03565646866858
1761467170293747000,4.996746826171875,0.5435144642546773,0.4711795881450176,0.9793477214694023
1761467170303729700,5.006729736328125,0.4093982547536492,0.3932391471132636,0.881302942302823
1761467170313713000,5.016712890625,0.3083779669076204,0.3579553600251674,0.729577426353097
1761467170323695900,5.02669580078125,0.27205636120438575,0.3641461774893105,0.5420131197810173
1761467170333677800,5.036677734375,0.23650310952514408,0.3403900388486683,0.3502607138693333
1761467170343660800,5.046660888671875,0.18871786052137612,0.3294165171526372,0.14362345803678034
1761467170353643800,5.056643798828125,0.11888298453390597,0.3480655419126153,-0.02251636771261692
1761467170363627000,5.066626953125,0.11880436633974313,0.3499604157485068,-0.1806125877380371
1761467170373609700,5.076609619140625,0.16869477092921734,0.34330051946789025,-0.35366204674541946
1761467170383593000,5.086593017578125,0.20648089622706173,0.3134863959625363,-0.3969096523195505
1761467170393576000,5.096575927734375,0.2324985500589013,0.3065314622581005,-0.2641553788214922
1761467170403558000,5.106557861328125,0.39625498780310153,0.2652275380976498,-0.1795358984172344
1761467170413540900,5.116540771484375,0.6658858754262328,0.238425163628906,-0.19085867194235323
1761467170423523800,5.12652392578125,0.8212652377083897,0.2106669497400522,-0.21860767961144445
1761467170433506800,5.1365068359375,0.7482727744728326,0.18826485605686902,-0.23894261163175104
1761467170443489800,5.14648974609375,0.5684346782386303,0.18624708649367092,-0.22646306928694246
1761467170453472800,5.15647265625,0.4659726671516895,0.2198420437119901,-0.2208803007185459
1761467170463456000,5.1664560546875,0.46398938437998294,0.24686200645416972,-0.21638883451819418
1761467170473437700,5.176437744140625,0.437502359470725,0.2975954377390444,-0.22837562490999697
1761467170483421000,5.1864208984375,0.35246874530762434,0.3400064463585615,-0.25238544605076313
1761467170493404000,5.19640380859375,0.2322393146008253,0.35355098758637904,-0.264758020889759
1761467170503386600,5.20638671875,0.10111176552176475,0.3993104298509657,-0.2846224127888679
1761467170513369900,5.216369873046875,0.028075755405426023,0.4253638856485486,-0.3374386416971683
1761467170523352800,5.226352783203125,0.035844928102195264,0.42159138137251134,-0.36037469612658024
1761467170533335800,5.236335693359375,0.08362374736517668,0.3697098029658198,-0.3831622819960117
1761467170543317800,5.24631787109375,0.16057020892351864,0.3068392130330205,-0.44209085630476475
1761467170553300700,5.25630078125,0.17147709512412548,0.22446137407571076,-0.4918231477230787
1761467170563284000,5.266283935546875,0.14231968196183442,0.14655074366033077,-0.48241935956180093
1761467170573266700,5.2762666015625,0.08982114070057869,0.09896540114283561,-0.429870841678977
1761467170583250000,5.28625,0.06635024874210357,0.05964519814550876,-0.4272223729968071
1761467170593233000,5.29623291015625,0.051934769898653026,0.058493105500936504,-0.4344838884323835
1761467170603214800,5.30621484375,-0.03091419370174408,0.05469897391498089,-0.39309038629233833
1761467170613197800,5.31619775390625,-0.19543898546993732,0.016434125189483166,-0.3703191670358181
1761467170623180800,5.326180908203125,-0.3376557915791869,-0.023160218574106693,-0.36565351331233975
1761467170633164000,5.3361640625,-0.35884441781938076,-0.051452539339661596,-0.36720483440756796
1761467170643146800,5.346146728515625,-0.31014906823337074,-0.13275807289034128,-0.3716559685975313
1761467170653129700,5.356129638671875,-0.29028233824670313,-0.16388853969126937,-0.3953244289547205
1761467170663113000,5.366113037109375,-0.2771189052909612,-0.20952713205516338,-0.4281266283601522
1761467170673094700,5.3760947265625,-0.25901509332358835,-0.24040625444352626,-0.4528881446510553
1761467170683078000,5.386077880859375,-0.2376414659053087,-0.2819730673238635,-0.4815601123839616
1761467170693060900,5.396060791015625,-0.19916355895102023,-0.2599640646114945,-0.5027414321005345
1761467170703043800,5.4060439453125,-0.21350129638314247,-0.2290665297836065,-0.5183703783869743
1761467170713026800,5.41602685546875,-0.2355325109273195,-0.17254180174618958,-0.515621956461668
1761467170723009800,5.426009765625,-0.15833996565341948,-0.06307809520363808,-0.5088292275816202
1761467170732992800,5.43599267578125,-0.09327332698106765,0.005527238988876342,-0.5501297907412052
1761467170742974700,5.445974609375,-0.12000760464966297,0.08318594046980142,-0.6249713889747858
1761467170752957700,5.455957763671875,-0.20091478653252123,0.16064035155028103,-0.6711223147749901
1761467170762941000,5.46594091796875,-0.2613315535724163,0.2233572122260928,-0.663479691067338
1761467170772924000,5.475923828125,-0.2269844628125429,0.29995237612873316,-0.6217693780630826
1761467170782907000,5.485906982421875,-0.15388357076644896,0.2747705885991454,-0.5104565365225077
1761467170792889900,5.495889892578125,-0.1780734246492386,0.2113318433895707,-0.3454571129798889
1761467170802872000,5.5058720703125,-0.28887013336122036,0.1962637458562851,-0.21323475440144538
1761467170812855800,5.515855712890625,-0.3565279575705528,0.16387626473158598,-0.11980360651016235
1761467170822838800,5.5258388671875,-0.4159118744313717,0.13889160720929503,-0.09867314019799232
1761467170832821500,5.535821533203125,-0.47580900151133537,0.124410808044672,-0.10784604221284388
1761467170842804700,5.5458046875,-0.5186649774193763,0.12407500021904706,-0.1306932493150234
1761467170852787700,5.55578759765625,-0.5988023439735174,0.1128209080159664,-0.09925006330311298
1761467170862770700,5.565770751953125,-0.7311871996372937,0.08205328317806124,-0.025201076751947403
1761467170872752600,5.575752685546875,-0.8058008343338966,0.037159079440683127,0.020718378379940984
1761467170882735600,5.585735595703125,-0.8794535150438547,-0.0432785852342844,-0.005001753810048103
1761467170892718800,5.59571875,-1.0189788901120425,-0.08926043807789683,-0.08373568330705165
1761467170902701600,5.60570166015625,-1.0886930623292923,-0.09824044786915183,-0.2650520354002714
1761467170912684800,5.615684814453125,-1.131031151843071,-0.15733488026410342,-0.3705307639598846
1761467170922667800,5.625667724609375,-1.1685311536759138,-0.1078001572445035,-0.3911877675414085
1761467170932649700,5.635649658203125,-1.1442436846375466,-0.15820026492178438,-0.36288755573034287
1761467170942632700,5.6456328125,-0.9165811764329671,-0.1529440979592502,-0.3344727776288986
1761467170952615700,5.65561572265625,-0.6205991652399301,-0.20037278861030935,-0.25468787777423857
1761467170962599000,5.665598876953125,-0.4433645295023918,-0.1579025971494615,-0.2204617830455303
1761467170972581600,5.67558154296875,-0.4892939215064048,-0.14999430824294685,-0.18231120834946632
1761467170982564600,5.685564697265625,-0.4481026639401912,-0.21839958981871604,-0.007360299634933471
1761467170992547800,5.6955478515625,-0.17179449051022527,0.008112725437432527,0.25721125877201556
1761467171002529500,5.705529541015625,0.09148644356429576,0.20044424641132352,0.3948100496917963
1761467171012512800,5.7155126953125,0.19250585462749004,0.3243393600188196,0.4542015653371811
1761467171022495700,5.725495849609375,0.1232341654807329,0.46631110532581804,0.5739502267897129
1761467171032478700,5.735478759765625,0.08565583771467208,0.6203567347861826,0.7078285358816385
1761467171042461700,5.745461669921875,0.10824527066349983,0.8379754033602773,0.696838939833641
1761467171052444700,5.755444580078125,0.2712345234274864,1.037117919523269,0.5605664290815592
1761467171062427600,5.765427734375,0.4305763595998287,1.155688330976665,0.40077743366360663
1761467171072409600,5.77540966796875,0.5674526814639568,1.2523663518346846,0.15953940457105636
1761467171082392600,5.785392578125,0.7991612501889467,1.2379559875577688,-0.05897592058181762
1761467171092375800,5.795375732421875,1.0265285748392343,1.1089598975494503,-0.164312610322237
1761467171102358800,5.80535888671875,1.2423708813905716,0.9434867190152406,-0.21219605900347233
1761467171112341800,5.815341796875,1.3707891715109348,0.7603707701541483,-0.19717618452608585
1761467171122324700,5.82532470703125,1.3862731563687323,0.5729848888888954,-0.1487842018008232
1761467171132306700,5.835306640625,1.4640069689124822,0.31730083968415856,-0.06910042423307895
1761467171142289700,5.84528955078125,1.6456015534251927,0.12064955581501126,-0.04969020584225654
1761467171152272600,5.855272705078125,1.8226742765992878,-0.0929226138472557,0.054556935095787046
1761467171162256000,5.865255859375,1.8811708892315624,-0.2586206871785223,0.23978373863101005
1761467171172238800,5.87523876953125,1.8681582629233597,-0.34472032313793893,0.5275415268361568
1761467171182221600,5.8852216796875,1.758409601959586,-0.3351568143703043,0.853909908464551
1761467171192204800,5.895204833984375,1.5962930403769016,-0.26405148005560036,1.1116793856412173
1761467171202186800,5.905186767578125,1.4010545459151267,-0.2026797503784299,1.3169395079016684
1761467171212169700,5.915169677734375,1.2218798820257186,-0.1398926009453833,1.494582139918208
1761467171222152700,5.925152587890625,1.043468603724241,-0.07714592965319753,1.6171949586302041
1761467171232135700,5.9351357421875,0.8829097929775714,-0.051892538192123173,1.587414737394452
1761467171242118700,5.94511865234375,0.796353791552782,-0.08233370755463838,1.4259171844929457
1761467171252101600,5.9551015625,0.7504243995487689,-0.14538725283890963,1.2106681676596402
1761467171262084600,5.965084716796875,0.6935515887260436,-0.17126023750305175,1.0081038603544235
1761467171272066800,5.97506689453125,0.6368336762040853,-0.24572233489975331,0.8310153550893068
1761467171282049500,5.985049560546875,0.6409907958835362,-0.30252091144248844,0.6413280650138855
1761467171292032800,5.99503271484375,0.6302244871973991,-0.3332895591937005,0.47896717328131194
1761467171302015700,6.005015625,0.608456307503581,-0.36213016149178145,0.297164498975873
1761467171311998700,6.014998779296875,0.6231938579082489,-0.39124212807714936,0.15903846931159496
1761467171321981700,6.024981689453125,0.6353226871192454,-0.3718444769069552,0.09330255307555198
1761467171331964000,6.0349638671875,0.6403343778014182,-0.38872400777637955,0.07354746676981448
1761467171341946600,6.044946533203125,0.6851151842921972,-0.43212198160663245,0.08777823669612407
1761467171351929600,6.0549296875,0.737369103142619,-0.469483597882092,-0.008303717964887618
1761467171361912800,6.064912841796875,0.8234545644462108,-0.5011341430343688,-0.09199088595509529
1761467171371895800,6.074895751953125,0.886528567996621,-0.5393881781049072,-0.14492927993834018
1761467171381878500,6.08487841796875,0.8777057945936918,-0.5461997578158975,-0.16907412563562393
1761467171391861800,6.09486181640625,0.8262813123047351,-0.5156596581235527,-0.15714754099845885
1761467171401843700,6.10484375,0.767134711331129,-0.5031988204792142,-0.09827858792245388
1761467171411826700,6.11482666015625,0.7061240700513124,-0.45049160490334034,-0.03656067515611648
1761467171421809700,6.1248095703125,0.6326531756490469,-0.43378889190554615,0.004477437674999237
1761467171431792600,6.134792724609375,0.5328717819482087,-0.41619200654700395,0.06810206084549426
1761467171441775900,6.14477587890625,0.39542555124163625,-0.4165701922096312,0.07497019304931163
1761467171451758600,6.154758544921875,0.2569599143594503,-0.40558702590242024,0.042696985954046245
1761467171461740800,6.16474072265625,0.15869827757179736,-0.459484328045696,-0.02957739214003086
1761467171471723800,6.174723876953125,0.17583178320229054,-0.49998731108680367,-0.08886427836716175
1761467171481706500,6.18470654296875,0.2645020003020763,-0.5278637445278466,-0.14704232656955718
1761467171491689700,6.194689697265625,0.2890858219385147,-0.5532463153265417,-0.23047522753775118
1761467171501672700,6.204672607421875,0.27074586312770843,-0.5450986647062003,-0.266095406973362
1761467171511655700,6.21465576171875,0.14733517203629015,-0.534574932604283,-0.2562088037312031
1761467171521638700,6.224638671875,-0.07142799039781093,-0.4851148822560906,-0.23954057752490043
1761467171531620900,6.234620849609375,-0.21032208182513712,-0.43872620217725633,-0.2553571553379297
1761467171541603800,6.244603759765625,-0.19871406161785124,-0.3734726626306772,-0.2687824541002512
1761467171551586600,6.254586669921875,-0.15204700298905371,-0.2990997048221528,-0.22985271172523497
1761467171561569800,6.26456982421875,-0.16495616892278195,-0.25144582711309194,-0.25682196719348427
1761467171571552800,6.274552734375,-0.2646808640003204,-0.1987549781501293,-0.31500878322422504
1761467171581535700,6.28453564453125,-0.3460486491322517,-0.18886238355860113,-0.3054103492736816
1761467171591518700,6.294518798828125,-0.33749475579857824,-0.17403510904386638,-0.25601298889815804
1761467171601500700,6.304500732421875,-0.2856143464356661,-0.10548998060598969,-0.2691524564564228
1761467171611484000,6.31448388671875,-0.30886019746661186,-0.12391484122127294,-0.2887935609936714
1761467171621466600,6.324466552734375,-0.4316653238803148,-0.10776567045301198,-0.3042828065484762
1761467171631449600,6.33444970703125,-0.4704407524764537,-0.1074153957106173,-0.37208909931778905
1761467171641432800,6.344432861328125,-0.37576808009147644,-0.14935308772996067,-0.46015375173985956
1761467171651415800,6.354415771484375,-0.28644787465035915,-0.2558222886316478,-0.5014262578487396
1761467171661397800,6.364397705078125,-0.28631694174706934,-0.38565994403064247,-0.47787061021625993
1761467171671380700,6.374380615234375,-0.30435470274090765,-0.535114884699881,-0.4279284754395485
1761467171681363700,6.38436376953125,-0.26304478723108765,-0.6610358050465583,-0.3757692491352558
1761467171691346700,6.3943466796875,-0.2859282346904278,-0.7750432924985885,-0.3750374277293682
1761467171701329700,6.40432958984375,-0.35732582994997497,-0.8212035706490278,-0.3601619301587343
1761467171711313000,6.41431298828125,-0.42969490059018134,-0.7944545338027179,-0.35372108345627784
1761467171721295600,6.424295654296875,-0.423171636301279,-0.798164640367031,-0.377525737413764
1761467171731277800,6.43427783203125,-0.47946050975620746,-0.745955729702115,-0.3555518060147762
1761467171741260800,6.4442607421875,-0.5834358480155467,-0.7008975675746798,-0.3145002491801977
1761467171751243800,6.454243896484375,-0.6743775171786547,-0.6844359698563813,-0.25445231545269487
1761467171761226800,6.464226806640625,-0.6250853707432746,-0.7076999410659074,-0.20244857197105884
1761467171771209700,6.474209716796875,-0.5109224004685878,-0.7854282006517053,-0.19803017100691794
1761467171781192700,6.484192626953125,-0.39183483327329155,-0.874511528597027,-0.22301380561590192
1761467171791175700,6.49417578125,-0.35278818652033805,-0.8999071050077676,-0.22649346442520618
1761467171801157600,6.50415771484375,-0.3387421255111694,-0.8895312569439411,-0.23476386464238166
1761467171811143400,6.514143310546875,-0.36088147660493847,-0.7937441935762762,-0.2598012752652168
1761467171821126400,6.52412646484375,-0.3749550101429224,-0.6616131665430963,-0.13868132545948028
1761467171831109600,6.534109619140625,-0.3753969086915254,-0.4381964792147279,0.039917584368586535
1761467171841092600,6.544092529296875,-0.15107786569595336,-0.22201631901115176,0.24058862527310848
1761467171851075300,6.554075439453125,-0.03542319555878639,0.007286649876832961,0.3862532337486744
1761467171861057500,6.5640576171875,-0.12187456756532192,0.24846666517183183,0.3843903624862432
1761467171871040500,6.57404052734375,-0.15778876151144502,0.38873745177984237,0.4510030615568161
1761467171881023500,6.5840234375,0.04298573976755142,0.5816960186108946,0.5101292042642831
1761467171891006500,6.59400634765625,0.409122652682662,0.6806948836319148,0.6638672290802001
1761467171900989400,6.603989501953125,0.7107037990570068,0.7121456684283912,0.822433989226818
1761467171910972700,6.61397265625,0.6424620374798774,0.5937428686268628,0.9347013550132512
1761467171920955400,6.623955322265625,0.3091717476338148,0.4958554719790816,1.0010615406274794
1761467171930937600,6.6339375,0.14632570273280143,0.26823139608874913,1.0827356152296066
1761467171940920600,6.643920654296875,0.26484569917321205,0.17777619526833294,1.1124030237406493
1761467171950903300,6.6539033203125,0.5142570978492498,0.06678147976621986,1.0535971990287303
1761467171960886500,6.663886474609375,0.7159557282358407,-0.07840645110830664,0.9404138874411583
1761467171970869500,6.673869384765625,0.7858803283333778,-0.16964622643515467,0.8686673326134681
1761467171980852500,6.6838525390625,0.7287900753676891,-0.2279274427510798,0.8999807547658681
1761467171990835500,6.69383544921875,0.7482096461087465,-0.2264969715565443,0.8498831371665
1761467172000817700,6.703817626953125,0.9513479539096354,-0.2575374219864607,0.7590566188156604
1761467172010800600,6.713800537109375,1.2686316963285207,-0.17884031736850736,0.6249199510484933
1761467172020783400,6.723783447265625,1.555441390028596,-0.023985125090926884,0.4569458956092596
1761467172030766600,6.7337666015625,1.696858862453699,0.15715777013152837,0.24854572175741194
1761467172040749600,6.74374951171875,1.6884563602894544,0.3311255130276084,0.08178162662982941
1761467172050732500,6.753732666015625,1.604630660611391,0.546098781659454,-0.004467500802874565
1761467172060715500,6.763715576171875,1.452058172443509,0.7233638125352561,-0.06215922679305076
1761467172070697500,6.773697509765625,1.2813251736849545,0.9119916566856205,-0.159118548810482
1761467172080680700,6.7836806640625,1.1007073252499102,1.0856725454643368,-0.2561936061620712
1761467172090663400,6.793663330078125,0.9336661667466163,1.277278090251237,-0.3073778499543667
1761467172100646400,6.803646484375,0.8171446506470441,1.404314132232964,-0.34586978543400765
1761467172110629600,6.813629638671875,0.720030430328846,1.4700224298097193,-0.2791068642377853
1761467172120612600,6.823612548828125,0.6161012692987918,1.6857181674972175,-0.0800175395667553
1761467172130595300,6.83359521484375,0.45278702236413954,1.7958479367330669,0.07971767983734607
1761467172140577500,6.84357763671875,0.35155542985498905,1.7593961287789046,0.24328560927212237
1761467172150560500,6.853560546875,0.3313303879499435,1.6047522411644457,0.4448416163176298
1761467172160543500,6.86354345703125,0.37061727319955823,1.4726079162582755,0.6430524045884609
1761467172170526500,6.8735263671875,0.39135084914863105,1.2639094901122152,0.8913117106199264
1761467172180509400,6.883509521484375,0.37334932851195335,1.147470391599089,0.9726625446170568
1761467172190492400,6.893492431640625,0.3416214803397655,0.9391017819292843,0.9352864614248275
1761467172200475400,6.903475341796875,0.1963712978839874,0.7514839916042984,0.7525327700048685
1761467172210457600,6.91345751953125,0.060791445571184155,0.623959143192321,0.561745409733057
1761467172220440300,6.9234404296875,0.09419453347921371,0.5154506915479898,0.4049836531817913
1761467172230423600,6.933423583984375,0.2723889541596174,0.4559342343486845,0.1269037939041853
1761467172240406500,6.943406494140625,0.4905494745254516,0.4339982968725264,-0.11951251460909842
1761467172250389500,6.953389404296875,0.5542997699022293,0.46142903237268323,-0.3657750938653946
1761467172260372500,6.96337255859375,0.5621662654936314,0.4970788762941956,-0.5947329025775194
1761467172270355500,6.97335546875,0.6041635787457227,0.4874409871160984,-0.724191057139635
1761467172280337700,6.983337646484375,0.6393108799725771,0.49212870654091234,-0.7931377521157265
1761467172290320400,6.9933203125,0.5696317790687084,0.46082668256536125,-0.8668062149167061
1761467172300303400,7.003303466796875,0.4178162467479706,0.40016032467857,-0.9260784880965948
1761467172310286600,7.01328662109375,0.28554654189646245,0.33736133867725726,-0.9936451268911362
1761467172320269600,7.02326953125,0.3186018392801285,0.28387787803187964,-1.0526584568738937
1761467172330252300,7.033252197265625,0.3186836723446846,0.19980302589833734,-1.0474778393656015
1761467172340235500,7.043235595703125,0.30170272692739963,0.18144728499650953,-1.024371104544401
1761467172350217500,7.053217529296875,0.21247487594485281,0.17123247271329164,-0.9591378771334886
1761467172360200400,7.063200439453125,0.07016776120364665,0.232815214792639,-0.9192191237211227
1761467172370183400,7.073183349609375,-0.036114100432395935,0.258043179551512,-0.8298913194954395
1761467172380166700,7.083166748046875,-0.05871873095035553,0.34839360482320186,-0.7347580438613891
1761467172390149600,7.093149658203125,-0.06158405725359916,0.39888665148094293,-0.6679962917089461
1761467172400132400,7.10313232421875,-0.11134908189773558,0.4257394409626722,-0.6230079799473285
1761467172410115600,7.113115478515625,-0.28186639207899566,0.453859473901242,-0.6130681852132082
1761467172420097500,7.12309765625,-0.49558162347376344,0.4681787988938391,-0.6364969915956259
1761467172430080500,7.13308056640625,-0.6385550931692123,0.48029374570995564,-0.6779682351469993
1761467172440063500,7.1430634765625,-0.6909072116971016,0.5080629193842411,-0.7102373505890369
1761467172450046500,7.15304638671875,-0.6639163289189338,0.5209229854792357,-0.7739630960464478
1761467172460029700,7.16302978515625,-0.5922825868159532,0.5877525421708822,-0.8913672401994466
1761467172470012400,7.173012451171875,-0.5541162300288677,0.6239655729331076,-1.0382061531513929
1761467172479995400,7.182995361328125,-0.5979892740249634,0.662976125459373,-1.1340011075645684
1761467172489977600,7.1929775390625,-0.635718992960453,0.7190114625446498,-1.2054688454508782
1761467172499960300,7.202960205078125,-0.63947337705791,0.737953771162778,-1.196630874478817
1761467172509943600,7.212943603515625,-0.5270253940075635,0.7676618039451539,-1.1248831506073473
1761467172519926500,7.222926513671875,-0.37313773158788677,0.7705798833489418,-1.0404413648575543
1761467172529909500,7.232909423828125,-0.32336803076863285,0.7651853308290243,-0.9645657474011182
1761467172539892500,7.242892578125,-0.37303485573530193,0.7616961735390126,-0.8333119415938853
1761467172549875500,7.25287548828125,-0.4414806154519319,0.8246602869741618,-0.6749538557618856
1761467172559857700,7.262857666015625,-0.5150374345719814,0.8375755903877318,-0.5383657031893729
1761467172569840400,7.27284033203125,-0.5303969162672758,0.8951594720892607,-0.44523558407127856
1761467172579823600,7.28282373046875,-0.4566027812600136,0.9066524876147508,-0.3458493271678686
1761467172589806600,7.292806640625,-0.4578355379253626,0.8671874693192541,-0.3282908741235733
1761467172599789600,7.30278955078125,-0.5253659363627433,0.7699458232291042,-0.3488426637649536
1761467172609772500,7.3127724609375,-0.5534697488188743,0.6770920368343591,-0.3732844465821981
1761467172619755500,7.322755615234375,-0.5261398433446883,0.5732219125151634,-0.46175358815193174
1761467172629738500,7.332738525390625,-0.4900047001242637,0.4773093230716884,-0.5844950016796588
1761467172639720400,7.342720458984375,-0.5861643961966038,0.41815147005170583,-0.6977443642407656
1761467172649703400,7.352703369140625,-0.7812368864417075,0.37425811391994357,-0.735664637312293
1761467172659686700,7.362686767578125,-0.9367968659877777,0.25366890999004243,-0.624038492038846
1761467172669669400,7.37266943359375,-0.8795674968123436,0.16761384382471442,-0.34453064578473563
1761467172679652400,7.38265234375,-0.6298129837870597,0.09034808718413113,-0.01863280427753925
1761467172689635600,7.392635498046875,-0.510183564800024,0.007290157008171081,0.23090718921422956
1761467172699618600,7.40261865234375,-0.6766150669723748,-0.005089432093501091,0.36930560607910157
1761467172709600500,7.4126005859375,-0.9172440242558717,0.07080883558616041,0.3955132295250892
1761467172719583500,7.42258349609375,-0.9902233357489109,0.19421514276340604,0.35119010367393494
1761467172729566500,7.43256640625,-0.7523118207305669,0.31470337053686376,0.2842664389580488
1761467172739549400,7.442549560546875,-0.5018985515356064,0.3926932036682963,0.2263181078583002
1761467172749532400,7.452532470703125,-0.3539361875116825,0.4740479831881821,0.11798749699890612
1761467172759515600,7.462515625,-0.29459435622692104,0.560281474660337,0.08377426175177097
1761467172769498600,7.47249853515625,-0.20939619915187357,0.7308484692022204,0.14519173026680945
1761467172779481300,7.4824814453125,-0.047855391630530354,0.8873824083469808,0.21770926946699617
1761467172789463600,7.492463623046875,0.09336918857097626,1.007438236052543,0.2779787369906902
1761467172799446500,7.502446533203125,0.23739947384297846,1.1422973728753625,0.4028220912337303
1761467172809426400,7.512426513671875,0.393109675514698,1.1736949661798775,0.5264385340303183
1761467172819409400,7.522409423828125,0.4477046045333147,1.1949348842158913,0.6967430782437324
1761467172829392400,7.532392333984375,0.5017325473189354,1.1509731390230358,0.8128396469295024
1761467172839375400,7.542375244140625,0.632824440562725,1.1282318765133619,0.9116974960446357
1761467172849358300,7.5523583984375,0.8298995028018951,0.9674167529180645,0.8088543766856193
1761467172859340500,7.562340576171875,1.034434817919135,0.8720261415220797,0.7165320668190718
1761467172869323300,7.5723232421875,1.1498586019098758,0.7639994820453226,0.6805582516402006
1761467172879306200,7.58230615234375,1.2342629782587289,0.6771795689873397,0.5717576851814985
1761467172889289500,7.59228955078125,1.358686645784974,0.5044106804870069,0.3777630533009767
1761467172899272400,7.6022724609375,1.4971563743203877,0.2627633399412036,0.15159750565588473
1761467172909255200,7.612255126953125,1.5421721586108206,0.021376550027728078,-0.06859364375472068
1761467172919238400,7.62223828125,1.5025713851064442,-0.24535788550153373,-0.19442659355700015
1761467172929221400,7.632221435546875,1.5129156689882277,-0.533470040102303,-0.16918986096978186
1761467172939203300,7.642203369140625,1.5221896932899952,-0.7764353313788771,-0.01745265458226204
1761467172949186300,7.652186279296875,1.455776900705695,-0.8930345888897776,0.1212830314129591
1761467172959169300,7.662169189453125,1.3020879757285118,-1.0291128922440111,0.3574298748463392
1761467172969152500,7.672152587890625,1.0805290450960396,-0.8879371196202933,0.49481005457937716
1761467172979135200,7.68213525390625,0.9260007466852664,-0.8174433413326739,0.5530687668025493
1761467172989118500,7.692118408203125,0.8246890746772289,-0.7191413725346326,0.5728355435460806
1761467172999101400,7.702101318359375,0.7313532038539647,-0.620036270660162,0.6065168638736009
1761467173009084200,7.712084228515625,0.6079524496346712,-0.5256051519460976,0.6704834323495626
1761467173019066400,7.72206640625,0.4144909017175436,-0.42166400821730493,0.7500543971925974
1761467173029049300,7.73204931640625,0.19931144298911094,-0.3701721597805619,0.824907101342082
1761467173039032300,7.7420322265625,0.07733049243986606,-0.3346206616669893,0.8357435526549816
1761467173049015300,7.752015380859375,0.1124725329697132,-0.34314240629673004,0.80978552005589
1761467173058998300,7.761998291015625,0.2433399698078632,-0.3500239825040102,0.7748673514097929
1761467173068981500,7.7719814453125,0.4610889867633581,-0.3230259393326938,0.689080580791831
1761467173078964200,7.781964111328125,0.6286345876574516,-0.32774975298419595,0.5609387695252895
1761467173088946400,7.791946533203125,0.8009142313361167,-0.3187435858383775,0.41980362117290493
1761467173098929400,7.801929443359375,0.8845803565382957,-0.3601026011869311,0.33784780701994893
1761467173108912000,7.811912109375,0.8479016079604625,-0.3664180679440498,0.3388461704075336
1761467173118895400,7.821895263671875,0.837037099596858,-0.3573439501285553,0.2956827359855175
1761467173128878300,7.83187841796875,0.8949760783463716,-0.3828568693086505,0.21782909645438192
1761467173138861300,7.841861328125,0.9728478380560874,-0.3937589332036674,0.10367021783292293
1761467173148844300,7.85184423828125,0.9748328743934631,-0.3523097553536296,-0.053073418539762496
1761467173158827300,7.8618271484375,0.9146347185403108,-0.32172435521483417,-0.25620471207797524
1761467173168809500,7.8718095703125,0.8137175988078117,-0.30198987330570815,-0.4406231218397617
1761467173178792200,7.881792236328125,0.6886445274621248,-0.31124753099456426,-0.510261890733242
1761467173188775400,7.891775390625,0.5868237368881702,-0.3357138637311756,-0.47994274031519885
1761467173198758400,7.90175830078125,0.5089800342291593,-0.31686887800768015,-0.459617745167017
1761467173208741400,7.911741455078125,0.46972646672725676,-0.3436155767664313,-0.4695294828504324
1761467173218724400,7.921724365234375,0.4183627747148275,-0.3708614572189748,-0.4120797489225864
1761467173228707300,7.931707275390625,0.3209194685727358,-0.3736709616817534,-0.2819979095041752
1761467173238690300,7.941690185546875,0.23567805687785148,-0.4005040235497057,-0.22296996647417544
1761467173248672300,7.95167236328125,0.17606150030493736,-0.3817122293181717,-0.1329676239877939
1761467173258655200,7.9616552734375,0.1270773969054222,-0.3493877304270863,-0.09009586598873139
1761467173268638500,7.971638427734375,0.11003156955838203,-0.32283655424043534,-0.04807166472971439
1761467173278621400,7.981621337890625,0.061442018434405325,-0.2552444887436926,0.0029506664991378784
1761467173288604200,7.991604248046875,-0.04530278453826904,-0.20806816541850565,0.03560848899781704
1761467173298587400,8.00158740234375,-0.183152919870615,-0.15808409119620917,0.06161503691375255
1761467173308569300,8.0115693359375,-0.2508089905142784,-0.12296177828013896,0.052660746085643764
1761467173318552300,8.02155224609375,-0.21609131287634373,-0.07817658787518739,0.021957564786076543
1761467173328535300,8.031535400390625,-0.1836146921634674,-0.04253039721548557,-0.10298223556876182
1761467173338517500,8.041517578125,-0.1778717645972967,-0.03628974926024675,-0.24305180051624772
1761467173348500200,8.051500244140625,-0.1723655683964491,0.019459025968611238,-0.3537257596313953
1761467173358483200,8.061483154296875,-0.17320435730814931,0.07677695021033287,-0.45623394794762134
1761467173368466400,8.071466552734375,-0.1883808836519718,0.051000557788461444,-0.5512918202579021
1761467173378449400,8.081449462890625,-0.07063128706216812,0.1287435765519738,-0.646312283167243
1761467173388432400,8.091432373046874,-0.07074409978687762,0.062446373171359294,-0.7225304304510355
1761467173398415400,8.101415283203124,-0.149521283903718,0.012964257121831179,-0.7621148373425006
1761467173408398300,8.1113984375,-0.22194529960155485,-0.050095279511809344,-0.7299123573958873
1761467173418381600,8.121381591796874,-0.26790976291894913,-0.10784735738709568,-0.67796706610322
1761467173428363300,8.13136328125,-0.24383915150165555,-0.1477398073144257,-0.5800760161936283
1761467173438346500,8.141346435546875,-0.37621699290275573,-0.1943203567035496,-0.4475128813534975
1761467173448329500,8.15132958984375,-0.5368336713165045,-0.1908287151955068,-0.299963774305582
1761467173458312200,8.161312255859375,-0.5920084460496902,-0.20262875084355472,-0.3060720280528068
1761467173468295400,8.17129541015625,-0.5075473710775376,-0.3386057857804,-0.2931149313241243
1761467173478278400,8.1812783203125,-0.49991877589523787,-0.3316898689121008,-0.32273791617155073
1761467173488261000,8.19126123046875,-0.5458861618220806,-0.39362785416990514,-0.35438626936674117
1761467173498244400,8.201244384765625,-0.5518482850968838,-0.47408553871959447,-0.39699966869056225
1761467173508226300,8.211226318359374,-0.5751105027407407,-0.5703492796882986,-0.3500198908507824
1761467173518209500,8.22120947265625,-0.5728139162361622,-0.6237757494494318,-0.29975685355663295
1761467173528192300,8.231192138671876,-0.47406128106117246,-0.7222657881654798,-0.25738018559813497
1761467173538175200,8.24117529296875,-0.43627427898049354,-0.7498682269707322,-0.23872984566390512
1761467173548158500,8.251158447265626,-0.48171734877228733,-0.8178725265301764,-0.20289163956344128
1761467173558141200,8.26114111328125,-0.5589397046625614,-0.8072577551439404,-0.13849135584533215
1761467173568124400,8.27112451171875,-0.7041606610238552,-0.8926298074811696,-0.0300374108672142
1761467173578107400,8.281107421875,-0.8107388752579688,-0.8659415609113872,-0.048748541077971455
1761467173588089300,8.29108935546875,-0.783252317917347,-0.9347023779265582,-0.17312369328737257
1761467173598072300,8.301072265625,-0.7160229482531547,-1.0145185497023164,-0.33326457088291644
1761467173608055300,8.31105517578125,-0.7369839032173157,-1.0164392886318265,-0.466838928592205
1761467173618038500,8.32103857421875,-0.786717363679409,-0.9754249950677156,-0.513646856996417
1761467173628021200,8.331021240234374,-0.8230570895612239,-0.8178511914812028,-0.4089630782067776
1761467173638004200,8.341004150390624,-0.7212678631693125,-0.5324418660983443,-0.11446283000409603
1761467173647987500,8.350987548828124,-0.5355202506303787,-0.15897081090286372,0.25110826572179795
1761467173657970400,8.360970458984376,-0.6387672746151686,0.11139306716993451,0.4938578684210777
1761467173667953200,8.370953125,-0.9000748627901076,0.28055063330531116,0.6327700800269842
1761467173677935400,8.380935302734375,-0.9889315423727035,0.3511439264446497,0.8738461965560913
1761467173687918300,8.39091845703125,-0.7002952177673578,0.41285964725390073,1.1090361776560544
1761467173697901300,8.4009013671875,-0.3224380564421415,0.30934301254749297,1.2675994306713343
1761467173707884300,8.41088427734375,-0.1251040510058403,0.08851663397327066,1.3309189334154128
1761467173717867300,8.4208671875,-0.14731822090148924,-0.1317652624607086,1.3829647624731063
1761467173727850500,8.4308505859375,-0.23884324291050432,-0.2408548749938607,1.326239251166582
1761467173737833200,8.440833251953125,-0.13779226766526698,-0.3295161781348288,1.2118033091694116
1761467173747816400,8.45081640625,0.20855565667450426,-0.33095454037487504,1.0724819322407244
1761467173757799400,8.46079931640625,0.6563286502689123,-0.26784283516258,0.9226941063553095
1761467173767781400,8.470781494140626,1.0955144327819346,-0.1991734958231449,0.6962135014116764
1761467173777764400,8.480764404296876,1.451877555179596,-0.09247457781881094,0.38923195729851723
1761467173787747300,8.490747314453126,1.6614380049824713,0.036178836231678724,0.1447796423345804
1761467173797730600,8.50073046875,1.8499223490089176,0.11727949486002326,-0.09528349775969981
1761467173807713300,8.51071337890625,1.9710569118618964,0.21734657363444565,-0.3727940327167511
1761467173817696800,8.52069677734375,2.0346663374632596,0.38450463651567696,-0.5963555353432893
1761467173827679700,8.5306796875,2.058319015729427,0.6057677990719675,-0.6697784989506006
1761467173837662700,8.540662841796875,1.9300269823372362,0.8333407292969525,-0.6142588563024998
1761467173847645700,8.550645751953125,1.7468085960149764,1.0401436970852316,-0.5901666175752878
1761467173857627600,8.560627685546875,1.5227636937856672,1.1795737950854002,-0.4679126953035593
1761467173867610600,8.570610595703124,1.2020739423155784,1.3525542805097996,-0.2653133166849613
1761467173877593900,8.58059375,0.9652285952240228,1.52268843659237,-0.06886661547720432
1761467173887578600,8.59057861328125,0.7705120788097382,1.5225428906418381,0.1726005461961031
1761467173897561900,8.600561767578125,0.5698012904167175,1.558065747182816,0.4436655582755804
1761467173907544600,8.610544677734374,0.4137923980593681,1.5950610143639146,0.6904816797614097
1761467173917526800,8.62052685546875,0.3323416108191013,1.5549495148584245,0.8049076848864555
1761467173927509800,8.630509765625,0.2934206362724304,1.2815791484460235,0.9255196851700543
1761467173937492700,8.64049267578125,0.25119886661469937,0.9894678412064909,0.9195330119758843
1761467173947475700,8.650475830078125,0.29045068055093287,0.811270936308056,0.8538958799391985
1761467173957458700,8.660458740234375,0.3624403964847326,0.6528203498870134,0.746834266102314
1761467173967442000,8.67044189453125,0.4818599721133709,0.49415787428095936,0.6264952375411987
1761467173977424600,8.680424560546875,0.5249871661782265,0.3483911206051707,0.5181950218200684
1761467173987407600,8.69040771484375,0.49794659903943533,0.2981064560011029,0.40115678837001323
1761467173997390800,8.700390869140625,0.510752304598689,0.25691549069583414,0.3254319775611162
1761467174007372500,8.71037255859375,0.4981067580372095,0.2634542448148131,0.29242110384106634
1761467174017355800,8.720355712890624,0.5374526799976825,0.3023825258851051,0.30533026977479455
1761467174027338800,8.7303388671875,0.6356020885825157,0.3406795233145356,0.26358546997904775
1761467174037321700,8.74032177734375,0.6861462809056044,0.3020313743598759,0.11466332101225853
1761467174047304700,8.7503046875,0.6414712728768587,0.20367270693853495,-0.13481822029054163
1761467174057287700,8.76028759765625,0.545545970082283,0.07507058468386531,-0.4018979621261358
1761467174067270700,8.770270751953126,0.509579169166088,0.04368950412273407,-0.5860124205052852
1761467174077254000,8.78025390625,0.4444698603957891,0.061149319098144764,-0.7429448574483394
1761467174087236600,8.790236572265625,0.4366518801212311,0.12894903599619864,-0.7833119391500949
1761467174097219600,8.800219482421875,0.39131694687902924,0.25884149032235143,-0.7792664631515741
1761467174107201800,8.810201904296875,0.33967151531577106,0.31566520130634307,-0.7315776602596044
1761467174117184500,8.8201845703125,0.35042145738899705,0.39916210742145775,-0.7077776824772357
1761467174127167700,8.830167724609375,0.3123123837471008,0.43768356125652785,-0.6528349629342556
1761467174137150700,8.840150634765624,0.22828853114843367,0.43612244941964745,-0.6521785448521376
1761467174147134000,8.850134033203124,0.1943722330212593,0.39742373932152986,-0.5737029740303754
1761467174157116700,8.86011669921875,0.17484686381816864,0.3993631829515099,-0.5180430461287499
1761467174167099600,8.870099609375,0.13201894496083258,0.3542040446676314,-0.4010211792916059
1761467174177083000,8.880082763671876,-0.0003793547064065933,0.37521395334005353,-0.3051847238242626
1761467174187065600,8.890065673828126,-0.1567488970696926,0.35061581091731786,-0.2476677698791027
1761467174197047800,8.9000478515625,-0.20091537105441093,0.27642186293751,-0.24110768071115016
1761467174207030800,8.91003076171875,-0.2488093411296606,0.2805161465138197,-0.22729893558919428
1761467174217013500,8.920013427734375,-0.20034020151495932,0.15595920799672602,-0.24976854155063627
1761467174226996700,8.929996826171875,-0.15344050317406654,0.11955796118602156,-0.33191724792718885
1761467174236979700,8.939979736328125,-0.14536708683371544,0.07420286193862558,-0.39223698433339593
1761467174246962700,8.949962646484375,-0.10861527301967143,0.09612243280187249,-0.38450200616717334
1761467174256945700,8.959945556640625,-0.10547229881882667,0.19774594723805783,-0.36672611097991464
1761467174266928600,8.9699287109375,-0.09292553645670414,0.22206746467649935,-0.4134276564002037
1761467174276911600,8.97991162109375,0.004594342052936554,0.2962714956589043,-0.5340338114649057
1761467174286894800,8.989894775390624,0.07779810995161533,0.3067120795220136,-0.5988467676371335
1761467174296876500,8.99987646484375,0.13474398601055143,0.32118849477246403,-0.632100802463293
1761467174306859800,9.00985986328125,0.10379179838597774,0.2930893584914505,-0.5917623623341322
1761467174316842800,9.0198427734375,-0.09862813201248645,0.31958515122905373,-0.6313795024514198
1761467174326825700,9.02982568359375,-0.2768441800028086,0.3039318011537194,-0.7387573426306248
1761467174336808700,9.03980859375,-0.4137748624026775,0.34108313567936416,-0.7342968560904264
1761467174346791700,9.049791748046875,-0.36924832293391224,0.40453868589326736,-0.6632827071905135
1761467174356775000,9.05977490234375,-0.22452421017885207,0.46333530438542364,-0.6250836171776056
1761467174366757600,9.069757568359375,-0.10837971069812774,0.513260780288279,-0.6047258888036012
1761467174376740600,9.07974072265625,-0.06733166099488735,0.5097990955270827,-0.6449380722045898
1761467174386723800,9.089723876953125,-0.006364274334907531,0.5057496740058064,-0.6701192752122879
1761467174396705500,9.09970556640625,-0.06131400814056396,0.5199962260231376,-0.6779752494096756
1761467174406688800,9.109688720703126,-0.15205518629550932,0.5122933965608477,-0.6905944924861193
1761467174416671700,9.119671630859376,-0.24516893880069254,0.5094705942250788,-0.6880278568685054
1761467174426654700,9.12965478515625,-0.26193302659690376,0.4468151083476841,-0.6997159565746783
1761467174436637700,9.1396376953125,-0.3040764703214168,0.3516355093538761,-0.6973077263891696
1761467174446620700,9.14962060546875,-0.36361119382977486,0.25375278888121244,-0.6301777254462242
1761467174456603600,9.159603759765625,-0.47484278682768344,0.17862156005129218,-0.45800972544848917
1761467174466587000,9.1695869140625,-0.5819394719779492,0.09007453093975781,-0.298152925491333
1761467174476569600,9.179569580078125,-0.6149351481288671,0.020363427462428807,-0.18725450997054577
1761467174486552800,9.189552734375,-0.6235632757425308,-0.03492883617058396,-0.09845862066447734
1761467174496534800,9.19953466796875,-0.6256868437677622,-0.03645049277991056,-0.04531096784472465
1761467174506517800,9.209517822265624,-0.771605134743452,-0.1251560734540224,0.015016951867938041
1761467174516500700,9.219500732421874,-0.872399504879117,-0.14882117281034588,0.07945756759643555
1761467174526483700,9.229483642578124,-0.8400655075073241,-0.16302476246878503,0.12990005311071873
1761467174536466700,9.239466796875,-0.7130640984475612,-0.1464059283621609,0.07491700155735015
1761467174546449700,9.24944970703125,-0.6616565672934055,-0.14885346764475108,0.006269581788778305
1761467174556432600,9.2594326171875,-0.6443488741397857,0.00390869787633419,-0.07700316018164158
1761467174566416000,9.269415771484375,-0.5238818352848291,0.19097133853659032,-0.14550152686834333
1761467174576398600,9.279398681640625,-0.2614928816139698,0.38051410557478665,-0.16448562880158424
1761467174586381600,9.289381591796875,-0.11660451820790767,0.5279293571099639,-0.15133973150253294
1761467174596363800,9.29936376953125,-0.12203998726010322,0.584062163220346,-0.12953823406100273
1761467174606346500,9.309346435546875,-0.16288170073628425,0.6799275525212287,-0.1109258880496025
1761467174616329700,9.319329833984375,-0.02478372812271118,0.7327987264871597,-0.07577975586652755
1761467174626312700,9.329312744140625,0.15277590178549288,0.8445800623223185,-0.044937458357214924
1761467174636295700,9.339295654296874,0.28299276576042176,0.9829340555235743,-0.08095628172159194
1761467174646278700,9.349278564453124,0.3938467576175928,1.1266223954901098,-0.12216156781315803
1761467174656261600,9.35926171875,0.36683074039816854,1.263383712672442,-0.11729893021285533
1761467174666244900,9.369244873046876,0.3021662527859211,1.4175000692814588,-0.14566986917257307
1761467174676227800,9.379227783203126,0.23658874198198318,1.4529033910959959,-0.15588322015106676
1761467174686210600,9.38921044921875,0.24333587815463542,1.3836188424676656,-0.13301380121707915
1761467174696193800,9.39919384765625,0.3180862909734249,1.2481313446134328,-0.0714642307549715
1761467174706175700,9.40917578125,0.43074002572894093,1.0692894198097287,-0.06070084467828273
1761467174716158700,9.41915869140625,0.5391314268648624,0.80038582354784,-0.023133038306236267
1761467174726141700,9.4291416015625,0.5965905131429433,0.5755524012893438,0.0890665229409933
1761467174736124700,9.439124755859375,0.6458908428847789,0.4196199351690709,0.26884967411756516
1761467174746108000,9.44910791015625,0.7405114928215741,0.3047480859726667,0.423992305034399
1761467174756090600,9.459090576171874,0.7985334736794233,0.24971082001402972,0.49225803200900553
1761467174766073600,9.469073486328124,0.8466238431096077,0.21614684245586394,0.4935165076375007
1761467174776056800,9.479056884765624,0.8535083419263363,0.2201930491067469,0.46367958777844903
1761467174786039800,9.489039794921876,0.8417752340346575,0.18872122152224183,0.41997196347713467
1761467174796022500,9.4990224609375,0.8196148401528597,0.11020371125489473,0.3705313484817743
1761467174806004700,9.509004638671875,0.8991372896790504,0.0519568355999887,0.2747200274556875
1761467174815986700,9.518986572265625,1.0553168624281883,-0.003903729440271854,0.18503332678973675
1761467174825969700,9.5289697265625,1.0878472591549158,-0.03584931201636791,0.11213701740503311
1761467174835952600,9.53895263671875,1.136156239771843,-0.06403451914563775,0.04631283836364746
1761467174845935900,9.548935791015625,1.1903192071139812,-0.12456380664929746,-0.054715340527892106
1761467174855918600,9.558918701171875,1.1731646586954594,-0.17397665685489772,-0.12167933725416659
1761467174865901800,9.56890185546875,0.9680617728233337,-0.099101740873605,0.13009352985620498
1761467174875884800,9.578884765625,0.6978846494942903,-0.16185557255893945,0.18030454470217228
1761467174885867500,9.588867431640624,0.5858540150731801,-0.15657719376459717,0.1899281130939722
1761467174895850800,9.598850830078124,0.5965343990415334,-0.18143237968832254,0.3233364665865898
1761467174905833700,9.608833740234376,0.38164953934550283,-0.1991639973424375,0.4751747952610254
1761467174915816000,9.61881591796875,0.29286475595533845,-0.26260230416059493,0.5020674783617258
1761467174925798700,9.628798583984375,0.3253045517891645,-0.3583006663314998,0.5142337169736624
1761467174935781600,9.63878173828125,0.3899386442631483,-0.42375206653773784,0.6194353821575641
1761467174945764900,9.648764892578125,0.5015221194386482,-0.4378821525685489,0.7269879943817853
1761467174955747600,9.65874755859375,0.5604664758384228,-0.4242461336649954,0.8187281204462051
1761467174965730600,9.66873046875,0.46276071936786173,-0.4630719772741198,0.8126976081103086
