time,seconds_elapsed,z,y,x
1761467271866755300,0.11175537109375,0.16313947488963604,0.7359618666931986,-0.030557635349035262
1761467271876737000,0.121737060546875,0.3588186988562345,0.6849079712823033,-0.0583715249478817
1761467271886720300,0.13172021484375,0.30962825922966003,0.6396551633656025,0.05173778602182865
1761467271896703200,0.141703125,0.28442367534637447,0.4013438353747129,0.16107260548770427
1761467271906682400,0.151682373046875,0.23359482086300848,0.09467208786308765,0.14482172791063785
1761467271916665300,0.161665283203125,0.3507984740078449,-0.12097878776937722,0.09312368937730789
1761467271926648300,0.1716484375,0.3881874166816473,-0.12283639833480119,-0.04164250846505165
1761467271936631600,0.181631591796875,0.3116881143689155,-0.05721680195480585,-0.17119886270463466
1761467271946614300,0.1916142578125,0.8751473422825335,0.12194295662641524,-0.36210312735438344
1761467271956597200,0.20159716796875,0.6474900947749614,0.4990004920065403,-0.45703415841460227
1761467271966580500,0.21158056640625,0.3619838848888874,0.8452876260697841,-0.3569622573345899
1761467271976562200,0.221562255859375,0.4209253186792135,0.9980866164699196,-0.2650035200834274
1761467271986545400,0.23154541015625,0.26095336790978907,0.8283096032619476,-0.17747779684364795
1761467271996528400,0.2415283203125,0.10568155765533446,0.6480617571830749,-0.0015267711758613586
1761467272006511400,0.251511474609375,0.44160687218010425,0.8102735958337783,-0.04556991104185581
1761467272016494300,0.261494384765625,0.5656441707372665,0.8268164420947433,0.19405542215704916
1761467272026477300,0.271477294921875,0.8707681042850017,0.20556261233836412,0.06301262875199318
1761467272036460300,0.281460205078125,0.2765419821858406,0.02633008078187704,0.209995918610692
1761467272046443300,0.291443359375,0.12362287253737449,0.00899812996983528,0.9939034855663775
1761467272056426200,0.30142626953125,0.5502005178898572,-0.12122867087721824,1.542376741272211
1761467272066409500,0.311409423828125,1.1831973924100398,-0.46846156135797495,1.1539625300973653
1761467272076391200,0.32139111328125,0.7822130379974842,0.5280526912286877,-0.2089893719166517
1761467272086374400,0.33137451171875,1.9359259772479533,-0.08446224401593208,-0.6580664338469505
1761467272096357400,0.341357421875,2.2058014872819185,-0.9178156866639852,-0.326717341196537
1761467272106340400,0.35134033203125,1.5740338622957466,-0.6173439628362656,-0.29160920293629167
1761467272116323300,0.3613232421875,1.3183780162721872,-0.25867957775890826,-0.1832493659824133
1761467272126306300,0.371306396484375,1.2801976309597491,0.19282997201532123,-0.19224808047413824
1761467272136289300,0.381289306640625,0.56397769882977,0.3605079671174288,0.06342705477178097
1761467272146272500,0.3912724609375,-0.32320378011763096,0.009623568391799927,0.47028819226324553
1761467272156255200,0.401255126953125,-1.4790338576525448,-0.5622331932500004,0.9433955336004495
1761467272166238200,0.41123828125,-2.5249878484517336,-1.0475137874618172,1.011363154411316
1761467272176220400,0.421220458984375,-2.70556419583261,-0.8898293631076812,0.60153907546103
1761467272186203100,0.431203125,-2.188110932290554,-0.7097182951509952,0.34782968733012676
1761467272196186400,0.441186279296875,-1.1304787786573172,-0.6304471900373697,0.44641047306954856
1761467272206169300,0.45116943359375,-0.3489905478030443,-0.18812866245657203,0.3992074078679085
1761467272216152300,0.46115234375,0.16542554000020027,0.08184300142824649,0.2473451137959957
1761467272226135300,0.47113525390625,0.7430699451327324,0.0921171426832676,0.014603694891929626
1761467272236118300,0.4811181640625,0.9845020354926586,0.09279927972853183,-0.17285948939323426
1761467272246101500,0.4911015625,1.0232353785127402,0.2940375991269946,0.009238368466496467
1761467272256084500,0.50108447265625,1.1505103438168764,0.35832185525000093,0.182556123021245
1761467272266067200,0.511067138671875,1.4325234508901834,0.4053191687464714,0.1415133340150118
1761467272276050400,0.521050537109375,2.212372682365775,0.38421120652705426,-0.07930442286133765
1761467272286032400,0.531032470703125,2.265799736648798,0.6106164081469178,-0.5795926165908575
1761467272296015400,0.541015380859375,1.0323100808501242,0.9292766996160149,-0.8482850543200969
1761467272305998300,0.550998291015625,0.05659399388134479,0.7595783046022057,-0.5786842695742845
1761467272315981300,0.560981201171875,-0.31244916186928745,0.5977119183883071,-0.4890788174510002
1761467272325964500,0.570964599609375,-0.14561024793982505,0.2485109427049756,-0.5041548060297966
1761467272335947300,0.580947265625,-0.0489250666886568,-0.4175491202443838,-0.2035778682619333
1761467272345930200,0.59093017578125,-0.0953629927366972,-0.35380613139122724,0.11206804382205009
1761467272355913500,0.60091357421875,-0.04551847311556339,-0.18832213920205831,0.43955753843486306
1761467272365896200,0.610896240234375,-0.03364157283902168,-0.14782821625024078,0.501007740175724
1761467272375879200,0.620879150390625,-0.1897235304325819,-0.14772066422253846,0.4206991087079048
1761467272385862400,0.6308623046875,-0.20485387954711912,-0.14662702376693487,0.23731121103763578
1761467272395844000,0.640843994140625,-0.2656704595595598,-0.2152034241259098,0.07479132935106754
1761467272405827300,0.650827392578125,-0.44940380966663357,-0.2431786417663097,0.1890735420912504
1761467272415810300,0.660810302734375,-0.33453882860243317,-0.13059095798432827,0.29280045854747294
1761467272425793500,0.67079345703125,0.01014671548306942,0.10573211879879235,0.2113520093947649
1761467272435776300,0.6807763671875,0.0581534982830286,0.1787918020516634,-0.07872107001543045
1761467272445759200,0.69075927734375,0.24213702375888824,0.1882026044756174,-0.2593400874942541
1761467272455742500,0.700742431640625,0.14033376884162424,0.21888094359487295,-0.27620471305549144
1761467272465725400,0.710725341796875,-0.21938918537795543,0.21959610612690447,-0.1721557250380516
1761467272475708200,0.720708251953125,-0.5231494293570518,0.26670214069485665,-0.06765139446854591
1761467272485691400,0.73069140625,-0.18060557347536085,0.2317924476161599,-0.3388590298891067
1761467272495673300,0.74067333984375,0.07565233009457588,0.06676905867606402,-0.5671820478290319
1761467272505656300,0.75065625,-0.3761170396596193,0.0413026089861989,-0.2200789212077856
1761467272515639300,0.760639404296875,-0.29257483309805393,-0.3319581644594669,0.3290916691124439
1761467272525622300,0.770622314453125,0.4159831861019134,-0.2622802325993776,0.1379401517033577
1761467272535605500,0.78060546875,-0.053764323413372034,0.04093582150042057,-0.2269452998459339
1761467272545588200,0.790588134765625,-1.3333774324834347,0.06963643080592155,-0.3777285665094852
1761467272555571200,0.8005712890625,-1.3502087402969598,-0.39017069945335386,-0.7481710676640272
1761467272565554400,0.810554443359375,-1.3134978430151938,-0.437750489012897,-0.8156237246900796
1761467272575537400,0.820537353515625,-1.5842413680553435,-0.4183148439198732,-0.5302689059734345
1761467272585520400,0.830520263671875,-1.3060574638813733,-0.3531991054087877,-0.3407382677644491
1761467272595503400,0.84050341796875,-1.1368985825717448,-0.23948972412049768,-0.28270342742502685
1761467272605485300,0.8504853515625,-0.9037152651190757,-0.18486615352928637,-0.2616349204331636
1761467272615468300,0.86046826171875,-0.33194355141222476,-0.08741437181979417,-0.36450142066776753
1761467272625451300,0.870451171875,-0.013440496331453323,-0.009731997202336787,-0.5110784678131342
1761467272635434500,0.8804345703125,-0.29906594868302344,0.11378098521977663,-0.5780372038424014
1761467272645417500,0.89041748046875,-0.5041758488178253,0.2877478513330221,-0.6198322725206613
1761467272655400200,0.900400146484375,-0.6406833373695612,0.3245794523850083,-0.7181921089857817
1761467272665383400,0.910383544921875,-0.5342530071735382,0.25445962197631594,-0.9457704460382461
1761467272675366400,0.920366455078125,-0.4110784629255533,0.22530308559685944,-1.1308318298786877
1761467272685349000,0.93034912109375,-0.4561667279303074,0.24542262130081652,-1.0459253492265939
1761467272695332400,0.940332275390625,-0.6738356653869152,0.7306418407142162,-1.0111433741807938
1761467272705315300,0.9503154296875,-0.9278010741055012,1.0461465907618404,-1.2360276498436926
1761467272715297300,0.96029736328125,-1.4463637601941823,0.5916665007442236,-1.431712719029188
1761467272725280300,0.9702802734375,-0.6035147594481707,0.17339871083647013,-1.0941659407824278
1761467272735263200,0.98026318359375,-0.18366496104598043,0.027265315805375574,-0.6373585768610238
1761467272745246500,0.99024658203125,-0.4695546172916889,-0.12297989845871925,-0.3641694122344255
1761467272755229200,1.000229248046875,-0.7934656688958406,-0.10446955151706934,-0.1260971536964178
1761467272765212400,1.01021240234375,-0.942913303041458,0.2074164235115051,-0.15510580603778362
1761467272775195400,1.0201953125,-0.7723375406712293,0.5360360911980271,-0.5783744729727506
1761467272785178400,1.030178466796875,-0.9858084419161081,0.6616533524230123,-1.0373135882258415
1761467272795161300,1.040161376953125,-1.2677145814836024,0.2583037301838398,-0.9887930106848478
1761467272805144300,1.050144287109375,-0.7846136693984269,0.20456044955849648,-1.3038725210577249
1761467272815127300,1.060127197265625,-0.32485271636843677,-0.0670963909342885,-1.4243313766062258
1761467272825109200,1.070109130859375,-0.23124913451969623,-0.1498264043301344,-1.3219593818902968
1761467272835092200,1.08009228515625,-0.21839783625304698,-0.11202362015843391,-1.2390192328751086
1761467272845075500,1.090075439453125,-0.060928223693370816,-0.1662473777770996,-1.170979715871811
1761467272855058400,1.100058349609375,-0.21127426798343657,0.14544804311543702,-1.2521680527836083
1761467272865041200,1.110041259765625,-0.5360106644958257,0.3233729992046952,-1.1977110709309577
1761467272875024400,1.1200244140625,-0.8391092296957969,0.4464949364826083,-1.1903560319930315
1761467272885007400,1.13000732421875,-1.1606272486835718,0.476576186491549,-1.2939461703270674
1761467272894990300,1.139990234375,-1.2510656444996595,0.24782471400648354,-1.263396133762598
1761467272904973300,1.149973388671875,-1.163717031392455,0.18248568813353777,-1.0773661971509456
1761467272914956800,1.159956787109375,-0.9762415721476078,0.9677864630132913,-1.6937597273945808
1761467272924939800,1.169939697265625,-1.1800614324718712,0.6378802626475691,-2.1672721424013375
1761467272934923000,1.179923095703125,-1.093233043846488,0.42672056095451116,-1.9421710091173647
1761467272944904700,1.18990478515625,-0.6960510043263435,0.6871630567327142,-1.7526847945719957
1761467272954888000,1.199887939453125,-0.5379144522905349,0.5948930615752935,-1.8218968624860048
1761467272964871000,1.209870849609375,-0.5424544338077306,0.5762751626059412,-1.6823890230745076
1761467272974854000,1.21985400390625,-0.7422533680528401,0.6456304383829236,-1.4623334827423096
1761467272984836900,1.2298369140625,-0.9463988070696592,0.6606710633873939,-1.2808856132239101
1761467272994819800,1.23981982421875,-0.8625842133074998,0.6512772120982409,-1.134908285537362
1761467273004802800,1.249802734375,-0.5719616833209991,0.7280354576081037,-0.7632698525965214
1761467273014785800,1.259785888671875,-0.19530688352286815,0.8870257038637995,-0.28609482342898845
1761467273024768800,1.269768798828125,0.03463233744204044,0.7677607342749834,0.04965922618210315
1761467273034752000,1.279751953125,-0.07957914814949035,0.6594409370705485,0.29619360811710355
1761467273044735000,1.28973486328125,-0.21449556811749934,0.7759265050739049,0.38335575874149797
1761467273054717000,1.299717041015625,-0.403820454621315,0.6886682005986571,0.3632242403388023
1761467273064700000,1.309699951171875,-0.5197814142286777,0.5608911309912801,0.2948568065553903
1761467273074683000,1.319682861328125,-0.4823568157196045,0.5174485873669386,0.2268582060843706
1761467273084665900,1.329665771484375,-0.3991699984669685,0.4155515166863799,0.20344050561785695
1761467273094648800,1.33964892578125,-0.35541385884881016,0.29841537581980226,0.21737141581475733
1761467273104631800,1.3496318359375,-0.4262017977774143,0.1810764058575034,0.22060557543039322
1761467273114615000,1.359614990234375,-0.5353986700773239,-0.01984334911108017,0.10232815557420254
1761467273124597800,1.36959765625,-0.46237201231122016,-0.28482261153608557,-0.10763795242011547
1761467273134580700,1.379580810546875,-0.3009972090065479,-0.49089784957170485,-0.21459142970740794
1761467273144564000,1.38956396484375,-0.2380640752315521,-0.5314145688772202,-0.24063187989294527
1761467273154547000,1.399546875,-0.10236673401892185,-0.5557964382007717,-0.13631693441569803
1761467273164529000,1.40952880859375,0.2003676740437746,-0.48126522109061476,0.022989830443263054
1761467273174511900,1.419511962890625,0.588137157574296,-0.39142099177539347,0.21183716256320476
1761467273184494800,1.429494873046875,0.9187807323038577,-0.2683551685988903,0.4766612344264984
1761467273194477800,1.439477783203125,1.1221452500760554,-0.14805559526532888,0.6390998675704002
1761467273204460800,1.449460693359375,1.1407692865252494,-0.11899462821483611,0.61964814812541
1761467273214444000,1.459444091796875,1.1285142005860804,-0.128817810831964,0.5883961007714271
1761467273224427000,1.469427001953125,1.0360720637321472,-0.07437485750466585,0.6613070232033729
1761467273234409700,1.47940966796875,0.838739811861515,-0.044025604209303855,0.8022627233356237
1761467273244393000,1.48939306640625,0.8743792805194854,-0.03898088804036379,0.8823468983978032
1761467273254376000,1.4993759765625,0.9598948329806327,0.021952304089069365,0.9522972174584865
1761467273264358700,1.509358642578125,1.0560177041739225,0.08152998995631933,1.0063198995471
1761467273274342000,1.519341796875,1.0127987401723861,0.17982699031829832,0.9924585474550723
1761467273284323800,1.52932373046875,0.9311398631393909,0.08511515496671199,1.068022030222416
1761467273294307000,1.53930712890625,0.8740583780020474,-0.03579553600251675,1.0031816015213728
1761467273304289800,1.549289794921875,0.6948983271598815,-0.16110884584486485,0.876674113458395
1761467273314272800,1.559272705078125,0.43761809480488295,-0.3015887451589107,0.7963812640815973
1761467273324256000,1.569256103515625,0.16941256380975245,-0.43424861837178463,0.6161790107101202
1761467273334238700,1.57923876953125,-0.163050043040514,-0.36486207067370413,0.3922469212055206
1761467273344222000,1.589221923828125,-0.17335516395568848,-0.14860855297297237,0.47144203847348687
1761467273354205000,1.599204833984375,0.1534989553630352,-0.6442360614150762,0.31269875271618364
1761467273364188000,1.60918798828125,0.4042588460385799,-0.7950508922606706,0.15163666862249373
1761467273374171000,1.6191708984375,0.6054278995931148,-0.8172644776344299,0.08938567189276218
1761467273384153900,1.62915380859375,0.7887702045559882,-0.8729591845884919,0.018337620723247527
1761467273394136000,1.639135986328125,0.8868857108712196,-0.9066215079545974,-0.06786065330505371
1761467273404118800,1.649118896484375,0.7325503046840429,-0.9291898981153964,-0.09492401679754256
1761467273414101800,1.659101806640625,0.5158800228759646,-0.9466329080864787,-0.08761340152323245
1761467273424085000,1.6690849609375,0.3310565394446254,-0.9659577862814068,-0.1171393557369709
1761467273434068000,1.67906787109375,0.23379122021794319,-0.9707216396823525,-0.1647398958235979
1761467273444050700,1.68905078125,0.1697936720818281,-0.9213628577515482,-0.23424130207300184
1761467273454034000,1.699033935546875,0.07704290767014026,-0.8491247200146317,-0.26074527811706066
1761467273464017000,1.709016845703125,-0.0340218043282628,-0.7432026316016912,-0.18803543121516703
1761467273474000000,1.718999755859375,-0.08370674947351217,-0.617115707038343,-0.03945230494439601
1761467273483982800,1.72898291015625,-0.12683277449458838,-0.5160293682187795,0.10616671082377434
1761467273493965800,1.7389658203125,-0.1890565909564495,-0.467083258742094,0.13425474118888378
1761467273503948800,1.74894873046875,-0.2820014166355133,-0.4607306748449802,0.10052315197885035
1761467273513930800,1.7589306640625,-0.3129915981829166,-0.43159401220977306,0.09588263269662857
1761467273523914000,1.7689140625,-0.28140754239559174,-0.3868573371216655,0.09613982232809067
1761467273533897000,1.77889697265625,-0.17638854030221698,-0.2738774391517043,0.057383682954311364
1761467273543880000,1.7888798828125,-0.06896539967656135,-0.17656126652061938,0.01613280415534973
1761467273553863000,1.79886279296875,-0.08517769880890846,-0.2065846488624811,0.18586393239498136
1761467273563846000,1.808845947265625,0.06276508373171091,0.06466565665602683,0.07195347557663917
1761467273573828900,1.818828857421875,-0.3043213849931955,-0.07439093185663223,-0.015111644414067267
1761467273583811800,1.828811767578125,-0.6471621779948472,-0.20426146661192177,0.04700666584670543
1761467273593794800,1.838794921875,-0.5542950937271118,-0.23157558999508618,0.06810381441116332
1761467273603777800,1.84877783203125,-0.48183834480345245,-0.3027767858996987,0.07420154676437378
1761467273613761000,1.858760986328125,-0.3933844008028507,-0.34659693066477776,0.05662321997582912
1761467273623742700,1.86874267578125,-0.30136078162193297,-0.43553953496515746,0.011079612419009208
1761467273633726000,1.878725830078125,-0.2473790160655975,-0.47204672636836764,-0.07118482929170131
1761467273643709000,1.888708984375,-0.2032517050474882,-0.4924307582274079,-0.18751111508011817
1761467273653691600,1.898691650390625,-0.18154256206452846,-0.5388546557500958,-0.2847755575239658
1761467273663675000,1.9086748046875,-0.30218788009583947,-0.5137029710978269,-0.322168591850996
1761467273673657900,1.918657958984375,-0.4106038311511278,-0.48945378824323416,-0.3295686389744282
1761467273683640800,1.928640869140625,-0.5375140547960996,-0.5054755332395434,-0.3003156564831734
1761467273693623800,1.938623779296875,-0.4390852447479963,-0.4590758933752775,-0.328459216427803
1761467273703606800,1.948606689453125,-0.4807867899239063,-0.3531806929692626,-0.3886591258466244
1761467273713590000,1.958590087890625,-0.6175123051404953,-0.35689094566404816,-0.36493747399747367
1761467273723573000,1.968572998046875,-0.8186825277388096,-0.3430822005420923,-0.3889893807142973
1761467273733555700,1.9785556640625,-0.9671253687560558,-0.3616273265361786,-0.4137047197759151
1761467273743538000,1.988537841796875,-0.6216741009950637,-0.4080412871867418,-0.4147346473455429
1761467273753521000,1.99852099609375,-0.3079372374027967,-0.4016904568552971,-0.29325346301198
1761467273763503900,2.00850390625,-0.2982476180374622,-0.4850324646696448,-0.3444149104505777
1761467273773486800,2.01848681640625,-0.2981453267067671,-0.5077911167055368,-0.520278842356801
1761467273783469800,2.0284697265625,-0.3424292895913124,-0.5361638092309237,-0.49279228501617905
1761467273793453000,2.038453125,-0.47109833960235115,-0.5268190577805042,-0.44678632064461704
1761467273803435800,2.048435791015625,-0.6925315980285406,-0.5798197033450007,-0.4998702605783939
1761467273813418800,2.058418701171875,-0.754163586077094,-0.6176923378825188,-0.5066431157141924
1761467273823402000,2.068402099609375,-0.6498766976505518,-0.7080252274975181,-0.5057528888761997
1761467273833385000,2.078385009765625,-0.3104612029224634,-0.8315975388914346,-0.4606991106629371
1761467273843368000,2.088367919921875,-0.04883972649276256,-0.8133937736809254,-0.4594458957314491
1761467273853350000,2.098349853515625,0.04161035976111889,-0.8746867390334606,-0.4330383657991886
1761467273863332900,2.108332763671875,0.05074292976558208,-0.8721385158553719,-0.41698739470839497
1761467273873315800,2.11831591796875,-0.097675945854187,-0.8534554426953196,-0.3456511742472648
1761467273883298800,2.128298828125,-0.3288824102759361,-0.8162108769282698,-0.22635434821546077
1761467273893282000,2.138281982421875,-0.5794681134283542,-0.763386172452569,-0.08496317927539349
1761467273903264800,2.1482646484375,-0.7745598928958177,-0.7212377602919936,0.009400865551829337
1761467273913247500,2.15824755859375,-0.7791215017229318,-0.7793015344649553,0.09862287131547927
1761467273923230700,2.168230712890625,-0.826904412639141,-0.7140647999227047,0.25087796409726143
1761467273933213400,2.17821337890625,-0.8845721732318401,-0.5168070745930076,0.12207505857348441
1761467273943196400,2.188196533203125,-1.0815104573488235,-0.5202148372098804,0.11400456484258174
1761467273953179600,2.1981796875,-0.9638356795608997,-0.201245333661139,0.25758593730330465
1761467273963162600,2.20816259765625,-0.7048895598202943,0.07127309209704398,0.4290577717304229
1761467273973144600,2.21814453125,-0.4813736499011516,0.22617986843138932,0.5077782572239637
1761467273983127600,2.22812744140625,-0.6386462785840034,0.18968465972691773,0.53262686727643
1761467273993110800,2.23811083984375,-0.6334855348199605,-0.12521247981637715,0.5839081417024136
1761467274003093500,2.248093505859375,-0.5390267974466085,-0.34405922888070345,0.6834720932602882
1761467274013076500,2.258076416015625,-0.30220424670875073,-0.4976280346095562,0.8345470363467932
1761467274023059700,2.268059814453125,0.10172668254971504,-0.6876233677208423,0.7728291235804557
1761467274033042700,2.278042724609375,0.35408582511544223,-0.8049991625621914,0.6045978785097599
1761467274043025400,2.288025390625,0.45867783396840095,-0.8708855931848287,0.3594745324164629
1761467274053008600,2.298008544921875,0.6564438010811805,-0.8407347850710153,0.09653086747229099
1761467274062991600,2.30799169921875,0.8931927020609378,-0.7490279767543077,-0.10327098938226699
1761467274072974600,2.317974609375,1.2146961080014704,-0.7469269128218293,-0.3969873937308788
1761467274082957600,2.32795751953125,1.331951783594489,-0.24586627341508863,-0.6731897686988115
1761467274092939500,2.337939453125,1.6271762544184922,0.07510755569338798,-0.603935615208745
1761467274102922800,2.3479228515625,1.7875754906892776,0.10758592997193336,-0.8858645511299371
1761467274112905500,2.357905517578125,1.577936714953184,0.6472361200138926,-0.8638619781583547
1761467274122888400,2.367888427734375,1.2793898217082023,1.015704983007908,-0.649445320495963
1761467274132871700,2.37787158203125,0.8424515258610248,1.3658920471191405,-0.46211131554841994
1761467274142854700,2.387854736328125,0.44162440783679485,1.6281909844189881,-0.19646482138633728
1761467274152837600,2.397837646484375,-0.04339344378560781,1.732445139619708,0.0688935034841299
1761467274162820600,2.407820556640625,-0.2610539056748152,1.7944141045376658,0.44065176341235635
1761467274172803600,2.417803466796875,-0.2278688444316387,1.712064322631061,0.7018161437243223
1761467274182786600,2.42778662109375,-0.3480611579984426,1.5362868999645114,0.820908387094736
1761467274192769500,2.43776953125,-0.5693003551572561,1.2276339155077933,0.9960638784706592
1761467274202752500,2.44775244140625,-0.5971738659888506,0.8406956221044063,1.044270567756891
1761467274212734700,2.457734619140625,-0.4570572470292449,0.6913777518182993,0.9105115011304616
1761467274222717400,2.467717529296875,-0.3627525311738252,0.4437523597761988,0.7514373759835958
1761467274232700700,2.47770068359375,-0.2529869190752506,0.23771949957758187,0.607076251322031
1761467274242683600,2.48768359375,-0.08402794425189494,0.015995441511273384,0.3671060502082109
1761467274252666400,2.497666259765625,0.03425415177941322,-0.17275895162820815,0.08974573737680912
1761467274262649600,2.507649658203125,0.10223697015941142,-0.27578298051208255,-0.13892799369692801
1761467274272632600,2.517632568359375,0.11456219872534275,-0.3984238562747836,-0.31758009501695633
1761467274282615600,2.527615478515625,0.22951018189787864,-0.4602937447324395,-0.4483732975751161
1761467274292598500,2.5375986328125,0.4627133730947971,-0.40419074923843146,-0.5164999083399773
1761467274302581500,2.54758154296875,0.6448398725271225,-0.4079872189119458,-0.5340016627609729
1761467274312564700,2.557564697265625,0.6693699181497097,-0.4011804615065455,-0.5709726722836495
1761467274322547700,2.567547607421875,0.5358604423701763,-0.353026963712275,-0.6434107165068388
1761467274332529700,2.57752978515625,0.3577852641552686,-0.2967699467003345,-0.693220749336481
1761467274342512600,2.5875126953125,0.050935821989178655,-0.19434505275338887,-0.7100853748977184
1761467274352495600,2.59749560546875,-0.20912965717017648,-0.17081074016988276,-0.7499164500266313
1761467274362478600,2.607478515625,-0.32604660232812166,-0.11413199061453341,-0.7877882077813148
1761467274372461600,2.617461669921875,-0.47589667979478834,-0.01927431705147028,-0.8087064926475286
1761467274382444500,2.627444580078125,-0.5713754078656434,0.07566343601047992,-0.7320090374141931
1761467274392427800,2.637427734375,-0.6061255264684557,0.21541794365942477,-0.5889174942970276
1761467274402410500,2.647410400390625,-0.6832932295620441,0.19028584049046038,-0.5346230095297098
1761467274412393500,2.6573935546875,-0.7585100908488035,0.1269943947970867,-0.4943108728855848
1761467274422376700,2.667376708984375,-0.7722364183843136,0.061144789053499696,-0.4469517403393984
1761467274432359700,2.677359619140625,-0.7279758363753557,-0.04285217651575803,-0.3577338262289762
1761467274442342400,2.68734228515625,-0.6616808249518275,-0.15396628061383963,-0.33376375257670876
1761467274452324600,2.69732470703125,-0.6010790567338467,-0.2730363121524453,-0.38461891054511066
1761467274462307600,2.7073076171875,-0.615524638454616,-0.4304781599223613,-0.4363981976211071
1761467274472290600,2.71729052734375,-0.6796829301103949,-0.564158608354628,-0.515888498443365
1761467274482273500,2.7272734375,-0.6966209131687879,-0.6945137117564678,-0.6275070449322462
1761467274492256800,2.7372568359375,-0.6112193424761295,-0.8464020170524715,-0.7499258023768663
1761467274502239500,2.747239501953125,-0.4871352821677923,-0.8613710381254553,-0.8777584015637636
1761467274512222500,2.757222412109375,-0.41920360945314167,-0.847988409461081,-1.0534545756876468
1761467274522205700,2.767205810546875,-0.5128419703543186,-0.835075151874125,-1.199616612291336
1761467274532188700,2.777188720703125,-0.5968956335693597,-0.7811264118045568,-1.2969091117858886
1761467274542171400,2.78717138671875,-0.686400547927618,-0.7387339617550372,-1.3225935881406068
1761467274552154600,2.797154541015625,-0.7929629800707101,-0.7530132469981908,-1.2782757229864596
1761467274562137600,2.8071376953125,-0.7390852594107389,-1.6806404258415102,-1.478045431137085
1761467274572119600,2.81711962890625,-0.9018363195046782,-0.9378159799024463,-2.034648801806569
1761467274582102500,2.8271025390625,-0.4076166320338845,0.32248101880103347,-0.9041922349810599
1761467274592085500,2.83708544921875,-0.4735428101450205,0.5290092613011598,-0.41819618597626684
1761467274602068700,2.84706884765625,-0.7404150467097759,0.08181582116037607,-0.6701052466869354
1761467274612051500,2.857051513671875,-0.9848235225319861,0.1645543101236224,-1.1435872665554285
1761467274622034400,2.867034423828125,-0.8203679966077208,0.6322635918095707,-1.1587842511653899
1761467274632017700,2.877017578125,-0.5767085855871439,0.5418000615522265,-0.9251666339486837
1761467274642000600,2.887000732421875,-0.5634829010501503,0.5349070871680974,-0.7230909869432449
1761467274651983600,2.896983642578125,-0.7283990302234887,0.39150662423223254,-0.4665753092199564
1761467274661966600,2.906966552734375,-0.9411959777295589,0.20511662213653326,-0.16489011794924735
1761467274671949600,2.916949462890625,-1.1584624718651175,0.021595453475415704,0.07022445982694625
1761467274681932800,2.926932861328125,-1.1678785349860787,-0.22651684530079363,0.1761065084904432
1761467274691915500,2.93691552734375,-1.3489657544985412,-1.718494940200448,-0.05775894600749015
1761467274701897700,2.946897705078125,-2.0326748713850975,-1.851281654663384,-1.0003326418310403
1761467274711880700,2.956880615234375,-1.9995166981488466,-0.9276856310322881,-0.4803507365942001
1761467274721863400,2.966863525390625,-1.318488490909338,-0.7987184748575091,0.047694063588976855
1761467274731846700,2.9768466796875,-1.09035719614923,-0.5794710360378027,0.09315233094990252
1761467274741829600,2.98682958984375,-1.2691051590591669,-0.426819637414813,0.0607762480020523
1761467274751812600,2.9968125,-0.9005296208202839,-0.29814065053164956,0.37090778057873247
1761467274761795600,3.006795654296875,-0.6788549548536539,0.4745160390913486,0.90973116440773
1761467274771778600,3.016778564453125,0.09387275417894124,0.8332067276537418,1.4293506660729647
1761467274781761500,3.026761474609375,0.6068012337729335,1.1941001869574188,1.7618904298126696
1761467274791744500,3.03674462890625,-0.05059884511977434,0.8088134601533412,1.5313205097287892
1761467274801727500,3.0467275390625,-1.188333293993771,0.15847820508033036,0.825828307840228
1761467274811710700,3.056710693359375,-1.8866127880245447,0.1410834181651473,0.7062894897460937
1761467274821692400,3.0666923828125,-1.59589527323097,0.2988631195873022,1.0091524926245212
1761467274831675600,3.076675537109375,-0.8977320990562438,0.5301008559301496,1.0189601854115724
1761467274841658600,3.08665869140625,-0.4054921872258186,0.5958961011379957,0.6712789666414261
1761467274851641600,3.0966416015625,-0.1564402695119381,0.6326005686789751,0.2809609676718712
1761467274861624600,3.10662451171875,0.0309568637996912,0.6754273184925318,0.04897416652739048
1761467274871607600,3.116607666015625,0.21127076085209845,0.6385206063777208,-0.1698410183548927
1761467274881590500,3.126590576171875,0.4529366599678993,0.5578413880318402,-0.4447247119396925
1761467274891573800,3.13657373046875,0.7767138560593128,0.5342182281211019,-0.6309492943406104
1761467274901556500,3.146556396484375,1.1857599363744258,0.49248161163181065,-0.7235819853305816
1761467274911540000,3.1565400390625,1.51378836016953,0.3379115199059248,-0.7159902150273323
1761467274921523200,3.166523193359375,1.5537000993192196,0.02266629757732153,-0.6458885047972202
1761467274931506200,3.176506103515625,1.6200690527617931,-0.20992811407148837,-0.5850052892893552
1761467274941489000,3.186489013671875,1.769297491198778,-0.43902328542768954,-0.4334223966807127
1761467274951471000,3.19647119140625,1.8655875356525182,-0.5755959481701255,-0.17653554755747317
1761467274961454000,3.2064541015625,1.8928478830218314,-0.6667585666075349,0.1384358262658119
1761467274971437000,3.21643701171875,1.8157272339403627,-0.8180439375743269,0.44158816747963425
1761467274981420000,3.226419921875,1.6419178964763879,-0.8873129963725804,0.708618224954605
1761467274991403000,3.236403076171875,1.467843770596385,-0.8799605877831578,0.9388444461673497
1761467275001386200,3.24638623046875,1.2581909663349389,-0.7976604902371763,1.1845078904867172
1761467275011369000,3.256368896484375,1.0124544567793607,-0.7186465747550129,1.3828443509638308
1761467275021352000,3.26635205078125,0.7516811216115951,-0.6296785437524318,1.4410083706408738
1761467275031335200,3.276335205078125,0.5035112474292517,-0.48750996069908137,1.4717986457020042
1761467275041318100,3.286318115234375,0.28647826978862284,-0.36116730780899525,1.4788175845533609
1761467275051301000,3.296301025390625,0.11367314093112944,-0.3266591812685132,1.334354168561101
1761467275061284000,3.3062841796875,0.08901625405848025,-0.26710195366740225,1.0972615687102079
1761467275071266000,3.31626611328125,0.06350012000799178,-0.2125847660601139,0.8671201031714677
1761467275081249000,3.3262490234375,0.08225508936047554,-0.15034341394156217,0.6863304053008557
1761467275091232000,3.33623193359375,0.12371990317106246,-0.12041881579905747,0.5288210452526807
1761467275101215200,3.34621533203125,0.24313889427781105,-0.11917524547874926,0.3076473145455122
1761467275111198200,3.3561982421875,0.4315080874919891,-0.23424831633567808,0.17836159394085407
1761467275121181000,3.366180908203125,0.5495820937305689,-0.5426026101067661,-0.027868250134587286
1761467275131164200,3.3761640625,0.2525081956475973,-1.377595928916335,-0.33425533548593517
1761467275141147100,3.386147216796875,-0.2787625808447599,-1.7599349118307233,-0.7916530665159225
1761467275151130000,3.396130126953125,0.6084118838399648,-0.5913312774404883,-0.34849136610925197
1761467275161113000,3.406113037109375,1.445754103863239,-0.8677484642028808,0.22111235590875147
1761467275171096000,3.416095947265625,1.0976350781977176,-0.7390951962828636,0.10308686498701572
1761467275181079000,3.4260791015625,0.7828180181533098,-0.5322258852601051,0.26030922478735447
1761467275191062000,3.43606201171875,0.6397498559117317,-0.8596063665404915,0.32432313953638076
1761467275201044000,3.4460439453125,0.024427169770002363,-1.3227177990421652,-0.10876841775476932
1761467275211027200,3.456027099609375,-0.08238602226376533,-1.2664932229951023,-0.28997838686406613
1761467275221010000,3.466010009765625,0.17852409102618694,-1.2243310745701192,-0.24369009841978548
1761467275230993200,3.4759931640625,0.17512042006254194,-1.1277657203063367,-0.25496026497483254
1761467275240976100,3.48597607421875,0.06933131037950516,-1.015348716916144,-0.2416197218865156
1761467275250959000,3.495958984375,-0.10776362462639807,-0.9233952403619885,-0.18850071063935755
1761467275260942000,3.505942138671875,-0.10266834731400012,-0.9376721875175833,-0.2208101580917835
1761467275270925000,3.515925048828125,0.028867782565951346,-0.9944736866697669,-0.2425093642026186
1761467275280908000,3.525907958984375,0.052904199452698225,-1.0104314265191554,-0.22681378242075442
1761467275290891300,3.535891357421875,-0.005175649072229862,-1.0198162177190184,-0.17783493971824646
1761467275300874000,3.5458740234375,-0.07396715348660945,-1.064892500025034,-0.1722603544563055
1761467275310857000,3.55585693359375,-0.25265257255434986,-1.1800889050006866,-0.1814490385621786
1761467275320840200,3.565840087890625,-0.49932899330854413,-1.225953999596834,-0.1201537351220846
1761467275330823200,3.5758232421875,-0.651077305611968,-1.3131328090950847,-0.06900047098994255
1761467275340805000,3.58580517578125,-0.7826005760103464,-1.3770225129425524,-0.06461889490485191
1761467275350788000,3.5957880859375,-0.8055056507796049,-1.3988070592492818,-0.07738602201938628
1761467275360771000,3.60577099609375,-0.8301227901637553,-1.4279188797041773,-0.08852993184626103
1761467275370754000,3.615754150390625,-0.9309984088420867,-1.445614695392549,-0.08127250806391238
1761467275380737000,3.625737060546875,-1.0249334146022797,-1.4652633987143635,-0.06866787803471087
1761467275390720300,3.63572021484375,-0.989782898505032,-1.4201035297781228,-0.00527940170764923
1761467275400703200,3.645703125,-0.8926189938262105,-1.3625713782638311,0.1397474933862686
1761467275410686000,3.65568603515625,-0.7206178748279809,-1.373207923090458,0.20633739610314367
1761467275420669200,3.665669189453125,-0.5556035459771752,-1.4019953338965774,0.11754092227518557
1761467275430652200,3.675652099609375,-0.4719470653861761,-1.4298974863007663,0.06640460927784443
1761467275440635000,3.685634765625,-0.3519441369116306,-1.4135773428797722,0.029523616126179694
1761467275450618000,3.6956181640625,-0.3020043402224779,-1.4243044885993004,-0.06183715523183345
1761467275460600000,3.70560009765625,-0.19796148968487975,-1.4341229950413108,-0.12026654784679412
1761467275470583300,3.715583251953125,-0.09587035773694515,-1.335678110641241,0.009067688074707984
1761467275480566000,3.72556591796875,0.04093319115191698,-1.1172571857735514,0.2839665792286396
1761467275490549000,3.735549072265625,0.20926059007346628,-0.8214160443559289,0.5542401486694812
1761467275500532200,3.7455322265625,0.25952304284572597,-0.4230801586255431,0.7957371209591627
1761467275510515000,3.755514892578125,0.18444120611548423,0.07598141591846942,1.091412842682004
1761467275520498000,3.765497802734375,0.008608838391304016,0.5243865699365735,1.36132400855124
1761467275530481200,3.775481201171875,-0.12527297783195973,0.763628456775844,1.5533844574987887
1761467275540464000,3.785464111328125,-0.33437954638749356,0.8326423717692494,1.702797020331025
1761467275550447000,3.795447021484375,-0.6781655112847685,0.8113786344662308,1.7322469866991042
1761467275560430000,3.80543017578125,-0.8533829619809985,0.7955348763853312,1.6274410428345203
1761467275570413000,3.8154130859375,-0.8166109821617603,0.7748164980053901,1.4258189848154783
1761467275580396300,3.825396240234375,-0.6041425359576941,0.6972387528061866,1.231384792473912
1761467275590379000,3.83537890625,-0.269500831502676,0.4908557639956474,0.9526257187604904
1761467275600361200,3.845361328125,0.0174281046628952,0.29333997225165365,0.6541033754348754
1761467275610344200,3.85534423828125,0.36396950574815273,0.12591098347455262,0.4142074086010456
1761467275620327000,3.865326904296875,0.8122749987840652,0.030367957995831963,0.2764192325890064
1761467275630310100,3.87531005859375,1.249294543173909,-0.01267594169974327,0.20105974796116352
1761467275640293000,3.885293212890625,1.62102591509521,-0.008286766830086707,0.13725450752675533
1761467275650276000,3.895276123046875,1.7868319788455962,0.07781243073791265,0.009798924958705902
1761467275660259000,3.905259033203125,1.768352319303155,0.2304214515239,-0.18095044139027594
1761467275670242000,3.915241943359375,1.658417195856571,0.4677820546612143,-0.4139075488716364
1761467275680225000,3.92522509765625,1.3129554067015647,0.6407412050366401,-0.6849947727829218
1761467275690208300,3.935208251953125,0.7694739679336547,0.9181041482165455,-0.8281628882676363
1761467275700191000,3.94519091796875,1.04856212747097,1.3758151829794047,-0.5109954657047987
1761467275710174200,3.95517431640625,1.1587708071619272,1.2280471724838018,-0.565249618461728
1761467275720157200,3.9651572265625,0.7039747830629348,1.3923904702052474,-0.6214046364039182
1761467275730139100,3.97513916015625,0.301371887537837,1.3030232107520103,-0.4530722690463066
1761467275740122000,3.9851220703125,0.05588496882915497,1.0802724399864674,-0.23915128594636917
1761467275750105000,3.99510498046875,-0.1488455765992403,0.826145410965383,-0.03240472452044487
1761467275760087000,4.005087158203125,-0.29903906067609787,0.6326692500010133,0.08832125753164291
1761467275770070000,4.015070068359375,-0.3899322145223617,0.47156946424543855,0.14996318245232104
1761467275780052200,4.02505224609375,-0.32930794221162796,0.2986611672744155,0.19432780935764313
1761467275790035000,4.035034912109375,-0.1828384470939636,0.2681602305486798,0.21947452557384967
1761467275800018200,4.04501806640625,-0.163363346773386,0.20963351503908634,0.18349837230741978
1761467275810001200,4.055001220703125,0.004594342052936554,0.19336510180532931,0.11515724200904369
1761467275819984100,4.064984130859375,0.2564355982244015,0.2286991577759385,-0.015970891591906546
1761467275829967000,4.074967041015625,0.4870435122311115,0.32163696919232604,-0.06828034002184867
1761467275839950000,4.0849501953125,0.6744423991084099,0.40362463978826996,-0.09328910907208919
1761467275849933000,4.09493310546875,0.7306026777476072,0.47606677566468714,-0.17420739687085152
1761467275859916000,4.104916015625,0.7060878296941518,0.5078977919504046,-0.2312450428664684
1761467275869899000,4.11489892578125,0.610520838817954,0.5329188359603285,-0.2755962257683277
1761467275879882000,4.124882080078125,0.39969957529902456,0.5543795571401715,-0.3104647100538015
1761467275889865200,4.134865234375,0.1697632769435644,0.4966971835002303,-0.3046440410763025
1761467275899848000,4.144847900390625,0.08417290568053722,0.3718883160486817,-0.3570861759752035
1761467275909830100,4.154830078125,0.12610709056854247,0.26710458401590587,-0.43202538936436174
1761467275919813000,4.164813232421875,0.20345804127454756,0.15674948159158228,-0.4767956744611263
1761467275929796000,4.174796142578125,0.14959727174937723,0.0375315660148859,-0.5150000251710415
1761467275939779000,4.184779052734375,0.05662555806338787,-0.04572013316750526,-0.53348494541049
1761467275949762000,4.194761962890625,-0.035332010143995285,-0.12051292382329702,-0.5730383726418018
1761467275959745300,4.204745361328125,-0.10357377172112464,-0.21805472190380096,-0.6101122580170631
1761467275969728300,4.214728271484375,-0.0682616353213787,-0.3723275842487812,-0.6881044292360544
1761467275979711000,4.2247109375,0.03486205454468727,-0.46647564823776483,-0.7291425420671701
1761467275989694200,4.234694091796875,0.17478899615108967,-0.4452174638926983,-0.7050503033399581
1761467275999677200,4.24467724609375,0.17181904042959212,-0.503422984623909,-0.6810802296876907
1761467276009660000,4.254659912109375,0.055114568978548044,-0.5591609461978078,-0.7063420967161655
1761467276019643100,4.26464306640625,-0.11301087763011455,-0.5640229992762208,-0.6817401549011468
1761467276029626000,4.274626220703125,-0.2856535094022751,-0.5302820577159524,-0.6029957040101289
1761467276039609000,4.284609130859375,-0.39370997949540615,-0.47762657232731576,-0.5633966840714216
1761467276049592000,4.294592041015625,-0.4368494485199451,-0.49017508825510736,-0.604463438475132
1761467276059575000,4.304574951171875,-0.3383358827978372,-0.4901797644302249,-0.6072662209361791
1761467276069557200,4.31455712890625,-0.28830840782523154,-0.4102876048088073,-0.6104097796589136
1761467276079540000,4.3245400390625,-0.3254179490357637,-0.3860650177001953,-0.612876462033391
1761467276089523200,4.334523193359375,-0.45590018594861026,-0.3473953875660896,-0.6523012944489717
1761467276099506200,4.344506103515625,-0.5479027623414993,-0.3326709889039397,-0.692370269986987
1761467276109489200,4.3544892578125,-0.583901711961627,-0.35268209579735993,-0.74296239310503
1761467276119472000,4.36447216796875,-0.6348433791697025,-0.41818537232130765,-0.8082815452337264
1761467276129455000,4.374455078125,-0.7054401794403791,-0.47119215536564585,-0.8633703952491283
1761467276139438000,4.38443798828125,-0.8642284733831882,-0.5167179350048303,-0.8882909014940261
1761467276149421300,4.39442138671875,-0.9874047711968421,-0.5057578573122621,-0.8848317009508609
1761467276159404000,4.404404052734375,-0.7970826903492212,-0.3353381622865796,-0.7527829453736543
1761467276169387000,4.414386962890625,-0.5129483533382415,-0.31258330964297054,-0.7780939122408628
1761467276179370200,4.424370361328125,-0.5311550411581992,-0.2819368269667029,-1.002917982149124
1761467276189353200,4.434353271484375,-0.45053369047939773,-0.19199819736629722,-1.0833183835536242
1761467276199336000,4.4443359375,-0.2810603363931179,-0.1126581186696887,-1.0375964968204499
1761467276209319200,4.454319091796875,-0.11449264062047004,-0.08714490722864866,-0.9397545467495918
1761467276219301000,4.464301025390625,-0.08171732922196388,-0.1354708389803767,-0.8441752809137105
1761467276229284000,4.4742841796875,-0.12096271341741084,-0.13445289410948752,-0.6807149035066365
1761467276239267000,4.48426708984375,-0.1873392656445503,-0.13090864563137292,-0.41666590766906736
1761467276249250000,4.49425,-0.28176410074830055,-0.09022709115296602,-0.1170218668371439
1761467276259233300,4.5042333984375,-0.4216980566173792,-0.06839373726844787,0.16584698028266429
1761467276269216000,4.514216064453125,-0.6001052432656288,-0.061657999272644516,0.3769207572579384
1761467276279199200,4.52419921875,-0.6905488997787237,-0.09762012401372194,0.536791585740447
1761467276289182200,4.53418212890625,-0.7716577417135239,-0.22764088089466095,0.6343395213007926
1761467276299165000,4.5441650390625,-0.8719757265090942,-0.41031653864234685,0.5814776996850967
1761467276309148200,4.554148193359375,-0.9103332219541073,-0.4892532972350716,0.4919926590710878
1761467276319131100,4.564131103515625,-0.9376730643004179,-0.5376239449113607,0.33751112241148945
1761467276329114000,4.574114013671875,-0.9277531433105468,-0.6097787882789969,0.10262275460660457
1761467276339097000,4.58409716796875,-0.9338520447075367,-0.663790948973596,-0.14460370124578475
1761467276349080000,4.594080078125,-1.0137158550173044,-0.6320026027858257,-0.26907997574210163
1761467276359063000,4.60406298828125,-0.9943851316034793,-0.5510030664443969,-0.30731413706839084
1761467276369046300,4.61404638671875,-1.004997711032629,-0.537656970398128,-0.32210370992124077
1761467276379028000,4.624028076171875,-1.0293120680779217,-0.5284431518509983,-0.23899814121127128
1761467276389011200,4.63401123046875,-0.90434128806293,-0.514816193036735,-0.07619768901765346
1761467276398994200,4.643994140625,-0.6729308255016804,-0.45164895824491974,0.009283961173892021
1761467276408977200,4.65397705078125,-0.47695524893701075,-0.35092765334546566,0.0077437459945678706
1761467276418960100,4.663960205078125,-0.5793021092116832,-0.19371230780780313,0.10608838489055633
1761467276428943000,4.673943115234375,-0.8065823401004075,0.05092033215910196,0.22786124564707277
1761467276438926300,4.68392626953125,-0.8873013059347867,0.2707835647895932,0.31918226951658724
1761467276448909000,4.693908935546875,-0.7502636560291052,0.4939537300109863,0.3715606915295124
1761467276458892000,4.70389208984375,-0.6861772605657577,0.5832511390984058,0.2919552398949861
1761467276468875300,4.713875244140625,-0.7445721663892269,0.6237316180467605,0.15191957721710203
1761467276478858200,4.723858154296875,-0.7406295662432909,0.6240867150947451,0.03103343616724014
1761467276488841000,4.733841064453125,-0.6513882712572813,0.5844263203576207,-0.07977847011387347
1761467276498824200,4.74382421875,-0.3861041806668043,0.4936635148927569,-0.16547697792649269
1761467276508807200,4.75380712890625,-0.034354689544439314,0.38726650244444605,-0.25518939755558967
1761467276518790000,4.763789794921875,0.4424631967484951,0.264107155765593,-0.3319102336645126
1761467276528773000,4.773773193359375,0.9255459886550903,0.1703545208349824,-0.3178337775170803
1761467276538756000,4.783756103515625,1.3890198247283696,0.15650339787602424,-0.32974282649755476
1761467276548739000,4.793739013671875,1.756048718047142,0.15469430262744427,-0.33647885675430295
1761467276558721000,4.803720947265625,1.9486743996620177,0.13109043193906544,-0.26780279541313645
1761467276568704300,4.813704345703125,2.090171951586008,0.0799324916318059,-0.14774024570584296
1761467276578687200,4.823687255859375,2.1240695450127123,0.028852000474929806,-0.012085574591159819
1761467276588670000,4.833669921875,2.041162713745236,-0.0018418284744024275,0.16397008049488065
1761467276598653200,4.843653076171875,1.9421786079019308,-0.019716215600073337,0.4022814084857702
1761467276608636200,4.85363623046875,1.8325798768028616,0.0006716156512498855,0.5562351218789816
1761467276618619100,4.863619140625,1.632264517468214,0.022074761424958705,0.7372270643234252
1761467276628602000,4.87360205078125,1.4599281751662492,-0.004221417087316512,0.8687053265362977
1761467276638585000,4.883585205078125,1.2277432211011647,-0.045325288631021976,0.944075332558155
1761467276648568000,4.893568115234375,0.9316331996142864,-0.007092588609457016,1.1133669003367423
1761467276658551300,4.90355126953125,0.7314093179553747,0.040626609420776366,1.2340420289844274
1761467276668534000,4.913533935546875,0.3891366802304983,0.03909808467924595,1.1922118889927864
1761467276678517000,4.92351708984375,0.10881167237460612,0.04973550628870725,1.1003607037693262
1761467276688500200,4.933500244140625,-0.07785539309680461,0.03594283551871776,1.113513030809164
1761467276698483200,4.943483154296875,-0.205007024282217,0.05912585044652223,1.107988714429736
1761467276708466200,4.953466064453125,-0.2502802904650569,-0.0465048538044095,0.9845528888970613
1761467276718449200,4.96344921875,-0.2244096438884735,-0.15467062949091195,0.8739151701390743
1761467276728432000,4.97343212890625,-0.06662088237702846,-0.20645254691541193,0.725481681472063
1761467276738414000,4.9834140625,0.24252689985930917,-0.18220219501703977,0.5452180533021688
1761467276748397000,4.99339697265625,0.5636918676257133,-0.34140286915302276,0.4617196858823299
1761467276758380300,5.00338037109375,0.6244792215436696,-0.328826588435471,0.20451251876354215
1761467276768363300,5.01336328125,0.4776686579033732,-0.45870355293154713,0.07715572039484977
1761467276778346000,5.023345947265625,0.3497659160897136,-0.46762890992611644,0.04913783265650272
1761467276788329200,5.0333291015625,0.47250323796421284,-0.5071551568895578,-0.018840894070267677
1761467276798312200,5.043312255859375,0.5823951067909598,-0.5419537908092141,-0.21006839932501314
1761467276808295000,5.053294921875,0.5980018412455916,-0.7080904016882181,-0.39548692604005337
1761467276818278100,5.063278076171875,0.4763210426867008,-0.7884469639509916,-0.5547621267169713
1761467276828261000,5.07326123046875,0.46356969766318795,-0.8471315003708004,-0.6369827292859553
1761467276838244000,5.083244140625,0.522753708037734,-0.8656368788763881,-0.6994008992761374
1761467276848227000,5.09322705078125,0.511420120857656,-0.9093588239639997,-0.8669979380965233
1761467276858210000,5.1032099609375,0.5748877999007701,-0.9516583350330591,-0.9274182122677564
1761467276868193000,5.113193115234375,0.6325158130049705,-0.9354407752037048,-0.6630220104277134
1761467276878176300,5.12317626953125,0.5191679585054516,-0.6610486645281315,-0.685509152045846
1761467276888159000,5.133158935546875,0.42947161322832106,-0.6206117324605583,-0.6192565184593201
1761467276898142200,5.14314208984375,0.044210313126444814,-0.6485942566245794,-0.4002940340608358
1761467276908125200,5.153125244140625,-0.23188509433567522,-0.6562360035493969,-0.2739174789011478
1761467276918107400,5.163107421875,-0.27117431767284866,-0.8885340626001358,-0.1801765344083309
1761467276928089300,5.17308935546875,-0.5059738381505012,-0.7872682755604385,-0.10798282033503055
1761467276938072300,5.183072265625,-0.39778760419785975,-0.8188844800516962,0.024564532414078712
1761467276948055300,5.19305517578125,-0.5283686253100633,-0.8188003088995813,0.09246142607629299
1761467276958038300,5.203038330078125,-0.6243941736087203,-0.7632581621587275,0.0021545476853847504
1761467276968021500,5.213021484375,-0.7439823838025331,-0.6972469361126422,-0.04634849419891834
1761467276978004200,5.223004150390625,-0.9090279845744371,-0.6033195291370153,0.050208676758408545
1761467276987987200,5.2329873046875,-1.072436339533329,-0.6096183370202779,0.11699088717699051
1761467276997970400,5.242970458984375,-1.043092463888228,-0.6439551986470818,0.16416121915280818
1761467277007953400,5.252953369140625,-1.0075076480269431,-0.6170908648580312,0.25326398245096204
1761467277017936100,5.26293603515625,-1.1283598868072031,-0.7416936883434653,0.35838673717975617
1761467277027919400,5.27291943359375,-1.202467910069227,-0.9487614445477723,0.44443011290729045
1761467277037902300,5.28290234375,-1.0228577773720025,-1.0378332281857727,0.49222529878318305
1761467277047885300,5.29288525390625,-0.7759259205520153,-1.0476692702844739,0.5205220034629107
1761467277057868300,5.302868408203125,-0.6873959887057542,-1.120937627851963,0.5239671754807234
1761467277067851300,5.312851318359375,-0.7200882979959249,-1.1256164333179592,0.4777864390641451
1761467277077834200,5.322834228515625,-0.8346756311625242,-1.1874635254219175,0.4980249249726534
1761467277087817500,5.3328173828125,-0.9674556236237287,-1.280921853581071,0.5108212781816721
1761467277097800200,5.34280029296875,-0.9403530971646308,-1.3777642712205647,0.48806934814751146
1761467277107783400,5.352783447265625,-0.749627988474071,-1.4273741053029894,0.4150041119366884
1761467277117766400,5.362766357421875,-0.4543137935400009,-1.3874611971095203,0.3781476687043905
1761467277127749400,5.372749267578125,-0.1777671351790428,-1.288832772836089,0.3493646418124437
1761467277137731300,5.3827314453125,0.07451514275819063,-1.0468138224989174,0.5051642753332853
1761467277147714300,5.39271435546875,0.3704746498584747,-0.5811906994372605,0.8201122682809829
1761467277157697500,5.402697509765625,0.6113263099819422,-0.1891296561926603,0.9613549686610698
1761467277167680300,5.41268017578125,0.5821288570702076,0.051231882326304906,0.8813888670206069
1761467277177663200,5.422663330078125,0.3428834630995989,0.13263093937933443,0.71161156155169
1761467277187646500,5.432646484375,0.1522878260076046,0.26963556379824877,0.5852946276247502
1761467277197629400,5.44262939453125,0.17310206597745417,0.38726007270365953,0.3863093478500843
1761467277207612200,5.452612060546875,0.4228106940343976,0.5292354712724685,0.09194938490092754
1761467277217595400,5.462595458984375,0.7305883569613099,0.6390200803324579,-0.2316238130509853
1761467277227578400,5.472578369140625,0.8212336735263467,0.8112105844229459,-0.5785223570108413
1761467277237561300,5.482561279296875,0.7624354475989937,0.9082967476904392,-0.8006447667449712
1761467277247544300,5.49254443359375,0.7821867345124482,1.0529966027870774,-0.9314292014747857
1761467277257527300,5.50252734375,0.910072525191307,1.2414222023636101,-0.8769108448237181
1761467277267510500,5.512510498046875,1.1152265567287802,1.2293833895236252,-0.42000352765917776
1761467277277493200,5.5224931640625,1.2650868633285164,1.2375801399827002,0.049903556331992144
1761467277287476200,5.532476318359375,1.1574825209170578,1.261227265290916,0.3084516166657209
1761467277297459500,5.54245947265625,1.094937801937759,1.2850801423043012,0.585076600959897
1761467277307442400,5.5524423828125,1.0637380692929028,1.285738898473978,0.8268143962681292
1761467277317425200,5.562425048828125,0.9765046069979667,1.2888184520497918,0.9924690688490867
1761467277327408400,5.572408447265625,0.8396534195750951,1.279485391037166,1.1187047542333601
1761467277337390300,5.582390380859375,0.6856552825182676,1.1980141455307602,1.083342933472991
1761467277347373300,5.592373291015625,0.5861313707098365,1.1138608213335275,0.8768331034123897
1761467277357356300,5.602356201171875,0.5085819748222827,0.9596744682282209,0.6582675093770026
1761467277367339300,5.61233935546875,0.45619361593723295,0.8190735728830099,0.4196697656601667
1761467277377322500,5.622322509765625,0.4221861323952675,0.6510714603930712,0.111292383274436
1761467277387305200,5.63230517578125,0.4637795410215854,0.47754590830653904,-0.054849196040630335
1761467277397288400,5.642288330078125,0.49240883865654467,0.3178615423068404,-0.1891132895797491
1761467277407271400,5.652271484375,0.4670581243008375,0.2217868941694498,-0.4185936608612537
1761467277417254400,5.66225439453125,0.3933364700078964,0.2608522456228733,-0.5437140784800052
1761467277427237400,5.6722373046875,0.18122925833165646,0.2816208928853273,-0.5401256985992193
1761467277437220400,5.682220458984375,-0.029462825849652288,0.3285489405378699,-0.5520838474184274
1761467277447203300,5.692203369140625,-0.13309943367391824,0.3220443809494376,-0.5125789355039596
1761467277457186300,5.702186279296875,-0.12520371198803185,0.28595833756774663,-0.389547599118948
1761467277467169300,5.712169189453125,0.01796148088723421,0.2410992051437497,-0.2528811206132173
1761467277477152300,5.72215234375,0.07276713004708289,0.16886369775533674,-0.11598843213617802
1761467277487135500,5.732135498046875,0.044887773996591565,0.20391835226267574,0.004455810365080833
1761467277497118200,5.7421181640625,0.0354752180069685,0.24559067134410142,0.11716858183145522
1761467277507101200,5.75210107421875,0.09806260708421469,0.22402736657261846,0.14553542913794518
1761467277517084400,5.76208447265625,0.250142051038146,0.31734131782501934,0.08213818498253822
1761467277527067400,5.7720673828125,0.34762335110306736,0.44893385406732556,0.0053916299104690545
1761467277537050400,5.78205029296875,0.2966495351910591,0.47442426915466784,-0.13490531405210493
1761467277547032300,5.7920322265625,0.14921967060863972,0.394611019988358,-0.35441724902689453
1761467277557015300,5.802015380859375,0.09173895702064037,0.296558349776268,-0.6041939738839864
1761467277566998300,5.811998291015625,0.03672492580711841,0.2310363685518503,-0.7968728469908237
1761467277576981200,5.821981201171875,-0.050612581384181975,0.0906327493444085,-0.9690513683825731
1761467277586964500,5.831964599609375,-0.10761574058830738,-0.027652561557292937,-1.1033534558445215
1761467277596947500,5.841947509765625,-0.06697568716406822,-0.00035918870121240615,-1.2140484577476978
1761467277606930200,5.85193017578125,0.07479542100429534,0.07793254998624324,-1.2695260148197411
1761467277616913400,5.861913330078125,0.1659773286640644,0.11351678132563829,-1.3035188853144646
1761467277626896400,5.871896484375,0.24075346044600007,0.11437573624253272,-1.2492735003858804
1761467277636879400,5.88187939453125,0.1453121417760849,-0.10208908612132071,-1.0605565166473387
1761467277646862300,5.8918623046875,0.03728548229932785,0.5453346654191613,-1.1786585799366236
1761467277656845300,5.90184521484375,-0.002638531810045242,0.43938101282417774,-1.1131617331534625
1761467277666828300,5.911828369140625,-0.2793459336906671,0.29193916554301974,-0.8526765672773122
1761467277676811300,5.921811279296875,-0.5803875663608312,0.09454729243963957,-0.7568892116487026
1761467277686794200,5.931794189453125,-0.41480946614742276,0.10779372750371694,-0.7394944247335196
1761467277696777200,5.941777099609375,-0.1735585775732994,-0.1137599424317479,-0.6029699850469827
1761467277706760400,5.951760498046875,-0.1896276688426733,-0.11301233893483877,-0.5492617757350206
1761467277716743200,5.9617431640625,-0.24148352828621863,-0.15507511863857507,-0.5660720407605171
1761467277726726400,5.971726318359375,-0.3910404680252075,-0.17184066773951054,-0.53941550450325
1761467277736709400,5.98170947265625,-0.48641865833103654,-0.17318682165145874,-0.46566170150637626
1761467277746692400,5.9916923828125,-0.5312760371893644,-0.16606617599129675,-0.39675650758445263
1761467277756675300,6.00167529296875,-0.47644963750243186,-0.1824514936029911,-0.35259646334052086
1761467277766657300,6.0116572265625,-0.3897755626559257,-0.20653145737051962,-0.3259054402917623
1761467277776640500,6.021640625,-0.27589550097584725,-0.21410832236558197,-0.31166648705899713
1761467277786623200,6.031623291015625,-0.16200491790175436,-0.20341361761093138,-0.3374900796234607
1761467277796606200,6.041606201171875,-0.13687515282034873,-0.1236161505356431,-0.397354473477602
1761467277806589400,6.05158935546875,-0.23864918164312837,-0.092129417642951,-0.4749515078991651
1761467277816572400,6.061572509765625,-0.39972646330595013,-0.04671294359713792,-0.4864245035499334
1761467277826555100,6.07155517578125,-0.4426233557462692,0.09111322633773088,-0.5312678538829088
1761467277836538400,6.081538330078125,-0.5241723426640034,0.1990554224014282,-0.5455833794832229
1761467277846521300,6.091521240234375,-0.5529617992967367,0.2232937916010618,-0.5046767840772867
1761467277856504300,6.10150439453125,-0.4912129068702459,0.18755407743901012,-0.47778234741091724
1761467277866487300,6.1114873046875,-0.428237102997303,0.17001316005140543,-0.47549043708145616
1761467277876470300,6.12147021484375,-0.4260340399950742,0.12523293808251618,-0.465753471443057
1761467277886453500,6.13145361328125,-0.49366731428503985,0.0568836244776845,-0.4299047439485788
1761467277896436200,6.141436279296875,-0.5329284805715083,0.020846096412837505,-0.35082243940532204
1761467277906419200,6.151419189453125,-0.5523427906155586,-0.06392915907502174,-0.3295493497520685
1761467277916403000,6.16140283203125,-0.591434445554018,-0.17090923210829495,-0.3650654842913151
1761467277926385700,6.1713857421875,-0.6348199982941151,-0.2903998271465301,-0.34641339079141614
1761467277936368600,6.18136865234375,-0.6625251668214798,-0.36206074951738115,-0.3389233272969723
1761467277946351900,6.191351806640625,-0.6939858884900808,-0.43207799633443356,-0.41846214343607424
1761467277956334600,6.20133447265625,-0.6595680705815553,-0.48498657970130443,-0.5506634592264891
1761467277966317600,6.211317626953125,-0.6030360360205174,-0.5364654225260019,-0.6749333974957465
1761467277976299800,6.2212998046875,-0.6712450643718242,-0.5613420896291732,-0.7552046195626259
1761467277986282800,6.23128271484375,-0.8106903599411248,-0.6045926178127526,-0.825045048508048
1761467277996265700,6.241265625,-0.8910136044561863,-0.6482020424365997,-0.8723825537443161
1761467278006248700,6.251248779296875,-0.7823024698466062,-0.6975590708017348,-0.89660163372159
1761467278016231700,6.261231689453125,-0.6049626201689243,-0.7446209739670157,-0.9376046752393246
1761467278026214700,6.271214599609375,-0.5264011246293783,-0.7997340816408395,-0.96107498267591
1761467278036197600,6.28119775390625,-0.6456155330747365,-0.8172948727726936,-0.9356728303939104
1761467278046180600,6.2911806640625,-0.8930220216691493,-0.8009171539455652,-0.8412345512866973
1761467278056163800,6.301163818359375,-1.1612228764891623,-0.7288447281643747,-0.7263385905623435
1761467278066146600,6.311146484375,-1.3962369165003299,-0.6727364719733595,-0.6464537374645472
1761467278076129800,6.3211298828125,-1.4873358220517634,-0.661271367368102,-0.6144406426101923
1761467278086112800,6.33111279296875,-1.4766811570465563,-0.6268006502285599,-0.5742512555629015
1761467278096095700,6.341095703125,-1.374464645153284,-0.5794920788258314,-0.40656653845906254
1761467278106078700,6.35107861328125,-1.178793604493141,-0.5497238402888178,-0.15895137555003166
1761467278116061700,6.361061767578125,-0.8628460791140794,-0.3253624194562435,0.06528700342476368
1761467278126044700,6.371044677734375,-0.4237678486287594,-0.23049363997727632,0.25434885507822036
1761467278136028000,6.38102783203125,-0.5408896687090397,-0.22870558751672504,0.10927695179879665
1761467278146010600,6.3910107421875,-0.44724224771857257,0.6545189704984427,0.11155483360290527
1761467278155993600,6.40099365234375,-0.5165460855692625,0.11030571032464503,0.23832886364758013
1761467278165976800,6.410976806640625,-1.102817449271679,0.5220511127263308,-0.1710831273704767
1761467278175959800,6.420959716796875,-0.2730658305078745,1.770899665698409,0.5693021087229252
1761467278185942500,6.430942626953125,0.7340116094082594,1.7530656105831264,1.4380419220507143
1761467278195924700,6.4409248046875,-0.02056348007917404,0.9370745138853788,0.8715291517853736
1761467278205907700,6.45090771484375,-0.7043500461161136,0.8198425114288925,0.2791308296352625
1761467278215890700,6.460890625,-0.410726580747962,0.7057493915200233,0.2443079380571842
1761467278225873700,6.470873779296875,-0.08202011156082153,0.8278074989587068,0.04994622642993927
1761467278235857000,6.48085693359375,0.04381634537279606,0.9087079588398337,-0.3577952010273933
1761467278245839600,6.490839599609375,0.13997837953269482,1.001530619443953,-0.7221633507043123
1761467278255822600,6.500822509765625,0.22258125941753387,1.099068618132174,-0.9714555069148539
1761467278265805800,6.510805908203125,0.23374095133543013,1.1917886951446532,-1.1405530134260653
1761467278275788800,6.520788818359375,0.18595336424410341,1.1856328028634189,-1.1730535995364189
1761467278285771500,6.530771484375,0.04477028509676456,1.0893582482397555,-1.044979592809081
1761467278295754800,6.540754638671875,-0.12549275806248186,0.9750541159287095,-0.788968357476592
1761467278305737700,6.55073779296875,0.022512276059389113,0.861783710579574,-0.6190577810168266
1761467278315720700,6.560720703125,0.554222028490901,0.690343148073554,-0.5348579873293637
1761467278325703700,6.57070361328125,1.0598375547230243,0.4945256846800446,-0.39186990458667276
1761467278335686700,6.580686767578125,1.412358030217886,0.3367915759652853,-0.21000001026391982
1761467278345669600,6.590669677734375,1.6357272251427173,0.11591858177036046,0.022265023300051687
1761467278355652900,6.60065283203125,1.6697838085234165,-0.14155454280823468,0.2611976980596781
1761467278365635600,6.610635498046875,1.497448635265231,-0.3313303879499435,0.5216863710671663
1761467278375618800,6.620618896484375,1.2506827826619147,-0.5623153185755014,0.7684113071382045
1761467278385601800,6.630601806640625,1.0938654965311287,-0.8393167349666356,0.9881611425220965
1761467278395584800,6.640584716796875,0.9542314003914594,-0.9909016734018922,1.1665507935136556
1761467278405567700,6.650567626953125,0.8641986627668142,-1.0366387577041982,1.2682143476992844
1761467278415549700,6.6605498046875,0.8272153782844544,-0.838430307520926,1.258093935701251
1761467278425533000,6.670532958984375,0.6997685635447501,-0.5424097178831696,1.2305734760910272
1761467278435515600,6.680515625,0.5591887109875678,-0.30908757648169993,1.1492857704579829
1761467278445498600,6.69049853515625,0.43874972918331623,-0.059122343315184116,0.9928355640739202
1761467278455481900,6.70048193359375,0.26159634198844434,0.1592372067540884,0.8044903362572192
1761467278465464600,6.710464599609375,0.0546808537364006,0.34689942074269053,0.6570896977692842
1761467278475447600,6.720447509765625,-0.04160919071733951,0.45523529229909176,0.45843642642796034
1761467278485430800,6.7304306640625,-0.09192308141589164,0.43497693264633414,0.25590017617344857
1761467278495413800,6.740413818359375,-0.1523006854891777,0.3343812999531626,0.13418576760590076
1761467278505396500,6.750396484375,-0.05154547832012176,0.18072890759408472,0.05067746331393718
1761467278515379700,6.760379638671875,0.14415946460962295,-0.0035977322310209274,-0.04964695122241974
1761467278525362700,6.77036279296875,0.37779344843924045,-0.16256722795963285,-0.050670449051260946
1761467278535346000,6.780345947265625,0.568662641775608,-0.3293932824075222,0.023050620719790457
1761467278545328600,6.79032861328125,0.6762514943569898,-0.4891714641705155,0.0496831915795803
1761467278555311600,6.8003115234375,0.7429951263308525,-0.624411417004466,0.05926292082965374
1761467278565294800,6.810294921875,0.6771499045014381,-0.7537491600573063,0.07384732649922371
1761467278575277800,6.82027783203125,0.6279787540972233,-0.7968006585374474,0.06663491090238094
1761467278585260500,6.830260498046875,0.6048784490168094,-0.8201154831513762,0.03682020287513733
1761467278595243800,6.840243896484375,0.5166355174183845,-0.7647367102786898,-0.02392623451054096
1761467278605226800,6.850226806640625,0.4573194050967693,-0.6833665870591997,-0.14369476970732212
1761467278615209700,6.860209716796875,0.3000134586662054,-0.5765203695386648,-0.18348083665072917
1761467278625192700,6.870192626953125,0.16318623664081094,-0.47826311666518445,-0.19859248106479643
1761467278635174700,6.880174560546875,0.13056582354307175,-0.4026061103954911,-0.27242460999488827
1761467278645158000,6.890157958984375,0.1771574788480997,-0.3222460410013795,-0.3075204732954502
1761467278655140600,6.900140625,0.16228548840880394,-0.27767303204238414,-0.2652121943980455
1761467278665123600,6.91012353515625,0.09794833305478096,-0.2783943320542574,-0.2011509333759546
1761467278675106800,6.92010693359375,0.007672434324026108,-0.30055472593605514,-0.1346118840634823
1761467278685089800,6.93008984375,0.015790274327993393,-0.34734628772735593,-0.07472177124619483
1761467278695072800,6.94007275390625,0.011679331877827643,-0.4193687368869781,-0.0829360573619604
1761467278705055700,6.9500556640625,-0.10030044913887977,-0.511643700480461,-0.1266243924409151
1761467278715038700,6.960038818359375,-0.17756489060521125,-0.5872501456066965,-0.133077514103055
1761467278725021700,6.970021728515625,-0.27372166406810283,-0.6502230268701911,-0.1367149938225746
1761467278735004700,6.980004638671875,-0.32446693192124365,-0.6851578543901443,-0.10024959573447703
1761467278744987600,6.989987548828125,-0.33579671970903874,-0.7212827684774994,-0.04369184221029281
1761467278754971000,6.999970947265625,-0.4196563216567039,-0.8036386878639459,-0.049292730957269666
1761467278764953600,7.00995361328125,-0.5404091917157173,-0.8628554314643144,-0.08923720333278179
1761467278774936600,7.0199365234375,-0.6705880617678165,-0.8790081093639135,-0.08058101866841316
1761467278784919800,7.029919921875,-0.7506932796180248,-0.8488158001959324,-0.07555354589521884
1761467278794902800,7.03990283203125,-0.7798591683477163,-0.8424909810885787,-0.15842822845876217
1761467278804885500,7.049885498046875,-0.7193313421487808,-0.7801233722418546,-0.24768939718902108
1761467278814868700,7.05986865234375,-0.6751262897193432,-0.7067024544611573,-0.2832633993953466
1761467278824851700,7.069851806640625,-0.6172744047313928,-0.6341583195149898,-0.3462099771738052
1761467278834834700,7.079834716796875,-0.5284679940313101,-0.5949018294036388,-0.44478608673810954
1761467278844817700,7.089817626953125,-0.472657844004035,-0.5465007865890861,-0.49072775370180605
1761467278854800600,7.099800537109375,-0.5426853199541568,-0.50829818944484,-0.5087310279041528
1761467278864782800,7.109782958984375,-0.5884025305122137,-0.4771738601237535,-0.461359620398283
1761467278874765600,7.119765625,-0.6449988624811173,-0.5704489406704902,-0.47703708200156686
1761467278884748800,7.129748779296875,-0.6311550460457801,-0.7114891042158007,-0.49539340742528437
1761467278894731800,7.139731689453125,-0.5673100581228733,-0.7977335554733872,-0.4347825791180134
1761467278904714800,7.14971484375,-0.5259826069563627,-0.8492442547410726,-0.44064007297456265
1761467278914698000,7.159697998046875,-0.557519316470623,-0.9574018471211194,-0.5040519301772117
1761467278924681000,7.169680908203125,-0.6000842004776,-1.0102040475040674,-0.5598404528945684
1761467278934664000,7.179663818359375,-0.5764911434441805,-0.9603989831104874,-0.540734185886383
1761467278944647200,7.189647216796875,-0.6565893470317125,-0.98282095053792,-0.5037830501079559
1761467278954630000,7.1996298828125,-0.6901221987992525,-0.8957710281163453,-0.35492636759281154
1761467278964612900,7.20961279296875,-0.5233621953248977,-0.8389093232095242,-0.2075619694620371
1761467278974596000,7.21959619140625,-0.419932215988636,-0.8041469296470284,-0.165750534170866
1761467278984579000,7.2295791015625,-0.39432022034823894,-0.7504752529531716,-0.18299919061362743
1761467278994561800,7.239561767578125,-0.49307460908889766,-0.5907534775525332,-0.06238894389569759
1761467279004545000,7.249544921875,-0.6308832433670759,-0.4781275075867772,0.05240589454174041
1761467279014528000,7.259528076171875,-0.7034837846755981,-0.37631431579738855,0.08829846117794513
1761467279024511000,7.269510986328125,-0.6617705490618944,-0.24800445448756217,0.13361410519778727
1761467279034494000,7.279493896484375,-0.6238362474650144,-0.04012479737848043,0.2254156060606241
1761467279044477000,7.289476806640625,-0.5158300462543964,0.19990297914147376,0.31443536725044247
1761467279054460200,7.299460205078125,-0.39446167464554305,0.33419746781885623,0.30995325340032576
1761467279064443100,7.309443115234375,-0.4760153377383947,0.37777035982459783,0.34227263772487637
1761467279074425900,7.31942578125,-0.2972124297708273,0.4211830928325653,0.3141109576016664
1761467279084409000,7.3294091796875,0.10602876365780829,0.40606297285109755,0.3590548456996679
1761467279094392000,7.33939208984375,0.3330430370867252,0.16843582773208618,0.29218671056330203
1761467279104374800,7.349374755859375,0.4675619821697473,-0.03172726365029812,0.21588497664928435
1761467279114357000,7.35935693359375,0.4292606008261442,-0.24871874023675916,0.1892611736178398
1761467279124340000,7.369340087890625,0.18115502405166625,-0.49315527310967444,0.2937842088878155
1761467279134323000,7.379322998046875,-0.04503741160035133,-0.5188438411176204,0.4218219752579927
1761467279144306000,7.389305908203125,-0.14840367805063723,-0.48729953281879423,0.6077320848822594
1761467279154289000,7.399288818359375,-0.07818389439880848,-0.4536737420707941,0.8001116827815771
1761467279164272000,7.409272216796875,0.11864800673425197,-0.4484305807203054,0.8579588915944099
1761467279174254800,7.4192548828125,0.2281307102382183,-0.42246611838042736,0.8243471293717622
1761467279184238000,7.429238037109375,0.30026304951310157,-0.38193537054955956,0.755258395576477
1761467279194221000,7.439220947265625,0.41387013947069645,-0.30503041004538534,0.7533750660479068
1761467279204204000,7.4492041015625,0.5272270540595054,-0.10388999806344508,0.8001116827815771
1761467279214187000,7.45918701171875,0.6186877786606549,0.10149053570628165,0.7575216643333434
1761467279224170000,7.469169921875,0.8135866659045219,0.2578548173725605,0.700026337698102
1761467279234153000,7.479153076171875,1.0875047293275595,0.38222412436306474,0.6193330908268689
1761467279244136200,7.48913623046875,1.157139406567812,0.4330889269426465,0.4438473445832729
1761467279254119000,7.499118896484375,1.083954343369603,0.6022255964204669,0.12065934655666351
1761467279264102000,7.509101806640625,1.2611293578743934,0.7295666126981377,-0.04865267948806286
1761467279274085000,7.519085205078125,0.9574602993100881,0.7674696423739195,-0.24820494549572467
1761467279284068000,7.529068115234375,0.7072954519182443,0.9787804429754614,-0.3973433675616979
1761467279294050800,7.53905078125,0.6749199534922837,1.2013321840375661,-0.5643073691755532
1761467279304034000,7.549033935546875,0.734275228780508,1.3963552821829914,-0.6235246972978115
1761467279314017000,7.55901708984375,0.7360223647087812,1.5820838977605103,-0.633743893495202
1761467279324000000,7.569,0.624284575754404,1.6407982447966933,-0.5929957035213709
1761467279333983000,7.57898291015625,0.3129828303545713,1.5168062466859817,-0.45115737533569333
1761467279343966000,7.588966064453125,0.07552841145396232,1.4107497182384132,-0.2681348038464784
1761467279353948200,7.5989482421875,0.0866138690918684,1.2928659738749264,0.08649462662637233
1761467279363931000,7.608930908203125,-0.08345394375622273,1.083654191379249,0.3113064215749502
1761467279373914000,7.6189140625,-0.34601240877509115,0.8136205681741238,0.37424656961262226
1761467279383897000,7.62889697265625,-0.41626258756518364,0.5370259790182114,0.5013561152219772
1761467279393879800,7.6388798828125,-0.36579087595641613,0.25441315248608587,0.5888508588016033
1761467279403863000,7.648863037109375,-0.26569442495703693,0.0719759796693921,0.5057739316642285
1761467279413846000,7.658845947265625,0.1169084695905447,0.07086860294938087,0.36160511470437046
1761467279423829000,7.6688291015625,0.27157997586429117,-0.1276525664448738,0.1497644450098276
1761467279433812000,7.67881201171875,0.29342180531620976,-0.14135112919062376,-0.11349778436422348
1761467279443795000,7.688794921875,0.22187983314990997,-0.022592647819221018,-0.2831108391821384
1761467279453778000,7.69877783203125,0.0847445680886507,0.11202595824599265,-0.47752866491079327
1761467279463761200,7.70876123046875,0.05988602116405964,0.18457769197672605,-0.6693763478904962
1761467279473744000,7.718743896484375,0.17468904290795326,0.23911036941409108,-0.828899970370531
1761467279483727000,7.72872705078125,0.32425299690961834,0.31925445796996355,-0.9154571408390998
1761467279493710000,7.7387099609375,0.41166064672768116,0.27153058376461264,-0.9878110139101743
1761467279503693000,7.748693115234375,0.3893278188884258,0.16776070494949816,-1.0189303747951983
1761467279513676000,7.758676025390625,0.3403577440142631,0.1542705242574215,-0.9643921443998813
1761467279523659000,7.768658935546875,0.14656827931702135,0.07396978383511305,-0.8559399529874324
1761467279533642000,7.77864208984375,-0.056959320062398906,0.016140987461805343,-0.7663169652074575
1761467279543625200,7.788625244140625,-0.10282675274610519,0.02781622768640518,-0.7025239997327327
1761467279553608000,7.79860791015625,-0.03276186739504337,0.003029284693300724,-0.6895026055961847
1761467279563591000,7.8085908203125,-0.011681085443496704,-0.013183598960936068,-0.7093214047878981
1761467279573574100,7.81857421875,-0.05410743776261806,-0.03842909937649965,-0.7582838808774948
1761467279583556900,7.828556884765625,-0.14762801750302315,-0.021545769114792345,-0.8034715146034955
1761467279593539800,7.838539794921875,-0.2138689606517553,0.0030079496443271635,-0.825856364890933
1761467279603523000,7.848523193359375,-0.3165168496996164,0.0322659005716443,-0.834056622481346
1761467279613504800,7.8585048828125,-0.5357856235682964,-0.059061260777711865,-0.8429331718981266
1761467279623488000,7.868488037109375,-0.7518108854711055,-0.1741965832158923,-0.8575286834836006
1761467279633471000,7.878470947265625,-0.6480792928397655,-0.33741087690740823,-0.8296516655206679
1761467279643454000,7.888453857421875,-0.41309330987930293,-0.45908553798645735,-0.7544336351901292
1761467279653437000,7.89843701171875,-0.32142683357298374,-0.4881216628566384,-0.6497434266597032
1761467279663420000,7.908419921875,-0.5952098724395036,-0.9022367169991135,-0.5199462494015693
1761467279673403100,7.918403076171875,-1.7125445073634384,-1.9802523179695009,-1.1063771875798702
1761467279683386000,7.92838623046875,-1.392680100801587,-0.798144182100892,-1.4513105689466
1761467279693368800,7.938368896484375,-0.1305465343207121,0.0508227170035243,-0.5262222609311342
1761467279703352000,7.94835205078125,0.06552022765874863,0.735955729213357,-0.17208850502073764
1761467279713335000,7.9583349609375,-0.3050724956214428,1.0122191867187618,-0.4909393506258726
1761467279723318000,7.968318115234375,-0.3819499835968017,1.2626765873163939,-0.8684621654301882
1761467279733301000,7.978301025390625,-0.4436427619218826,0.5146256389006972,-0.8981102847188711
1761467279743284000,7.988283935546875,-0.9505196863919496,0.12800883253663778,-1.6233429598659277
1761467279753267000,7.998266845703125,-0.795393422088027,0.3335127004250884,-1.915911363223195
1761467279763250200,8.008250244140624,-0.5120552038908004,0.7332575761705636,-1.7800421725749969
1761467279773233000,8.01823291015625,-0.4702303245961666,1.104672721749544,-1.54679864936769
1761467279783215900,8.0282158203125,-0.581581744581461,1.0812918461620806,-1.4505302322238682
1761467279793199000,8.03819921875,-0.758781309005618,0.9422343808665871,-1.3436574189573525
1761467279803181800,8.048181884765626,-0.8190560372263193,0.8173419267848133,-1.1090975524544715
1761467279813165000,8.0581650390625,-0.9039315382182598,0.5721066447496413,-0.842484843608737
1761467279823148000,8.06814794921875,-0.9553449145913123,0.3917866102173924,-0.670454790776968
1761467279833131000,8.078131103515625,-0.8676093479931354,0.2175298212468624,-0.6080155779987573
1761467279843114000,8.088114013671875,-0.7963380094617605,-0.0543432923451066,-0.6727332571029663
1761467279853096000,8.098095947265625,-0.7583622068107128,-0.3881619899794459,-0.8429729193866252
1761467279863079200,8.1080791015625,-0.6441501366972923,-0.6712550012439489,-1.0006377622574567
1761467279873062000,8.118061767578125,-0.7009627417653799,-0.8981246055051684,-1.0418021318167447
1761467279883044900,8.128044921875,-0.9954980612814426,-0.8981199293300509,-0.9164555042266845
1761467279893028000,8.138028076171874,-1.1877613393247126,-0.8316551142975688,-0.6355839684039354
1761467279903011000,8.148010986328124,-1.280925360712409,-0.872727713920176,-0.22906419169604778
1761467279912993800,8.157993896484374,-1.2203922738164663,-0.8508972826451062,0.274519536447525
1761467279922976800,8.167976806640626,-0.7585165205895901,-0.592004938918352,0.7128922490119933
1761467279932959700,8.177959716796876,-0.2949672811925411,-0.4015624465614557,1.019535354951024
1761467279942943000,8.18794287109375,-0.27958383409976956,-0.09471125082969666,1.2493997571140527
1761467279952926000,8.197926025390625,-0.5422288083583117,0.33523324060738086,1.509287541618943
1761467279962908700,8.20790869140625,-0.7960977709650993,0.7321539988428354,1.7344021189063787
1761467279972892000,8.217891845703125,-0.9930950917929411,0.9940285732507705,1.7220751367747782
1761467279982875000,8.227875,-1.1020493875086308,1.0433367940381169,1.4255600416183472
1761467279992857900,8.23785791015625,-1.0330927556604146,0.9256184693694114,0.9742822547733783
1761467280002840800,8.2478408203125,-0.8574193778902292,0.837083569087088,0.4398883778244257
1761467280012823800,8.25782373046875,-0.6143956344246864,0.8321411442488431,-0.028099720802903173
1761467280022806800,8.267806884765625,-0.1790343786358833,0.7411945066496729,-0.40895723298788067
1761467280032790000,8.2777900390625,0.30497488046586513,0.6105000882908701,-0.7621691978782414
1761467280042772700,8.287772705078124,0.4417641085684299,0.43943303527235983,-1.085163134637475
1761467280052755700,8.297755615234376,0.4500701646208763,0.3075827248767018,-1.2131664142161607
1761467280062739000,8.307739013671876,0.4940887545675039,0.24621581750512123,-1.0876105277895927
1761467280072721700,8.3177216796875,0.5168418536454439,0.23423984076827764,-0.8527110540688038
1761467280082705000,8.327704833984376,0.7044651969283818,0.12249299172461033,-0.6855734494537115
1761467280092688000,8.33768798828125,0.9615010991334915,-0.026707097400724886,-0.5543067841649055
1761467280102670800,8.3476708984375,1.1098860724836588,-0.07502426132410764,-0.2769575772494077
1761467280112653800,8.35765380859375,1.1821586970120668,-0.13375205236375332,0.023632220000028608
1761467280122636800,8.36763671875,1.247741468513012,-0.21415683768242597,0.2931991024762392
1761467280132619000,8.377618896484375,1.2914040846288204,-0.29472324330359695,0.5064700972348452
1761467280142601700,8.387601806640625,1.2423323029458522,-0.4127551639661193,0.6794453219622373
1761467280152584700,8.397584716796874,1.1995640053212642,-0.5208686249434947,0.8226309731036424
1761467280162568000,8.40756787109375,1.1936498128414152,-0.5795090299606322,0.9585913491666317
1761467280172551000,8.417551025390624,1.229665713596344,-0.5539657156422734,1.0848778879553078
1761467280182533600,8.42753369140625,1.2400456533133983,-0.5207239557757973,1.1644850931555033
1761467280192516900,8.437516845703126,1.1798223630189895,-0.5041285025447607,1.1697142259806395
1761467280202499800,8.447499755859376,1.1287012475907803,-0.5061114930555224,1.0871908410727977
1761467280212482800,8.45748291015625,1.1081932970911264,-0.5436190936729312,0.9870166486620903
1761467280222465800,8.4674658203125,1.0876210491836071,-0.5603600928544998,0.9340852689415216
1761467280232448800,8.47744873046875,1.0621306340962648,-0.575650893227756,0.8524673084408044
1761467280242432000,8.487431884765625,0.8665928644269705,-0.615886457504332,0.7698463083773851
1761467280252415000,8.4974150390625,0.7065291437208652,-0.6645607643023133,0.7060889987379312
1761467280262397700,8.507397705078125,0.6715525228857994,-0.6621744536876678,0.6716331869065761
1761467280272381000,8.517380859375,0.5988911913007497,-0.6177078277125955,0.6440577822387218
1761467280282364000,8.527364013671875,0.4591612335711717,-0.6151207338288426,0.6266612417578696
1761467280292346600,8.5373466796875,0.336930107653141,-0.6639721507593989,0.5941378592938185
1761467280302329900,8.547329833984374,0.3233031488388777,-0.7260632807523012,0.5722720644444227
1761467280312312800,8.557312744140624,0.4271393708884716,-0.8226923479020595,0.5239882182687521
1761467280322295800,8.5672958984375,0.5292822330236434,-0.8418789866700768,0.5575637401342391
1761467280332278800,8.57727880859375,0.5640858353793621,-0.8360659164771437,0.5921569146096706
1761467280342261800,8.58726171875,0.6362012235194444,-0.7909779437333345,0.6437713665127753
1761467280352245800,8.597245849609376,0.6454501133799553,-0.6993029918596148,0.6628355479449033
1761467280362228000,8.60722802734375,0.5232809467822312,-0.657151657089591,0.5887053128510713
1761467280372210700,8.617210693359375,0.3887976575344801,-0.6136793028488755,0.5439782823741436
1761467280382194000,8.62719384765625,0.25157763679921624,-0.6207786134600639,0.48201837754547594
1761467280392177000,8.637177001953125,0.20729718104600905,-0.6372030940383673,0.3942956704288721
1761467280402159900,8.647159912109375,0.23729016824960708,-0.6864540316805243,0.26747370958924294
1761467280412142800,8.657142822265625,0.317239318755269,-0.7573191274985671,0.09470599013268947
1761467280422125800,8.667125732421875,0.32574761938154695,-0.833471223808825,-0.04534194750487804
1761467280432108800,8.67710888671875,0.3349567617535591,-0.8196075336292385,-0.10554419501125811
1761467280442092000,8.687092041015624,0.2861573672711849,-0.8422089492768049,-0.17370763065516948
1761467280452074800,8.69707470703125,0.1586918478310108,-0.8437208151444793,-0.1936579472720623
1761467280462057700,8.7070576171875,0.038595395854115484,-0.8324468491971492,-0.181881000238657
1761467280472041000,8.717041015625,-0.032687633115053176,-0.7935118461251258,-0.11121756447255611
1761467280482023700,8.727023681640626,-0.13152970013916493,-0.743098586705327,-0.024560440760850906
1761467280492006700,8.737006591796876,-0.20276596735715866,-0.7319330495685339,0.033761984348297115
1761467280501990000,8.746989990234376,-0.24357845473885534,-0.7540262234330177,0.0625713147252798
1761467280511972900,8.756972900390625,-0.2484866850465536,-0.7813473610788584,0.11574001033306121
1761467280521955800,8.766955810546875,-0.2858838110268116,-0.828702401971817,0.16196633945703506
1761467280531938800,8.776938720703125,-0.15265081410109996,-0.9722174311980605,0.18805121330618857
1761467280541921800,8.786921875,-0.18335048826932906,-1.0347840697482227,0.11140402695536612
1761467280551905000,8.796905029296875,-0.34480127941966054,-0.9300593744263053,0.007149287232756614
1761467280561887700,8.8068876953125,-0.1691273171275854,-0.9741428463026881,0.011179565662145613
1761467280571870700,8.81687060546875,-0.04676876543760299,-0.9439762560978532,0.04678980822563171
1761467280581854000,8.82685400390625,-0.32009587723016736,-0.9144611155390739,0.03977613007128238
1761467280591837000,8.8368369140625,-0.5956915184766054,-0.9212100052773952,-0.03656476680934429
1761467280601819600,8.846819580078124,-0.7012333754003047,-0.9561366494908928,-0.1679302162975073
1761467280611803000,8.856802978515624,-0.732483084666729,-0.9522264903098344,-0.24071488200128077
1761467280621785900,8.866785888671876,-0.6670189711093902,-0.9641416767701506,-0.29927403847575185
1761467280631768800,8.876768798828126,-0.5574748928070068,-0.9931383464127779,-0.44334757836759087
1761467280641750800,8.886750732421875,-0.42495735067427154,-0.9814420634001493,-0.5161427654653787
1761467280651733800,8.896733642578125,-0.24989655184447765,-0.9476555291324853,-0.45037586956918235
1761467280661717000,8.906717041015625,-0.23280688535571098,-0.9282347893476486,-0.5165145213872194
