time,seconds_elapsed,z,y,x
1761467176333055500,0.120055419921875,-0.5809615668565035,0.8375073474571109,-0.7892933516472578
1761467176343038500,0.13003857421875,-0.49518882476389403,0.9798287829846143,-0.8356693183749914
1761467176353021700,0.140021728515625,-0.43206572137475013,1.0932838972508907,-0.9637941785067319
1761467176363004400,0.15000439453125,-0.3742307875216007,1.2129101013675332,-1.0575567503094672
1761467176372987400,0.1599873046875,-0.35541619693636894,1.2663020843371748,-1.1065905380696057
1761467176382970600,0.169970703125,-0.3342316623494029,1.2688894704818725,-1.1663970642566681
1761467176392953600,0.17995361328125,-0.4062237163707614,1.213285364420712,-1.1640981396645307
1761467176402936600,0.1899365234375,-0.5159571797654032,1.1573775992378592,-1.1049112066805362
1761467176412918500,0.19991845703125,-0.5829670614600181,1.0711024605810642,-1.0613409450232982
1761467176422901500,0.209901611328125,-0.620321517342329,0.9881664032191038,-0.9590583821564912
1761467176432884500,0.219884521484375,-0.6614315263658762,1.0388041190445423,-0.7923486475646495
1761467176442867500,0.229867431640625,-0.8276479244828223,1.072386070650816,-0.5263169534772634
1761467176452850700,0.2398505859375,-0.876789848792553,1.0963900465726852,-0.1584007559299469
1761467176462833700,0.249833740234375,-0.6408055024445056,1.0049819289416073,0.3257452812939882
1761467176472816400,0.25981640625,-0.24786884540915488,0.8730088689491152,0.7989794638812542
1761467176482799600,0.269799560546875,-0.15478665708601475,0.7470099149301648,1.1101081908017396
1761467176492782600,0.279782470703125,-0.5106745631873607,0.5392942162111402,1.2892454452902078
1761467176502765600,0.289765625,-0.9244067554920912,0.43633974543213844,1.4219173012018202
1761467176512748500,0.29974853515625,-0.8899719864487647,0.25579335479810833,1.524216815203428
1761467176522730500,0.30973046875,-0.6045382572770118,0.1986766522169113,1.4822130722105502
1761467176532713700,0.319713623046875,-0.40719899114370345,0.1240874213092029,1.1356330926805733
1761467176542696400,0.329696533203125,-0.19822540131807326,-0.16193579818829892,0.7900456313192844
1761467176552679400,0.339679443359375,-0.01499649360179901,-0.09189400145187973,0.4212847996413707
1761467176562662700,0.34966259765625,0.24378654453158377,-0.03386266824379563,0.17566870159506798
1761467176572645600,0.359645751953125,0.48078795896768567,0.12006620296910404,-0.09852291807234287
1761467176582628600,0.369628662109375,0.5691489639878272,0.17801804120019077,-0.33050913469493387
1761467176592611600,0.379611572265625,0.5943050325542688,0.253575532618165,-0.48625849933326243
1761467176602594600,0.389594482421875,0.726095429456234,0.261835703702271,-0.4906739776879549
1761467176612577500,0.39957763671875,0.997543303373456,0.2442578153051436,-0.39159108764529227
1761467176622560500,0.409560546875,1.2559873188108206,0.2058293004505336,-0.24173604174256325
1761467176632542700,0.419542724609375,1.4342822772562502,0.13679317362532017,-0.001952303111553192
1761467176642525400,0.429525390625,1.5401333462595939,0.016499153249710796,0.25908582047224044
1761467176652508400,0.43950830078125,1.520330329158902,-0.06690452162399887,0.4430681769043207
1761467176662491600,0.44949169921875,1.450294085380435,-0.1658808825522661,0.5214695134460926
1761467176672474600,0.459474609375,1.4064461758255957,0.041529257348924875,0.402511125588417
1761467176682457300,0.469457275390625,1.3681775277078152,-0.6714158908940852,0.6430623414605856
1761467176692440600,0.479440673828125,1.2451707412421702,-0.5372805383011698,0.714573333966732
1761467176702423600,0.489423583984375,1.1753712288290261,-0.7260780399300157,0.8321019812822341
1761467176712406500,0.499406494140625,1.11840664806962,-0.8497808458358049,0.9224620511651038
1761467176722389500,0.509389404296875,1.0586878001660107,-0.7551737860329448,0.9061246643483638
1761467176732372500,0.51937255859375,1.0492238062500954,-0.8035748288474976,0.8920873711675404
1761467176742354700,0.529354736328125,1.0135217937499283,-0.7156732580326497,0.800149092182517
1761467176752337400,0.53933740234375,0.9920143108189106,-0.6004588790088892,0.723778969207406
1761467176762320600,0.549320556640625,1.0032546667575835,-0.49025735971108075,0.6936994727641344
1761467176772303600,0.5593037109375,0.9115139561712742,-0.39018911189287897,0.6780746181309223
1761467176782286600,0.56928662109375,0.6986983039647341,-0.2639374982871115,0.7073100649654865
1761467176792269600,0.57926953125,0.49431847167015075,-0.13496259719729423,0.7693851206064224
1761467176802252500,0.58925244140625,0.3916887028008699,0.0410913043230772,0.8009709299594163
1761467176812235000,0.599235107421875,0.40207156512737274,0.12553835076987743,0.8245394370734691
1761467176822218200,0.60921826171875,0.4726403083473444,0.2702816066168249,0.7294587684094905
1761467176832201200,0.619201171875,0.5653039789974689,0.2850947064757347,0.5080290171146392
1761467176842184200,0.62918408203125,0.6364022990494966,0.2478076167412102,0.2569090609550476
1761467176852166100,0.639166259765625,0.6570692395031452,0.22835195177346468,0.10647826099097728
1761467176862149000,0.649149169921875,0.7100555642813444,0.19736951514109968,0.027213585618138313
1761467176872132000,0.659132080078125,0.7757493949413299,0.12826704508140682,-0.0244996504843235
1761467176882115000,0.669114990234375,0.8241881394177675,0.042446664454787966,0.0027127660900354384
1761467176892098300,0.679098388671875,0.9130588475257158,-0.0317312091730535,0.06344751303792
1761467176902081300,0.689081298828125,0.9624351651132106,-0.09670841599628328,0.10451719005107879
1761467176912064000,0.69906396484375,0.9480313767075538,-0.15056801647767423,0.1344984868168831
1761467176922047200,0.709047119140625,0.9182973327010869,-0.21670096920728682,0.07505553324520588
1761467176932030200,0.7190302734375,0.8527654146045446,-0.27321766006872056,0.007004910326004028
1761467176942013000,0.729012939453125,0.7645026092618703,-0.3023940701924264,-0.06853869869709014
1761467176951996200,0.73899609375,0.6815881792098283,-0.3490311720743775,-0.12142156310081481
1761467176961978000,0.74897802734375,0.5951333000719546,-0.36709275233522054,-0.16927695473134516
1761467176971961000,0.758961181640625,0.5080249254614114,-0.3740203596413135,-0.22642858249545095
1761467176981944000,0.768944091796875,0.4433259510576725,-0.3827035784430802,-0.1990951698899269
1761467176991927000,0.778927001953125,0.3878419642448425,-0.3661971186697483,-0.09982990901768207
1761467177001910300,0.78891015625,0.3336486017644405,-0.35465704913213847,-0.009582651859521864
1761467177011893000,0.79889306640625,0.2930734302699566,-0.3556540973454714,0.050316813308000564
1761467177021876200,0.808876220703125,0.23988836804926394,-0.382803677816689,0.1180062016993761
1761467177031859200,0.818859130859375,0.17902736437320707,-0.4065994178153574,0.21118308256864546
1761467177041842200,0.82884228515625,0.11043255157470702,-0.4187139262400567,0.3334878582447767
1761467177051825200,0.8388251953125,0.10419511848986149,-0.4351978819206357,0.3382125486791134
1761467177061807000,0.84880712890625,0.10066343723237514,-0.4720025949656963,0.29134967521727084
1761467177071790300,0.858790283203125,0.08616729436814785,-0.4326644179202616,0.27750176712870595
1761467177081773000,0.86877294921875,0.1006610991448164,-0.35445378164499997,0.27305238650441166
1761467177091756000,0.878756103515625,0.12664134357571602,-0.2079367941237986,0.20945406681895254
1761467177101739300,0.8887392578125,0.038626375514268875,-0.07882321521565318,0.18731588476896285
1761467177111722200,0.89872216796875,-0.11420037967562675,0.03415624436289072,0.18060031277835367
1761467177121705000,0.908705078125,-0.15710545542240142,0.10516147930398582,0.14489654671251773
1761467177131688200,0.918688232421875,-0.05523381144404411,0.17828575222566723,0.017025369080901145
1761467177141671200,0.928671142578125,0.04645779979228973,0.20101430138424037,-0.2094739405632019
1761467177151654100,0.938654052734375,0.09867664732933044,0.1400358088083565,-0.417740843424201
1761467177161637000,0.94863720703125,0.05530220050513744,0.06908756475150585,-0.5999538520962
1761467177171619000,0.958619140625,0.04903144967257976,-0.046303632143884894,-0.6865034237802028
1761467177181602300,0.968602294921875,0.09624971244335175,-0.15938275270462035,-0.6588765811860561
1761467177191585000,0.9785849609375,0.024986557218432424,-0.20870850914865732,-0.5466232439249754
1761467177201568000,0.988568115234375,-0.052772389766573904,-0.2074177386857569,-0.4771791208207607
1761467177211551200,0.99855126953125,-0.16495792248845098,-0.21539339374005792,-0.4181751431882381
1761467177221534200,1.0085341796875,-0.2603191616594791,-0.1818088117852807,-0.3891150529205799
1761467177231517200,1.01851708984375,-0.2692716989219189,-0.1719065725825727,-0.41238720743656154
1761467177241500200,1.028500244140625,-0.2640454887062311,-0.1413021754823625,-0.4388894299149513
1761467177251483100,1.038483154296875,-0.31364275556802745,-0.08190905240178108,-0.4207604835063219
1761467177261466000,1.048466064453125,-0.4365063341706991,-0.061546647852659224,-0.3598351824223995
1761467177271448000,1.058447998046875,-0.515092379629612,-0.07613090739175676,-0.3081061642289161
1761467177281431300,1.068431396484375,-0.5342261191666126,-0.12577157500386238,-0.29330197832882404
1761467177291414000,1.0784140625,-0.48468029023110865,-0.21755320212244986,-0.273286779782176
1761467177301397000,1.08839697265625,-0.45185880160331726,-0.3001411766991019,-0.2816501189798116
1761467177311380200,1.098380126953125,-0.45724633986055846,-0.38059170085564253,-0.25007366197705266
1761467177321363200,1.10836328125,-0.4703782086342573,-0.41534941824302074,-0.24448504818975925
1761467177331346000,1.118345947265625,-0.43816754538118835,-0.4084887386932969,-0.3828700210511684
1761467177341329200,1.1283291015625,-0.45796354821920393,-0.44449645614176986,-0.48207916782200333
1761467177351312100,1.13831201171875,-0.510174212449789,-0.46146965664401646,-0.5434545507609844
1761467177361295000,1.148295166015625,-0.5626747995376586,-0.47359205611422656,-0.6185434017539024
1761467177371277000,1.158277099609375,-0.609472791069746,-0.4688534832850098,-0.6301186887353658
1761467177381260000,1.168260009765625,-0.5924199494600295,-0.46568201364204287,-0.6245242297291755
1761467177391243300,1.1782431640625,-0.5673369461297989,-0.40882352360561486,-0.6396931572884321
1761467177401226000,1.18822607421875,-0.5617945095717907,-0.3500381571598351,-0.674231386706233
1761467177411209200,1.198209228515625,-0.522977579921484,-0.3477121984302997,-0.6833955208927392
1761467177421192200,1.208192138671875,-0.6371241835832595,-0.3699272451087832,-0.6979512849897146
1761467177431175200,1.218175048828125,-0.6508253766775131,-0.37909503255710003,-0.7054331651777028
1761467177441158100,1.228158203125,-0.6207078863114118,-0.4646788279488682,-0.7246399699509143
1761467177451141000,1.23814111328125,-0.6731523592978715,-0.5366662057951093,-0.7242337272375822
1761467177461124000,1.2481240234375,-0.6577016921877861,-0.5646766408793628,-0.6754319946676492
1761467177471106000,1.25810595703125,-0.5847732340991497,-0.5546018215887248,-0.6477712498039007
1761467177481089000,1.268089111328125,-0.5219809700995683,-0.5077424552582204,-0.6538976237297057
1761467177491072300,1.278072265625,-0.5318593900352716,-0.3925809754654765,-0.6539432164371013
1761467177501055200,1.28805517578125,-0.5084194777369498,-0.32139132386818525,-0.6797375829070806
1761467177511038000,1.298037841796875,-0.4815566052526235,-0.23152561337351799,-0.6661147157460451
1761467177521021200,1.308021240234375,-0.4814928923666477,-0.08636325533166528,-0.5962585047096014
1761467177531004200,1.318004150390625,-0.36950609708726406,0.05214285969138145,-0.41972471071779727
1761467177540987100,1.327987060546875,-0.21285598421692847,0.12849866188019513,-0.09412380633056164
1761467177550970000,1.33797021484375,-0.21998364413976668,0.2939242018803954,0.08093290084600448
1761467177560953000,1.347953125,-0.33972529132962226,0.29329759441465136,0.1541267318725586
1761467177570935300,1.357935302734375,-0.3765817345619201,0.3001999211490154,0.18006956690251827
1761467177580918000,1.36791796875,-0.2130640740096569,0.22286022248938678,0.2860872246444225
1761467177590901200,1.3779013671875,0.05194821390211582,0.24005057287365197,0.31969547973573204
1761467177600884200,1.38788427734375,0.23453648562729357,0.21288564870283005,0.318999898687005
1761467177610867000,1.397866943359375,0.16352467481493949,0.09677563601359725,0.36092063957154746
1761467177620850200,1.40785009765625,0.01881459058523178,0.01394011641666293,0.4457441181153059
1761467177630833200,1.417833251953125,-0.10158990442752837,-0.09782090728282927,0.5485048198878765
1761467177640816000,1.427816162109375,-0.06532382830381393,-0.26468320208787915,0.5324439119249582
1761467177650799000,1.437799072265625,-0.1482610547095537,-0.5053790871277452,0.4085065666109323
1761467177660782000,1.447781982421875,-0.11101239728927612,-0.7021453756786883,0.28628245495557786
1761467177670764300,1.457764404296875,-0.14691840792894362,-0.8247948731392621,0.08418927229344844
1761467177680747000,1.4677470703125,-0.17722177625596522,-1.0739718785375356,-0.07952244952619075
1761467177690730000,1.47772998046875,-0.12393909887969493,-1.0941991123996675,-0.20428221713900566
1761467177700713200,1.487713134765625,-0.11411036330461502,-1.160311899124086,-0.12738777802884577
1761467177710696200,1.4976962890625,-0.10895020406246185,-1.0317338883973657,-0.006641922232508659
1761467177720679200,1.50767919921875,-0.12836802123785018,-0.847322639028728,0.09134440474510193
1761467177730662100,1.517662109375,-0.029927520751953124,-0.5934297110244632,0.20164660793840883
1761467177740645000,1.52764501953125,0.2316471939265728,-0.21263255072459578,0.3427905241191387
1761467177750628400,1.53762841796875,0.4584042777240276,0.007017331416159868,0.32683541461825366
1761467177760611000,1.547611083984375,0.8057137405723332,0.1759226763561368,0.4339800305634737
1761467177770593300,1.55759326171875,1.1208598864406347,0.4177821983478963,0.54443245588243
1761467177780576300,1.567576171875,1.3067027760475873,0.5301451334632933,0.4934142163068056
1761467177790559000,1.57755908203125,1.3661533284038305,0.6430778312906622,0.40195582979321476
1761467177800542200,1.587542236328125,1.4271020103633403,0.8067311009213328,0.27369126892983914
1761467177810524200,1.597524169921875,1.4514415018498896,0.9822504571735858,0.1336924311310053
1761467177820507400,1.60750732421875,1.2825450708687305,1.1340668662771582,-0.016787468671798707
1761467177830490400,1.617490478515625,1.038485554614663,1.3150694762460886,0.0717342798680067
1761467177840473300,1.627473388671875,0.7729904516220092,1.544539326133579,0.27124562934339047
1761467177850456300,1.637456298828125,0.5115671281129122,1.7195378733821212,0.3958294558674097
1761467177860439300,1.647439208984375,0.374230202999711,1.8044575057767331,0.43778059189021584
1761467177870421500,1.65742138671875,0.2691553790658712,1.7179389137528835,0.44625148311555385
1761467177880404200,1.667404296875,0.19469138197302818,1.4900383590087294,0.5320218871206045
1761467177890387200,1.67738720703125,0.13731120615005493,1.2626402008287607,0.6538941165983676
1761467177900370400,1.687370361328125,0.10786883856654167,0.9884795608215033,0.6681593733161687
1761467177910353200,1.697353271484375,0.14857260487675666,0.7251235156841576,0.5095978738665581
1761467177920336100,1.707336181640625,0.2810439697802067,0.4640020977310836,0.2811281409323215
1761467177930319400,1.7173193359375,0.4090905039787292,0.28702859714776274,0.04134323325753212
1761467177940302300,1.72730224609375,0.5337117399036884,0.23727117128819225,-0.19662381134033202
1761467177950285300,1.737285400390625,0.625370032903552,0.26359555298164483,-0.4491384367287159
1761467177960267300,1.747267333984375,0.6968950539350509,0.3390970764286816,-0.6287222659409046
1761467177970250500,1.75725048828125,0.5256102665126323,0.46378304815292354,-0.7448515678524971
1761467177980233200,1.767233154296875,0.2508534141778946,0.508915444560349,-0.7892857528626919
1761467177990216200,1.77721630859375,0.030951018580794333,0.5781671138323843,-0.6935539268136024
1761467178000199400,1.787199462890625,-0.015232640445232391,0.5381704728782176,-0.5078963306456804
1761467178010182400,1.797182373046875,0.14540683432221413,0.4929058283932507,-0.31917291716635227
1761467178020165000,1.8071650390625,0.24001287121176718,0.4239715545073151,-0.19459318229556083
1761467178030148400,1.8171484375,0.19352876793444154,0.34685689677521586,-0.14109773895144462
1761467178040131300,1.82713134765625,0.15280395883619785,0.2697780410088599,-0.10881810211539268
1761467178050114300,1.8371142578125,0.06487374644875527,0.15794409820362926,-0.14799217464029787
1761467178060096300,1.84709619140625,0.03598316752910614,0.06315306013599038,-0.15882161169052122
1761467178070079200,1.857079345703125,0.05670739112794399,0.0010742051027715206,-0.1375222185522318
1761467178080062500,1.8670625,0.019096330136060713,-0.028521453346312044,-0.18583412177860736
1761467178090045200,1.877045166015625,-0.08012099994122981,-0.08662117561548947,-0.2592325354665518
1761467178100028200,1.887028076171875,-0.20000819308161735,-0.13195683951005338,-0.2710124051094055
1761467178110011400,1.897011474609375,-0.2975771714299917,-0.1283607147142291,-0.2906067478954792
1761467178119994400,1.906994384765625,-0.37122692953050135,-0.15011369683891534,-0.3368085271000862
1761467178129977300,1.916977294921875,-0.3796130650818348,-0.1434361187711358,-0.4249135115325451
1761467178139960300,1.926960205078125,-0.37919513193070886,-0.11157704543471336,-0.5662433056741952
1761467178149943300,1.936943359375,-0.4206196137309074,-0.08719020767509937,-0.7293237438529729
1761467178159925200,1.94692529296875,-0.5063777427762747,-0.025595336766541004,-0.8893664217710494
1761467178169908200,1.956908203125,-0.6904185513973236,0.06360591847002506,-0.9823983412116766
1761467178179891500,1.966891357421875,-0.9411609064161777,0.1858916971847415,-1.0592565399646758
1761467178189874400,1.97687451171875,-1.1546183636575937,0.2872092144116759,-1.126825516846776
1761467178199857200,1.986857177734375,-1.237642099303007,0.37063627016097306,-1.1813047105312346
1761467178209840400,1.99684033203125,-1.1419330696076153,0.45539574355781076,-1.1949310848236083
1761467178219823400,2.0068232421875,-1.0765452361568808,0.49175475866198537,-1.23379477622509
1761467178229806000,2.01680615234375,-0.9873819748431444,0.47367988052815196,-1.2699252432703971
1761467178239789300,2.026789306640625,-0.8563409350037574,0.5009902045190334,-1.2626041066020726
1761467178249772300,2.036772216796875,-0.6322957405135036,0.5135527489721775,-1.2250661108464003
1761467178259754500,2.04675439453125,-0.435794094248116,0.5797808326393366,-1.1921592820227145
1761467178269737200,2.0567373046875,-0.2490261987507343,0.6296463950484991,-1.1922341008245945
1761467178279720200,2.06672021484375,-0.0944192821457982,0.7079808038339018,-1.1834212642937898
1761467178289703400,2.076703369140625,-0.12384148372411727,0.7934259214073419,-1.1667875248789787
1761467178299686100,2.08668603515625,-0.32163492336571214,0.8706745807826518,-1.0835884326666594
1761467178309669400,2.09666943359375,-0.5252718283385038,0.9276552358940243,-0.9024304860055447
1761467178319652400,2.10665234375,-0.653240621125698,1.024393900898099,-0.7462292859464883
1761467178329635300,2.11663525390625,-0.6615133594304323,1.0665323761865495,-0.6936772609323263
1761467178339618300,2.126618408203125,-0.675609689322114,1.0818372050851583,-0.6789812115818261
1761467178349600300,2.136600341796875,-0.7199620412677527,1.102332588364184,-0.6797048496812582
1761467178359583500,2.14658349609375,-0.7577642409175634,1.0560974914118646,-0.6809948894917964
1761467178369566200,2.156566162109375,-0.8108852979913354,0.9375055987790226,-0.6061965458780527
1761467178379549200,2.166549072265625,-0.9378867070510983,0.7952838242337107,-0.4663005839318037
1761467178389532400,2.176532470703125,-1.0259276863366364,0.6415437535911798,-0.2415899112701416
1761467178399515400,2.186515380859375,-0.8966396276444196,0.44493777016848324,0.06464169125854968
1761467178409498000,2.196498046875,-0.5443067836761474,0.24784926392585038,0.4091179765075445
1761467178419481300,2.2064814453125,-0.23723200832158325,0.06277122121155261,0.7135983514547347
1761467178429464300,2.21646435546875,-0.33565175828039645,-0.12617431058585643,0.9225368699669837
1761467178439446300,2.2264462890625,-0.6109454939708113,-0.2693400879830122,1.1075777955412864
1761467178449429200,2.23642919921875,-0.6996341235101222,-0.37026334519535303,1.2680313923478126
1761467178459412200,2.246412109375,-0.47171530245691534,-0.4309980921432376,1.2668413057804107
1761467178469395500,2.2563955078125,-0.16898936996161937,-0.5995590075597167,1.2031161448448895
1761467178479378200,2.266378173828125,-0.05877133792042732,-0.6373050931081176,0.9631155485928058
1761467178489361400,2.276361328125,-1.010663481709361,-0.24751082575172184,0.8633072668850421
1761467178499344400,2.286344482421875,-0.3284939954802394,-0.19081512506157158,0.7752876226484775
1761467178509327400,2.296327392578125,1.2029390347123146,-0.537461155565083,-0.06777706667482852
1761467178519310300,2.306310302734375,0.31341771464049817,0.01436433317810297,-0.2630336813151836
1761467178529292300,2.316292236328125,0.5390998626828193,0.39144145004153247,-0.1402963594406843
1761467178539275500,2.326275634765625,0.7297720721423625,0.5009273684158921,-0.2887105588853359
1761467178549258200,2.33625830078125,0.5441729281634092,0.7099129409402608,-0.21458266187906264
1761467178559241200,2.3462412109375,0.5032826993703842,0.8496253630131483,-0.018527590337395667
1761467178569224400,2.356224365234375,0.5692746361941099,0.936975145164132,0.1463666192650795
1761467178579207200,2.366207275390625,0.6709405284672976,0.9564686579242349,0.2690940042674541
1761467178589190100,2.376190185546875,0.7825187429457903,0.9511433712482452,0.3175280725687742
1761467178599173400,2.38617333984375,0.8667103533267975,0.8664706993520259,0.3365034066736698
1761467178609156400,2.39615625,0.9789011467456817,0.7433914321720599,0.3882259951263666
1761467178619138300,2.40613818359375,1.139950955879688,0.6417927599161863,0.3984977982938289
1761467178629121300,2.416121337890625,1.251713879275322,0.3834814309477806,0.40831425890922546
1761467178639104300,2.426104248046875,1.357306589603424,0.14972586656510828,0.3800514564990997
1761467178649087200,2.436087158203125,1.403038413208723,-0.06676993545889855,0.37184593821167944
1761467178659070200,2.4460703125,1.4105267231374978,-0.26582126620709895,0.3806266260385513
1761467178669053400,2.456053466796875,1.4325386484593152,-0.47216333848536013,0.3933060748696327
1761467178679036400,2.466036376953125,1.4175158513724804,-0.6978267818272114,0.46421500982940195
1761467178689019100,2.47601904296875,1.2661948245704173,-0.8373480652421712,0.5101806421905756
1761467178699002400,2.48600244140625,1.0825380468308925,-0.87848291644603,0.5356792405843734
1761467178708984300,2.495984375,0.9001192864537239,-1.0988888776510952,0.7061170557886361
1761467178718967300,2.50596728515625,0.7376344760805368,-0.8786442444875836,0.7564923212856054
1761467178728950300,2.5159501953125,0.5844347959250211,-0.7696604304164648,0.7690081039875746
1761467178738933200,2.525933349609375,0.47579146585464477,-0.6414198349505662,0.686048081228137
1761467178748916500,2.53591650390625,0.3458540033429861,-0.4966220724374056,0.5977215629994869
1761467178758899200,2.545899169921875,0.3619564123600721,-0.3765739896468818,0.5486813454985618
1761467178768882200,2.555882080078125,0.4053986637234688,-0.28009894401505586,0.5549988580822944
1761467178778865400,2.565865478515625,0.41841655072867867,-0.16628084165528415,0.5123983182400464
1761467178788848400,2.575848388671875,0.45311727723181244,-0.2107398688457906,0.4260036448568105
1761467178798830300,2.585830322265625,0.4763268879055977,-0.22758608196750282,0.3347551017016172
1761467178808813300,2.595813232421875,0.5395522826254368,-0.27710794550552964,0.2765302917480469
1761467178818797000,2.605797119140625,0.6200573134481907,-0.2589817755758762,0.32852702096700664
1761467178828780300,2.6157802734375,0.6914145766973495,-0.26737185664996505,0.41214755346179005
1761467178838763300,2.62576318359375,0.7037234386503696,-0.2742604471199214,0.44630467460751533
1761467178848746000,2.63574609375,0.6895294936031102,-0.2690377440355718,0.4676841472446918
1761467178858729200,2.645729248046875,0.6213420925617218,-0.2675302620820701,0.4400321702092886
1761467178868712200,2.655712158203125,0.6065320614427328,-0.26736455012634397,0.34549686046838757
1761467178878695200,2.665695068359375,0.6482236697465181,-0.2816119789265096,0.22475100467205048
1761467178888677000,2.675677001953125,0.681501085448265,-0.31580022586286066,0.04803308628499508
1761467178898660000,2.68566015625,0.6590045914798974,-0.3819187116757035,-0.10191256051063537
1761467178908643300,2.695643310546875,0.6113683955579996,-0.4544806745395064,-0.22431962751746176
1761467178918626000,2.7056259765625,0.47468438139557834,-0.542625406460464,-0.262409996458888
1761467178928609000,2.715609130859375,0.38068975440263747,-0.5968136543743312,-0.33382571189701554
1761467178938592300,2.72559228515625,0.4008814785599708,-0.6506646331578493,-0.3887742766588926
1761467178948575200,2.7355751953125,0.44531917070150373,-0.6121035779647529,-0.3725637310922146
1761467178958558200,2.74555810546875,0.4957435360372066,-0.5229704195283353,-0.274206232714653
1761467178968541200,2.755541259765625,0.46137540248930453,-0.4087479741513729,-0.1956833156198263
1761467178978524200,2.765524169921875,0.45114334681034085,-0.28619623797684907,-0.19197452422976494
1761467178988506000,2.775506103515625,0.45798342196345326,-0.1988691060490906,-0.16181553280949593
1761467178998489000,2.785489013671875,0.35416005939543244,-0.10764306698665022,-0.04753448911309242
1761467179008472300,2.795472412109375,0.2298082880616188,-0.08512947575300932,0.04873275898694992
1761467179018455300,2.805455322265625,0.10537176105380058,-0.05807867948114872,0.09764496619403362
1761467179028438000,2.81543798828125,0.05424480040669441,-0.098685853549093,0.12623860799372194
1761467179038421200,2.825421142578125,0.022820319095253942,-0.14849310989975928,0.13117606439590454
1761467179048404200,2.835404296875,-0.0828401957720518,-0.170739428499341,0.08455518299639224
1761467179058387200,2.84538720703125,-0.11870236726999282,-0.1011810313656926,-0.06986439434289932
1761467179068370200,2.8553701171875,-0.06303717867136001,-0.09426116897463797,-0.15446809265613556
1761467179078352100,2.86535205078125,-0.07485036606192588,-0.050632455128431314,-0.21267887408435343
1761467179088335400,2.87533544921875,-0.04707213229835033,-0.03837576175406575,-0.27714111712276934
1761467179098318000,2.885318115234375,-0.011550737062096595,0.02496580669134855,-0.27415011861324307
1761467179108301000,2.895301025390625,-0.04786123684942722,0.02428659225553274,-0.29963176587224005
1761467179118284300,2.9052841796875,-0.09863105462193489,0.020323826104402542,-0.33046295746564863
1761467179128267300,2.915267333984375,-0.10328326434195041,0.025843174047768116,-0.31583938882946966
1761467179138250200,2.925250244140625,-0.07697919478416443,0.020013298850506542,-0.26574294027388096
1761467179148233200,2.935233154296875,-0.17238251953125,-0.014123510159552096,-0.26775135748684403
1761467179158216200,2.94521630859375,-0.24663433517813682,-0.02250774601474404,-0.2907885342031717
1761467179168198100,2.9551982421875,-0.24962474916577337,0.027186405350267884,-0.2816664855927229
1761467179178181000,2.96518115234375,-0.28440438612401486,0.03240384773761034,-0.27569500996768476
1761467179188164400,2.975164306640625,-0.18124504042267797,0.06764204211831093,-0.29492285752892494
1761467179198147000,2.98514697265625,-0.16247954967617986,0.027658699037134644,-0.35126316891014575
1761467179208130000,2.995130126953125,-0.18976503148674964,-0.011134411346167326,-0.3991618151605129
1761467179218113300,3.00511328125,-0.21906711381673813,-0.02399184709265828,-0.41975569037795063
1761467179228096300,3.01509619140625,-0.2598527131915092,-0.08988251549899577,-0.4166214840054512
1761467179238079000,3.025078857421875,-0.35359248864054676,-0.13605360730439423,-0.38188802427649493
1761467179248062200,3.035062255859375,-0.3919692733079195,-0.2066083219990134,-0.3887047185540199
1761467179258044200,3.045044189453125,-0.46340427796840666,-0.3038743718780577,-0.42795302535891533
1761467179268027100,3.055027099609375,-0.45822424498200415,-0.3313688202641904,-0.4955231712847948
1761467179278010000,3.065010009765625,-0.5182721787095069,-0.4075045499615371,-0.5840770685285329
1761467179287993000,3.0749931640625,-0.4565016589730978,-0.4328337831377983,-0.6133849960774183
1761467179297976300,3.084976318359375,-0.4597106841474771,-0.38965763536468145,-0.6546680235803127
1761467179307959000,3.094958984375,-0.5018529588282108,-0.38686873529851434,-0.6638824266493321
1761467179317942000,3.10494189453125,-0.6082762747615575,-0.36802827961966394,-0.6718915455818176
1761467179327925200,3.11492529296875,-0.6591150661170482,-0.37278906428068875,-0.6914069779127836
1761467179337908200,3.124908203125,-0.6627665743619203,-0.37686142828613517,-0.6645651482164859
1761467179347890200,3.13489013671875,-0.6102613110989332,-0.40478418508693575,-0.6514549067527056
1761467179357873200,3.144873046875,-0.556170824471116,-0.34216318600103257,-0.6181681387007236
1761467179367856400,3.1548564453125,-0.4678355384141206,-0.31592648259103295,-0.5862456447392702
1761467179377839000,3.164839111328125,-0.49616614536345,-0.26895766453668474,-0.5264420411616564
1761467179387822000,3.174822021484375,-0.5315554386526345,-0.2217646823376417,-0.5683113441199064
1761467179397805300,3.184805419921875,-0.49221127025783057,-0.2562150873415172,-0.6657505586087703
1761467179407788300,3.194788330078125,-0.5745370867669582,-0.2882179530628025,-0.7631342435181141
1761467179417771000,3.20477099609375,-0.6387900709688663,-0.23929376315698025,-0.8868757739990949
1761467179427753200,3.214753173828125,-0.7101356437802314,-0.1807970043942332,-1.003294998767972
1761467179437736200,3.224736083984375,-0.6842424931108951,-0.033749563258141276,-1.1966507482230662
1761467179447719200,3.23471923828125,-0.6395382589876651,0.06610986411496997,-1.1794359940499066
1761467179457702100,3.2447021484375,-0.6481658020794391,0.14287614680081606,-1.1236422106355428
1761467179467685000,3.25468505859375,-0.7701251253187656,0.21358985144942996,-0.9329653250008821
1761467179477668400,3.26466845703125,-1.0782061551064253,0.35223888207450504,-0.6938841816812753
1761467179487651000,3.274651123046875,-1.3435685716301202,0.3626408874928951,-0.40402562180459495
1761467179497634000,3.284634033203125,-1.3658049533575773,0.22129165799841283,0.04901332949399948
1761467179507617300,3.2946171875,-1.1389356413573026,0.5319356701418757,0.42370764287412166
1761467179517599200,3.30459912109375,-0.9927052156925201,0.5459831924557685,0.6591226649016142
1761467179527582200,3.314582275390625,-0.9280565101712942,0.5187563089646399,0.79702891433537
1761467179537565200,3.324565185546875,-0.7236082888156176,0.5138096463426948,0.8846113361984491
1761467179547548400,3.33454833984375,-0.3977683149755001,0.3002504822924733,1.0864245328754185
1761467179557531100,3.34453125,-0.21424305466115473,0.0856971926383674,1.1663701762497425
1761467179567514000,3.35451416015625,-0.15694412738084793,-0.19938231626823544,1.1915332590788603
1761467179577497300,3.364497314453125,-0.08578326348662375,-0.492935054487735,1.219167700457573
1761467179587480000,3.37447998046875,-0.010247837769985198,-0.8102715500071644,1.176494095379114
1761467179597463000,3.384463134765625,0.03895896846950054,-1.0311932056494058,0.9144371501415968
1761467179607445200,3.3944453125,0.3196984023451805,-1.1292812394358218,0.6229255623608827
1761467179617428000,3.404427978515625,0.730996645501256,-0.9979710272662341,0.4327519500732422
1761467179627411200,3.4144111328125,1.133459255772829,-0.993893548694253,0.16824001289904117
1761467179637394200,3.424394287109375,1.311345048895478,-1.1018078338377177,-0.08968786970973014
1761467179647377200,3.434377197265625,1.4317010285913943,-0.8797456298582256,-0.2514455348521471
1761467179657360100,3.444360107421875,1.7014608032912015,-0.8671491831354796,-0.3887485576957464
1761467179667343000,3.454343017578125,1.7961241233259437,-0.44696869147419926,-0.40491994029581546
1761467179677326000,3.464326171875,1.4042057034224271,-0.19353169054389,-0.2340174301892519
1761467179687309300,3.474309326171875,1.2150135033875704,-0.0027536826223134993,-0.19457330855131147
1761467179697291000,3.484291015625,1.1396394057124852,0.26027415347397326,-0.1152566107302904
1761467179707274200,3.494274169921875,1.066399397456646,0.4527504897460341,-0.001373041918873787
1761467179717257200,3.50425732421875,0.8403513387113809,0.572316195847094,0.04560673592090606
1761467179727240200,3.514240234375,0.5440846653580665,0.7419589151509106,0.3280202404886484
1761467179737223200,3.52422314453125,0.4042050700247288,0.8633537363752722,0.7300549807369708
1761467179747206100,3.5342060546875,-0.1792705254793167,1.5603830842144786,1.4849036264687776
1761467179757189400,3.544189453125,-0.5750666635990143,2.189812767772376,2.7872669120073317
1761467179767172000,3.554172119140625,0.2947217819988727,0.8671620426170528,2.0764836179733277
1761467179777155000,3.564155029296875,0.29812019226551056,0.5308728632159531,1.258474459451437
1761467179787137300,3.57413720703125,0.42971535885632034,0.1944140263363719,0.9801566997647285
1761467179797120000,3.5841201171875,0.5928904895812273,-0.08818389488756656,0.6638000090628862
1761467179807103200,3.594103271484375,0.526793338817358,-0.4290560181647539,0.31452479909956454
1761467179817085700,3.604085693359375,0.47309974255263804,-0.6019061552077531,-0.12590250790715216
1761467179827068700,3.614068603515625,0.4659650683671236,-0.5840744381800294,-0.4247632894068956
1761467179837051600,3.6240517578125,0.36381051579415796,-0.5647697259902954,-0.5056260476261377
1761467179847034600,3.63403466796875,0.3563759818792343,-0.41515725667178627,-0.5327753358364105
1761467179857017600,3.644017578125,0.5857096381664276,-0.22326310420185327,-0.34671032791137696
1761467179867000600,3.65400048828125,0.9145850341796874,0.173253457146883,-0.018270985227823257
1761467179876982800,3.663982666015625,1.043010338562727,0.477432218798995,0.21900983067154883
1761467179886965800,3.6739658203125,0.8793693438917398,0.36937311835736036,0.2011597012042999
1761467179896948500,3.683948486328125,0.5393307488292456,0.3799886203959584,0.026214053186774253
1761467179906931700,3.693931640625,0.1794797843158245,0.1842424686729908,-0.19732406856417656
1761467179916914700,3.703914794921875,0.019946809485554693,0.09485562773644923,-0.4141290826678276
1761467179926897400,3.7138974609375,0.12564940992891788,0.0721028209194541,-0.5562468123167753
1761467179936880600,3.723880615234375,0.2568576230287552,-0.011675824746489524,-0.6603449001729488
1761467179946863600,3.733863525390625,0.22423194923400877,0.013299042034149168,-0.6712374655872583
1761467179956845600,3.743845458984375,0.1636637910246849,0.018224515737593174,-0.6162362938553094
1761467179966828500,3.75382861328125,0.16672084050774574,-0.07687894928008318,-0.4979138658136129
1761467179976811500,3.7638115234375,0.11062602832019329,-0.10773702888041733,-0.50675943557024
1761467179986794800,3.773794677734375,-0.02643149532973766,-0.11880232051312922,-0.5109703312635422
1761467179996777500,3.783777587890625,-0.19810323624312876,-0.06967968542575836,-0.4962362879902124
1761467180006760700,3.7937607421875,-0.23354747458994388,-0.3086012542694807,-0.46867549636960026
1761467180016743700,3.80374365234375,-0.23200725941061973,-0.16007248853445052,-0.5050093770325184
1761467180026726700,3.8137265625,-0.15891922684609888,-0.22631664655357597,-0.5715238764256239
1761467180036709600,3.823709716796875,-0.15171090290248393,-0.2573153036683798,-0.7060422369867563
1761467180046691600,3.833691650390625,-0.2808937476545572,-0.3388862101569772,-0.7575023751109838
1761467180056674800,3.8436748046875,-0.4128162465035915,-0.39285833110213275,-0.7759323502928018
1761467180066657500,3.853657470703125,-0.3751812201142311,-0.4665133498996496,-0.74014616664052
1761467180076640500,3.863640625,-0.28830080904066563,-0.35970191143155095,-0.7902548901557922
1761467180086623700,3.873623779296875,-0.29269816721677777,-0.2472466218575835,-0.9100883072823286
1761467180096606700,3.883606689453125,-0.29696868414282795,-0.13482465003132818,-1.0345435389906168
1761467180106589400,3.89358935546875,-0.31691958528161046,0.007213876901566982,-1.0788123043060303
1761467180116572700,3.90357275390625,-0.41429508688449856,0.11593611742705107,-1.0667892735570668
1761467180126555600,3.9135556640625,-0.45015141316354274,0.1801312339618802,-0.9349199661999941
1761467180136538600,3.92353857421875,-0.4757411969721317,0.21874708808213472,-0.7035813998311757
1761467180146520600,3.9335205078125,-0.4644429733663797,0.23328999269753692,-0.5078817175984383
1761467180156503600,3.943503662109375,-0.4061334077388048,0.21550562194287776,-0.49157998661696906
1761467180166486800,3.95348681640625,-0.21809914556741714,0.20605828690081834,-0.521062101688981
1761467180176469500,3.963469482421875,-0.05474807375371456,0.3008706600174308,-0.5659060365438461
1761467180186452700,3.97345263671875,-0.01919803694486618,0.4587830479085445,-0.5256278021693229
1761467180196435700,3.983435791015625,-0.1556120019942522,0.5301406034186482,-0.4475152194410562
1761467180206418700,3.993418701171875,-0.36379414918124675,0.5622983674407005,-0.29403204616904255
1761467180216401700,4.003401611328125,-0.4422580295652151,0.5817603160187602,-0.12966858244240284
1761467180226382800,4.0133828125,-0.5330091445922851,0.6131982413336634,-0.040810149294137954
1761467180236365600,4.023365478515625,-0.6342378144919872,0.7153951717436313,-0.012964110991358756
1761467180246348500,4.0333486328125,-0.7011492042481899,0.8120522959440946,-0.034140170010924335
1761467180256330800,4.043330810546875,-0.7525023748666048,0.8700418358370661,-0.13508359322845934
1761467180266313500,4.0533134765625,-0.7973264359772205,0.8990569179192185,-0.2052472627788782
1761467180276296700,4.063296630859375,-0.9686609077602625,0.7952467070937156,-0.22713117780685424
1761467180286279700,4.07327978515625,-1.1342506984114646,0.7137684473246335,-0.15155249747037886
1761467180296262700,4.0832626953125,-1.1729723509937524,0.4488441299572587,-0.0063525838971138
1761467180306245600,4.09324560546875,-0.9154664931893348,0.1996554341211915,0.11668693579435348
1761467180316228600,4.103228515625,-0.6105576636970043,-0.023197920235991477,0.2214560547798872
1761467180326211600,4.113211669921875,-0.5072165316879749,-0.09467501047253608,0.3625006022393703
1761467180336194600,4.123194580078125,-0.6179004276752471,-0.1427238788485527,0.45115971342325206
1761467180346176500,4.133176513671875,-0.5683282952547073,-0.5133338455244898,0.39658407362699505
1761467180356159700,4.14315966796875,-0.5079115282148122,-0.5562482736214995,0.28711481412649154
1761467180366142700,4.153142822265625,-0.5413625469177961,-0.32999738578051324,0.1469581554174423
1761467180376125700,4.163125732421875,-0.6115928519636392,-0.035033903980255125,0.02575929515659809
1761467180386108700,4.173108642578125,-0.530129789763689,0.10138006106913089,-0.12506079638600348
1761467180396091600,4.183091552734375,-0.28477029682695865,0.15256898103654384,-0.15603110418915747
1761467180406074600,4.19307470703125,-0.08098141616284847,0.2655669991850853,-0.1766132889688015
1761467180416057600,4.2030576171875,0.1689624819546938,0.34486762265413995,-0.15658230833113193
1761467180426040600,4.21304052734375,0.2697808174878359,0.4046814553648233,-0.22497779916524885
1761467180436022500,4.2230224609375,0.28775837272703647,0.5268126280397176,-0.2544026310920715
1761467180446005500,4.233005615234375,0.4795610475212335,0.6561190991714596,-0.22310966720581055
1761467180455988700,4.24298876953125,0.7219611061304807,0.7336918759346008,-0.1215396365225315
1761467180465971700,4.2529716796875,0.841979232174158,0.694496468360722,-0.06992050844430923
1761467180475954400,4.262954345703125,0.7646762122631072,0.627320874710381,0.14465747725963593
1761467180485937700,4.272937744140625,0.7410808171421289,0.49669484541267156,0.3720885147958994
1761467180495920600,4.282920654296875,0.7911825263947247,0.4458747587576508,0.47131870435476303
1761467180505903600,4.292903564453125,0.904486834013462,0.34639380930811164,0.49126609836220736
1761467180515886600,4.302886474609375,1.0243623367160557,0.2548535897299647,0.46412440893650053
1761467180525869600,4.31286962890625,1.1275392180740833,0.19037994851469991,0.40915421686470504
1761467180535851800,4.322851806640625,1.1662117708176374,0.09717501059472561,0.3374725439667702
1761467180545834500,4.33283447265625,1.3083861990898846,-0.14913082328140734,0.32504268598258496
1761467180555817700,4.342817626953125,1.3438684313595295,-0.2943170005902648,0.254718857434392
1761467180565800700,4.35280078125,1.3130758182108402,-0.49105479369908567,0.216745392870903
1761467180575783700,4.36278369140625,1.259874973899126,-0.6081658001244068,0.37147125968039035
1761467180585766700,4.3727666015625,0.9778098443776368,-0.7496519538715481,0.3357230699509382
1761467180595749600,4.38274951171875,1.0234756170094013,-1.318124626033008,0.06315817470252513
1761467180605732600,4.392732666015625,0.7352619017302989,-1.1823536350622772,0.4751964225709438
1761467180615715800,4.4027158203125,0.5547650493264198,-1.6368202810764312,0.8081617182463408
1761467180625697500,4.412697509765625,0.6861258226394653,-1.687485469430685,0.7491197466909885
1761467180635680800,4.4226806640625,0.851211170899868,-1.0960787886664272,0.9166980808109044
1761467180645663700,4.432663818359375,0.7692156092584133,-0.88179335616827,1.2158709969997405
1761467180655646500,4.442646484375,0.37169688512980936,-0.7590905210852622,1.2806424521178006
1761467180665629700,4.452629638671875,-0.01713409015238285,-0.894292772257328,1.0292582920640707
1761467180675612700,4.46261279296875,-0.15893676250278949,-0.8634557354450225,0.9381611400783061
1761467180685595600,4.472595703125,-0.08688567177057266,-0.8964078647151589,0.8032265999317169
1761467180695578600,4.48257861328125,0.023144728744029997,-0.8967743599399923,0.610149667418003
1761467180705561600,4.4925615234375,0.21860300343632696,-0.926374548433721,0.49761166799664497
1761467180715543800,4.502543701171875,0.4257189826965332,-0.9524111992269754,0.442470795533061
1761467180725526500,4.512526611328125,0.5290811574935913,-0.9663584760367869,0.33139293179213997
1761467180735509800,4.522509765625,0.5103530761480332,-0.9624354573741555,0.2041922007679939
1761467180745492700,4.53249267578125,0.38739129786789417,-0.9513441545173525,0.1541565424889326
1761467180755475500,4.542475341796875,0.3690145141780376,-0.8986497984230518,0.13520458925962447
1761467180765458700,4.552458740234375,0.5020066880851983,-0.8259940197959542,0.15093582687675952
1761467180775441700,4.562441650390625,0.6376572675466537,-0.730151719109714,0.14363573299646376
1761467180785424600,4.572424560546875,0.6638496934235095,-0.610416501660645,0.06849369051158428
1761467180795407600,4.58240771484375,0.5793348424375057,-0.4426993435919285,-0.0269745161652565
1761467180805389600,4.5923896484375,0.5032318459659815,-0.3278203340023756,-0.05721767873764038
1761467180815377200,4.602377197265625,0.4645481873065233,-0.3302569134995341,-0.07479425196051598
1761467180825360400,4.6123603515625,0.40911505389809605,-0.34447102455198764,-0.18789105430841443
1761467180835343400,4.62234326171875,0.42306642236113545,-0.379825246527791,-0.31520927423238754
1761467180845326000,4.632326171875,0.434801868340373,-0.4282560999587178,-0.3513257127523422
1761467180855309300,4.642309326171875,0.3144622552573681,-0.4583507939711213,-0.40602059501409526
1761467180865292300,4.652292236328125,0.21513211245536804,-0.49514703144878147,-0.49335050342082976
1761467180875275300,4.662275146484375,0.19419220027923584,-0.6229626795008778,-0.5527805975109339
1761467180885257200,4.67225732421875,-0.1345072546452284,-0.9292617943078278,-0.7309037065207957
1761467180895240200,4.682240234375,0.45607904964685436,-0.7512588045462966,-0.5871352870553732
1761467180905223400,4.692223388671875,0.4645622158318758,-0.9482344980642199,-0.22441081293225287
1761467180915206100,4.7022060546875,-0.08316811255216598,-0.9377242099657654,-0.2015524999141693
1761467180925189400,4.712189453125,-0.5247720621228218,-0.9377008290901779,-0.04374211109280586
1761467180935172400,4.72217236328125,-0.5795183823108673,-0.8532970372632145,0.21163608703315256
1761467180945155000,4.732155029296875,-0.33640053082108495,-0.7235454527124762,0.17832886071503162
1761467180955138300,4.74213818359375,-0.5308657028228044,-1.0050953261882065,-0.09101941057443619
1761467180965121300,4.752121337890625,-0.9311047918260097,-1.2112678871184588,-0.6458516799181699
1761467180975104300,4.762104248046875,-0.6699275520324707,-0.6117381056532264,-0.1898228991538286
1761467180985086200,4.772086181640625,-0.32215923950076103,-0.5851207323625683,0.2888081740409136
1761467180995069200,4.782069091796875,-0.20786416727900503,-0.3482268699541688,0.48196635509729385
1761467181005052400,4.792052490234375,-0.5528378806561232,-0.5254071451559662,0.26966332858800884
1761467181015035100,4.80203515625,-0.9639180971473454,-0.7818518034696579,-0.11822656645178795
1761467181025018000,4.81201806640625,-0.6665127751529216,-0.6050754328936339,-0.12125438984036445
1761467181035001300,4.82200146484375,-0.29449966368079183,-0.6340706412315368,-0.19097148466706274
1761467181044984300,4.831984375,-0.12680208709537982,-0.416312271925807,-0.39511166298687456
1761467181054967000,4.841967041015625,-0.33816052623093124,-0.7274310619741677,-0.6581155336856842
1761467181064950300,4.8519501953125,-0.6120031863301992,-0.7896060708582401,-1.0949369251549244
1761467181074932200,4.86193212890625,-0.5153150824695826,-0.7300520581275224,-1.103794769871235
1761467181084915200,4.871915283203125,-0.3481622802853584,-0.754391257353127,-1.1175047307938337
1761467181094898200,4.881898193359375,-0.34388358005285263,-0.850830647149682,-1.019677393770218
1761467181104881400,4.89188134765625,-0.263689514875412,-0.9438120054468512,-0.8783961149454116
1761467181114864400,4.901864501953125,-0.01549976694881916,-1.009483039753139,-0.7793190701216459
1761467181124847000,4.91184716796875,-0.020829437538981435,-1.162993685553968,-0.6704787561744451
1761467181134830300,4.921830322265625,-0.4956891755014658,-1.2029416650608182,-0.4936234751433134
1761467181144813300,4.931813232421875,-0.7757675151199102,-1.2894009281128644,-0.2525146253883839
1761467181154796300,4.94179638671875,-1.2599059535592794,-2.0257073704600335,-0.6016746845394373
1761467181164778200,4.9517783203125,-1.0891577572315931,-1.1555769795566797,-0.2722287951618433
1761467181174761200,4.96176123046875,-0.8433511050492525,-1.1549205614745617,0.2331628591865301
1761467181184744400,4.971744384765625,-0.7702712557911873,-0.9445277525007724,0.2983049011826515
1761467181194727200,4.98172705078125,-0.46753450964093207,-0.6415849623844028,0.4704536119580269
1761467181204710100,4.991710205078125,-0.2621691734403372,-0.5730985783964395,0.5440262131690978
1761467181214693400,5.001693359375,-0.47265959756970405,-0.4286173344865441,0.48697629221379757
1761467181224676400,5.01167626953125,-1.1700965032964945,-0.6715604139313102,0.08579320035874843
1761467181234659000,5.0216591796875,-1.3251345047950744,-0.5149415729820728,-0.03226911544203758
1761467181244642300,5.031642333984375,-0.9385077615588903,0.08524638013094663,0.39747897664010523
1761467181254624300,5.041624267578125,-0.9483055174738169,0.47780134437233207,0.6513163750648499
1761467181264607200,5.051607177734375,-0.8491846335083246,0.5022814133733511,0.8456634736448526
1761467181274590200,5.061590087890625,-0.6318997269332408,0.660678369911015,0.9376052597612142
1761467181284573400,5.071573486328125,-0.44530514217615125,0.3467608890548348,0.8489110772639512
1761467181294556200,5.08155615234375,-0.2026245130598545,0.2322778930455446,0.7559200743556023
1761467181304539100,5.0915390625,-0.03874912511110305,-0.01543868441134691,0.9720850369900464
1761467181314522400,5.1015224609375,0.08877660008370876,-0.3341936684265733,1.1748831530511379
1761467181324505300,5.11150537109375,0.12952771266698837,-0.5008686239659786,1.1612789905905723
1761467181334488000,5.121488037109375,0.19080080427527427,-0.7281779348187148,1.073349947246909
1761467181344470300,5.13147021484375,0.4641220708489418,-0.925113734717667,0.975670494261384
1761467181354453200,5.141453369140625,0.7022802541047334,-0.9821687702395021,0.8395897066891193
1761467181364436200,5.151436279296875,0.8403577684521675,-1.0003151061743498,0.6716150667279959
1761467181374419200,5.161419189453125,0.8513432728469371,-0.9579293781265615,0.4418354202389717
1761467181384402200,5.171402099609375,1.253323068037629,-0.691678488330543,0.2820183677703142
1761467181394385400,5.181385498046875,1.5801619897872208,-0.6215351309157907,0.17907237255871294
1761467181404368100,5.1913681640625,1.5853905380904674,-0.5356991143286228,-0.07768354366123675
1761467181414351000,5.20135107421875,1.7153806075721978,-0.33347149163186546,-0.2708329568892717
1761467181424334300,5.211334228515625,1.8492717761456965,-0.13247896368801593,-0.358793564414978
1761467181434316000,5.22131591796875,1.871763009417057,0.12357464948147534,-0.32331717736423016
1761467181444299300,5.23129931640625,1.7627753959536552,0.33899332379326225,-0.15745675307810306
1761467181454282200,5.2412822265625,1.5249030439019202,0.6003402210652827,0.03916238208711147
1761467181464265500,5.251265380859375,1.160414482715726,0.8155307857096195,0.2678273453325033
1761467181474248200,5.261248291015625,0.8931623069226742,0.9608911505416035,0.4769178395360708
1761467181484231200,5.271231201171875,0.6990741515398025,0.9847953193508088,0.6053168404340744
1761467181494214400,5.28121435546875,0.4321645055741071,0.9789153214015066,0.6148094759225845
1761467181504197400,5.291197265625,0.1708493186146021,1.0145235181383787,0.655500967273116
1761467181514180000,5.30118017578125,-0.005967968493700027,0.9368528339587151,0.6823369517505169
1761467181524162300,5.311162353515625,0.08434183250665664,0.9172523536927998,0.802840230962634
1761467181534145300,5.321145263671875,0.2019230867922306,0.7821310588024556,0.7766244242101907
1761467181544128300,5.331128173828125,0.20239654952287672,0.5941925120905042,0.6739438019365072
1761467181554111200,5.341111328125,0.09509528171122074,0.5071782455042004,0.5960802255332469
1761467181564094200,5.35109423828125,0.010400982505083084,0.40137525342628355,0.4117483250111341
1761467181574077400,5.361077392578125,0.38049393956959243,0.24498072275221347,0.44141514900028705
1761467181584060200,5.37106005859375,0.4352653941988945,0.031765842095017434,0.3340162660330534
1761467181594043100,5.381043212890625,0.08394903379678725,0.18077976099848747,-0.03440495842695236
1761467181604026400,5.3910263671875,0.882917976284027,0.11116174263209104,0.08117781551778316
1761467181614008000,5.401008056640625,1.2126105338990687,0.029611878931522367,0.1852922699868679
1761467181623991300,5.4109912109375,0.9862631999462842,0.05574497583657503,0.012217092016339302
1761467181633974300,5.420974365234375,0.79702891433537,0.030793197670578955,-0.14834054968655108
1761467181643957500,5.43095751953125,0.6135118373274803,0.006044248600304126,-0.14622574948966502
1761467181653940200,5.440940185546875,0.49044016893208026,0.02079261265993118,-0.2511310620754957
1761467181663923200,5.450923095703125,0.3323427798628807,-0.019385960732400415,-0.48418870732188224
1761467181673906400,5.460906494140625,0.32296354162096974,-0.03261369109600782,-0.5889777000516653
1761467181683889200,5.47088916015625,0.2869990787923336,-0.06108662912547588,-0.6936743383228778
1761467181693872000,5.4808720703125,0.2187929730504751,-0.05966536415070295,-0.7415852595329284
1761467181703854300,5.490854248046875,0.09566285246610641,-0.0318783625587821,-0.7010901675373316
1761467181713837000,5.500837158203125,-0.006871639335155486,-0.11488573159128426,-0.6430564962416887
1761467181723820300,5.5108203125,-0.031602760487794875,-0.13659779718369244,-0.6949860054433346
1761467181733803300,5.52080322265625,-0.07593816129863262,-0.18863339710831642,-0.6480816309273243
1761467181743786200,5.5307861328125,-0.14102233562767505,-0.20893822625130415,-0.5802946273803711
1761467181753769200,5.540769287109375,-0.16371464442908762,-0.2625137490943074,-0.4574152666866779
1761467181763752200,5.550752197265625,-0.1901461397588253,-0.2287120172575116,-0.29343992549479003
1761467181773735200,5.560735107421875,-0.1498953779131174,-0.25652123068124055,-0.19232699092924593
1761467181783718400,5.570718505859375,-0.16640110703408717,-0.3041317076399922,-0.14188508993685245
1761467181793700000,5.5807001953125,-0.19634031822383402,-0.27928455889225007,-0.1465133342593908
1761467181803683300,5.590683349609375,-0.24347499436438083,-0.2564440737918019,-0.15428163017332552
1761467181813666300,5.600666259765625,-0.22868542151153087,-0.18373101201951503,-0.12907587724626063
1761467181823646200,5.610646240234375,-0.2048158856242895,-0.14178162956237791,-0.20146423710882663
1761467181833629400,5.62062939453125,-0.18772914174497127,-0.09168722683340311,-0.27569033379256724
1761467181843612200,5.630612060546875,-0.24112872349917888,-0.0670201108276844,-0.32647593365609645
1761467181853595100,5.64059521484375,-0.32493747204244133,-0.07662409773617983,-0.3569394609808922
1761467181863578400,5.650578369140625,-0.3531681257486343,-0.13324936353862285,-0.35959085227251053
1761467181873561300,5.660561279296875,-0.29374446139931676,-0.19445289704203605,-0.3206570182442665
1761467181883543300,5.670543212890625,-0.14175240346789358,-0.1871434508115053,-0.27650983348190783
1761467181893526300,5.6805263671875,0.042187282866239545,-0.16195231093168258,-0.2393061842471361
1761467181903509500,5.690509521484375,0.0001087210714817047,-0.27456454463303087,-0.41074353188276286
1761467181913492200,5.7004921875,-0.08255904074311256,-0.3272252907186746,-0.5805331123113632
1761467181923475200,5.71047509765625,-0.04077975415587425,-0.2719377032607794,-0.6172247203707695
1761467181933458400,5.72045849609375,0.0036713819891214367,-0.2224135016351938,-0.656116468822956
1761467181943441400,5.73044140625,0.08715221375226974,-0.17430968820154666,-0.6597913579434156
1761467181953424100,5.740424072265625,0.20773615698516368,-0.10930734693706035,-0.5785977603346109
1761467181963407400,5.750407470703125,0.1258054772734642,-0.058958384925127026,-0.5584878692418337
1761467181973389300,5.760389404296875,-0.0424245987534523,-0.07897241442799567,-0.5189689288020134
1761467181983372300,5.770372314453125,-0.12290975583195686,-0.053044192445278165,-0.36708150028884406
1761467181993355300,5.780355224609375,-0.20097674585282801,0.00011252046376466751,-0.16953882053792477
1761467182003338200,5.790338134765625,-0.223172211048007,0.014750117625296115,-0.029059505745768547
1761467182013321500,5.800321533203125,-0.30667876177430153,0.04810673604309559,0.044639352193474764
1761467182023304200,5.81030419921875,-0.5026081611096859,0.08637333833426236,0.13827625178992747
1761467182033287200,5.820287109375,-0.48419104540944097,0.061572659076750275,0.14379355390667914
1761467182043270400,5.8302705078125,-0.444466353264451,0.051752399069070816,0.013211948272585868
1761467182053252000,5.840252197265625,-0.4157026155948639,0.02569090609550476,-0.12170271812975406
1761467182063235300,5.8502353515625,-0.34097616817355153,0.004877542908489704,-0.20222703817486762
1761467182073218300,5.86021826171875,-0.36953941483497615,-0.09597703298181295,-0.30393150889277454
1761467182083201500,5.870201416015625,-0.41956630528569216,-0.13667963024824856,-0.4668441892892122
1761467182093184300,5.880184326171875,-0.5740168622851372,-0.12631342679560184,-0.5461906977266073
1761467182103167200,5.890167236328125,-0.7359843707859516,-0.2813184028074145,-0.5986211421877146
1761467182113150500,5.900150390625,-0.893735138374567,-0.26186346849203107,-0.600395750644803
1761467182123133200,5.91013330078125,-1.0091811341971157,-0.322716873383522,-0.548177487629652
1761467182133116200,5.9201162109375,-1.0527204161942005,-0.32541268833875653,-0.44468262636363504
1761467182143098400,5.930098388671875,-1.1808616429388523,-0.277962370377779,-0.36831542599797246
1761467182153081300,5.940081298828125,-1.1638093858510254,-0.10890548813790082,-0.1979103440195322
1761467182163064300,5.950064208984375,-1.0148398906111717,-0.06515139434635639,0.06967734733819961
1761467182173047300,5.96004736328125,-0.8723959977477789,-0.10739975975006819,0.12384089920222759
1761467182183030300,5.9700302734375,-0.8426081777274608,-0.024396190109848975,0.08490180447697639
1761467182193013200,5.98001318359375,-0.6685650315076113,-0.019146306757628916,0.0407908600717783
1761467182202996200,5.989996337890625,-0.42277533046007154,-0.09336889631003141,0.011095979031920432
1761467182212979200,5.999979248046875,-0.11722001975774764,0.19756313801705835,0.08342764027118682
1761467182222962400,6.00996240234375,0.07018003616333007,0.31780104429125783,0.10832418111860752
1761467182232944000,6.019944091796875,-0.06970481986701488,0.3977300287917256,-0.021229835033416748
1761467182242927400,6.02992724609375,-0.19995441706776618,0.49029783785194153,-0.017044658303260803
1761467182252910300,6.039910400390625,-0.15297288566231726,0.6050257485330105,0.011523264533281325
1761467182262893300,6.049893310546875,-0.20637246741652487,0.7129273203253745,-0.08788345063626765
1761467182272876300,6.059876220703125,-0.1587836177676916,0.8061670372977853,-0.23224223721027373
1761467182282859300,6.069859375,0.02296644956767559,0.9138000212818383,-0.31883330994844433
1761467182292842500,6.079842529296875,0.21347674646377562,1.0866273619711397,-0.4631231229394674
1761467182302825200,6.0898251953125,0.2974327945232391,1.1679793650120496,-0.492879963299632
1761467182312807400,6.099807373046875,0.2783978391855955,1.2223963071152568,-0.4645546170473098
1761467182322790400,6.109790283203125,0.2518763274848461,1.0789809388712048,-0.3966483710348606
1761467182332773000,6.119773193359375,0.3700263215690851,0.9101984896585344,-0.23561960468888282
1761467182342756400,6.12975634765625,0.6041057110786437,0.7191983634188771,-0.010997779354453086
1761467182352739300,6.1397392578125,0.7827946372777224,0.5383446604013443,0.20304946047365663
1761467182362722300,6.149722412109375,0.8970032002598046,0.3838245452970266,0.35150165384113785
1761467182372705300,6.159705322265625,0.9339946680486202,0.2696466697141528,0.49555473546683787
1761467182382688300,6.169688232421875,0.9538637361228466,0.17352935147881507,0.5496913993239403
1761467182392671200,6.179671142578125,1.076117658394575,0.11694120281636715,0.5402513708055019
1761467182402653200,6.189653076171875,1.2576654811561108,0.04352992964684963,0.5032201555281878
1761467182412636200,6.19963623046875,1.4133552245616912,-0.01930354314595461,0.45932080804705616
1761467182422619400,6.209619384765625,1.4668430691212415,-0.028332068254053593,0.3603045534998178
1761467182432602400,6.219602294921875,1.411373110833764,-0.034113282003998754,0.19904607005119324
1761467182442585300,6.22958544921875,1.3659709575742482,-0.023997253920137882,0.11144085183441638
1761467182452568300,6.239568359375,1.3520242652863264,-0.03946954834014177,0.04349310476779938
1761467182462551300,6.24955126953125,1.276710373365879,-0.0737581869110465,-0.00298632233440876
1761467182472534500,6.259534423828125,1.2643991733253002,-0.14559884976297616,0.01165595100224018
1761467182482516200,6.26951611328125,1.1660738236516714,-0.20804566132575272,0.0621007746040821
1761467182492499500,6.27949951171875,0.9239455677211285,-0.19869126526415348,0.19435645093023776
1761467182502482400,6.289482421875,0.7506821737021208,-0.14996055210381745,0.31004794594645496
1761467182512465200,6.299465087890625,0.5782546459853649,-0.18109832542836665,0.44931730042695994
1761467182522448400,6.309448486328125,0.4592191012382507,-0.22252777566462753,0.5836527056366205
1761467182532431400,6.319431396484375,0.3802349963724613,-0.2296983979463577,0.7595511243343352
1761467182542414000,6.3294140625,0.32599194953143595,-0.2538730542600155,0.9315314928054809
1761467182552397300,6.339397216796875,0.34288404762148855,-0.22260025637894867,1.12303196978271
1761467182562379300,6.349379150390625,0.33301907168924805,-0.22582652494907376,1.2167080323457717
1761467182572362200,6.3593623046875,0.21748422853946683,-0.23385464084297417,1.203708265519142
1761467182582345200,6.36934521484375,0.19211597852706908,-0.2533607208237052,1.0571686277747154
1761467182592328200,6.379328125,0.24164719441533086,-0.25926380738765,0.8193705100029707
1761467182602311400,6.3893115234375,0.2179477543979883,-0.2508089905142784,0.5948971532285213
1761467182612294100,6.399294189453125,0.293046542263031,-0.2257774251103401,0.3932447000712156
1761467182622277400,6.40927734375,0.36185587459504603,-0.16341040078550575,0.21884616454243658
1761467182632260400,6.41926025390625,0.3658493281453848,-0.09971183559596537,0.08757891473174095
1761467182642243300,6.429243408203125,0.39843057827651496,-0.07010010279491544,0.10119827476143836
1761467182652225300,6.439225341796875,0.5538070179492235,0.0064468380518257614,0.06580255173146725
1761467182662208300,6.449208251953125,0.6863467719137668,0.049366380715370174,-0.03362228361666202
1761467182672191500,6.45919140625,0.7418015326321125,0.06327186421006918,-0.13639818295836448
1761467182682174200,6.46917431640625,0.7409528068482876,0.06592047902271152,-0.20324176817536352
1761467182692157200,6.4791572265625,0.7601718865811824,0.07157178278267383,-0.17922493277192114
1761467182702140400,6.489140380859375,0.7636877857476473,0.1274203651241958,-0.13973171129524706
1761467182712123400,6.499123291015625,0.7466565714478492,0.05055895150080323,-0.13523498439788817
1761467182722106000,6.509106201171875,0.6872820069372654,-0.006119944185018539,-0.2012345200061798
1761467182732089300,6.51908935546875,0.5366039542138576,-0.09167743609175086,-0.1659732370108366
1761467182742071300,6.5290712890625,0.45052024647593497,-0.17357260609865188,-0.08264262737333775
1761467182752054300,6.53905419921875,0.4256254591941833,-0.2672108208693564,-0.0049468087524175645
1761467182762037200,6.549037353515625,0.4158545912861824,-0.36179508431851864,0.09504559735059738
1761467182772020200,6.559020263671875,0.41979017716944217,-0.42299291873350736,0.15729250242710113
1761467182782003500,6.56900341796875,0.43703181934952734,-0.4506859584316611,0.14665654212236404
1761467182791986200,6.578986083984375,0.3731850778609514,-0.45575829325988887,0.12995382912456988
1761467182801969400,6.588969482421875,0.2329927633166313,-0.46320919378772374,0.17600129455029964
1761467182811952400,6.598952392578125,0.0870318022429943,-0.4414304926998913,0.25175182432234283
1761467182821934000,6.60893408203125,-0.03626023090481758,-0.3908941914223134,0.2663385680794716
1761467182831917000,6.6189169921875,-0.041647184640169144,-0.3464439320601523,0.26044951004087924
1761467182841900000,6.628900146484375,0.03937164092361927,-0.26827231262102724,0.2422650340527296
1761467182851883000,6.638883056640625,0.12542027734816075,-0.16450272606685756,0.21368016008138654
1761467182861866000,6.648865966796875,0.1954179426819086,-0.05143441916108131,0.1941536218345165
1761467182871849000,6.658848876953125,0.17920388998389242,0.024394436544179915,0.14158756829500196
1761467182881832200,6.668832275390625,0.10057868155837059,0.09556509118005632,0.0650245530962944
1761467182891815000,6.67881494140625,0.04880991587638855,0.13388517722412943,-0.06281038417816162
1761467182901797000,6.688797119140625,0.0935322701781988,0.17030512873530387,-0.1770265459448099
1761467182911780000,6.698780029296875,0.09664484924077987,0.21038769440725444,-0.17769582350850105
1761467182921762800,6.7087626953125,0.08802432041168212,0.21159151723906397,-0.13215513856112956
1761467182931746000,6.71874609375,0.047155718928575514,0.23141396969258785,-0.13893793056905268
1761467182941729000,6.72872900390625,-0.05950666645765304,0.21746128605529666,-0.2090285348832607
1761467182951712300,6.738712158203125,-0.05521393769979477,0.18294263812080025,-0.33801147314906116
1761467182961695000,6.748695068359375,0.06902735899686813,0.09141893128603697,-0.46899932149648665
1761467182971678000,6.758677978515625,0.2707996391415596,0.058030748686194414,-0.5925415300130844
1761467182981661200,6.7686611328125,0.23626257876753806,0.01818710633665323,-0.6281038417816162
1761467182991643000,6.778642822265625,0.16258593266010282,-0.08500950263515114,-0.6135007314115762
1761467183001626000,6.788626220703125,0.08132569955587386,-0.2200236838892102,-0.5645289029717445
1761467183011609000,6.798609130859375,-0.032791678011417386,-0.30114845404550433,-0.5119564196914435
1761467183021592000,6.808592041015625,-0.22856325643658637,-0.3828834650546312,-0.45568215928375716
1761467183031575000,6.818574951171875,-0.29477380444705487,-0.43190074007138607,-0.3793500302314758
1761467183041558000,6.82855810546875,-0.2658937469214201,-0.4254921882033348,-0.3010065613567829
1761467183051541000,6.838541015625,-0.24297289006114003,-0.3701641226045787,-0.3740472476482391
1761467183061524200,6.848524169921875,-0.23112638492286203,-0.24851824922859667,-0.5233434906244278
1761467183071506000,6.858505859375,-0.2987549830377102,-0.11805603219047188,-0.6737994250297547
1761467183081489200,6.8684892578125,-0.3837070563971996,-0.020030103854835033,-0.7113818444490432
1761467183091472100,6.87847216796875,-0.3997358156561851,0.10591726610735058,-0.691232790389657
1761467183101454800,6.888454833984375,-0.41363457714915275,0.12217325825095177,-0.653514761891961
1761467183111438000,6.89843798828125,-0.4426157569617033,0.2381834638275206,-0.5665758986294269
1761467183121421000,6.908421142578125,-0.487879963055253,0.26230828965008257,-0.4364209939748048
1761467183131404300,6.918404296875,-0.570659953072667,0.3483127946719527,-0.31044600535333156
1761467183141387000,6.928386962890625,-0.6741817023456096,0.3447057100906968,-0.2416542086780071
1761467183151369200,6.938369140625,-0.6900725144386292,0.3004359218619764,-0.2438771454244852
1761467183161352200,6.948352294921875,-0.5949322245419025,0.27455826102271674,-0.2545470079988241
1761467183171335000,6.9583349609375,-0.5065571909964084,0.24138459795638917,-0.2129723040729761
1761467183181318100,6.968318115234375,-0.5231576126635075,0.1393991183400154,-0.2213198611795902
1761467183191301000,6.978301025390625,-0.6353846464395523,0.08556567521318793,-0.3120236299335956
1761467183201283800,6.988283935546875,-0.6126122581392526,0.02356996841877699,-0.3630067981958389
1761467183211267000,6.99826708984375,-0.5827046111315488,0.026095102982223034,-0.368683674788475
1761467183221250000,7.00825,-0.5222323145121336,-0.015532207913696765,-0.4024468281805515
1761467183231232300,7.018232177734375,-0.543352843952179,-0.04152501956522465,-0.5074386500060558
1761467183241215000,7.028215087890625,-0.597167436248064,-0.11002791629657149,-0.5761614730983973
1761467183251198000,7.038197998046875,-0.6516004527032375,-0.17259250902011988,-0.6273141527086497
1761467183261181200,7.04818115234375,-0.7772983779489994,-0.21832418649494648,-0.627296617051959
1761467183271164000,7.058163818359375,-1.0064251134872435,-0.15807093945369124,-0.5756511854887009
1761467183281147000,7.06814697265625,-1.060643610408902,-0.10031813092604279,-0.4777057750433683
1761467183291130000,7.078130126953125,-0.8020306681454181,-0.10095321395918726,-0.169066526851058
1761467183301113000,7.088113037109375,-0.6590560294061899,0.2468906480267644,0.058711716687679286
1761467183311095000,7.098094970703125,-0.7736293340474367,0.5196712318524718,0.2152121919542551
1761467183321078000,7.108078125,-0.7888450233578681,0.7014629463724792,0.23869769695997237
1761467183331061200,7.118061279296875,-0.5439578241080045,0.843213011752814,0.3444108187973499
1761467183341044000,7.1280439453125,-0.14384557635486125,0.760748079033941,0.563145924180746
1761467183351027000,7.13802685546875,0.048182723888754844,0.4145335718154907,0.7737883240014314
1761467183361010200,7.14801025390625,0.007661912930011749,0.05391600684374571,1.0447019449114798
1761467183370993200,7.1579931640625,0.0012058686584234238,-0.18826281023025512,1.2735785050809383
1761467183380975900,7.167975830078125,0.16470716259777546,-0.43202889649569987,1.3307014912724495
1761467183390958000,7.1779580078125,0.40952188113331794,-0.6681666798397898,1.258578504347801
1761467183400941000,7.187941162109375,0.7880939127296209,-0.7479090557269752,1.1346961040914059
1761467183410924000,7.197924072265625,1.1284954958856106,-0.7580309290297329,0.9751724816113709
1761467183420907000,7.207906982421875,1.3099655772358179,-0.7330671681649983,0.7520236514389514
1761467183430890000,7.217889892578125,1.4359715455174444,-0.4801972995981574,0.44112171901166436
1761467183440873200,7.227873291015625,1.6235913816690444,-0.34393794058859345,0.1561480085670948
1761467183450856000,7.23785595703125,1.8278180692285297,-0.02823006918430328,-0.15713526603877542
1761467183460839000,7.2478388671875,1.9284359137535094,0.1911155693128705,-0.45519934420287606
1761467183470821000,7.257821044921875,1.869726535153389,0.3333163010701537,-0.5667769741594791
1761467183480803800,7.267803955078125,1.7300433391749859,0.6617362084008753,-0.5469891546279192
1761467183490787000,7.277787109375,1.4903548776119946,0.8699762232549488,-0.44417233875393863
1761467183500770000,7.28777001953125,1.229091128578782,1.0314305215366184,-0.22095044334530828
1761467183510753300,7.297753173828125,1.084491518986225,1.2455579869940876,0.07176818213760852
1761467183520736000,7.307736083984375,0.9848796366333961,1.334799866501987,0.39110827256441116
1761467183530719000,7.317718994140625,0.8088397636383772,1.320210346265882,0.6721744541764259
1761467183540702200,7.3277021484375,0.7045505371242761,1.1368981441803276,0.8660527662009
1761467183550684000,7.337683837890625,0.6371791286408901,0.9697647773489355,0.9606628947436809
1761467183560667100,7.347667236328125,0.5887982518315314,0.9029311290040611,0.9853606981486082
1761467183570650000,7.357650146484375,0.6168605632334947,0.7012848133265972,0.9979062914669513
1761467183580633000,7.367633056640625,0.533973605710268,0.4835641456827521,0.9305980113476514
1761467183590616000,7.377615966796875,0.5223755223751068,0.2970721445173025,0.7223755321502685
1761467183600599000,7.38759912109375,0.54644671831429,0.19359218855947255,0.5723790319502353
1761467183610582000,7.39758203125,0.6029419279962778,0.16291867174580693,0.4884644849449396
1761467183620565000,7.40756494140625,0.5455716890454292,0.08745470383018254,0.406970443084836
1761467183630547000,7.417546875,0.5501321288287639,0.09981222723051905,0.272249837949872
1761467183640530200,7.4275302734375,0.6276239493101835,0.16019333843514322,0.15810440333187578
1761467183650513000,7.437512939453125,0.716440296882391,0.2165036930695176,0.1526098975688219
1761467183660496000,7.447495849609375,0.6780185040295124,0.21323592344522474,0.13531915555000304
1761467183670479000,7.45747900390625,0.5047381588757038,0.13398995277285575,-0.002629179459810257
1761467183680462000,7.467462158203125,0.2926297781556845,0.09619184477627277,-0.1728308478206396
1761467183690445000,7.477445068359375,0.09486439556479453,0.1933729928508401,-0.2818026791930198
1761467183700428000,7.487427978515625,0.21467969251275063,0.23999708912074563,-0.3076818013370037
1761467183710410200,7.49741015625,0.4690566046416759,0.31871903591901063,-0.48132864171564577
1761467183720393000,7.50739306640625,0.5303583378225565,0.3176894006103277,-0.614385113030672
1761467183730376000,7.5173759765625,0.5102157135039568,0.4042702442154288,-0.6514543222308159
1761467183740359200,7.527359130859375,0.4079167840242386,0.45504269233644007,-0.6134013626903295
1761467183750342100,7.537342041015625,0.2770622066676616,0.5562295689210295,-0.6108306354194879
1761467183760324900,7.547324951171875,0.1327589496731758,0.49595104130804535,-0.6541951453715562
1761467183770308000,7.55730810546875,0.016030512824654577,0.5389212912455201,-0.6925503027290105
1761467183780291000,7.567291015625,-0.08215455159544945,0.5206128966167569,-0.6859370220690966
1761467183790273000,7.57727294921875,-0.19333412214517592,0.4809145079568028,-0.725276514288783
1761467183800256000,7.587256103515625,-0.28575872334241864,0.3892378025174141,-0.7514157486736774
1761467183810239000,7.597239013671875,-0.3555494679272175,0.38214667521268125,-0.8670446998476982
1761467183820225300,7.607225341796875,-0.37146541446149345,0.30327772115916013,-1.0596253732770682
1761467183830208300,7.617208251953125,-0.34640345391929145,0.1300908995077014,-0.9815981307446956
1761467183840191500,7.62719140625,-0.33983401240110395,0.17015373756587504,-1.0200877281367777
1761467183850174200,7.63717431640625,-0.2507978845983744,0.2026502320230007,-1.1413619917213915
1761467183860157200,7.6471572265625,-0.22666122220754623,0.06354425141066312,-1.145976792040467
1761467183870139400,7.657139404296875,-0.1670493418097496,-0.0764423114284873,-1.0416934107452631
1761467183880122000,7.6671220703125,-0.347387204259634,0.024233985285460946,-0.9718588270187377
1761467183890105300,7.677105224609375,-0.6703244423955679,0.03845014216452837,-0.8685527663230895
1761467183900088300,7.68708837890625,-1.0181751725137234,0.1869037968367338,-0.7475818695992231
1761467183910071300,7.6970712890625,-1.1861620874345302,0.474604886418581,-0.5780354502767324
1761467183920054300,7.70705419921875,-1.3289596160411834,0.7050359825536608,-0.4178279371857643
1761467183930037200,7.717037353515625,-1.3433213188707829,0.9994774863064289,-0.47183542170524595
1761467183940020200,7.727020263671875,-1.124454696062207,1.1968088613942265,-0.5164905559897423
1761467183950002200,7.737002197265625,-0.7170850245267152,1.3785317484617232,-0.6749965258598327
1761467183959985200,7.746985107421875,-0.2948153055012226,1.486896553851664,-0.8093143954128027
1761467183969968400,7.756968505859375,0.003301379632949829,1.5297010918334126,-0.8849006745338439
1761467183979951000,7.766951171875,-0.027113632375001907,1.4870862312048674,-0.8836731785655021
1761467183989934000,7.77693408203125,-0.1837976475149393,1.381620654387772,-0.7832108168631792
1761467183999917300,7.786917236328125,-0.23424480920433996,1.2728344087153673,-0.6361281582832337
1761467184009900300,7.796900390625,-0.15857085179984567,1.0161921820029616,-0.3550555469304323
1761467184019883300,7.80688330078125,0.03703706049621105,0.6709875824794173,0.05448796151280403
1761467184029865200,7.816865234375,-0.09625205053091049,0.42155221840590235,0.45808337520658965
1761467184039848400,7.826848388671875,-0.5191799412041902,0.3932338864162564,0.7588637265920639
1761467184049831200,7.8368310546875,-0.8608551975578069,-0.09942337404340505,1.1432032356739044
1761467184059814100,7.846814208984375,-0.6790770731717348,-0.1567427595898509,1.3127765430033207
1761467184069797400,7.85679736328125,-0.27991993418633937,-0.378426485645771,1.3552116631507873
1761467184079780400,7.8667802734375,0.03496551491916179,-0.46331367707550525,1.251236324891448
1761467184089763000,7.87676318359375,0.22025544681847095,-0.554898904839158,1.1405243718534708
1761467184099746300,7.886746337890625,0.27108956199884415,-0.3129948130533099,0.9416337846249342
1761467184109728300,7.896728271484375,0.41498073106110095,-0.1254693771868944,0.8303571834415197
1761467184119711200,7.906711181640625,0.6234732593715191,-0.021861995457112787,0.7108592818796634
1761467184129694200,7.916694091796875,0.7098042198687792,0.08216331942379475,0.6223410404711961
1761467184139677200,7.92667724609375,0.8116746948033571,0.20829262182414532,0.4498509689122438
1761467184149660400,7.936660400390625,0.9730635266333818,0.29307664514034987,0.24978373911976812
1761467184159643100,7.94664306640625,1.0874433545291424,0.39027503661066293,0.1436737269192934
1761467184169626000,7.956626220703125,1.21932201423645,0.4476479059100151,0.041674657168984414
1761467184179609300,7.966609375,1.348067636615038,0.41647944518625735,-0.002288403198122978
1761467184189591300,7.97659130859375,1.4740572382837533,0.31536388027220963,0.06277589738667011
1761467184199574300,7.98657421875,1.49373925935328,0.20291297461241484,0.16653846967816352
1761467184209557200,7.99655712890625,1.3934627756118774,0.013231237494945525,0.2603805364578962
1761467184219540500,8.00654052734375,1.2720412125110625,-0.1857674862831831,0.3739525551021099
1761467184229522200,8.016522216796876,1.1686831293672322,-0.5047565713152289,0.4722141918897628
1761467184239505400,8.02650537109375,1.1864525948137044,-0.8976061345890164,0.49907414176464077
1761467184249488400,8.03648828125,1.0249421824306248,-1.1522671243563294,0.6060024846106767
1761467184259471000,8.04647119140625,0.8322188856601714,-1.3456921396553516,0.6683972737252711
1761467184269453300,8.056453369140625,0.6680015524059534,-1.447151403440535,0.6608902590960264
1761467184279436300,8.066436279296875,0.48631402891278264,-1.4105021732181309,0.6794207720428704
1761467184289419300,8.076419189453125,0.24579262365698812,-1.2735650610774756,0.7973071467548608
1761467184299402200,8.08640234375,0.12393033105134964,-1.1302861786946654,0.8751227923631668
1761467184309385200,8.09638525390625,0.1547790583014488,-1.014319081607461,0.8865355822592973
1761467184319368400,8.106368408203124,0.1820639555901289,-0.9242711464136838,0.8237392266064881
1761467184329351200,8.11635107421875,0.16612813531160353,-0.8933262653127312,0.6899637933671474
1761467184339334100,8.126334228515624,0.12100947516858578,-0.8762728391811251,0.6365589509159326
1761467184349316400,8.13631640625,0.23760873267948626,-0.8362447801753878,0.6739408793270587
1761467184359299000,8.146299072265625,0.3811059339880943,-0.7281073538005352,0.6764385413616896
1761467184369282300,8.1562822265625,0.5657791952937841,-0.6654682345360518,0.6226181038469076
1761467184379265300,8.166265380859375,0.6961293302595615,-0.5981500175446272,0.5105214184522628
1761467184389248300,8.176248291015625,0.8347989652812481,-0.5222086413756013,0.39561610537767405
1761467184399231200,8.186231201171875,0.9750976628094911,-0.4639433532811701,0.28300211811065673
1761467184409214200,8.196214111328125,0.9219541016429662,-0.43326004572585225,0.2002010853052139
1761467184419197400,8.206197509765625,0.7949708127617836,-0.37359643514081836,0.14134148457944393
1761467184429179100,8.21617919921875,0.71480071298182,-0.32171120347231624,0.08490706517398357
1761467184439162400,8.226162353515624,0.5902051960200071,-0.3156830292239785,0.06852642373740672
1761467184449145300,8.236145263671874,0.5165963544517755,-0.3078725016035139,0.0687584789276123
1761467184459128000,8.246128173828126,0.5638327374011278,-0.24564079409614203,0.015696166303753853
1761467184469111300,8.256111328125,0.6266057121783495,-0.2979801992729306,0.005193476989865302
1761467184479094300,8.26609423828125,0.6000280863761901,-0.38999592740833755,-0.032300679624080654
1761467184489077200,8.2760771484375,0.6582435439795256,-0.5688587488695979,-0.1871393591582775
1761467184499060200,8.286060302734375,0.5395961217671632,-0.7399038823172449,-0.333653277939558
1761467184509042200,8.296042236328125,0.29314357289671894,-0.8503333651520312,-0.40092824031114577
1761467184519025400,8.306025390625,0.12061959906816482,-0.9882923676863312,-0.38427638071775433
1761467184529008000,8.316008056640625,-0.003045359045267105,-1.0763996902063488,-0.24216215820014475
1761467184538991000,8.3259912109375,-0.11178162809610366,-1.0858937869995833,-0.06003741233348846
1761467184548974300,8.335974365234375,-0.1284936934441328,-1.076373094460368,0.07811375177204609
1761467184558957300,8.345957275390624,-0.049884851631522176,-1.0513435748830438,0.15399813705682755
1761467184568940300,8.355940185546874,0.04638765716552734,-0.9921950742132961,0.18531155920922754
1761467184578922200,8.365922119140626,-0.016921908706426618,-0.980619202709943,0.15429215156733989
1761467184588905200,8.3759052734375,-0.20665771409869194,-0.9582776070423423,0.10632160912454128
1761467184598888200,8.38588818359375,-0.24087796360850333,-0.8601583013348281,0.08921089984774588
1761467184608871200,8.39587109375,0.004494388809800148,-0.754351071473211,0.19368132814764977
1761467184618854400,8.4058544921875,0.22580489763915537,-0.6426090447351336,0.2153425403356552
