time,seconds_elapsed,z,y,x
1761467205731722800,0.12272265625,0.7142249589204788,-0.8353463700309395,1.238304362604022
1761467205741706000,0.1327060546875,0.6384042865216731,-0.875413299742341,1.26339204210937
1761467205751688000,0.14268798828125,0.6064741937756538,-0.7952882081478834,1.2313666722953318
1761467205761671000,0.1526708984375,0.577534515017271,-0.6824518103018402,1.140238540649414
1761467205771654000,0.16265380859375,0.5203104065388441,-0.6101403150677681,1.0189596008896826
1761467205781636900,0.172636962890625,0.37632279136478897,-0.42612639445364475,0.957428735128045
1761467205791620000,0.1826201171875,0.30167233178913594,-0.27354835332781074,0.8769196126520633
1761467205801602800,0.192602783203125,0.23996494041681288,-0.17772665703818202,0.7800234189987182
1761467205811585800,0.202585693359375,0.25198797116577626,-0.092699180354923,0.6526853253304958
1761467205821569000,0.212569091796875,0.4117109156101942,-0.06918532603755592,0.501115876725316
1761467205831550700,0.22255078125,0.6177595578998327,-0.12440189408585428,0.3777303200751543
1761467205841538800,0.232538818359375,0.7950356946915388,-0.13962138278856873,0.28451836789250373
1761467205851521800,0.242521728515625,0.8377455401271581,-0.22107757685631513,0.21032851156592366
1761467205861504800,0.2525048828125,0.7949906865060329,-0.3613955636069178,0.19806173518896103
1761467205871487700,0.26248779296875,0.7279109544456005,-0.3885900061331689,0.2445966918706894
1761467205881471000,0.272470947265625,0.7410556827008724,-0.40042482083365316,0.2753074719548225
1761467205891453700,0.28245361328125,0.7780068184792995,-0.4230396804846823,0.22472528570890427
1761467205901437000,0.29243701171875,0.7887514998555183,-0.4821516485363245,0.09284779504537582
1761467205911420000,0.302419921875,0.7598994993805885,-0.5418121903814375,-0.07206161212623119
1761467205921401900,0.31240185546875,0.7048667634665966,-0.5942924653336406,-0.19646014521121977
1761467205931384800,0.322384765625,0.6203530815243721,-0.603355477233231,-0.31350422388017174
1761467205941367800,0.332367919921875,0.5836006831884384,-0.6157290749855339,-0.35883214285969733
1761467205951351000,0.34235107421875,0.6835089181393385,-0.5287774983718991,-0.39261107834279535
1761467205961333800,0.352333740234375,0.7202455343842507,-0.4794014730453491,-0.4865209496617317
1761467205971316700,0.362316650390625,0.5561725780367851,-0.42780528745129703,-0.5569926622480154
1761467205981300000,0.372300048828125,0.4204202917665243,-0.37714185266271233,-0.4861316580832004
1761467205991283000,0.382282958984375,0.43753100104331966,-0.2889450982935726,-0.3320616248339414
1761467206001265700,0.392265625,0.4701788866698742,-0.19598960509002208,-0.15833178234696388
1761467206011247900,0.402247802734375,0.47566579364836215,-0.16004910765886307,-0.02170505132973194
1761467206021230800,0.41223095703125,0.3591594751179218,-0.10014964249134063,0.1007043537646532
1761467206031213800,0.4222138671875,0.14225801490247247,-0.04901406014636159,0.23608020793795584
1761467206041196800,0.43219677734375,0.008886486288905144,0.015697481478005648,0.3123030313968658
1761467206051179800,0.4421796875,0.006914309433102607,0.049495121661573646,0.3138157740473747
1761467206061162800,0.452162841796875,0.037412323549389837,0.08444003218412399,0.2641933727443218
1761467206071145700,0.462145751953125,-0.03858428993821144,0.15205343272984026,0.1699456477731466
1761467206081129000,0.47212890625,-0.17783493971824646,0.20567498667165635,0.05654314047694206
1761467206091112000,0.48211181640625,-0.28859482355117794,0.26043825799450276,-0.030865093863010406
1761467206101094000,0.492093994140625,-0.3041840223491192,0.27961379084661603,-0.12204875508844852
1761467206111076900,0.502076904296875,-0.15468553479909897,0.2831391884937882,-0.23313772474527358
1761467206121059800,0.512059814453125,0.016166706424951553,0.20790815255120396,-0.35175241373181343
1761467206131042800,0.522042724609375,0.07102993099093437,0.14925854131430386,-0.3857008605629205
1761467206141025800,0.53202587890625,0.05416472090780735,0.10823387248665094,-0.3921814547538757
1761467206151008800,0.5420087890625,0.07659574842453003,0.03776026020422578,-0.45100715321004387
1761467206160992000,0.551991943359375,0.0469470446139574,-0.021967647788673637,-0.49663025574386116
1761467206170974700,0.561974609375,-0.021579963645339012,-0.044108898578584195,-0.5222673858255148
1761467206180957000,0.57195703125,-0.020863339808583257,-0.08953560175746679,-0.5740303062886
1761467206190940000,0.58193994140625,0.05564414581060409,-0.14462591307759284,-0.6142886669188737
1761467206200922600,0.591922607421875,0.07526888373494148,-0.23784984795898198,-0.5981055938810109
1761467206210905900,0.60190576171875,-0.015758710145950316,-0.24891455506980417,-0.448800583076477
1761467206220888800,0.611888916015625,-0.2945920181393623,-0.2722537834726274,-0.26024375833570956
1761467206230871800,0.621871826171875,-0.4591320074766874,-0.2503705990970135,-0.22808745561838148
1761467206240854800,0.631854736328125,-0.502123007941246,-0.20589418238028884,-0.2796568993359804
1761467206250837800,0.641837646484375,-0.593321866735816,-0.35639936275482176,-0.36486557780504225
1761467206260821000,0.651821044921875,-0.6435726290702819,-0.4114633705899119,-0.4463075972169637
1761467206270802700,0.661802734375,-0.5627046101540327,-0.466016506293416,-0.5684615662455559
1761467206280786000,0.671785888671875,-0.6040840837687254,-0.5625467892438173,-0.5368564676702022
1761467206290769000,0.681768798828125,-0.689004008424282,-0.60449047261253,-0.5080915609568357
1761467206300752000,0.691751953125,-0.7446925778985023,-0.733831284405291,-0.38874914221763607
1761467206310734800,0.70173486328125,-0.8071902428656816,-0.6509640544958413,-0.301948226121068
1761467206320717800,0.7117177734375,-0.8888140485852957,-0.5593266581535339,-0.17855857781767845
1761467206330700800,0.72170068359375,-1.0065881950944662,-0.4508979937471449,-0.13467793503701686
1761467206340684000,0.73168408203125,-0.9790279879957436,-0.4140798366986215,-0.14875497570633886
1761467206350665700,0.741665771484375,-0.8564666072100401,-0.2786851316943765,-0.21302257295548915
1761467206360649000,0.75164892578125,-0.713937374150753,-0.25235110538974403,-0.24401392354667184
1761467206370632000,0.7616318359375,-0.5426660307317972,-0.26032997531443836,-0.24319910003244877
1761467206380614700,0.77161474609375,-0.35012393574714656,-0.31629575429484247,-0.3283347132652998
1761467206390598000,0.781597900390625,-0.36148821032643313,-0.24000527242720127,-0.5174485873669386
1761467206400580900,0.791580810546875,-0.4960545016825199,-0.24904051953703163,-0.7725444614201784
1761467206410563800,0.801563720703125,-0.725560007405281,-0.19088234507888555,-0.984857424801588
1761467206420546800,0.811546875,-1.0642886889129877,-0.07732946952655911,-1.020797922232747
1761467206430529800,0.82152978515625,-1.1655693812608718,0.1939464088246226,-0.8369488367915153
1761467206440512000,0.831511962890625,-1.0519050081580876,0.45131344268023965,-0.38118659800887106
1761467206450494700,0.84149462890625,-0.9285679668247699,0.7231894788816571,0.1058896474480629
1761467206460478000,0.85147802734375,-0.917245193299651,0.9995474828027188,0.5203846408188343
1761467206470461000,0.8614609375,-0.9011743484646081,1.193176203980297,0.7989981685817241
1761467206480443600,0.871443603515625,-0.7189782909274101,1.030692854911834,1.0570300960868597
1761467206490427000,0.881427001953125,-0.48243806426227087,0.6931541138410567,1.2497773582547902
1761467206500409900,0.891409912109375,-0.28161972384154793,0.09713234049677848,1.536014805024862
1761467206510392800,0.901392822265625,-0.019020926812291145,-0.31208456634059545,1.8589935442149639
1761467206520375800,0.911375732421875,0.3998410295963287,-0.5455474313870072,2.01724583158493
1761467206530357800,0.921357666015625,0.7247738254636525,-0.8328675588272512,1.8251497268021106
1761467206540341000,0.931341064453125,1.0086199931830166,-1.1513152304589749,1.3636381307125092
1761467206550323700,0.94132373046875,1.529552915534377,-1.2823323049008846,0.8279489532560109
1761467206560306700,0.951306640625,2.031519271609187,-1.3102572536587715,0.5437585021436214
1761467206570290000,0.9612900390625,2.285232751393318,-1.1797684408746658,0.30035014327466486
1761467206580273000,0.97127294921875,2.2417694572418925,-0.9853456467099487,0.02464695000052452
1761467206590255600,0.981255615234375,2.041129980519414,-0.8034457956403493,-0.17406126639842986
1761467206600238800,0.99123876953125,1.7711060019254683,-0.36004341834560033,-0.10328560242950915
1761467206610220800,1.001220703125,1.615893228381872,-0.06065525197088718,0.05634732564389705
1761467206620203800,1.011203857421875,1.4728572148442267,0.03243424287587404,0.24269407311975955
1761467206630186800,1.021186767578125,1.4533277539879084,0.22718816869109867,0.42270051165819167
1761467206640170000,1.031169921875,1.3907102620333431,0.4099132185384631,0.5209481199204922
1761467206650153000,1.041153076171875,1.31324416051507,0.5155583897061645,0.5856593692839145
1761467206660135700,1.0511357421875,1.27527244951725,0.6435805201157927,0.6668026980102062
1761467206670119000,1.061118896484375,1.244544718298316,0.6474034394048154,0.75014265999794
1761467206680102000,1.071101806640625,1.1508762545198201,0.6649819123238325,0.8414280280321836
1761467206690083800,1.081083740234375,1.081962877291441,0.653205257551372,0.906590528294444
1761467206700066800,1.09106689453125,1.1511802059024572,0.5697939838930964,0.8712018195271491
1761467206710049800,1.1010498046875,1.160526126396656,0.5573559426024556,0.8092740634024143
1761467206720033000,1.111032958984375,1.0623065751850604,0.49638840981200333,0.7024076798766851
1761467206730015700,1.121015625,0.8916986641108989,0.5258234708718955,0.56561903629601
1761467206739998700,1.130998779296875,0.797008456069231,0.41252559299394487,0.3426198437273502
1761467206749982000,1.14098193359375,0.7814192572712898,0.38878187544345855,0.2679284676194191
1761467206759965000,1.15096484375,0.8357868072748184,0.41031098568439484,0.2170855846107006
1761467206769947600,1.16094775390625,0.7762719575107098,0.3257581407755613,0.1758247689396143
1761467206779929900,1.170929931640625,0.690527856990695,0.3315568901821971,0.12192659001350402
1761467206789912800,1.180912841796875,0.6666513068407773,0.25419424903839827,0.1628752709954977
1761467206799895800,1.190895751953125,0.521002480456233,0.19050605911239982,0.20412614979445934
1761467206809878800,1.200878662109375,0.4893786771804094,0.14826543862372635,0.21147242090404034
1761467206819862000,1.210862060546875,0.5020177940011025,0.06760200236886739,0.19220833298563955
1761467206829844700,1.2208447265625,0.5024140998423099,-0.033169571413099765,0.14319500349164008
1761467206839827700,1.23082763671875,0.497514637362957,-0.10805734687596559,0.027898645272850988
1761467206849810700,1.240810791015625,0.4742342995405197,-0.23113602953404186,-0.07293021165430545
1761467206859792600,1.250792724609375,0.4408627758145332,-0.3624585166633129,-0.1823860271513462
1761467206869776000,1.26077587890625,0.40794425655305383,-0.4126853136003017,-0.31574761889278885
1761467206879758600,1.270758544921875,0.3469856377214193,-0.4788128595024347,-0.4015302978575229
1761467206889741600,1.280741455078125,0.2844710216194391,-0.4797296820864081,-0.462612835329771
1761467206899724800,1.290724853515625,0.3874316298782825,-0.38704496864825483,-0.4381126003235578
1761467206909707500,1.30070751953125,0.5052069454312325,-0.23706834219247103,-0.38741350969970223
1761467206919690500,1.3106904296875,0.5264508089900016,-0.09766162506788968,-0.4001116632312536
1761467206929673700,1.320673828125,0.4364893830358982,0.07965951990932225,-0.4570955332130193
1761467206939656700,1.33065673828125,0.27402619997262956,0.09598492402732371,-0.5674573576390743
1761467206949638700,1.340638671875,0.06609305911064148,0.19040186808556317,-0.48648412478268144
1761467206959621600,1.35062158203125,0.002041150438785553,0.3327820480629802,-0.3480541437357664
1761467206969604600,1.3606044921875,-0.004610708665847778,0.24298165788948534,-0.26280221064686776
1761467206979587600,1.370587646484375,0.016806173372268675,0.19894553228616713,-0.16782617140114306
1761467206989570600,1.380570556640625,-0.044290392625331874,0.12469897733628749,-0.011436755293607711
1761467206999553800,1.3905537109375,-0.07329904496669769,-0.014393851533532141,0.0005038578689098358
1761467207009536800,1.400536865234375,-0.17616086902618408,-0.09049246409088373,0.01381751295030117
1761467207019519500,1.41051953125,-0.34409400793313977,-0.10454612388461827,-0.009521861582994461
1761467207029501700,1.420501708984375,-0.43378480025231836,-0.13711714488267898,-0.0305646496117115
1761467207039484700,1.430484619140625,-0.46267362560629843,-0.2127528161033988,-0.056202948737144466
1761467207049467600,1.440467529296875,-0.42682372906804084,-0.17627280496805905,-0.17211071685254573
1761467207059450600,1.45045068359375,-0.3669803780019283,-0.24315467636883256,-0.18674129975140094
1761467207069433600,1.46043359375,-0.29450200176835056,-0.30417700808644293,-0.2361070959448814
1761467207079416800,1.470416748046875,-0.28626491929888725,-0.3158136698663235,-0.30030630413293835
1761467207089399600,1.480399658203125,-0.3486661381542682,-0.4123813622176647,-0.3008651070594787
1761467207099382500,1.490382568359375,-0.31790392014384267,-0.3871951907739043,-0.34640813009440896
1761467207109365800,1.50036572265625,-0.2853390366256237,-0.3870958220526576,-0.48740182414948935
1761467207119347500,1.510347412109375,-0.2770142758727073,-0.3091273239701986,-0.7085305466711521
1761467207129330700,1.52033056640625,-0.25916414640545843,-0.18460750259310005,-0.8331009291917085
1761467207139313700,1.530313720703125,-0.11429448769986629,-0.030390462088584896,-0.8832190050572156
1761467207149296600,1.540296630859375,0.09497779281139374,0.01587882939428091,-0.8580728733628987
1761467207159279600,1.550279541015625,0.15488953293859958,0.05692307970523834,-0.7297001759499311
1761467207169262600,1.5602626953125,-0.06700432873666286,0.12077391284704207,-0.6091039577573537
1761467207179245800,1.570245849609375,-0.34435879634916783,0.0689718294173479,-0.43613340920507904
1761467207189228800,1.580228759765625,-0.3840712135344744,0.08515402567237615,-0.31394144625365733
1761467207199210800,1.590210693359375,-0.2842494878232479,0.06380144104212522,-0.2090162599235773
1761467207209193700,1.60019384765625,-0.11114216114878654,0.09102847066372632,-0.1322059919655323
1761467207219176700,1.6101767578125,-0.04362053053975105,0.072677405937016,-0.07550035440325736
1761467207229159700,1.62015966796875,-0.09547638998329638,0.13219839318096638,0.021599837389588355
1761467207239142700,1.630142578125,-0.20174246952831745,0.23195494470149278,0.08167407460212707
1761467207249125600,1.640125732421875,-0.3556359771668911,0.2221311775624752,0.027877017962932585
1761467207259108600,1.650108642578125,-0.4709790971368551,0.3583648176088929,-0.1646796900689602
1761467207269091600,1.660091552734375,-0.5204477691829205,-0.06014116496890783,0.05761866075396537
1761467207279074600,1.670074462890625,-0.4825660745561123,0.04340995652899146,0.018987024542689322
1761467207289056800,1.680056884765625,-0.5710942528367042,-0.10857874040156602,-0.05405892244577407
1761467207299039500,1.69003955078125,-0.751237469497323,-0.14465294721499083,-0.1986199535936117
1761467207309022700,1.700022705078125,-0.8885089281588793,-0.03042173400968313,-0.39985622716546054
1761467207319005700,1.710005615234375,-0.9185568604201078,0.03980506390482187,-0.6313111133903264
1761467207328988700,1.71998876953125,-0.8988140490740537,0.20249723341837525,-0.9018827889949083
1761467207338971600,1.7299716796875,-0.922545637795329,0.3915107158854604,-1.073525303813815
1761467207348954600,1.73995458984375,-0.9216390443444251,0.5674874605163932,-1.0743903962105512
1761467207358937900,1.749937744140625,-0.6620166327774525,0.7378127552568912,-0.9661743516415358
1761467207368920600,1.759920654296875,-0.28173019847869873,0.7803589345633983,-0.6823539028853177
1761467207378902800,1.76990283203125,-0.040024551874399183,0.7776707183927297,-0.3400847722917795
1761467207388885800,1.7798857421875,-0.17000994518101215,0.74115812016204,-0.17037936301529408
1761467207398868500,1.789868408203125,-0.4047936835676431,0.6625988165795803,-0.06331482656896115
1761467207408851700,1.799851806640625,-0.31554946597218514,0.7925250270448625,0.0041284781068563455
1761467207418834700,1.809834716796875,-0.0033481413841247557,0.3997324546553194,0.2791495343357324
1761467207428817700,1.819817626953125,0.4037012121558189,0.7518105932101606,0.3321113091945648
1761467207438800600,1.829800537109375,0.32086335447132586,0.6098895551770925,0.42999476031959055
1761467207448783600,1.83978369140625,0.012093757897615432,0.6229986275970936,0.5319955836355685
1761467207458766600,1.8497666015625,0.033762568870186804,0.6588876871019601,0.7119722115576267
1761467207468748500,1.85974853515625,0.27471827389001846,0.8187177451826632,0.860407453790307
1761467207478731500,1.8697314453125,0.4728887301504612,0.923416575410962,0.9556324993610381
1761467207488714800,1.87971484375,0.6427759257346392,1.1459737233005463,1.030555930659175
1761467207498697700,1.88969775390625,0.5933645368337631,1.3664572797864676,0.8218991516977548
1761467207508680700,1.8996806640625,0.6440811631143093,1.3407343711175024,0.557088523837924
1761467207518663700,1.90966357421875,0.7390145322620868,1.3119994211509822,0.41175943092703815
1761467207528646700,1.919646728515625,0.8403145138323307,1.1716557154372333,0.29211247628331183
1761467207538630000,1.9296298828125,0.97694592102468,0.9280798910468816,0.053366848528385157
1761467207548612600,1.939612548828125,0.9805699567407369,0.7953313166372478,-0.12980185343325137
1761467207558594800,1.9495947265625,1.1716016471624373,0.6169473647341132,-0.23204934498667715
1761467207568577800,1.959577880859375,1.5001234074324368,0.4283241967588663,-0.2893009259939194
1761467207578560500,1.969560546875,1.7836802368164062,0.2521449152931571,-0.31538170818984507
1761467207588543700,1.979543701171875,1.748534689155221,0.19336875506713985,-0.2800596349179745
1761467207598526700,1.989526611328125,1.7753186511844397,0.16972630593404173,-0.28805472532510756
1761467207608509700,1.999509765625,1.6505121218204497,-0.07876885467991232,-0.18863164354264736
1761467207618492700,2.00949267578125,1.4567904616624117,0.17517828772962094,-0.35974224344193934
1761467207628475600,2.0194755859375,1.3512737391799687,-0.4612462231516838,0.11942892797887325
1761467207638458600,2.029458740234375,1.27754740871191,-0.37493440574631093,0.4587959073901176
1761467207648440600,2.039440673828125,1.2746563634455204,-0.3968544150009751,0.6949673007428646
1761467207658423600,2.049423583984375,1.1227443850129841,-0.5183151410683989,0.8854337584972382
1761467207668406800,2.05940673828125,0.9887667071998119,-0.4638558211281895,1.104051959502697
1761467207678389500,2.069389404296875,0.8130489057660102,-0.3037466538451612,1.3443120834738016
1761467207688372700,2.079372802734375,0.6025099663197994,-0.18973551313132048,1.429879658383131
1761467207698355700,2.089355712890625,0.4732885431230068,-0.1849878802128136,1.4297668456584214
1761467207708338700,2.099338623046875,0.46788171564340586,-0.13238529405519364,1.3579495636820793
1761467207718321700,2.10932177734375,0.4357178141415119,-0.09295856194347142,1.1686638401448726
1761467207728304600,2.1193046875,0.3939776905208826,-0.03498275831490755,0.9731061967313289
1761467207738286800,2.129286865234375,0.41179450224041936,0.04960793438628316,0.7775894698500633
1761467207748269600,2.13926953125,0.45049394299089907,0.16005129961594938,0.6241793618142605
1761467207758252500,2.14925244140625,0.5194318701386451,0.3012440233744681,0.5634925456613302
1761467207768235800,2.15923583984375,0.6462777963757514,0.4200488281056285,0.4825070378452539
1761467207778218800,2.16921875,0.8142138578921556,0.5216420935340226,0.3676514091312885
1761467207788201500,2.179201416015625,1.004374610698223,0.5549737236410379,0.2662947289377451
1761467207798184700,2.189184814453125,1.1011731891959904,0.5182210330441593,0.19379121826291082
1761467207808167700,2.199167724609375,1.1150351258099078,0.45148076207116244,0.05034487035870552
1761467207818150700,2.209150634765625,1.1523749686449765,0.3467087204761803,-0.06199146901071071
1761467207828132600,2.219132568359375,1.1261983248591423,0.2887842086434364,-0.05218962144255638
1761467207838115600,2.229115478515625,1.1346125174611805,0.26064605552628634,-0.021647183662652968
1761467207848094500,2.239094482421875,1.1088006153345107,0.23979747489541767,-0.05780629228055477
1761467207858077400,2.249077392578125,1.0687813241571187,0.23141645391061902,-0.11063713423609733
1761467207868060400,2.259060302734375,1.031788687324524,0.2041670663267374,-0.16164017624258994
1761467207878043400,2.26904345703125,0.9970575656831264,0.16968319744467733,-0.252264450019598
1761467207888026400,2.2790263671875,0.988272201681137,0.14677841493636368,-0.35061668770015236
1761467207898009300,2.28900927734375,0.8716244288533925,0.09199629278257489,-0.40945115398466586
1761467207907992300,2.298992431640625,0.6827028624534607,-0.055124213589727876,-0.4111532817274332
1761467207917975600,2.3089755859375,0.6334533861160278,-0.1677507680773735,-0.37106677053272724
1761467207927957200,2.318957275390625,0.6899673004984855,-0.2760674965418875,-0.2818973717391491
1761467207937940500,2.3289404296875,0.680941697999835,-0.2859906324021518,-0.10611819550693034
1761467207947923500,2.33892333984375,0.6291361074388027,-0.2651686475172639,0.04457797739505768
1761467207957906400,2.348906494140625,0.5423445436924695,-0.14835998503938316,0.1287549747288227
1761467207967889400,2.358889404296875,0.3632861996591091,0.04433656985461712,0.14868541760146617
1761467207977872400,2.368872314453125,0.14262451012730598,0.19937895526736973,0.24829145473539826
1761467207987855400,2.37885546875,0.06202712484598159,0.3004382599495351,0.3574275367587805
1761467207997838600,2.388838623046875,0.03082651541829109,0.3026017215937376,0.383758494323492
1761467208007821300,2.3988212890625,-0.04724573529958725,0.24044731710627673,0.43918812060058116
1761467208017803500,2.408803466796875,-0.08667933554351329,0.18007000529393552,0.47870472295284267
1761467208027786500,2.418786376953125,-0.09505611874461173,0.03711597095131874,0.5007809456825256
1761467208037769200,2.428769287109375,-0.18284253874719142,-0.08445859075412154,0.4772001636087894
1761467208047752400,2.43875244140625,-0.2159048503935337,-0.19850816378220915,0.356837169650197
1761467208057735400,2.4487353515625,-0.08591302734613418,-0.31869068660736083,0.16845745504200457
1761467208067718400,2.458718505859375,0.03888590323328971,-0.36499592618644233,0.037411154505610465
1761467208077701400,2.468701416015625,0.00372223539352417,-0.25849048492759463,-0.11067921981215477
1761467208087684400,2.478684326171875,0.05233633643686771,-0.2897065841853618,-0.3636363282710314
1761467208097667300,2.488667236328125,-0.062278469258546826,-0.0762608173817396,-0.5381868394911289
1761467208107650600,2.498650634765625,-0.24163375041186808,0.12407266213148832,-0.6674965254932642
1761467208117632500,2.508632568359375,-0.40106735652089115,0.24919907109960912,-0.7111468666493892
1761467208127615500,2.518615478515625,-0.39629298172593114,0.3248857418552041,-0.8046025644600391
1761467208137598500,2.528598388671875,-0.3388689667612314,0.37531259140893813,-0.845420312538743
1761467208147581400,2.53858154296875,-0.29834114153981206,0.4049430289104581,-0.8201876716047525
1761467208157564400,2.548564453125,-0.3456044124960899,0.42517172407731413,-0.7773807955354451
1761467208167547400,2.55854736328125,-0.3858195185065269,0.4273926149971783,-0.7453770530313253
1761467208177530600,2.568530517578125,-0.3460726145297289,0.35559915228784084,-0.7434037071317434
1761467208187513300,2.578513427734375,-0.3159609693825245,0.3002785393431783,-0.7346569215744734
1761467208197496300,2.588496337890625,-0.2589993112325668,0.24029037297889588,-0.7455161692410707
1761467208207479600,2.5984794921875,-0.16337036103606223,0.16557181660309434,-0.82336279450953
1761467208217461200,2.608461181640625,-0.22330606656074523,0.21126739985123275,-0.8087567615300416
1761467208227444500,2.618444580078125,-0.2742792979508638,0.14586626852750778,-0.7868746000677347
1761467208237427500,2.628427490234375,-0.3953530705273151,0.25073840949609877,-0.6946820540606975
1761467208247410200,2.63841015625,-0.4511602979451418,0.2771260656841099,-0.5844979242891073
1761467208257393400,2.648393310546875,-0.44783261482715603,0.3686439272999763,-0.49020869826376434
1761467208267376400,2.65837646484375,-0.3974018197506666,0.47992432787567374,-0.4172188653767109
1761467208277359400,2.668359375,-0.33404607664942737,0.6075171269573271,-0.3981716350793838
1761467208287342300,2.67834228515625,-0.4461474382191896,0.7060806693010032,-0.44884792934954165
1761467208297325300,2.6883251953125,-0.6074573595941066,0.7225653556339442,-0.5431938539981842
1761467208307308500,2.69830859375,-0.7038590477287769,0.7564087346553802,-0.6599924334734678
1761467208317290200,2.708290283203125,-0.7278302904248237,0.770383483994007,-0.7781693155646324
1761467208327273500,2.7182734375,-0.6357073025226593,0.7854504124835133,-0.938987654030323
1761467208337256400,2.72825634765625,-0.4556546867549419,0.7643146854743361,-1.0639332996040582
1761467208347239400,2.738239501953125,-0.375403338432312,0.7557451561801135,-1.1681272490501402
1761467208357222400,2.748222412109375,-0.40778351303339,0.7526536199055611,-1.2516384759515524
1761467208367205400,2.758205322265625,-0.6010808102995157,0.6740479929633438,-1.1821505137056112
1761467208377188400,2.768188232421875,-0.8484282621830701,0.7659400947190821,-0.9634761985987425
1761467208387171600,2.778171630859375,-0.8361819440722466,0.8016109814286232,-0.5481622900605201
1761467208397154300,2.788154296875,-0.6711842740952968,1.0089194145210088,-0.0435007035523653
1761467208407137300,2.79813720703125,-0.6953858184158802,1.4490839789383112,0.3542272794127464
1761467208417120500,2.80812060546875,-0.7189256839573382,1.7384265521168707,0.6096142453670501
1761467208427102200,2.818102294921875,-0.5456266341030598,1.833767040760815,1.0450848067492247
1761467208437085400,2.82808544921875,-0.1524769188389182,1.5581554712928831,1.5710533851802349
1761467208447068400,2.838068359375,0.03218932820409536,1.1073881181880831,1.898175215524435
1761467208457051400,2.848051513671875,0.15961948406994342,0.5292461387969554,1.9423878667384384
1761467208467034400,2.858034423828125,0.19318419228047132,-0.21060893594250082,1.9929951874256133
1761467208477017300,2.868017333984375,0.20212416232228278,-0.7079046698577701,1.7703841173917054
1761467208487000600,2.87800048828125,0.31243747143149375,-1.143865060583502,1.5330360814750195
1761467208496983600,2.887983642578125,0.8804384344279765,-1.4231243389040231,1.276809157565236
1761467208506966300,2.89796630859375,1.32094640545547,-1.5599838557638228,0.838473269879818
1761467208516949500,2.907949462890625,1.599270594882965,-1.5709718443766236,0.347180283510685
1761467208526931500,2.917931396484375,1.810303455325961,-1.2593760844662785,-0.03318564576506614
1761467208536914400,2.92791455078125,2.2525842812448738,-0.6895386998228729,-0.33272914883196353
1761467208546897400,2.9378974609375,2.3334143062382937,-0.2275003033801913,-0.47398821582496165
1761467208556880400,2.94788037109375,1.8292419645518063,0.1374716574087739,-0.4696352813124656
1761467208566863400,2.95786328125,1.2341291227459907,0.4688403315424919,-0.2678635856896639
1761467208576846300,2.967846435546875,0.7347744104743004,0.8388352350600063,0.20773381889760492
1761467208586829300,2.977829345703125,0.41456513599753375,1.1158221845343708,0.8495669108241796
1761467208596812500,2.9878125,0.34744039575159547,1.1568640967577695,1.3457073372244834
1761467208606795300,2.997795166015625,0.25913404352813957,0.9320283364117145,1.7061580211967229
1761467208616778500,3.007778564453125,0.1355389357805252,0.6695432288900017,1.782500087121129
1761467208626761500,3.017761474609375,0.15891688875854015,0.5191293800607323,1.6139900251090527
1761467208636743400,3.027743408203125,0.35427462568581103,0.46544966619089245,1.31466104157567
1761467208646726400,3.037726318359375,0.49043958441019053,0.46974926308095455,0.9983587114095688
1761467208656709400,3.04770947265625,0.5896592525750398,0.48724955619722604,0.6550333497613668
1761467208666692600,3.057692626953125,0.6347653454974294,0.46656551847830413,0.3871779473781585
1761467208676675300,3.06767529296875,0.6342486281469464,0.528715100660175,0.11472060415744781
1761467208686658300,3.077658203125,0.6767442463099956,0.5613678085923195,-0.0981558383256197
1761467208696641500,3.0876416015625,0.9454156412512064,0.611700550121814,-0.241641349196434
1761467208706624500,3.09762451171875,1.3391069160461424,0.578817540565133,-0.3462099771738052
1761467208716607200,3.107607177734375,1.5438713637441397,0.46828576639965175,-0.40656127776205536
1761467208726590500,3.117590576171875,1.5625415774226188,0.36164223184436556,-0.3853197522908449
1761467208736573400,3.127573486328125,1.3408251181408761,0.30149142226427794,-0.35997546767592425
1761467208746555400,3.137555419921875,1.041495842346549,0.2671436008520424,-0.3641664896249771
1761467208756538400,3.147538330078125,0.8175847956299781,0.2738464594915509,-0.32942893824279307
1761467208766521300,3.157521240234375,0.6960992273822426,0.22886545425355434,-0.26665771703124047
1761467208776504600,3.167504638671875,0.5213935256004333,0.24570903702676294,-0.24191022926568984
1761467208786487300,3.1774873046875,0.38348756842762227,0.3200720579631626,-0.30080373226106166
1761467208796470500,3.187470458984375,0.14485095400512218,0.3221661076329648,-0.4311263946980238
1761467208806453500,3.19745361328125,-0.021103870566189287,0.31483795670196413,-0.500226234409213
1761467208816436500,3.2074365234375,-0.05305296027362346,0.30208968041837214,-0.48086277776956554
1761467208826419500,3.21741943359375,-0.06424129376411437,0.2529194067969918,-0.5006424139946699
1761467208836402400,3.22740234375,-0.04100245699584484,0.21379940254688262,-0.5166705887317657
1761467208846385200,3.23738525390625,-0.05712824688851833,0.15867241247817873,-0.5658809021025896
1761467208856368400,3.247368408203125,-0.16290157448053358,0.062385144503414626,-0.5808715504854918
1761467208866350000,3.25735009765625,-0.4287210871219635,0.17273323266506194,-0.5744780500560999
1761467208876333300,3.267333251953125,-0.5877563415631651,-0.06725815736725926,-0.4550590589493513
1761467208886316300,3.27731640625,-0.640939065696299,0.05600041190236806,-0.39614509768784045
1761467208896299000,3.287299072265625,-0.6239385387957096,0.12126184249445796,-0.43383740722239017
1761467208906282200,3.2972822265625,-0.4690869997799396,0.20591595582067965,-0.610159019768238
1761467208916265200,3.30726513671875,-0.3372720529586076,0.2889744705185294,-0.8930109157532453
1761467208926248200,3.317248291015625,-0.38613516032695766,0.45364831536859274,-1.2523223665624856
1761467208936231200,3.327231201171875,-0.4618357134774327,0.42447804272472855,-1.363712949514389
1761467208946214100,3.337214111328125,-0.5356166967421769,0.4767816459357738,-1.080199959272146
1761467208956197400,3.347197265625,-0.43574996284544465,0.29170740261375905,-0.7209943069249392
1761467208966180000,3.35718017578125,-0.5783440778344869,0.017112462842464447,-0.4846054714292288
1761467208976163000,3.3671630859375,-0.8540022629231214,-0.10819032560586929,-0.3380634955972433
1761467208986145300,3.377145263671875,-0.8665215527564286,-0.11495645873993635,-0.3306219474196434
1761467208996128300,3.387128173828125,-0.5471802932858467,0.21147885064482688,-0.4911807581663131
1761467209006111200,3.397111328125,-0.18583587534427642,0.5477431878656148,-0.7129565464198588
1761467209016094200,3.40709423828125,0.06615151129961014,0.7487687412962317,-0.9287602745264768
1761467209026077200,3.4170771484375,0.27361995725929733,0.9708560797169804,-1.0375877289921045
1761467209036060200,3.42706005859375,0.28776041855365037,1.1966282441303133,-1.0496049145221709
1761467209046043100,3.437043212890625,0.14057254603356123,1.4253171727731824,-0.9590583821564912
1761467209056026000,3.447026123046875,-0.11324001021087168,1.599481022763252,-0.843064689323306
1761467209066009300,3.45700927734375,-0.28220424573123454,1.6556877708926796,-0.7838374243289232
1761467209075992000,3.466991943359375,-0.3699456575483083,1.664577764312923,-0.6918874549061059
1761467209085975300,3.476975341796875,-0.436200629222393,1.6203370560482144,-0.5437058951735496
1761467209095958300,3.486958251953125,-0.37026656006574626,1.4696895445935427,-0.31034546758830545
1761467209105940200,3.496940185546875,-0.08267302251160144,1.3072962118960916,0.05537643478512764
1761467209115923200,3.506923095703125,0.025805180124938487,1.1774456970155238,0.5693506240397691
1761467209125906200,3.51690625,-0.26888883708417416,1.0406206669472158,1.0882049865514039
1761467209135889400,3.526889404296875,-0.7657488099306822,0.8872003297783434,1.489852188786864
1761467209145872100,3.5368720703125,-0.9562322188198565,0.7146724104270339,1.811907383391261
1761467209155855000,3.546855224609375,-0.9273401785954832,0.7191426877088845,2.0470663848310706
1761467209165838300,3.55683837890625,-0.668574968379736,0.5113610841467976,1.9774258623719214
1761467209175821300,3.5668212890625,-0.36031565941572186,0.28947803612649436,1.6109277149289845
1761467209185804000,3.576803955078125,-0.11178922688066958,0.1526174963533878,1.0865817692637443
1761467209195787300,3.586787353515625,0.013555062621831893,0.013795885640382767,0.6553542522788047
1761467209205770200,3.596770263671875,0.23417232849001884,0.022359715846180916,0.26841303626596924
1761467209215753200,3.606753173828125,0.536420414340496,-0.001965893245488405,-0.09966039766967295
1761467209225736200,3.616736083984375,0.8279542139530182,0.007627864529937505,-0.45028994485139845
1761467209235718100,3.62671826171875,1.039755720680952,0.054804626246541734,-0.7552052040845155
1761467209245701400,3.636701416015625,1.2345616689443588,-0.022996406314522027,-1.0167927782446144
1761467209255684000,3.64668408203125,1.3632248737365007,-0.07834902183264493,-1.2270786197125911
1761467209265667300,3.656667236328125,1.4985019437104463,-0.25407602948620917,-1.2434241898357867
1761467209275650300,3.666650390625,1.5581126550644635,-0.23149171110391614,-1.184269405555725
1761467209285633000,3.676633056640625,1.579050229153037,-0.23973989948928354,-1.0502508112102746
1761467209295616300,3.6866162109375,1.603877211895585,-0.21384850238561628,-0.8630775497823953
1761467209305599200,3.69659912109375,1.5610136372029781,-0.1538352015800774,-0.5903402205765247
1761467209315582200,3.706582275390625,1.3548691333234308,-0.10775047288388014,-0.31175182725489137
1761467209325565200,3.716565185546875,1.1582236946731805,-0.13087825049310922,-0.036278351083397865
1761467209335548200,3.726548095703125,1.0112854129999875,-0.2421605507649481,0.25170330900549887
1761467209345531100,3.73653125,0.9112509213209151,-0.3515855327323079,0.514997102561593
1761467209355514400,3.746514404296875,0.9017185383439064,-0.45275954983532424,0.7519920872569084
1761467209365496000,3.75649609375,0.8788836062014103,-0.527096267286688,1.00771866042912
1761467209375479300,3.766479248046875,0.8888035271912813,-0.5880212761096656,1.2159849787682293
1761467209385462300,3.776462158203125,0.8991349515914916,-0.6726891257002949,1.2840303409904241
1761467209395445000,3.786445068359375,0.8433768240123987,-0.8216280796714126,1.2959984266817568
1761467209405428200,3.79642822265625,0.7527057884842157,-0.974650211302936,1.3271049280852079
1761467209415411200,3.8064111328125,0.6521493187576533,-1.0384086899861693,1.2331091320484875
1761467209425394200,3.816394287109375,0.5375754295945168,-1.0987167359545826,0.9696978495925664
1761467209435377200,3.826377197265625,0.4822720600455999,-1.093120815643668,0.7565016736358404
1761467209445360000,3.836360107421875,0.4878974987119436,-1.025608975776285,0.5749544353961944
1761467209455343400,3.84634326171875,0.5776964275807142,-0.9309034240350127,0.41969080844819545
1761467209465326300,3.856326416015625,0.5909679970860481,-0.8297520571552216,0.33910803621411323
1761467209475309000,3.86630908203125,0.558468580019474,-0.7205676059454679,0.28067396742403505
1761467209485292300,3.876292236328125,0.4642816453248262,-0.6264470144852996,0.25550737746357916
1761467209495275300,3.886275146484375,0.3010428017139435,-0.6251442613236605,0.2530605688333511
1761467209505257200,3.89625732421875,0.20103987421691416,-0.6509063329592347,0.2633691968798637
1761467209515240200,3.906240234375,0.14629413855075835,-0.6930069604553282,0.2331242807418108
1761467209525223200,3.91622314453125,0.18082418466210365,-0.7268631989583373,0.24569091684818267
1761467209535206400,3.926206298828125,0.2549304543584585,-0.6828576146237552,0.31694647328853603
1761467209545189000,3.936189208984375,0.31714521073102947,-0.5927392445422709,0.3280786926776171
1761467209555172000,3.946172119140625,0.3080348525583744,-0.5307004292584956,0.340481078132987
1761467209565155300,3.9561552734375,0.28447277518510816,-0.5041204653687775,0.3842500772327184
1761467209575138000,3.966137939453125,0.3120283061087131,-0.48126127556785936,0.35813714633286
1761467209585121300,3.976121337890625,0.37549686193466186,-0.5015205120034516,0.2687058817327022
1761467209595104300,3.986104248046875,0.4056459164828062,-0.507096996961534,0.17475450935959816
1761467209605087200,3.996087158203125,0.4442559253841638,-0.5396268091663718,0.05902969659566879
1761467209615070200,4.0060703125,0.38967327132523055,-0.5474032883867621,-0.059276949355006214
1761467209625051100,4.016051025390625,0.2584258952587843,-0.6047909168638289,-0.16745324643552303
1761467209635034000,4.0260341796875,0.2568091077119112,-0.6748553638234734,-0.27120295924544335
1761467209645017000,4.03601708984375,0.3554512682497501,-0.7216479485280811,-0.42798985023796554
1761467209655000300,4.046000244140625,0.3345546106934547,-0.7946209764108061,-0.6194459035515785
1761467209664983300,4.0559833984375,0.2612532276391983,-0.8576346280761062,-0.7280746205747127
1761467209674966000,4.065966064453125,0.23646014716625213,-0.8989828297697007,-0.7438643103808165
1761467209684948200,4.0759482421875,0.22020693150162696,-0.8877174855202435,-0.7017237892657519
1761467209694931200,4.08593115234375,0.09761340201199054,-0.8179450072444975,-0.4987824653416872
1761467209704914200,4.0959140625,-0.006605097353458404,-0.7142245205290615,-0.208498373529315
1761467209714897200,4.105897216796875,-0.1504740545839071,-0.5955993101485073,-0.038082770156860346
1761467209724880100,4.115880126953125,-0.3182172238767147,-0.5147875514641403,0.032198388293385505
1761467209734863400,4.12586328125,-0.44997079589962957,-0.4053212145730853,0.10079495465755461
1761467209744846000,4.13584619140625,-0.5013543616563081,-0.33376652905568477,0.13432429929375647
1761467209754829000,4.1458291015625,-0.48106794495284555,-0.1836348581686616,0.0976677625477314
1761467209764812300,4.155812255859375,-0.392238737899065,-0.04090747218877077,0.023372107759118077
1761467209774795300,4.165795166015625,-0.4225625644922256,-0.08285802368968724,-0.028359248521924018
1761467209784778200,4.1757783203125,-0.4500234028697014,0.02061594091877341,-0.13489829978942872
1761467209794761200,4.18576123046875,-0.48010757548809047,-0.027534049744158982,-0.24695874482691285
1761467209804744200,4.195744140625,-0.503529367607832,-0.13174860358685253,-0.37707799364626404
1761467209814727400,4.2057275390625,-0.45617958741188047,-0.23098113123327493,-0.5119079043745994
1761467209824710100,4.215710205078125,-0.3564320959806442,-0.35340441872254014,-0.597782937797904
1761467209834692400,4.2256923828125,-0.24794307968914508,-0.5245866225533187,-0.608553338137269
1761467209844675300,4.23567529296875,-0.1906687023282051,-0.6538033695749939,-0.5903203468322754
1761467209854659300,4.245659423828125,-0.24637656102478503,-0.8254166582994162,-0.5197545262217521
1761467209864642300,4.255642333984375,-0.32109424061775205,-0.9939198521792888,-0.3849257845371961
1761467209874625500,4.26562548828125,-0.4801256956666708,-1.0641085100404917,-0.24812661956250667
1761467209884608500,4.2756083984375,-0.6513239738494158,-1.1024769652709365,-0.17834288924038408
1761467209894591200,4.28559130859375,-0.7452496272593736,-1.056243475753814,-0.18588731327056884
1761467209904574500,4.295574462890625,-0.8305477375775575,-0.9533042025439441,-0.1683084019601345
1761467209914557400,4.305557373046875,-0.8433025897324085,-0.8444884385161101,-0.17836685463786126
1761467209924540400,4.31554052734375,-0.7469289586484432,-0.8218779627792536,-0.14970423925518989
1761467209934523400,4.3255234375,-0.6115922674417495,-0.7842001201614737,-0.08693418708741664
1761467209944506400,4.33550634765625,-0.5048673382133245,-0.828276139383763,-0.11489654524624347
1761467209954489300,4.3454892578125,-0.5144704483389854,-0.8188929556190967,-0.2118780790954828
1761467209964472300,4.355472412109375,-0.5419102439284325,-0.7983603090696036,-0.38842531709074973
1761467209974455300,4.365455322265625,-0.521882770422101,-0.6842977304294705,-0.5412818828970194
1761467209984437500,4.3754375,-0.5038812497854233,-0.5207650184385478,-0.7048112338870763
1761467209994420500,4.38542041015625,-0.5862596732646227,-0.4287697485692799,-0.7082014608472585
1761467210004403500,4.395403564453125,-0.7481611307919025,-0.13131751869320868,-0.5248766915410756
1761467210014386400,4.405386474609375,-0.7938643128246069,0.1240617023460567,-0.056253217619657514
1761467210024369400,4.415369384765625,-0.8605798877477645,0.648431905669719,0.4927297411739826
1761467210034352400,4.425352294921875,-1.163453996542096,1.1711962812319396,0.7834469637066125
1761467210044335400,4.43533544921875,-1.3681512242227791,1.352419548214227,0.9466051432967185
1761467210054318300,4.445318359375,-0.9683049339294433,1.3084889288119972,1.2114859137833118
1761467210064301600,4.455301513671875,-0.2999474076926708,1.2713605367705225,1.3933061237454414
1761467210074284300,4.4652841796875,0.1393523565888405,1.1138203431926668,1.4184867422312497
1761467210084267300,4.475267333984375,0.19797171881794928,0.6451322796024381,1.3254594989657402
1761467210094250500,4.48525048828125,0.1265244391977787,0.2326533022291958,1.1971505144387482
1761467210104233500,4.4952333984375,0.08698036431670188,0.016752835749834775,1.1873445752173661
1761467210114216400,4.505216552734375,0.25718495528697966,-0.2629962719142437,1.1100707814007997
1761467210124199400,4.515199462890625,0.5374497573882341,-0.5552420191884041,0.8537795600831508
1761467210134182400,4.525182373046875,0.8448480656087398,-0.6942211585506797,0.5775853684216737
1761467210144165600,4.53516552734375,1.0681517940819263,-0.9170764126040041,0.15138415516614914
1761467210154147300,4.545147216796875,1.1963070493519306,-0.904746069471538,-0.09774258134961128
1761467210164130600,4.555130615234375,1.2979407929211855,-0.7982334678195416,-0.25250118138492106
1761467210174113500,4.565113525390625,1.4579074829936027,-0.7081351176127791,-0.3899684548795223
1761467210184096300,4.57509619140625,1.569579805496335,-0.47413916860297317,-0.46983109614551066
1761467210194079500,4.58507958984375,1.5929770476967096,-0.08043328076079487,-0.42326808241307734
1761467210204062500,4.5950625,1.6678817742943763,0.22882059219852088,-0.35256899081170556
1761467210214045400,4.60504541015625,1.7152280473589896,0.5551289142027497,-0.21384207264482974
1761467210224028400,4.6150283203125,1.540957522124052,0.8646313550956547,-0.01564998907446861
1761467210234011400,4.625011474609375,1.3325737148851156,1.0398923526726662,0.24927403603196144
1761467210243994400,4.634994384765625,0.9608499417483806,1.3425497499763965,0.4893658176988363
1761467210253977300,4.644977294921875,0.7671382184624671,1.465242794317752,0.6438210508733987
1761467210263960300,4.654960205078125,0.7155664366573095,1.4435020871527493,0.6867220349669456
1761467210273943600,4.664943603515625,0.7042261274755001,1.5256545929215848,0.7011760922551155
1761467210283926500,4.674926513671875,0.8451414955973625,1.3486248321063816,0.5816816978245973
1761467210293909200,4.6849091796875,0.8489999245911836,1.2005895489767193,0.4014753527998924
1761467210303892500,4.694892578125,0.8201011623650789,1.1045872354231774,0.26383447630405427
1761467210313875500,4.70487548828125,0.6391296781867742,0.9518183479003608,0.22156419132947922
1761467210323858400,4.7148583984375,0.38282442834377284,0.8401846038423478,0.1564531289935112
1761467210333840400,4.72484033203125,0.2935083145558834,0.7653168482542038,0.11312018322348594
1761467210343823400,4.7348232421875,0.3447147701799869,0.6430383760631084,0.12868307853639124
1761467210353806600,4.744806640625,0.38933015697598455,0.4738450079619884,0.13380641289949416
1761467210363789300,4.754789306640625,0.493279191750288,0.2887238567583263,0.09081132078170776
1761467210373772300,4.764772216796875,0.5730863034367562,0.17414821402952074,0.11551321583986282
1761467210383755500,4.774755615234375,0.5946750349104404,0.1138813768543303,0.1832750849455595
1761467210393738500,4.784738525390625,0.617348639011383,0.05282002830058336,0.2624479903817177
1761467210403721200,4.79472119140625,0.6295160466670989,0.052969812034815544,0.2570972770035267
1761467210413704400,4.804704345703125,0.5623948135524988,0.048272594129294154,0.14149696740210055
1761467210423687400,4.8146875,0.5260691161960364,0.06827800193428993,-0.09603227030038833
1761467210433670400,4.82467041015625,0.5305898084908723,0.06551175209134817,-0.38260464811325073
1761467210443653400,4.8346533203125,0.5211193848341703,0.061010056757926936,-0.6007534780412912
1761467210453636400,4.84463623046875,0.5528951638013124,0.0960476139999926,-0.7414747848957777
1761467210463619600,4.85461962890625,0.5936088669836521,0.13171221709921954,-0.8344219486624002
1761467210473602300,4.864602294921875,0.5637935744345188,0.20629355696141718,-0.9353080887347459
1761467210483585300,4.874585205078125,0.4072188648879528,0.2775825772799551,-0.9838538007169961
1761467210493568500,4.884568603515625,0.27830723829269405,0.32206337791085243,-0.9519634554594755
1761467210503551500,4.894551513671875,0.236339151135087,0.4083490379616618,-0.9465180495351553
1761467210513534200,4.9045341796875,0.1140939966917038,0.415247273042798,-0.8731336643725633
1761467210523516400,4.914516357421875,-0.04964753574430942,0.41241877161860463,-0.7591290995299815
1761467210533499400,4.92449951171875,-0.2262789448916912,0.4245066842973232,-0.7117348956704139
1761467210543482400,4.934482421875,-0.3511784132361412,0.42355595944374796,-0.6472334896653891
1761467210553465300,4.94446533203125,-0.4137503124833107,0.36072131760716436,-0.5631605372279882
1761467210563448300,4.9544482421875,-0.41646424761712547,0.3127045979350805,-0.4758317978650331
1761467210573431600,4.964431640625,-0.45201837607920164,0.24987346322983503,-0.43635494300127026
1761467210583414300,4.974414306640625,-0.521677603238821,0.15014555328190327,-0.40205753660202026
1761467210593397500,4.9843974609375,-0.5676332987278699,0.05226648607105017,-0.3682318393677473
1761467210603380500,4.99438037109375,-0.6484563094586133,0.0036357261538505553,-0.4181640372723341
1761467210613363500,5.004363525390625,-0.658354603138566,-0.05664192467629909,-0.5203361255019903
1761467210623346400,5.014346435546875,-0.6180903972893953,-0.1452244634926319,-0.5906143613427877
1761467210633329400,5.024329345703125,-0.5330787026971578,-0.2185863445624709,-0.6992050844430923
1761467210643312400,5.0343125,-0.43445057068467136,-0.2664657015904784,-0.7917220400989056
1761467210653295600,5.044295654296875,-0.3664706749141216,-0.3051321168541908,-0.8545698336780071
1761467210663278300,5.0542783203125,-0.3586450958549976,-0.23724486780315637,-0.9215145411819219
1761467210673261300,5.06426123046875,-0.40030981615185735,-0.1040723688930273,-0.9511158987194299
1761467210683244500,5.07424462890625,-0.23621581701636313,0.1291045188188553,-0.9835358208090066
1761467210693227500,5.0842275390625,-0.020488076755404473,0.42192032106593247,-1.0748784719884394
1761467210703210200,5.094210205078125,0.1884112787902355,0.6836592863954604,-1.192356265899539
1761467210713193500,5.104193359375,0.13699614885151384,0.9275336553409695,-1.2393249378234148
1761467210723175400,5.114175537109375,-0.1377870069682598,1.1519649265393614,-1.1938491348057985
1761467210733158400,5.124158447265625,-0.39080724379122256,1.2175547123029828,-1.0526356605201959
1761467210743141400,5.134141357421875,-0.6434042867660522,1.0996415957145391,-0.814737004983425
1761467210753124400,5.144124267578125,-0.7211117958247661,0.7334561674825847,-0.5798462990909814
1761467210763107300,5.154107421875,-0.7841232555329799,0.46129459233805536,-0.2433808863401413
1761467210773090300,5.16409033203125,-0.8410960195988416,0.2964708176232874,0.1379401517033577
1761467210783073500,5.174073486328125,-0.950491044819355,0.088370503500849,0.3669552435606718
1761467210793056500,5.184056396484375,-1.0468927329540252,-0.08909355707839131,0.45874739207327364
1761467210803039200,5.194039306640625,-1.0706377656787633,-0.19082623097747564,0.4175578880727291
1761467210813022500,5.2040224609375,-1.1159738679647444,-0.2804198465324938,0.29204058009088035
1761467210823005400,5.21400537109375,-1.2149871999025343,-0.39761926189363,0.11720306862294673
1761467210832988400,5.223988525390625,-1.2539689647257328,-0.4022723483964801,0.03991524628102779
1761467210842971400,5.233971435546875,-1.1419248863011597,-0.3466089133635163,0.09544891745448111
1761467210852953300,5.243953369140625,-0.9032803808331489,-0.3150013305701315,0.1985889739334583
1761467210862936600,5.2539365234375,-0.7368085466504096,-0.35809462236538525,0.25865853497087954
1761467210872919600,5.26391943359375,-0.6903156755447387,-0.4214034575849771,0.3785732006400823
1761467210882902500,5.273902587890625,-0.5711117884933948,-0.3240782248646021,0.4595107776612043
1761467210892885500,5.283885498046875,-0.17737258290350436,-0.2846183211356401,0.47928924484252927
1761467210902868500,5.293868408203125,0.04758358895182609,0.1457929110303521,0.6034522156059742
1761467210912851500,5.3038515625,-0.003433481580018997,0.5057312615662813,0.5821025535851717
1761467210922834700,5.313834716796875,-0.1567319459348917,0.7157698502749205,0.3375795114725828
1761467210932816400,5.32381640625,-0.116751233202219,0.9334794120028614,0.14151041140556334
1761467210942799600,5.333799560546875,0.024776129338145256,1.109433944801986,-0.015313304466009139
1761467210952782600,5.343782470703125,0.28281682467162605,1.362282039928436,-0.23898586625158785
1761467210962765600,5.353765625,0.4934878660649061,1.5045356709167361,-0.4762514845818281
1761467210972748500,5.36374853515625,0.712491851517558,1.5212915754064917,-0.606175503090024
1761467210982731500,5.3737314453125,0.9191898976266384,1.5488663955524562,-0.7382628371119498
1761467210992714800,5.38371484375,0.9980407315015792,1.4763409653067587,-0.7962719584882259
1761467211002697500,5.393697509765625,1.0083967058211565,1.3457833250701428,-0.7074310609966517
1761467211012680400,5.403680419921875,0.9576888473689555,1.1863485499173403,-0.4451823925793171
1761467211022663700,5.41366357421875,0.9212982680827378,1.0229404872193932,-0.13012158690690995
1761467211032646400,5.423646484375,0.9524176289677619,0.8683379545286297,0.1825298195362091
1761467211042629400,5.43362939453125,1.0791583412647248,0.7273799163088202,0.42632220928668974
1761467211052612600,5.443612548828125,1.1274170529991387,0.562439237216115,0.6002928747922182
1761467211062595600,5.453595703125,1.1335311519652604,0.43756578009575603,0.7028864033043384
1761467211072578300,5.463578369140625,1.2028361588597296,0.23661036929190157,0.735890262761712
1761467211082561500,5.4735615234375,1.3250918346971272,0.05627513719052076,0.772602913609147
1761467211092544500,5.48354443359375,1.3929109869480132,-0.10044102665334939,0.6718892074942588
1761467211102527700,5.49352783203125,1.4218155943930149,-0.29850773027837274,0.5118050285220146
1761467211112510500,5.503510498046875,1.3468190978586674,-0.49572337003201244,0.40881753225624556
1761467211122493400,5.513493408203125,1.2703273943305016,-0.6059232818946242,0.3408580947518349
1761467211132476700,5.5234765625,1.1153618735462427,-0.6819926683574915,0.33022564157843587
1761467211142458400,5.533458251953125,0.951940074583888,-0.6410545087695121,0.31785715839266776
1761467211152441600,5.543441650390625,0.824222626209259,-0.6126715871110558,0.3498053713172674
1761467211162424600,5.553424560546875,0.7670008558183908,-0.5444584671065211,0.4334726655632257
1761467211172407600,5.563407470703125,0.7165121930748224,-0.4976943778440356,0.5185732074826955
1761467211182390500,5.573390625,0.6330097340017556,-0.4910618079617619,0.6114934832423925
1761467211192373500,5.58337353515625,0.5326736290276051,-0.47656858770698307,0.7547650591015815
1761467211202356500,5.5933564453125,0.4082335948884487,-0.4480268222250044,0.8933493539273738
1761467211212339700,5.603339599609375,0.3293751622289419,-0.4153694381177425,0.9568851297706366
1761467211222322400,5.613322509765625,0.3414221583753824,-0.4299982674509287,0.8684715177804231
1761467211232305400,5.623305419921875,0.42939620990455146,-0.4021389312751591,0.7545797656625509
1761467211242288600,5.63328857421875,0.4623258350819349,-0.38199265369474883,0.5913783314526081
1761467211252271600,5.643271728515625,0.5031348153322934,-0.37910613847300406,0.46157355540990824
1761467211262254600,5.653254638671875,0.5447007514297962,-0.31768165569528933,0.3946960679233074
1761467211272237600,5.663237548828125,0.5849935988515615,-0.25110242050290105,0.41997430156469345
1761467211282220500,5.673220458984375,0.6031435880482197,-0.17472236065566538,0.39411329959928987
1761467211292203500,5.68320361328125,0.55605158200562,-0.12738017924427986,0.33171266526579857
1761467211302186500,5.6931865234375,0.564494416180253,-0.10149199701100588,0.25887773067951203
1761467211312169500,5.70316943359375,0.5699602803707122,-0.09387392322272062,0.19513152695596217
1761467211322152700,5.713152587890625,0.6462520774126053,-0.020155483800172805,0.08958031768202782
1761467211332135400,5.723135498046875,0.7815081045985222,0.010720715978741645,-0.017398878568410873
1761467211342118400,5.733118408203125,0.8793512237131595,-0.03346022492274642,-0.1341705700367689
1761467211352101600,5.7431015625,0.8293687569260597,-0.16514935340732334,-0.22863865976035594
1761467211362083300,5.753083251953125,0.6891594912469386,-0.24432430467009542,-0.22409283302426336
1761467211372066600,5.763066650390625,0.49332770706713197,-0.28692542903423307,-0.27338381041586396
1761467211382049500,5.773049560546875,0.3229571118801832,-0.4948243753656745,-0.3431862454384565
1761467211392032500,5.783032470703125,0.3612853812307119,-0.5890693238578737,-0.353168710270524
1761467211402015500,5.793015380859375,0.3959726637303829,-0.6982673652015626,-0.38420273095965385
1761467211411998500,5.80299853515625,0.3696434597313404,-0.7232280573263764,-0.420099973770976
1761467211421981700,5.812981689453125,0.21934651528000831,-0.7664664566807449,-0.42471769669950005
1761467211431964700,5.822964599609375,0.05697159502208233,-0.7440026959381997,-0.4397697198808193
1761467211441947400,5.832947509765625,-0.009040215545892715,-0.6571950578399002,-0.4233896629661321
1761467211451930600,5.8429306640625,-0.1349327865809202,-0.5783611750997603,-0.2853998269021511
1761467211461913600,5.85291357421875,-0.27486089723110196,-0.47092137560024855,-0.07192717209160328
1761467211471896600,5.862896484375,-0.36484044336378574,-0.350404798515141,0.051610944771766656
1761467211481879600,5.872879638671875,-0.39941608218252656,-0.3383133787050843,0.15794482885599134
1761467211491862500,5.882862548828125,-0.33428923775553704,-0.30420170413628217,0.1790343786358833
1761467211501845500,5.892845458984375,-0.36982933769226073,-0.30806977774128314,0.15004209290742873
1761467211511828500,5.902828369140625,-0.4184627279579639,-0.1869584496334195,0.07023088956773281
1761467211521811500,5.9128115234375,-0.40099546032845973,-0.15239377060011028,-0.03014379385113716
1761467211531794400,5.92279443359375,-0.36314474536180497,-0.12732085027247667,-0.1613578521698713
1761467211541777700,5.932777587890625,-0.334240722438693,-0.11603212514743208,-0.3528156590491533
1761467211551760400,5.942760498046875,-0.3364753496229648,-0.12290595643967389,-0.49185471190512176
1761467211561743600,5.95274365234375,-0.30160920342504977,-0.08137699135169386,-0.5972901858448982
1761467211571726600,5.9627265625,-0.2730254984974861,-0.04600567211061716,-0.7017302190065383
1761467211581708500,5.97270849609375,-0.3190191879093647,-0.012429419592767953,-0.7402852828502655
1761467211591691500,5.98269140625,-0.4170347409814596,0.0185642690859735,-0.7423585819929838
1761467211601674500,5.992674560546875,-0.4787561608791351,0.04186711100116372,-0.7629594714730977
1761467211611657700,6.00265771484375,-0.46831543088555333,-0.03817132522314787,-0.7623638436675071
1761467211621640400,6.012640380859375,-0.3235895645648241,-0.14325447859391569,-0.7514607568591832
1761467211631623400,6.02262353515625,-0.1274614277869463,-0.31249738492518664,-0.7475485518515109
1761467211641606700,6.032606689453125,-0.07902502139806747,-0.4699747423999011,-0.7086088726043701
1761467211651589600,6.042589599609375,-0.15737316644787788,-0.5780133845753967,-0.6342746393710375
1761467211661572400,6.052572265625,-0.22699878359884024,-0.6858863147951663,-0.5177595530122518
1761467211671555600,6.0625556640625,-0.23356530250757931,-0.6983325393922627,-0.3786094409972429
1761467211681538600,6.07253857421875,-0.2509296942844987,-0.6999804527297615,-0.21732699215114115
1761467211691521500,6.082521484375,-0.33380291554331776,-0.7000050026491283,-0.10692425119280814
1761467211701504500,6.09250439453125,-0.5760305401951075,-0.6345249608702958,0.019693126985430718
1761467211711487500,6.102487548828125,-0.8623106570631265,-0.7239860360868274,0.0819295106679201
1761467211721470700,6.112470703125,-0.9323293651849031,-0.7928631729580462,0.1151999121069908
1761467211731453400,6.122453369140625,-0.927211876040697,-0.7947786511905491,0.05939911442995071
1761467211741436400,6.1324365234375,-0.8812181866288185,-0.900752177529782,-0.2065893250375986
1761467211751419600,6.142419677734375,-0.8446794310435652,-0.8477923023670911,-0.37695524404942987
1761467211761402600,6.152402587890625,-0.9248837253540754,-0.7979889915391802,-0.5752513725161552
1761467211771385300,6.16238525390625,-0.9780717101842165,-0.7068431781060993,-0.6679442692607641
1761467211781368600,6.17236865234375,-0.9896122181132435,-0.528496051082015,-0.6898702698647976
1761467211791350500,6.1823505859375,-0.8150023779213428,-0.32263197157904505,-0.4066805202275514
1761467211801333500,6.19233349609375,-0.5729281902655958,0.07920899966284632,0.04088905974924564
1761467211811316500,6.20231640625,-0.49875002437680954,0.3850627087898552,0.390556483900547
1761467211821299500,6.212299560546875,-0.675855773037672,0.7054268815673888,0.7030319492548703
1761467211831282700,6.22228271484375,-0.698178079482913,0.8293591123148798,1.089748708862066
1761467211841265400,6.232265380859375,-0.4693263614937663,0.7240332362294196,1.5056179131954908
1761467211851248400,6.242248291015625,-0.27034166624099015,0.3990285441696644,1.7361048311710356
1761467211861231000,6.252231201171875,-0.25844927613437174,0.06478051520735024,1.6738590951383112
1761467211871214000,6.262214111328125,-0.46688452129960056,-0.05149447878524661,1.6012427717387676
1761467211881197300,6.272197265625,-0.4093260663002729,-0.24704013950005171,1.4519576346784828
1761467211891180300,6.28218017578125,-0.2104325564622879,-0.2905459576189518,1.1586001267701387
1761467211901163000,6.2921630859375,0.027394202882051466,-0.3079216014422476,0.7139169158846139
1761467211911146200,6.302146240234375,0.3553343638718128,-0.29595234670713544,0.34118484248816966
1761467211921129200,6.312129150390625,0.579608398681879,-0.1439424608580768,-0.009663315880298614
1761467211931112000,6.32211181640625,0.5907096384108066,-0.12833864901289344,-0.3336673064649105
1761467211941095200,6.33209521484375,0.724276981857419,-0.13367957164943217,-0.6080822134941816
1761467211951078100,6.342078125,0.9450473924607038,-0.09255611862242222,-0.7542565250575543
1761467211961061000,6.35206103515625,1.2286129896730185,-0.014549480486661194,-0.7980582573831081
1761467211971044000,6.362044189453125,1.4928408492088316,0.16123729453012348,-0.7766676788300275
1761467211981027000,6.372027099609375,1.6596721643537282,0.34743440440222617,-0.6652081222951411
1761467211991010300,6.38201025390625,1.8206968390464782,0.5217005457229912,-0.5895248125404119
1761467212000993300,6.3919931640625,1.9514123001933097,0.6844875539131462,-0.46284372147619723
1761467212010975200,6.401975341796875,2.025088946300745,0.8628327812410891,-0.23652093744277952
1761467212020958200,6.411958251953125,2.004555276837945,1.08061233946532,0.009378653720021248
1761467212030941200,6.421941162109375,1.8785276812463998,1.3457343713618815,0.3081085023164749
1761467212040924200,6.431924072265625,1.7465403004676103,1.3846457012973725,0.5523790309727191
1761467212050907100,6.4419072265625,1.3891361445844173,1.5621775664158164,0.9129337598413229
1761467212060890000,6.45189013671875,1.0833704060018061,1.4700056248053908,1.1245113946855068
1761467212070873300,6.461873291015625,0.9387982689380645,1.583045874660462,1.1758254023373127
1761467212080856000,6.47185595703125,0.8955190991818904,1.8613044515058397,1.333565064010024
1761467212090839000,6.481839111328125,0.8141700187504292,1.806354571569711,1.2620353668034077
1761467212100822300,6.491822265625,0.34984278071820735,1.4628110371261833,0.8414812195241451
1761467212110805200,6.50180517578125,0.17276655041277408,1.1105226168215274,0.4379308140158653
1761467212120788200,6.511788330078125,0.17588731278181075,1.074252449044585,0.26826924388110635
1761467212130771200,6.521771240234375,0.33904140071868893,0.9957388842999935,0.1335311030894518
1761467212140754200,6.531754150390625,0.5013876794040203,0.8344362694486975,-0.017778817796707154
1761467212150737200,6.541737060546875,0.5564847127258777,0.7009421373687684,-0.10951251412034034
1761467212160720100,6.55172021484375,0.5420780017107725,0.5824272554948926,-0.2222866603851318
1761467212170703000,6.561703125,0.3990232834726572,0.4331432874783873,-0.21474808157384395
1761467212180686300,6.571686279296875,0.3629594519227743,0.3486557628907263,-0.15640753628611564
1761467212190669000,6.5816689453125,0.3433323759108782,0.23249431227520106,-0.13645254349410532
1761467212200652000,6.591652099609375,0.28453824163675306,0.18109481829702853,-0.1589011066675186
1761467212210635300,6.60163525390625,0.24710896695256232,0.10724676114544272,-0.12421850034296512
1761467212220617000,6.611616943359375,0.3187865481972694,0.2145404301725328,-0.14542027832567692
1761467212230600200,6.62160009765625,0.3669774553924799,0.32112609706073997,-0.1761333964973688
1761467212240583200,6.631583251953125,0.39641397775709625,0.3675261753164232,-0.31889819187819957
1761467212250566100,6.641566162109375,0.3080477120399475,0.41475861274302006,-0.4394108234405517
1761467212260549000,6.651549072265625,0.15618074179291724,0.4829414837397635,-0.4696469717502594
1761467212270532000,6.661531982421875,0.14519991357326506,0.5043422914259136,-0.5750146411508321
1761467212280515000,6.67151513671875,0.1197013151794672,0.4908348673380911,-0.6688157913982867
1761467212290498300,6.681498291015625,0.1603477983444929,0.46464375663548707,-0.7459890474498272
1761467212300481000,6.69148095703125,0.17557751618027687,0.4778253097698092,-0.8879214836597442
1761467212310464300,6.70146435546875,0.12056582305431365,0.4304373895205557,-0.9907663565844297
1761467212320447200,6.711447265625,0.06464695195555686,0.4552310545153916,-1.0211585722386836
1761467212330430200,6.72143017578125,-0.012998013260960579,0.494502596065402,-1.059728249129653
1761467212340413200,6.7314130859375,-0.03674246146380901,0.49366117680519817,-1.0543892261892556
1761467212350396200,6.741396240234375,-0.11644435921013355,0.611173749768734,-1.0456050312310456
1761467212360379100,6.751379150390625,-0.23613632203936574,0.609366408085823,-1.0328227065473794
1761467212370362000,6.761362060546875,-0.3556009058535099,0.5585869457021355,-0.9461036235153675
1761467212380345000,6.771344970703125,-0.4367033180475235,0.4948790281623602,-0.829164758786559
1761467212390328000,6.781328125,-0.4269564155369997,0.4366051183700561,-0.7674439234107733
1761467212400311300,6.791311279296875,-0.4495376651793718,0.384217344006896,-0.7918746003121138
1761467212410294000,6.8012939453125,-0.5198989031285047,0.5816957263499498,-1.0297054513096808
1761467212420277000,6.811277099609375,-0.5608341401070356,0.6101435299381613,-1.2180956873118878
1761467212430260200,6.82126025390625,-0.6467050818771124,0.6655544515147804,-1.256941258534789
1761467212440242200,6.8312421875,-0.5886708260595798,0.9621657005220651,-1.3500988501816986
1761467212450225200,6.84122509765625,-0.5787579193323851,0.942066623084247,-1.2064584410101176
1761467212460208000,6.8512080078125,-0.6977075393617153,1.1260445956021548,-1.0325105718582868
1761467212470191400,6.86119140625,-0.683037793496251,1.2399074138864874,-0.8574801681667565
1761467212480174000,6.871174072265625,-0.6197410871058702,1.30109341173321,-0.7448246798455714
1761467212490157000,6.881156982421875,-0.4640332235217094,1.31586427988559,-0.6701385644346475
1761467212500140300,6.891140380859375,-0.32213761219084264,1.3550041578799485,-0.5569745420694351
1761467212510123300,6.901123291015625,-0.18912848714888095,1.3835349635764955,-0.4976350488722324
1761467212520106000,6.91110595703125,-0.03922901758253574,1.309795773626864,-0.45405426582098
1761467212530089200,6.921089111328125,-0.005796119058132172,1.1833245259210468,-0.40085809768438335
1761467212540072200,6.931072265625,-0.16766893501281738,0.9767448454946279,-0.35334172874987124
1761467212550055200,6.94105517578125,-0.3248562234997749,0.77106795912683,-0.23162848922610282
1761467212560038100,6.9510380859375,-0.45575288643240924,0.5617848649606109,-0.1816138737350702
1761467212570021000,6.961021240234375,-0.5756318962663411,0.274275206297636,-0.16411153479218482
1761467212580004000,6.971004150390625,-0.7245815177619457,0.0835308083847165,-0.2206803942322731
1761467212589987300,6.9809873046875,-0.9079466190785169,-0.07127572244554757,-0.31473171984851356
1761467212599970000,6.990969970703125,-1.1080699629724025,-0.09934154097884892,-0.33369594803750513
1761467212609953300,7.000953369140625,-1.1299357578217983,-0.15830752468854187,-0.22061083612740037
1761467212619936300,7.010936279296875,-0.8651526024907827,-0.1520686302989721,-0.015866846695542336
1761467212629919000,7.0209189453125,-0.6562029780626296,-0.16294161422997713,0.20612112300395966
1761467212639901200,7.030901123046875,-0.7595943789541721,-0.2667807588890195,0.27544717268645763
1761467212649884200,7.04088427734375,-0.9679740945398807,-0.37037235852777955,0.30666297968328
1761467212659867100,7.0508671875,-0.9389853159427642,-0.21253099004626272,0.4001449809789657
1761467212669850000,7.06085009765625,-0.589672112056613,0.3315975144535303,0.3255728473365307
1761467212679833000,7.0708330078125,-0.4063338987469673,0.6254395910084247,0.12465922984778881
1761467212689816300,7.08081640625,-0.4723439557492733,0.7755909895092249,-0.030945757883787152
1761467212699799000,7.090799072265625,-0.5617752203494311,0.958420961035788,0.0006733692169189453
1761467212709782000,7.100781982421875,-0.5316039539694786,1.123095390407741,0.06411562155783176
1761467212719765200,7.11076513671875,-0.18304478332102297,1.1761451358109711,0.10151157849431038
1761467212729748200,7.120748291015625,0.12689210346639154,1.2021522682487964,0.13511691097617148
1761467212739731200,7.130731201171875,0.26259587441980836,1.1007587631762028,0.15415069727003575
1761467212749714200,7.140714111328125,0.31386545840799807,1.0387900905191898,0.14713818815946578
1761467212759697200,7.150697265625,0.48909401502013206,0.9263312938138842,0.24981179617047308
1761467212769680400,7.160680419921875,0.7769669540375471,0.7899787035629153,0.40481414183378217
1761467212779663000,7.1706630859375,0.9394728071987628,0.6565262186676264,0.5628051479190588
1761467212789646000,7.18064599609375,0.9977776966512203,0.4533297509387135,0.6284452025651931
1761467212799629300,7.19062939453125,1.0263526337504387,0.24093027831763028,0.7132102289199829
1761467212809612300,7.2006123046875,1.1541676972806454,0.09355623557567595,0.8566635910868644
1761467212819595000,7.210594970703125,1.2549760959416627,-0.029022973127663134,0.8787053270250559
1761467212829578200,7.220578125,1.3228612991660833,-0.1734533636331558,0.8070213160395622
1761467212839561200,7.230561279296875,1.4461439799636602,-0.3037418315395713,0.5959931317716837
1761467212849547300,7.24054736328125,1.5069927086800337,-0.40806116093099115,0.3517050674587488
1761467212859530200,7.2505302734375,1.5382506012529134,-0.4860930796384811,0.1453594880491495
1761467212869513200,7.26051318359375,1.5323825860023497,-0.5879352052614093,-0.020246669214963913
1761467212879496200,7.27049609375,1.5445312889575957,-0.6740788264930248,-0.13325930041074752
1761467212889479200,7.280479248046875,1.4089777401298285,-0.7737783871293068,-0.20051263547241688
1761467212899462100,7.290462158203125,1.282581311225891,-0.8569654966428876,-0.22336685683727264
1761467212909445000,7.300445068359375,1.1202537372410297,-0.8853934264868497,-0.06177987208664417
1761467212919428000,7.310427978515625,0.9628788172274827,-0.8390165829762816,0.16811375617086885
1761467212929411000,7.3204111328125,0.8578601073950528,-0.8005053582742809,0.37877310712635515
1761467212939394300,7.330394287109375,0.7618500489264726,-0.7405410111770033,0.5530044693946838
1761467212949377000,7.340376953125,0.6614408787161111,-0.7119163897171616,0.7272270638346672
1761467212959360000,7.350360107421875,0.5338531942009925,-0.7208622049778699,0.868359874099493
1761467212969343200,7.36034326171875,0.44247430266439913,-0.7363739546254277,0.9638543842613696
1761467212979326200,7.370326171875,0.37463352310359477,-0.7793123481199145,1.0530173533141611
1761467212989309200,7.38030908203125,0.2793196302056312,-0.8055515357479452,1.0660779104173184
1761467212999292200,7.390292236328125,0.2930067947745323,-0.8643395325422286,1.0585668041348457
1761467213009275100,7.400275146484375,0.321767609834671,-0.737158383001387,0.9673328740268945
1761467213019258400,7.41025830078125,0.40552901210486886,-0.6248094764113425,0.8747031056463718
1761467213029241000,7.420240966796875,0.5731529389321803,-0.46050841039642687,0.7703893292129039
1761467213039224000,7.43022412109375,0.755256642010808,-0.3476709896370768,0.674072981274128
1761467213049206300,7.440206298828125,0.8142641267746686,-0.24361045731231568,0.5470177962005138
1761467213059189000,7.45018896484375,0.7495856106370687,-0.18182897779047488,0.4018494468092918
1761467213069172200,7.460172119140625,0.7227133858025073,-0.19148337971195578,0.2864373532563448
1761467213079155200,7.4701552734375,0.8287094162344932,-0.21723200734406709,0.16206220104694366
1761467213089138200,7.48013818359375,0.872272663629055,-0.24090455935448407,-0.008472060269117355
1761467213099121200,7.49012109375,0.9145172296404838,-0.2720079920180142,-0.13824176499843596
1761467213109104000,7.500104248046875,0.8546744630962609,-0.27416809266135095,-0.28758593876957894
1761467213119087000,7.510087158203125,0.7091086388200522,-0.2936171817578375,-0.40927696646153927
1761467213129070000,7.520070068359375,0.5625514654189347,-0.2717842662647366,-0.5167904157191515
1761467213139053000,7.530052978515625,0.38651568407714365,-0.30595760789290066,-0.6064753628194332
1761467213149036300,7.540036376953125,0.3487812889665365,-0.32764205482602116,-0.6245318285137414
1761467213159019300,7.550019287109375,0.2826940750747919,-0.2973550531119108,-0.601011252194643
1761467213169002000,7.560001953125,0.20383330432772634,-0.3068807140871882,-0.5883014082252979
1761467213178985200,7.569985107421875,0.13914485131800175,-0.30494770019799466,-0.5629284820377827
1761467213188968200,7.57996826171875,0.05775894600749015,-0.2951511133268475,-0.5075871185660362
1761467213198951200,7.589951171875,-0.0627455022484064,-0.3141165105596185,-0.41567397402226924
1761467213208934100,7.59993408203125,-0.16737959667742253,-0.3196256293699145,-0.26916297785043714
1761467213218917000,7.609917236328125,-0.28051790007948874,-0.309019333551079,-0.06892448314428329
1761467213228900000,7.619900146484375,-0.4217763825505972,-0.303633256598562,0.09653320555984973
1761467213238883300,7.62988330078125,-0.555329697471857,-0.3417778399452567,0.18088906659185885
1761467213248865000,7.639864990234375,-0.5873720184206962,-0.3449696217238903,0.249065946239233
1761467213258848300,7.64984814453125,-0.5384224018126725,-0.32444661978557704,0.17370061639249323
1761467213268831200,7.659831298828125,-0.5088502703696489,-0.34721608547642824,0.048988195052742954
1761467213278814000,7.66981396484375,-0.5317255345225333,-0.3095876349583268,-0.16677227843403816
1761467213288797200,7.679797119140625,-0.546711506730318,-0.3008063626095652,-0.29392215605378147
1761467213298780200,7.6897802734375,-0.511321044397354,-0.23779899455457926,-0.42759354439675806
1761467213308763400,7.699763427734375,-0.4598556455761194,-0.2289874731980264,-0.5481131902217865
1761467213318746000,7.70974609375,-0.4432575619965791,-0.17308292288556695,-0.6438327413111925
1761467213328729000,7.71972900390625,-0.5149702145546674,-0.14168416053727267,-0.6803565915882587
1761467213338712300,7.72971240234375,-0.542975827333331,-0.1015941422112286,-0.7138298221230507
1761467213348695300,7.7396953125,-0.5548386990845203,-0.10433277339488267,-0.7164648468017578
1761467213358678000,7.749677978515625,-0.5505974082529544,-0.15356953638121484,-0.7562462375700474
1761467213368661200,7.7596611328125,-0.4191483721345663,-0.1953247114405036,-0.7704051113039254
1761467213378644200,7.769644287109375,-0.244927531260252,-0.2926581274673343,-0.8321516656428575
1761467213388627000,7.779626953125,-0.11593991681933402,-0.4689963988870382,-0.7878659491926431
1761467213398610200,7.789610107421875,-0.13014262969493864,-0.5283168951228261,-0.6879121215343474
1761467213408593200,7.79959326171875,-0.19363047474324702,-0.6115358610793947,-0.594925794801116
1761467213418576100,7.809576171875,-0.38574703779220576,-0.7913761492706834,-0.48227556717693804
1761467213428559000,7.81955908203125,-0.5246399601757527,-0.892398044551909,-0.36167642637491226
1761467213438542000,7.8295419921875,-0.6821861451029777,-0.9532266072630882,-0.1887251670449972
1761467213448524300,7.839524169921875,-0.7814332857966423,-0.9692653033941984,-0.023954876083135603
1761467213458507000,7.849507080078125,-0.8302724277675151,-0.944277723262459,0.13037877653837204
1761467213468490200,7.859490234375,-0.8317091825723648,-0.882372471230477,0.16433073050081728
1761467213478473200,7.86947314453125,-0.7719242836952209,-0.8904042403861879,0.0644189884185791
1761467213488456200,7.879456298828125,-0.8214327032297849,-0.8923891305930912,-0.020838205367326734
1761467213498439200,7.889439208984375,-0.812514068236947,-0.9141993958629667,-0.126855863109231
1761467213508422100,7.899422119140625,-0.7070102052360773,-0.9606704935282468,-0.27498832300305365
1761467213518405000,7.909405029296875,-0.5582885472774505,-1.0035096644319594,-0.45190673239827156
1761467213528388400,7.919388427734375,-0.6461936252236365,-0.9527629352740943,-0.5285527497053146
1761467213538371000,7.92937109375,-0.7405594236165285,-0.8218123501971364,-0.4985808052897453
1761467213548354000,7.93935400390625,-0.5770411785423756,-0.5112085239335894,-0.26504619018137454
1761467213558337300,7.949337158203125,-0.4038625401973724,-0.17533435507416725,0.06136544606685638
1761467213568320300,7.9593203125,-0.49698447600901124,0.009187368931621313,0.25330899063646795
1761467213578303000,7.969302978515625,-0.6139145729094744,0.16336422355622052,0.4189087181597948
1761467213588286200,7.9792861328125,-0.470772176387906,0.4387478294871747,0.5716086320996284
1761467213598269200,7.989269287109375,-0.2918833437025547,0.28004502187073227,0.5365875876009464
1761467213608252200,7.999252197265625,-0.16545242800712584,-0.02146539735496044,0.4874345573753118
1761467213618235100,8.009235107421874,-0.02796002007126808,-0.2532956927634776,0.4858849898457527
1761467213628218000,8.019218017578124,-0.13796762423217296,-0.40498263026848436,0.5244704488277435
1761467213638201300,8.029201416015624,-0.18902444225251674,-0.3870690801762044,0.5814712699443102
1761467213648184000,8.03918408203125,-0.19650223078727722,-0.3519786237031221,0.6924889279305935
1761467213658166300,8.049166259765625,-0.08645721722543238,-0.2545152976863086,0.7500257556200027
1761467213668149200,8.059149169921875,0.0791635530859232,-0.18831103328615426,0.7508791575789451
1761467213678132000,8.069132080078125,0.2465828972518444,-0.15371479007080197,0.6310375571459531
1761467213688115200,8.079115234375,0.3471376134127378,-0.13285934130772947,0.5315554386526345
1761467213698098200,8.08909814453125,0.4861018474668264,-0.060287149310857054,0.5220996280431747
1761467213708081200,8.0990810546875,0.75715516910851,0.0424758905492723,0.5406897622227669
1761467213718064000,8.109064208984375,1.0098065726190806,0.10181962153017521,0.5420657267510891
1761467213728047000,8.119047119140625,1.165158462372422,0.17574921948537228,0.490539537653327
1761467213738030000,8.129030029296874,1.3295394617557525,0.1911271136201918,0.3846510592490434
1761467213748013300,8.139013427734374,1.4670382994323967,0.2354324115537107,0.27300679379701615
1761467213757996000,8.14899609375,1.581858856832981,0.2829007035627961,0.16175006635785102
1761467213767979300,8.158979248046874,1.626798068755865,0.34160672116205093,0.04909107090532779
1761467213777962200,8.168962158203126,1.651697532212734,0.4000912049651146,-0.08530629362463951
1761467213787945200,8.1789453125,1.573983008891344,0.5098799056783319,-0.22062018847763537
1761467213797928200,8.18892822265625,1.5448656354784964,0.6920199952445923,-0.2705634922981262
1761467213807911200,8.1989111328125,1.767846707868576,0.9408744906902312,-0.1640916610479355
1761467213817894100,8.20889404296875,1.4741981080591677,1.004852165082097,-0.02343698968887329
1761467213827877000,8.218877197265625,0.7836065381824969,1.2481938884556292,0.02062543939948082
1761467213837860000,8.228860107421875,0.2373106265157461,1.5214526111871003,0.11041150878667831
1761467213847843000,8.238843017578125,0.04128536559045314,1.4245759990170597,0.1177232931047678
1761467213857825500,8.248825439453125,0.025008769050240517,1.621362453573197,0.18259353242218493
1761467213867807700,8.258807861328124,0.07751812396645545,1.542153161649406,0.26814707880616184
1761467213877790700,8.268790771484374,0.3402197968482971,1.4114911842554807,0.29917934592962264
1761467213887773400,8.2787734375,0.4442757991284132,1.3137963875703513,0.38608956761956215
1761467213897756700,8.288756591796876,0.5250169767946005,1.0889895610578357,0.4220020080000162
1761467213907739600,8.29873974609375,0.6470622247517108,0.9560013326734303,0.3648766837209463
