time,seconds_elapsed,z,y,x
1761467195464632000,0.120632080078125,-0.2709766924381256,0.10366073995828629,0.30261433124542236
1761467195474615000,0.130614990234375,-0.25945401191711426,0.06320519000291824,0.314971387386322
1761467195484598300,0.140598388671875,-0.2522270083427429,0.024419626221060753,0.3259122669696808
1761467195494581200,0.150581298828125,-0.25354474782943726,-0.025926634669303894,0.33838891983032227
1761467195504564000,0.16056396484375,-0.2636066675186157,-0.027949079871177673,0.36545291543006897
1761467195514547200,0.170547119140625,-0.2888089716434479,0.017303619533777237,0.3957500755786896
1761467195524530200,0.1805302734375,-0.31616437435150146,0.12243088334798813,0.44744929671287537
1761467195534512000,0.19051220703125,-0.3517923951148987,0.22852322459220886,0.49048757553100586
1761467195544495000,0.2004951171875,-0.3645488917827606,0.3662171959877014,0.5070292949676514
1761467195554478000,0.21047802734375,-0.32956749200820923,0.5110572576522827,0.47755205631256104
1761467195564461300,0.22046142578125,-0.3005402982234955,0.5561679601669312,0.4201740324497223
1761467195574444000,0.230444091796875,-0.2610674798488617,0.4998301565647125,0.39135703444480896
1761467195584427000,0.240427001953125,-0.2170684039592743,0.3447650671005249,0.3961857259273529
1761467195594409200,0.2504091796875,-0.20605942606925964,0.21116678416728973,0.40154746174812317
1761467195604392000,0.260391845703125,-0.1726594716310501,0.1666499227285385,0.4040762484073639
1761467195614375200,0.270375244140625,-0.14109808206558228,0.18136228621006012,0.41275256872177124
1761467195624358100,0.280358154296875,-0.15460698306560516,0.21325474977493286,0.4130682945251465
1761467195634341000,0.290341064453125,-0.2081088274717331,0.21498766541481018,0.4172137677669525
1761467195644324000,0.300323974609375,-0.2705041766166687,0.20021426677703857,0.43224385380744934
1761467195654306000,0.31030615234375,-0.33133772015571594,0.15046429634094238,0.43950310349464417
1761467195664289300,0.320289306640625,-0.4013693630695343,0.10642293840646744,0.4413450360298157
1761467195674272000,0.33027197265625,-0.4473145008087158,0.04696440324187279,0.40982571244239807
1761467195684255200,0.340255126953125,-0.4782346189022064,0.0023180958814918995,0.3664148151874542
1761467195694238200,0.35023828125,-0.4894707500934601,-0.02693752758204937,0.3102884292602539
1761467195704221200,0.36022119140625,-0.47442659735679626,-0.05216529965400696,0.24954254925251007
1761467195714204200,0.3702041015625,-0.4348594546318054,-0.06136998161673546,0.2061101347208023
1761467195724186000,0.38018603515625,-0.3926226496696472,-0.05489388480782509,0.17883175611495972
1761467195734169300,0.39016943359375,-0.34773746132850647,-0.014085734263062477,0.15719757974147797
1761467195744152000,0.400152099609375,-0.2958199977874756,0.06669522076845169,0.10841749608516693
1761467195754135000,0.410135009765625,-0.22392289340496063,0.10601919144392014,0.06699734926223755
1761467195764118300,0.4201181640625,-0.178183913230896,0.15805047750473022,0.03971851244568825
1761467195774101000,0.43010107421875,-0.13506066799163818,0.19312138855457306,0.01270420290529728
1761467195784083200,0.440083251953125,-0.11435171216726303,0.22177131474018097,-0.006618012674152851
1761467195794066200,0.450066162109375,-0.09942362457513809,0.22125226259231567,-0.02301163226366043
1761467195804049000,0.460048828125,-0.08329670876264572,0.20984382927417755,-0.026808224618434906
1761467195814032100,0.4700322265625,-0.07442891597747803,0.18098022043704987,-0.03488026186823845
1761467195824015000,0.48001513671875,-0.06909099221229553,0.13529643416404724,-0.029823344200849533
1761467195833998000,0.489998046875,-0.07579896599054337,0.09440626204013824,-0.04074016958475113
1761467195843981300,0.499981201171875,-0.07987747341394424,0.000406790291890502,-0.05082530900835991
1761467195853963300,0.50996337890625,-0.0917983129620552,-0.04292949661612511,-0.057594798505306244
1761467195863946200,0.5199462890625,-0.10717291384935379,-0.08315743505954742,-0.08486999571323395
1761467195873929200,0.52992919921875,-0.11353041231632233,-0.12859362363815308,-0.12455562502145767
1761467195883912400,0.539912353515625,-0.11768005788326263,-0.1309899389743805,-0.14963841438293457
1761467195893895200,0.549895263671875,-0.11616604775190353,-0.11496330052614212,-0.17305052280426025
1761467195903878100,0.559878173828125,-0.0965283066034317,-0.11292735487222672,-0.1661347597837448
1761467195913860400,0.5698603515625,-0.07617589831352234,-0.10907642543315887,-0.15788482129573822
1761467195923843000,0.579843017578125,-0.045587703585624695,-0.10864432901144028,-0.15282496809959412
1761467195933826300,0.589826416015625,-0.011529603973031044,-0.09782657027244568,-0.14811968803405762
1761467195943809300,0.599809326171875,0.01244155690073967,-0.07082278281450272,-0.1396518051624298
1761467195953792300,0.609792236328125,0.02988393045961857,-0.03784991428256035,-0.14278794825077057
1761467195963775200,0.619775146484375,0.04848015680909157,-0.016017012298107147,-0.1644333302974701
1761467195973758200,0.62975830078125,0.05967821553349495,-0.003890575608238578,-0.19612282514572144
1761467195983740400,0.639740478515625,0.06851284950971603,0.014635981991887093,-0.22375820577144623
1761467195993723100,0.64972314453125,0.07878279685974121,0.012084939517080784,-0.2445060908794403
1761467196003706000,0.6597060546875,0.08722411096096039,-0.018931355327367783,-0.2685692012310028
1761467196013689300,0.669689453125,0.09129635244607925,-0.04537041857838631,-0.2914510667324066
1761467196023672300,0.67967236328125,0.08639752119779587,-0.06724655628204346,-0.302545428276062
1761467196033655000,0.689655029296875,0.09973915666341782,-0.0682566910982132,-0.30155420303344727
1761467196043638300,0.69963818359375,0.11706384271383286,-0.06126070022583008,-0.31057828664779663
1761467196053620200,0.7096201171875,0.13190962374210358,-0.03797295317053795,-0.3323062062263489
1761467196063603200,0.719603271484375,0.15706904232501984,-0.02456793375313282,-0.3521654009819031
1761467196073586200,0.729586181640625,0.16706149280071259,-0.03791782632470131,-0.3757128119468689
1761467196083569400,0.7395693359375,0.15893122553825378,-0.07373841106891632,-0.38797831535339355
1761467196093552400,0.749552490234375,0.16805973649024963,-0.1150301918387413,-0.40349867939949036
1761467196103535000,0.75953515625,0.18599382042884827,-0.14797140657901764,-0.42223215103149414
1761467196113517300,0.769517333984375,0.18826496601104736,-0.16603855788707733,-0.43449121713638306
1761467196123500300,0.779500244140625,0.20330971479415894,-0.17448122799396515,-0.4538341760635376
1761467196133483300,0.789483154296875,0.22932560741901398,-0.1764538288116455,-0.4641494154930115
1761467196143466200,0.79946630859375,0.24025598168373108,-0.16164611279964447,-0.46152788400650024
1761467196153449200,0.80944921875,0.263913631439209,-0.1482701152563095,-0.4691368043422699
1761467196163432400,0.819432373046875,0.29292380809783936,-0.14434438943862915,-0.4796293377876282
1761467196173415200,0.829415283203125,0.3134663701057434,-0.16643372178077698,-0.48654744029045105
1761467196183397400,0.8393974609375,0.32395464181900024,-0.1987411081790924,-0.48956114053726196
1761467196193380400,0.84938037109375,0.3404012620449066,-0.2263663411140442,-0.49310046434402466
1761467196203363000,0.859363037109375,0.34002676606178284,-0.25567665696144104,-0.5035852789878845
1761467196213346300,0.86934619140625,0.34295517206192017,-0.2641068994998932,-0.5189748406410217
1761467196223329300,0.879329345703125,0.3499675691127777,-0.2689286172389984,-0.5222146511077881
1761467196233312300,0.889312255859375,0.3583559989929199,-0.27482831478118896,-0.5171522498130798
1761467196243294200,0.899294189453125,0.37045392394065857,-0.29308006167411804,-0.5048012733459473
1761467196253277200,0.909277099609375,0.3732760548591614,-0.2933945655822754,-0.48086878657341003
1761467196263260400,0.919260498046875,0.3748473823070526,-0.28396710753440857,-0.4644269347190857
1761467196273243100,0.9292431640625,0.3693540692329407,-0.238138347864151,-0.4538387358188629
1761467196283226400,0.939226318359375,0.36604633927345276,-0.17984069883823395,-0.4579595923423767
1761467196293209300,0.949209228515625,0.3688996434211731,-0.15473507344722748,-0.47082585096359253
1761467196303192000,0.959192138671875,0.3772362172603607,-0.16315753757953644,-0.4707778990268707
1761467196313174300,0.96917431640625,0.38542917370796204,-0.1790504902601242,-0.45739659667015076
1761467196323157200,0.9791572265625,0.38728195428848267,-0.17818082869052887,-0.43493300676345825
1761467196333140500,0.989140380859375,0.3831567168235779,-0.17340898513793945,-0.41568395495414734
1761467196343123200,0.999123291015625,0.37600257992744446,-0.17982089519500732,-0.39391210675239563
1761467196353106200,1.009106201171875,0.36675208806991577,-0.1928592026233673,-0.3734084367752075
1761467196363089400,1.01908935546875,0.35138165950775146,-0.24202610552310944,-0.3602166175842285
1761467196373072100,1.029072021484375,0.32416096329689026,-0.2774280309677124,-0.33770012855529785
1761467196383054300,1.039054443359375,0.29423463344573975,-0.29165369272232056,-0.30531907081604004
1761467196393037300,1.049037353515625,0.2629011869430542,-0.28525784611701965,-0.2613297700881958
1761467196403020000,1.05902001953125,0.2287716418504715,-0.27022114396095276,-0.2218935340642929
1761467196413003300,1.069003173828125,0.21836720407009125,-0.24856804311275482,-0.19359345734119415
1761467196422986200,1.078986328125,0.21388323605060577,-0.23208649456501007,-0.18870636820793152
1761467196432969200,1.08896923828125,0.2066226601600647,-0.2133048176765442,-0.20728032290935516
1761467196442951200,1.098951171875,0.20071561634540558,-0.2168828696012497,-0.22691458463668823
1761467196452934100,1.10893408203125,0.20418038964271545,-0.196464404463768,-0.24543899297714233
1761467196462917400,1.11891748046875,0.20824795961380005,-0.1500021517276764,-0.30041030049324036
1761467196472900000,1.128900146484375,0.19827041029930115,-0.053749922662973404,-0.3852410316467285
1761467196482883300,1.13888330078125,0.18866987526416779,0.0035528300795704126,-0.461807519197464
1761467196492866300,1.1488662109375,0.18346498906612396,-0.0554838590323925,-0.47988027334213257
1761467196502849300,1.158849365234375,0.2014709860086441,-0.18285006284713745,-0.43383321166038513
1761467196512831200,1.168831298828125,0.1982613503932953,-0.25073590874671936,-0.3728673458099365
1761467196522814200,1.178814208984375,0.18974483013153076,-0.20935358107089996,-0.36292415857315063
1761467196532797400,1.18879736328125,0.18584436178207397,-0.10880514234304428,-0.42087826132774353
1761467196542780200,1.1987802734375,0.1667439490556717,0.017862390726804733,-0.45789530873298645
1761467196552763100,1.20876318359375,0.13467974960803986,0.11836449801921844,-0.4449928402900696
1761467196562746400,1.218746337890625,0.10117831081151962,0.14766305685043335,-0.38465118408203125
1761467196572729300,1.228729248046875,0.07084143906831741,0.08007362484931946,-0.3141959309577942
1761467196582711300,1.238711181640625,0.05041806399822235,-0.03653648868203163,-0.2570876181125641
1761467196592694300,1.2486943359375,0.03271177411079407,-0.13589955866336823,-0.21010945737361908
1761467196602677200,1.25867724609375,0.028612561523914337,-0.20315107703208923,-0.145490825176239
1761467196612660200,1.26866015625,0.021577555686235428,-0.23202534019947052,-0.07411704957485199
1761467196622643200,1.278643310546875,0.015734272077679634,-0.21139080822467804,-0.0008202192839235067
1761467196632626200,1.288626220703125,0.018527129665017128,-0.18850493431091309,0.04291234910488129
1761467196642609400,1.298609375,0.013289653696119785,-0.1371431201696396,0.06802932173013687
1761467196652591000,1.308591064453125,-0.0007920768111944199,-0.11164335906505585,0.08650633692741394
1761467196662574300,1.31857421875,-0.029975902289152145,-0.10449540615081787,0.09925489872694016
1761467196672557300,1.328557373046875,-0.06463374942541122,-0.10863342136144638,0.11799609661102295
1761467196682540300,1.338540283203125,-0.09735380113124847,-0.1006271094083786,0.13010340929031372
1761467196692523300,1.348523193359375,-0.1235920637845993,-0.10771751403808594,0.1243874654173851
1761467196702506200,1.35850634765625,-0.13887709379196167,-0.125730499625206,0.10362880676984787
1761467196712489500,1.368489501953125,-0.15601719915866852,-0.13250185549259186,0.07640118151903152
1761467196722471200,1.37847119140625,-0.1686421036720276,-0.13493712246418,0.0527518168091774
1761467196732454400,1.388454345703125,-0.18204446136951447,-0.09940309822559357,0.052398681640625
1761467196742437400,1.398437255859375,-0.1890074908733368,-0.04560850188136101,0.05807465314865112
1761467196752420000,1.408420166015625,-0.1958635300397873,0.04151947796344757,0.0728493332862854
1761467196762403300,1.4184033203125,-0.18923349678516388,0.12606598436832428,0.08570370823144913
1761467196772386300,1.42838623046875,-0.17592169344425201,0.1920066475868225,0.1088859960436821
1761467196782369000,1.438369140625,-0.14447109401226044,0.1975628137588501,0.1415259689092636
1761467196792351200,1.448351318359375,-0.10333216935396194,0.15816614031791687,0.19329728186130524
1761467196802334200,1.458334228515625,-0.06630229949951172,0.10771198570728302,0.24840545654296875
1761467196812317400,1.4683173828125,-0.03574226424098015,0.04932244494557381,0.29819831252098083
1761467196822300200,1.478300048828125,-0.009507100097835064,0.0017785467207431793,0.33411726355552673
1761467196832283100,1.488283203125,0.002239570254459977,-0.030029449611902237,0.3716529309749603
1761467196842265900,1.498265869140625,0.0010685785673558712,-0.03717125207185745,0.4048851728439331
1761467196852248800,1.508248779296875,-0.0012848568148911,-0.0399654395878315,0.4351440370082855
1761467196862230800,1.518230712890625,-0.01807466894388199,-0.04402090981602669,0.4608573317527771
1761467196872213800,1.5282138671875,-0.029403487220406532,-0.0601615272462368,0.4705112874507904
1761467196882197000,1.538197021484375,-0.04206325113773346,-0.0482013076543808,0.4658246338367462
1761467196892179700,1.5481796875,-0.05524217337369919,-0.016307558864355087,0.45370540022850037
1761467196902162700,1.55816259765625,-0.0707906186580658,0.01680012233555317,0.4406622052192688
1761467196912146000,1.56814599609375,-0.08486861735582352,0.042407214641571045,0.42585238814353943
1761467196922129000,1.57812890625,-0.08833703398704529,0.0639098659157753,0.4188227951526642
1761467196932110800,1.58811083984375,-0.10600950568914413,0.09333726018667221,0.40710464119911194
1761467196942093800,1.59809375,-0.10559725016355515,0.13033895194530487,0.3914990723133087
1761467196952076800,1.608076904296875,-0.1249120905995369,0.1854778379201889,0.35936006903648376
1761467196962059800,1.618059814453125,-0.13748128712177277,0.2440217286348343,0.3263282775878906
1761467196972042800,1.628042724609375,-0.14660954475402832,0.2899269163608551,0.3075713515281677
1761467196982026000,1.63802587890625,-0.15683522820472717,0.3234175741672516,0.30471211671829224
1761467196992009000,1.648009033203125,-0.16742555797100067,0.347147136926651,0.314931184053421
1761467197001991700,1.65799169921875,-0.1699981391429901,0.37596169114112854,0.33781108260154724
1761467197011974000,1.667973876953125,-0.1704237163066864,0.4310814142227173,0.34862616658210754
1761467197021956900,1.677956787109375,-0.17196309566497803,0.48593658208847046,0.34173235297203064
1761467197031939800,1.68793994140625,-0.17216762900352478,0.5017299056053162,0.31437262892723083
1761467197041922800,1.6979228515625,-0.1698494553565979,0.49131786823272705,0.29227250814437866
1761467197051905800,1.70790576171875,-0.1585744321346283,0.47111353278160095,0.26539134979248047
1761467197061889000,1.717888916015625,-0.13669507205486298,0.4256989657878876,0.2505872845649719
1761467197071871700,1.727871826171875,-0.11890062689781189,0.38911113142967224,0.2585029900074005
1761467197081854000,1.73785400390625,-0.10956820845603943,0.3843286335468292,0.26954904198646545
1761467197091837000,1.7478369140625,-0.11008459329605103,0.3996492624282837,0.2772333323955536
1761467197101819600,1.757819580078125,-0.11310496926307678,0.38575899600982666,0.27740713953971863
1761467197111803000,1.767802978515625,-0.12167982012033463,0.34474417567253113,0.2905903160572052
1761467197121785900,1.777785888671875,-0.12694667279720306,0.294036328792572,0.31780970096588135
1761467197131768800,1.787768798828125,-0.1293104887008667,0.26171380281448364,0.3474690616130829
1761467197141751800,1.797751708984375,-0.1355113685131073,0.23867015540599823,0.368292897939682
1761467197151733800,1.807733642578125,-0.14455118775367737,0.21830309927463531,0.3830907344818115
1761467197161717000,1.817717041015625,-0.15937106311321259,0.1978798806667328,0.40331733226776123
1761467197171699700,1.82769970703125,-0.1769615113735199,0.18153232336044312,0.41882386803627014
1761467197181683000,1.837682861328125,-0.19287779927253723,0.16441881656646729,0.4390186071395874
1761467197191666000,1.847666015625,-0.20308411121368408,0.1411616951227188,0.4440983235836029
1761467197201649000,1.85764892578125,-0.22635014355182648,0.12170800566673279,0.45080918073654175
1761467197211631900,1.8676318359375,-0.2449243664741516,0.11547061055898666,0.45595815777778625
1761467197221614800,1.87761474609375,-0.26086923480033875,0.13399556279182434,0.4580499827861786
1761467197231597000,1.88759716796875,-0.27291685342788696,0.15406940877437592,0.46368974447250366
1761467197241579800,1.897579833984375,-0.286583811044693,0.16308654844760895,0.45269283652305603
1761467197251562800,1.907562744140625,-0.29728811979293823,0.16935402154922485,0.4381448030471802
1761467197261546000,1.9175458984375,-0.3076358139514923,0.19148102402687073,0.4209347367286682
1761467197271528700,1.92752880859375,-0.31378424167633057,0.22415214776992798,0.403841495513916
1761467197281511700,1.93751171875,-0.3162533938884735,0.23791152238845825,0.39166176319122314
1761467197291495000,1.947494873046875,-0.3150310218334198,0.22847221791744232,0.3977670669555664
1761467197301476900,1.957476806640625,-0.31270259618759155,0.21544422209262848,0.4129808843135834
1761467197311459800,1.9674599609375,-0.2991423010826111,0.20200324058532715,0.42013412714004517
1761467197321442800,1.97744287109375,-0.2883727252483368,0.19685673713684082,0.41348811984062195
1761467197331425800,1.98742578125,-0.2794841527938843,0.20514050126075745,0.39595308899879456
1761467197341408800,1.99740869140625,-0.26716479659080505,0.1892181634902954,0.3821300268173218
1761467197351391700,2.007391845703125,-0.2558373212814331,0.1416008472442627,0.3893676996231079
1761467197361375000,2.017375,-0.23292884230613708,0.07801134884357452,0.39013147354125977
1761467197371358000,2.02735791015625,-0.21557381749153137,0.022801892831921577,0.3844562768936157
1761467197381340000,2.03733984375,-0.20249876379966736,-0.009088443592190742,0.3721301853656769
1761467197391323000,2.047322998046875,-0.1900242418050766,-0.029446445405483246,0.3600333034992218
1761467197401305900,2.057305908203125,-0.19945929944515228,-0.01009298861026764,0.3676590025424957
1761467197411288800,2.067288818359375,-0.22287407517433167,0.044512465596199036,0.39061519503593445
1761467197421271800,2.077271728515625,-0.24771817028522491,0.10798230022192001,0.4253999888896942
1761467197431254800,2.0872548828125,-0.2864605188369751,0.15627926588058472,0.46399104595184326
1761467197441238000,2.097238037109375,-0.3154418468475342,0.15504176914691925,0.504576563835144
1761467197451219700,2.1072197265625,-0.3586961030960083,0.1449720859527588,0.5402331352233887
1761467197461203000,2.117202880859375,-0.39852985739707947,0.14793820679187775,0.5460495948791504
1761467197471186000,2.12718603515625,-0.4276752471923828,0.19416695833206177,0.5678536891937256
1761467197481168600,2.137168701171875,-0.4414152204990387,0.2910594642162323,0.6103199124336243
1761467197491152000,2.14715185546875,-0.42856574058532715,0.40340012311935425,0.6503980755805969
1761467197501134800,2.157134765625,-0.40141117572784424,0.5251559019088745,0.6729415059089661
1761467197511117800,2.167117919921875,-0.37400057911872864,0.6191774606704712,0.7020456194877625
1761467197521100800,2.177100830078125,-0.34840917587280273,0.6382068991661072,0.7368564009666443
1761467197531082800,2.187082763671875,-0.2697311341762543,0.6297063231468201,0.7591009736061096
1761467197541066000,2.19706591796875,-0.21305270493030548,0.5738852620124817,0.7445977926254272
1761467197551048700,2.207048583984375,-0.14025571942329407,0.5178760290145874,0.6894221901893616
1761467197561032000,2.217031982421875,-0.07270672172307968,0.5029715299606323,0.630187451839447
1761467197571015000,2.227014892578125,-0.024964235723018646,0.37176424264907837,0.6001853346824646
1761467197580998000,2.236997802734375,-0.050698421895504,0.10683264583349228,0.6067274212837219
1761467197590980900,2.24698095703125,-0.13151071965694427,-0.12023299187421799,0.6523367166519165
1761467197600963800,2.2569638671875,-0.2530078589916229,-0.24780507385730743,0.683691143989563
1761467197610946000,2.266946044921875,-0.3795061409473419,-0.25471198558807373,0.6788540482521057
1761467197620928800,2.2769287109375,-0.49008142948150635,-0.1734030544757843,0.676455020904541
1761467197630911700,2.286911865234375,-0.5634843111038208,-0.0938914567232132,0.6725902557373047
1761467197640895000,2.29689501953125,-0.6123775243759155,-0.04002629220485687,0.6725116968154907
1761467197650878000,2.3068779296875,-0.6400296092033386,-0.01601256988942623,0.6800774335861206
1761467197660860700,2.316860595703125,-0.6495869159698486,0.014900466427206993,0.6812020540237427
1761467197670844000,2.326843994140625,-0.6373928189277649,0.05241268500685692,0.6410253643989563
1761467197680827000,2.336826904296875,-0.6149882674217224,0.11895472556352615,0.5596883893013
1761467197690808800,2.346808837890625,-0.5498441457748413,0.2148498147726059,0.4679204225540161
1761467197700791800,2.356791748046875,-0.4835145175457001,0.30814749002456665,0.38942500948905945
1761467197710774800,2.36677490234375,-0.40485405921936035,0.3518608808517456,0.3145696818828583
1761467197720757800,2.3767578125,-0.3422001004219055,0.32479128241539,0.24971091747283936
1761467197730740700,2.38674072265625,-0.27874282002449036,0.23218360543251038,0.1906755566596985
1761467197740724000,2.396723876953125,-0.21491925418376923,0.08901068568229675,0.15571239590644836
1761467197750707000,2.40670703125,-0.17672446370124817,-0.05806851014494896,0.16228534281253815
1761467197760689000,2.41668896484375,-0.17583845555782318,-0.18330822885036469,0.20660345256328583
1761467197770671900,2.426671875,-0.22408854961395264,-0.2473364770412445,0.2752847969532013
1761467197780654800,2.43665478515625,-0.3174201548099518,-0.25629809498786926,0.3296232223510742
1761467197790637800,2.446637939453125,-0.4274806082248688,-0.23633743822574615,0.3622267246246338
1761467197800620800,2.456620849609375,-0.5239247679710388,-0.21339139342308044,0.3787209987640381
1761467197810603800,2.466603759765625,-0.5989158749580383,-0.17788107693195343,0.37985125184059143
1761467197820587000,2.4765869140625,-0.65087890625,-0.13328053057193756,0.3751014769077301
1761467197830569700,2.48656982421875,-0.6828250885009766,-0.08785419166088104,0.3719983696937561
1761467197840552400,2.496552490234375,-0.6951436400413513,-0.04632497951388359,0.3812783360481262
1761467197850535400,2.506535400390625,-0.6935478448867798,0.014377782121300697,0.4005473554134369
1761467197860518400,2.516518310546875,-0.6706737875938416,0.08128766715526581,0.4079129695892334
1761467197870501400,2.52650146484375,-0.6302749514579773,0.13682842254638672,0.4058817923069
1761467197880484400,2.536484375,-0.5800351500511169,0.17225556075572968,0.3927597403526306
1761467197890467300,2.54646728515625,-0.5395460724830627,0.19623573124408722,0.37169599533081055
1761467197900450600,2.556450439453125,-0.49546733498573303,0.17439642548561096,0.3274790048599243
1761467197910433300,2.566433349609375,-0.4654085040092468,0.15214917063713074,0.2938970923423767
1761467197920416300,2.576416259765625,-0.45623546838760376,0.13581468164920807,0.2773352265357971
1761467197930398500,2.5863984375,-0.4405851364135742,0.12417479604482651,0.2744917571544647
1761467197940381200,2.596381103515625,-0.43430057168006897,0.12493206560611725,0.286242812871933
1761467197950364400,2.606364501953125,-0.4129177927970886,0.1382550597190857,0.3037134110927582
1761467197960347400,2.616347412109375,-0.3897625803947449,0.14590050280094147,0.31583696603775024
1761467197970330400,2.626330322265625,-0.36954066157341003,0.1499572992324829,0.326235830783844
1761467197980313300,2.636313232421875,-0.34265750646591187,0.15095487236976624,0.3322271704673767
1761467197990296300,2.64629638671875,-0.31081700325012207,0.1532534509897232,0.32737597823143005
1761467198000279600,2.656279541015625,-0.2904473841190338,0.16704605519771576,0.3223361074924469
1761467198010261200,2.66626123046875,-0.2752644419670105,0.149448424577713,0.30772629380226135
1761467198020244500,2.676244384765625,-0.2573033273220062,0.1147962361574173,0.2893907427787781
1761467198030227500,2.6862275390625,-0.26992323994636536,0.07380539178848267,0.2830207347869873
1761467198040210400,2.69621044921875,-0.27208399772644043,0.04501865431666374,0.27636438608169556
1761467198050193400,2.706193359375,-0.26802003383636475,-0.0015834694495424628,0.25029870867729187
1761467198060176400,2.71617626953125,-0.25534144043922424,-0.029907800257205963,0.24272187054157257
1761467198070159400,2.726159423828125,-0.24238808453083038,-0.025048064067959785,0.2351696789264679
1761467198080142600,2.736142578125,-0.2271176278591156,0.003555244766175747,0.22670644521713257
1761467198090124300,2.746124267578125,-0.20664483308792114,0.056224048137664795,0.22008928656578064
1761467198100107500,2.756107421875,-0.18115927278995514,0.10213644057512283,0.20824894309043884
1761467198110090500,2.766090576171875,-0.15218009054660797,0.13845182955265045,0.19040602445602417
1761467198120073200,2.7760732421875,-0.12193439900875092,0.13140958547592163,0.16794906556606293
1761467198130056400,2.786056396484375,-0.10249651223421097,0.08399999886751175,0.14712686836719513
1761467198140039400,2.796039306640625,-0.09245897084474564,0.018384095281362534,0.12167209386825562
1761467198150022100,2.806022216796875,-0.08892495930194855,-0.03490442782640457,0.09194748103618622
1761467198160005400,2.81600537109375,-0.08296635001897812,-0.041007015854120255,0.05192681774497032
1761467198169988400,2.82598828125,-0.06762201339006424,-0.028273645788431168,0.009374828077852726
1761467198179970300,2.83597021484375,-0.06277639418840408,-0.011778024956583977,-0.012198374606668949
1761467198189953300,2.845953369140625,-0.05049442499876022,-0.02714739553630352,-0.0013827442890033126
1761467198199936500,2.8559365234375,-0.04513460397720337,-0.08027685433626175,0.028802568092942238
1761467198209919500,2.86591943359375,-0.05048356205224991,-0.13611428439617157,0.0713721290230751
1761467198219902200,2.875902099609375,-0.0549008846282959,-0.17829649150371552,0.10727038234472275
1761467198229885400,2.885885498046875,-0.057695869356393814,-0.2012939602136612,0.13613878190517426
1761467198239868400,2.895868408203125,-0.061114296317100525,-0.1798391044139862,0.14016631245613098
1761467198249851400,2.905851318359375,-0.058656200766563416,-0.1448904424905777,0.12851844727993011
1761467198259834400,2.91583447265625,-0.048764318227767944,-0.1007508784532547,0.11379620432853699
1761467198269816300,2.92581640625,-0.03965071588754654,-0.01174030639231205,0.0981874167919159
1761467198279799600,2.935799560546875,-0.040681276470422745,0.11720487475395203,0.04917719587683678
1761467198289782300,2.9457822265625,-0.04930565878748894,0.21306295692920685,-0.024219254031777382
1761467198299765200,2.95576513671875,-0.05876985937356949,0.18274571001529694,-0.0739479660987854
1761467198309748500,2.96574853515625,-0.0765155628323555,0.018335716798901558,-0.05483366549015045
1761467198319731500,2.9757314453125,-0.09050302952528,-0.21271874010562897,0.004999957513064146
1761467198329714200,2.985714111328125,-0.10772755742073059,-0.3873986601829529,0.0364079475402832
1761467198339697400,2.995697509765625,-0.12389381229877472,-0.44505009055137634,0.024550853297114372
1761467198349680400,3.005680419921875,-0.1279122531414032,-0.41213661432266235,0.009724501520395279
1761467198359662300,3.015662353515625,-0.1385469287633896,-0.3623243570327759,0.014404546469449997
1761467198369645300,3.025645263671875,-0.12193278223276138,-0.3210922181606293,0.030258608981966972
1761467198379628500,3.035628662109375,-0.12357135117053986,-0.2917737662792206,0.049569662660360336
1761467198389611500,3.045611572265625,-0.11558213829994202,-0.27561208605766296,0.07897922396659851
1761467198399594200,3.05559423828125,-0.09818955510854721,-0.2682091295719147,0.09456578642129898
1761467198409577500,3.065577392578125,-0.09731976687908173,-0.2664378583431244,0.09082883596420288
1761467198419560400,3.075560546875,-0.10125325620174408,-0.258882999420166,0.08550437539815903
1761467198429543400,3.08554345703125,-0.11433230340480804,-0.23439817130565643,0.07435984909534454
1761467198439526400,3.0955263671875,-0.10902801156044006,-0.2067478597164154,0.06313175708055496
1761467198449508400,3.10550830078125,-0.10531876236200333,-0.18296663463115692,0.05599634349346161
1761467198459491600,3.11549169921875,-0.09921003133058548,-0.17441675066947937,0.041946087032556534
1761467198469474300,3.125474365234375,-0.1088019385933876,-0.15086321532726288,0.024463500827550888
1761467198479457300,3.135457275390625,-0.11822494119405746,-0.1079941838979721,0.002576480619609356
1761467198489440500,3.1454404296875,-0.13534533977508545,-0.06157635152339935,-0.0218668095767498
1761467198499423200,3.15542333984375,-0.16253022849559784,-0.022354211658239365,-0.06283299624919891
1761467198509406200,3.16540625,-0.14659841358661652,0.0062340241856873035,-0.076181560754776
1761467198519389400,3.175389404296875,-0.14019988477230072,0.050089020282030106,-0.04349936172366142
1761467198529372400,3.185372314453125,-0.12185922265052795,0.06795084476470947,-0.012104419991374016
1761467198539354400,3.195354248046875,-0.09455510973930359,0.04531018063426018,0.02473990060389042
1761467198549337300,3.20533740234375,-0.05883386358618736,0.030606601387262344,0.07452982664108276
1761467198559320600,3.215320556640625,-0.029753217473626137,0.020577482879161835,0.13355039060115814
1761467198569303300,3.22530322265625,0.003767723450437188,-0.007245625369250774,0.19288001954555511
1761467198579286300,3.235286376953125,0.03385962173342705,-0.03299561142921448,0.22387506067752838
1761467198589269500,3.24526953125,0.05552656576037407,-0.051094986498355865,0.2306128591299057
1761467198599252500,3.25525244140625,0.07303890585899353,-0.05607070028781891,0.22996634244918823
1761467198609235200,3.265235107421875,0.0895792692899704,-0.040883224457502365,0.23399624228477478
1761467198619218400,3.275218505859375,0.10447101294994354,-0.03591359034180641,0.24638602137565613
1761467198629201400,3.285201416015625,0.1273006945848465,-0.059886299073696136,0.2638576626777649
1761467198639183400,3.295183349609375,0.12734805047512054,-0.09629040956497192,0.29184189438819885
1761467198649166300,3.305166259765625,0.11844909936189651,-0.11063339561223984,0.31742316484451294
1761467198659149300,3.3151494140625,0.11022036522626877,-0.07176889479160309,0.33105018734931946
1761467198669132500,3.325132568359375,0.10718835145235062,-0.006997350603342056,0.32260051369667053
1761467198679115300,3.335115234375,0.08655853569507599,0.04886980354785919,0.3189515471458435
1761467198689098200,3.34509814453125,0.06718216836452484,0.06803657859563828,0.3306441605091095
1761467198699081500,3.35508154296875,0.04062199965119362,0.08490009605884552,0.34309035539627075
1761467198709064400,3.365064453125,0.011210314929485321,0.12029483914375305,0.35389718413352966
1761467198719047400,3.37504736328125,-0.017558488994836807,0.17148487269878387,0.3499046862125397
1761467198729029400,3.385029296875,-0.03146231919527054,0.20678187906742096,0.3468060791492462
1761467198739012400,3.395012451171875,-0.047062065452337265,0.22134988009929657,0.34932416677474976
1761467198748995300,3.404995361328125,-0.056618284434080124,0.2207019329071045,0.3473148047924042
1761467198758978300,3.414978271484375,-0.06092076376080513,0.21194520592689514,0.34506306052207947
1761467198768961500,3.42496142578125,-0.05851273611187935,0.2234726995229721,0.34074845910072327
1761467198778944500,3.434944580078125,-0.0603911466896534,0.2607845067977905,0.3334731459617615
1761467198788927200,3.44492724609375,-0.057969000190496445,0.27872249484062195,0.2992810904979706
1761467198798910500,3.454910400390625,-0.05346588417887688,0.29572978615760803,0.2622823119163513
1761467198808893400,3.4648935546875,-0.05949181690812111,0.29205381870269775,0.23743581771850586
1761467198818876200,3.474876220703125,-0.07372363656759262,0.27008453011512756,0.21695546805858612
1761467198828858400,3.4848583984375,-0.08930632472038269,0.2527947425842285,0.2111164927482605
1761467198838841000,3.494841064453125,-0.11138705164194107,0.24485784769058228,0.21115899085998535
1761467198848824000,3.504823974609375,-0.1289473921060562,0.23353594541549683,0.21122105419635773
1761467198858806800,3.514806884765625,-0.14809930324554443,0.22048234939575195,0.2207268327474594
1761467198868790000,3.5247900390625,-0.15546879172325134,0.200006902217865,0.23557262122631073
1761467198878773000,3.53477294921875,-0.17382529377937317,0.17478668689727783,0.25705042481422424
1761467198888756000,3.544755859375,-0.1933169662952423,0.16600863635540009,0.28244659304618835
1761467198898739000,3.554739013671875,-0.21022331714630127,0.15734116733074188,0.3132617771625519
1761467198908722000,3.564721923828125,-0.23385247588157654,0.1430455893278122,0.3464479446411133
1761467198918705000,3.574704833984375,-0.2493607997894287,0.14235123991966248,0.38298866152763367
1761467198928686800,3.584686767578125,-0.26181134581565857,0.15097908675670624,0.4055142104625702
1761467198938669800,3.594669921875,-0.2692130506038666,0.15244366228580475,0.40413713455200195
1761467198948653000,3.604653076171875,-0.2714889943599701,0.16370244324207306,0.39768457412719727
1761467198958636000,3.614635986328125,-0.2741803824901581,0.13883240520954132,0.38923561573028564
1761467198968618800,3.62461865234375,-0.2800518572330475,0.10443181544542313,0.3929709792137146
1761467198978602000,3.63460205078125,-0.28679147362709045,0.0879414826631546,0.41494619846343994
1761467198988585000,3.6445849609375,-0.2908456027507782,0.1214272677898407,0.4402121305465698
1761467198998568000,3.65456787109375,-0.29770132899284363,0.18038660287857056,0.460165798664093
1761467199008551000,3.664551025390625,-0.29812610149383545,0.24292747676372528,0.4590704143047333
1761467199018534000,3.674533935546875,-0.30231595039367676,0.28462541103363037,0.43140050768852234
1761467199028517000,3.68451708984375,-0.29650601744651794,0.28046903014183044,0.39670297503471375
1761467199038498800,3.694498779296875,-0.3072942793369293,0.24733766913414001,0.3703349530696869
1761467199048482000,3.70448193359375,-0.3204854726791382,0.21851001679897308,0.3506675064563751
1761467199058465000,3.714465087890625,-0.3399345874786377,0.1831279993057251,0.33913835883140564
1761467199068448000,3.724447998046875,-0.35312309861183167,0.1581139862537384,0.3273080885410309
1761467199078431000,3.734430908203125,-0.35523316264152527,0.16907766461372375,0.33368155360221863
1761467199088414000,3.7444140625,-0.3490146994590759,0.17278239130973816,0.34909379482269287
1761467199098397000,3.75439697265625,-0.32548052072525024,0.18076536059379578,0.3622206449508667
1761467199108380200,3.764380126953125,-0.3051859140396118,0.17256894707679749,0.36370694637298584
1761467199118363000,3.77436279296875,-0.2903943657875061,0.16521306335926056,0.359174907207489
1761467199128345900,3.784345947265625,-0.27287930250167847,0.15718203783035278,0.3465419411659241
1761467199138328000,3.794328125,-0.2702140510082245,0.1507492959499359,0.3234840929508209
1761467199148310800,3.804310791015625,-0.26619720458984375,0.17134618759155273,0.3003404438495636
1761467199158294000,3.8142939453125,-0.26239556074142456,0.23325802385807037,0.2925378978252411
1761467199168277000,3.824277099609375,-0.2504462003707886,0.31650659441947937,0.2773224711418152
1761467199178260000,3.834260009765625,-0.22833193838596344,0.4197268486022949,0.2837280333042145
1761467199188243000,3.844242919921875,-0.21917039155960083,0.5020707249641418,0.31625720858573914
1761467199198226000,3.854225830078125,-0.20037171244621277,0.56418776512146,0.3672845959663391
1761467199208209200,3.864209228515625,-0.20085401833057404,0.6583017706871033,0.4243321418762207
1761467199218192000,3.87419189453125,-0.1991530954837799,0.7526337504386902,0.44311532378196716
1761467199228174800,3.8841748046875,-0.19285844266414642,0.7806528806686401,0.4328562915325165
1761467199238158000,3.894157958984375,-0.18928013741970062,0.6872518062591553,0.4148271977901459
1761467199248139800,3.904139892578125,-0.1631595939397812,0.5160012245178223,0.3962998390197754
1761467199258123000,3.914123046875,-0.13717970252037048,0.3691028654575348,0.36061012744903564
1761467199268106000,3.92410595703125,-0.09506154805421829,0.304343581199646,0.307689905166626
1761467199278089000,3.9340888671875,-0.04292335361242294,0.2827061116695404,0.267104834318161
1761467199288072000,3.944072021484375,-0.001104534137994051,0.27236664295196533,0.26913976669311523
1761467199298055000,3.954054931640625,0.021012218669056892,0.2301347851753235,0.3246248662471771
1761467199308038000,3.964037841796875,0.012076249346137047,0.13773562014102936,0.4025566577911377
1761467199318021000,3.974021240234375,-0.05199401080608368,0.007459947839379311,0.48524153232574463
1761467199328003800,3.98400390625,-0.13036391139030457,-0.13479572534561157,0.552156925201416
1761467199337987000,3.993987060546875,-0.2102673351764679,-0.2386706918478012,0.5838567614555359
1761467199347969000,4.003968994140625,-0.2824821472167969,-0.2782548666000366,0.5916401147842407
1761467199357952000,4.013951904296875,-0.34893086552619934,-0.2863600552082062,0.5727139115333557
1761467199367935000,4.02393505859375,-0.40034613013267517,-0.26714614033699036,0.5531522035598755
1761467199377918000,4.03391796875,-0.4504585862159729,-0.23358942568302155,0.5338560938835144
1761467199387901200,4.043901123046875,-0.4921224117279053,-0.16517440974712372,0.5082079768180847
1761467199397884000,4.0538837890625,-0.5153253674507141,-0.055761732161045074,0.4649757742881775
1761467199407867000,4.063866943359375,-0.5073387622833252,0.07191607356071472,0.4135509431362152
1761467199417850000,4.07385009765625,-0.4655442535877228,0.18781030178070068,0.36128416657447815
1761467199427833000,4.0838330078125,-0.39692842960357666,0.2954123914241791,0.31447911262512207
1761467199437815800,4.09381591796875,-0.3212229311466217,0.3445313572883606,0.268375426530838
1761467199447799000,4.103799072265625,-0.257576584815979,0.3524891436100006,0.23075029253959656
1761467199457781000,4.113781005859375,-0.2078235000371933,0.3245963156223297,0.20728962123394012
1761467199467764000,4.123763916015625,-0.17467327415943146,0.26652130484580994,0.2090800702571869
1761467199477747000,4.133746826171875,-0.1747196614742279,0.17592884600162506,0.22322024405002594
1761467199487730000,4.14372998046875,-0.17878150939941406,0.06778588145971298,0.23583564162254333
1761467199497713000,4.153712890625,-0.2155839204788208,-0.00345416646450758,0.24287790060043335
1761467199507695900,4.16369580078125,-0.2713017761707306,-0.05451175570487976,0.24789370596408844
1761467199517679000,4.17367919921875,-0.3167439103126526,-0.1189856082201004,0.2664996087551117
1761467199527662000,4.183662109375,-0.35768628120422363,-0.15074539184570312,0.29017403721809387
1761467199537644800,4.193644775390625,-0.40252554416656494,-0.1473495215177536,0.30707883834838867
1761467199547628000,4.2036279296875,-0.4359000027179718,-0.1342235952615738,0.3230476975440979
1761467199557611000,4.213611083984375,-0.4481043815612793,-0.1111261174082756,0.33324211835861206
1761467199567593000,4.223593017578125,-0.4581333100795746,-0.08543913066387177,0.3487321138381958
1761467199577576000,4.233575927734375,-0.4571908712387085,-0.03689451888203621,0.35665184259414673
1761467199587559000,4.243558837890625,-0.441199392080307,0.01575724221765995,0.35633039474487305
1761467199597542100,4.253542236328125,-0.4195081889629364,0.06846173107624054,0.3534643054008484
1761467199607524900,4.26352490234375,-0.3930981755256653,0.10586156696081161,0.3424007296562195
1761467199617507800,4.2735078125,-0.36345788836479187,0.110696941614151,0.3233639895915985
1761467199627491000,4.283490966796875,-0.36219528317451477,0.10034523904323578,0.3128168284893036
1761467199637474000,4.29347412109375,-0.3538030982017517,0.13683311641216278,0.29152098298072815
1761467199647456800,4.303456787109375,-0.38919198513031006,0.17939309775829315,0.26672616600990295
1761467199657440000,4.31343994140625,-0.39413565397262573,0.209958016872406,0.25072574615478516
1761467199667423000,4.323423095703125,-0.4097819924354553,0.21352505683898926,0.2501526474952698
1761467199677405000,4.333405029296875,-0.4235479533672333,0.20494846999645233,0.2606549859046936
1761467199687388000,4.343387939453125,-0.4338112473487854,0.18304157257080078,0.2731153964996338
1761467199697371000,4.353370849609375,-0.43975311517715454,0.18026719987392426,0.27706947922706604
1761467199707354000,4.36335400390625,-0.4330611228942871,0.2125505656003952,0.2679193913936615
1761467199717336800,4.3733369140625,-0.41919559240341187,0.23628966510295868,0.24404464662075043
1761467199727320000,4.383320068359375,-0.4004165828227997,0.23857145011425018,0.21475066244602203
1761467199737303000,4.393302978515625,-0.3769288659095764,0.23208007216453552,0.1919819563627243
1761467199747286000,4.4032861328125,-0.3484588861465454,0.2001008242368698,0.17877960205078125
1761467199757269000,4.41326904296875,-0.3220439553260803,0.16959066689014435,0.1736791580915451
1761467199767252000,4.423251953125,-0.28402066230773926,0.14016593992710114,0.16358818113803864
1761467199777235000,4.43323486328125,-0.24810023605823517,0.12520888447761536,0.14901362359523773
1761467199787218000,4.443218017578125,-0.2104460746049881,0.1188388541340828,0.1195172443985939
1761467199797200000,4.453199951171875,-0.1825885772705078,0.11632299423217773,0.0948559045791626
1761467199807183000,4.46318310546875,-0.1806069165468216,0.10339361429214478,0.07413597404956818
1761467199817165800,4.473165771484375,-0.17548485100269318,0.07841112464666367,0.06822193413972855
1761467199827148800,4.483148681640625,-0.1691015213727951,0.061492860317230225,0.06754308938980103
1761467199837135000,4.493135009765625,-0.16045261919498444,0.057504184544086456,0.08299929648637772
1761467199847118000,4.5031181640625,-0.14081180095672607,0.053536076098680496,0.11152015626430511
1761467199857101300,4.513101318359375,-0.11159802973270416,0.027081357315182686,0.15557149052619934
1761467199867084000,4.523083984375,-0.0791090577840805,0.005854632239788771,0.19702838361263275
1761467199877067000,4.53306689453125,-0.04959484189748764,-0.0064237844198942184,0.2288689762353897
1761467199887050200,4.54305029296875,-0.029088236391544342,-0.002715865382924676,0.22949722409248352
1761467199897033200,4.553033203125,-0.00572713790461421,0.027611758559942245,0.19715237617492676
1761467199907015200,4.56301513671875,0.010890188626945019,0.0612671859562397,0.13988003134727478
1761467199916998100,4.572998046875,0.02812688611447811,0.07824043929576874,0.08597702533006668
1761467199926981000,4.582981201171875,0.045406274497509,0.08992373198270798,0.033163346350193024
1761467199936964000,4.592964111328125,0.06482212990522385,0.09937045723199844,-0.013661743141710758
1761467199946947000,4.602947021484375,0.08898338675498962,0.09593630582094193,-0.0479600615799427
1761467199956930000,4.612929931640625,0.10246312618255615,0.07439037412405014,-0.06524413824081421
1761467199966913300,4.622913330078125,0.1040506362915039,0.05902686342597008,-0.05646848678588867
1761467199976896000,4.63289599609375,0.08994171023368835,0.022077251225709915,-0.04715685173869133
1761467199986879200,4.642879150390625,0.06588724255561829,-0.021248385310173035,-0.03868613392114639
1761467199996862200,4.6528623046875,0.03253156319260597,-0.06085747852921486,-0.038188282400369644
1761467200006845200,4.66284521484375,-0.00018323864787817,-0.09855052828788757,-0.04627523571252823
1761467200016828200,4.672828125,-0.02803819067776203,-0.1297810673713684,-0.07870955765247345
1761467200026810000,4.68281005859375,-0.05908612161874771,-0.09800530225038528,-0.10256215929985046
1761467200036793300,4.69279345703125,-0.07367567718029022,-0.0001481331419199705,-0.12151151895523071
1761467200046776000,4.702776123046875,-0.08142866939306259,0.11176881194114685,-0.15964770317077637
1761467200056759000,4.712759033203125,-0.06226327642798424,0.1793404519557953,-0.21636280417442322
1761467200066742300,4.7227421875,-0.03814408928155899,0.1428157389163971,-0.2662227749824524
1761467200076725200,4.732725341796875,-0.03358544036746025,0.027138931676745415,-0.2572687566280365
1761467200086708000,4.7427080078125,-0.03154279291629791,-0.1210516020655632,-0.2247912436723709
1761467200096691200,4.752691162109375,-0.027404434978961945,-0.21546806395053864,-0.1941799521446228
1761467200106674200,4.762674072265625,-0.018330244347453117,-0.25184735655784607,-0.18521174788475037
1761467200116657000,4.772656982421875,-0.015189312398433685,-0.2493796944618225,-0.19892729818820953
1761467200126640000,4.78264013671875,0.0032725187484174967,-0.23712968826293945,-0.1991744339466095
1761467200136623000,4.792623046875,0.01975664682686329,-0.2400173842906952,-0.18222054839134216
1761467200146605000,4.80260498046875,0.0377790592610836,-0.22240030765533447,-0.15974320471286774
1761467200156588000,4.812588134765625,0.04954475164413452,-0.2165701985359192,-0.12753663957118988
1761467200166571300,4.8225712890625,0.05602395534515381,-0.24996358156204224,-0.09829646348953247
1761467200176554200,4.83255419921875,0.04571866616606712,-0.28176701068878174,-0.08539925515651703
1761467200186537000,4.842536865234375,0.03963653743267059,-0.2800314128398895,-0.08429963886737823
1761467200196520200,4.852520263671875,0.01857915148139,-0.23157495260238647,-0.07622819393873215
1761467200206503200,4.862503173828125,0.005428462754935026,-0.17838044464588165,-0.054294392466545105
1761467200216486100,4.872486083984375,-0.000640159472823143,-0.14509595930576324,-0.01891477406024933
1761467200226469000,4.88246923828125,-0.01572590321302414,-0.14218778908252716,0.02464601956307888
1761467200236452000,4.8924521484375,-0.024228081107139587,-0.15178894996643066,0.0671139657497406
1761467200246435000,4.90243505859375,-0.04267233610153198,-0.15681593120098114,0.093197762966156
1761467200256417000,4.9124169921875,-0.060077618807554245,-0.13690805435180664,0.10450255870819092
1761467200266400000,4.92239990234375,-0.0783277228474617,-0.10722312331199646,0.09512104094028473
1761467200276383200,4.93238330078125,-0.09193986654281616,-0.09815279394388199,0.08651860058307648
1761467200286366200,4.9423662109375,-0.09632955491542816,-0.08325613290071487,0.08055391907691956
1761467200296349000,4.952348876953125,-0.10749378800392151,-0.07199229300022125,0.07357297092676163
1761467200306332200,4.962332275390625,-0.11395461857318878,-0.06354474276304245,0.06508201360702515
1761467200316315100,4.972315185546875,-0.12144043296575546,-0.06756411492824554,0.05542289465665817
1761467200326298000,4.982298095703125,-0.10891345143318176,-0.042729608714580536,0.06794854253530502
1761467200336281000,4.992281005859375,-0.09130735695362091,-0.008919577114284039,0.09569378942251205
1761467200346264000,5.00226416015625,-0.06852854043245316,0.025628812611103058,0.1395813524723053
1761467200356247300,5.012247314453125,-0.03138498589396477,0.047287799417972565,0.1862202137708664
1761467200366230300,5.022230224609375,0.004865430761128664,0.05151183903217316,0.23029367625713348
1761467200376212200,5.032212158203125,0.03822186589241028,0.02736305631697178,0.26796722412109375
1761467200386195200,5.0421953125,0.07327039539813995,-0.00039853458292782307,0.29816561937332153
1761467200396178200,5.05217822265625,0.09769181162118912,-0.028324110433459282,0.31216615438461304
1761467200406161200,5.0621611328125,0.11172746866941452,-0.04770739749073982,0.31868183612823486
1761467200416144100,5.07214404296875,0.12445711344480515,-0.06592261791229248,0.31943365931510925
1761467200426127000,5.082127197265625,0.1225617453455925,-0.11079634726047516,0.333200603723526
1761467200436110000,5.092110107421875,0.12088441103696823,-0.16030146181583405,0.3582768440246582
1761467200446093000,5.102093017578125,0.1068229153752327,-0.19000102579593658,0.39325931668281555
1761467200456076000,5.112075927734375,0.09390498697757721,-0.19067756831645966,0.4221816658973694
1761467200466059300,5.122059326171875,0.07481704652309418,-0.16967719793319702,0.45152491331100464
1761467200476042000,5.1320419921875,0.053270552307367325,-0.14637361466884613,0.46278491616249084
1761467200486024200,5.142024169921875,0.019793018698692322,-0.1191430538892746,0.4560876190662384
1761467200496007200,5.152007080078125,0.010180871933698654,-0.06877903640270233,0.44513949751853943
1761467200505990100,5.161990234375,-0.0048673199489712715,-0.03746772184967995,0.41663381457328796
1761467200515973000,5.17197314453125,-0.012208362109959126,0.02030917815864086,0.3894928991794586
1761467200525956000,5.1819560546875,-0.018127504736185074,0.07166504114866257,0.37227529287338257
1761467200535939300,5.191939208984375,-0.02200312539935112,0.10050296038389206,0.35952186584472656
1761467200545922000,5.201922119140625,-0.014927638694643974,0.1162925735116005,0.3416091799736023
1761467200555905000,5.211905029296875,-0.0043537491001188755,0.13816747069358826,0.31412023305892944
1761467200565888300,5.22188818359375,0.000863649882376194,0.14111559092998505,0.2933710217475891
1761467200575871200,5.231871337890625,0.003124941373243928,0.12713150680065155,0.28938281536102295
1761467200585854000,5.24185400390625,-0.006294925697147846,0.11637607216835022,0.30496975779533386
1761467200595837200,5.251837158203125,-0.0011094831861555576,0.12099852412939072,0.3260689973831177
1761467200605819100,5.261819091796875,-0.01729830726981163,0.15079158544540405,0.3400726914405823
1761467200615802000,5.271802001953125,-0.043996382504701614,0.16913096606731415,0.345328688621521
1761467200625785000,5.28178515625,-0.08587778359651566,0.18619304895401,0.33689579367637634
1761467200635768000,5.29176806640625,-0.12574805319309235,0.23634767532348633,0.3316516578197479
1761467200645751300,5.301751220703125,-0.1481630802154541,0.2813045084476471,0.32072925567626953
1761467200655734000,5.311734130859375,-0.16798509657382965,0.29773062467575073,0.31668922305107117
1761467200665717200,5.32171728515625,-0.19849427044391632,0.29050227999687195,0.33340775966644287
1761467200675700200,5.3317001953125,-0.2281118929386139,0.26652711629867554,0.35378193855285645
1761467200685683000,5.341682861328125,-0.23626063764095306,0.2286021113395691,0.3698357343673706
1761467200695666200,5.351666259765625,-0.24376773834228516,0.20806971192359924,0.3871636688709259
1761467200705649200,5.361649169921875,-0.25799673795700073,0.2098708152770996,0.4046260118484497
1761467200715631400,5.37163134765625,-0.27075448632240295,0.2083609700202942,0.42716875672340393
1761467200725614000,5.381614013671875,-0.2880874276161194,0.18735447525978088,0.4541782736778259
1761467200735597000,5.39159716796875,-0.3091537058353424,0.16948990523815155,0.4977027177810669
1761467200745580300,5.401580322265625,-0.3381701707839966,0.14693878591060638,0.544622004032135
1761467200755563000,5.41156298828125,-0.3523017168045044,0.14236044883728027,0.5779961943626404
1761467200765546000,5.4215458984375,-0.3732006251811981,0.14527848362922668,0.6027838587760925
1761467200775529200,5.431529296875,-0.3933555483818054,0.14795592427253723,0.6248010993003845
1761467200785512200,5.44151220703125,-0.42507487535476685,0.146046444773674,0.6471814513206482
1761467200795495000,5.451494873046875,-0.450560063123703,0.14305981993675232,0.6623571515083313
1761467200805478100,5.46147802734375,-0.4655640423297882,0.15589626133441925,0.6681665778160095
1761467200815461000,5.471461181640625,-0.48592787981033325,0.18502399325370789,0.6678540706634521
1761467200825444000,5.481444091796875,-0.5079444646835327,0.18951807916164398,0.6642484664916992
1761467200835426000,5.491426025390625,-0.5189869403839111,0.2013045698404312,0.6820595264434814
1761467200845406000,5.501406005859375,-0.546942949295044,0.21997413039207458,0.7133525013923645
1761467200855389200,5.51138916015625,-0.5717148780822754,0.24319882690906525,0.7483437657356262
1761467200865372000,5.521371826171875,-0.5993300080299377,0.2684354782104492,0.7825621962547302
1761467200875355000,5.53135498046875,-0.6181369423866272,0.26518362760543823,0.809357225894928
1761467200885338000,5.541338134765625,-0.6382325887680054,0.2404276728630066,0.8186562061309814
1761467200895320800,5.55132080078125,-0.6506128311157227,0.21441426873207092,0.8139073848724365
1761467200905304000,5.561303955078125,-0.6470127701759338,0.19716285169124603,0.803186297416687
1761467200915287000,5.571287109375,-0.6435458660125732,0.19140908122062683,0.7914081811904907
1761467200925270000,5.58127001953125,-0.6411447525024414,0.18415036797523499,0.781735360622406
1761467200935253000,5.5912529296875,-0.6291773915290833,0.1742103397846222,0.7708727717399597
1761467200945235000,5.60123486328125,-0.6338754892349243,0.1485513150691986,0.777210533618927
1761467200955218200,5.61121826171875,-0.644571840763092,0.11145086586475372,0.7977839708328247
1761467200965201000,5.621200927734375,-0.6620946526527405,0.06763121485710144,0.8169158697128296
1761467200975184000,5.631183837890625,-0.6836728453636169,0.01130637526512146,0.8374344706535339
1761467200985167000,5.6411669921875,-0.7102853059768677,-0.026701992377638817,0.8675777316093445
1761467200995150000,5.651150146484375,-0.7323247790336609,-0.006330978125333786,0.9015086889266968
1761467201005132800,5.6611328125,-0.7466309666633606,0.02049051597714424,0.9492935538291931
1761467201015116000,5.671115966796875,-0.7738259434700012,0.041480522602796555,1.012863278388977
1761467201025099000,5.68109912109375,-0.7828007936477661,0.08147454261779785,1.0670921802520752
1761467201035082000,5.69108203125,-0.7736330032348633,0.18774400651454926,1.0902518033981323
1761467201045065000,5.70106494140625,-0.7498381733894348,0.30713802576065063,1.0542949438095093
1761467201055047000,5.711046875,-0.7123401761054993,0.37705668807029724,0.9817602634429932
1761467201065030100,5.721030029296875,-0.6700227856636047,0.36860355734825134,0.9117433428764343
1761467201075012900,5.731012939453125,-0.640866219997406,0.3294825255870819,0.8420209884643555
1761467201084996000,5.74099609375,-0.6216113567352295,0.3258694112300873,0.7673640251159668
1761467201094979000,5.75097900390625,-0.6118322610855103,0.3483163118362427,0.7171328067779541
1761467201104962000,5.760962158203125,-0.6224298477172852,0.3666558861732483,0.7165253162384033
1761467201114945000,5.770945068359375,-0.6322512030601501,0.34483954310417175,0.7839373350143433
1761467201124928000,5.780927978515625,-0.6595008969306946,0.3098658621311188,0.9014429450035095
1761467201134911000,5.790910888671875,-0.7063543200492859,0.2925885021686554,1.023764729499817
1761467201144894200,5.800894287109375,-0.7539668083190918,0.2825417220592499,1.100957989692688
1761467201154877000,5.810876953125,-0.7999225854873657,0.2922288179397583,1.1219273805618286
1761467201164859100,5.820859130859375,-0.8366478681564331,0.304728627204895,1.0967838764190674
1761467201174842000,5.830842041015625,-0.8788279294967651,0.3054642081260681,1.0531083345413208
1761467201184824800,5.840824951171875,-0.9048741459846497,0.3081609308719635,1.0073374509811401
1761467201194808000,5.85080810546875,-0.9185191988945007,0.28819364309310913,0.9508883357048035
1761467201204791000,5.860791015625,-0.9223975539207458,0.30346980690956116,0.905790388584137
1761467201214774000,5.87077392578125,-0.8994183540344238,0.32419300079345703,0.8617449402809143
1761467201224757000,5.880757080078125,-0.856587827205658,0.37095120549201965,0.8254873156547546
1761467201234740000,5.890739990234375,-0.8028379678726196,0.4343441426753998,0.7958182692527771
1761467201244723200,5.90072314453125,-0.7385023832321167,0.48917993903160095,0.7626169323921204
1761467201254706000,5.910705810546875,-0.6792845129966736,0.5391707420349121,0.7262307405471802
1761467201264689000,5.92068896484375,-0.6337354183197021,0.5844937562942505,0.691497802734375
1761467201274671000,5.930671142578125,-0.6123798489570618,0.6124154925346375,0.6603015661239624
1761467201284653800,5.94065380859375,-0.6093712449073792,0.6179165244102478,0.6332556009292603
1761467201294637000,5.950636962890625,-0.6254206299781799,0.5984792709350586,0.6062560677528381
1761467201304620000,5.9606201171875,-0.6560624241828918,0.5573989748954773,0.5880874395370483
1761467201314603000,5.97060302734375,-0.6749511957168579,0.5142156481742859,0.5781084895133972
1761467201324586000,5.9805859375,-0.7056108117103577,0.45121219754219055,0.5765060782432556
1761467201334569000,5.99056884765625,-0.7367572784423828,0.3733799159526825,0.5736864805221558
1761467201344552000,6.000552001953125,-0.7568577527999878,0.3101538121700287,0.5824437737464905
1761467201354535200,6.01053515625,-0.7697731256484985,0.2665257155895233,0.5961409211158752
1761467201364518000,6.020517822265625,-0.7832013368606567,0.23843255639076233,0.6168968081474304
1761467201374500900,6.0305009765625,-0.7907617092132568,0.22338449954986572,0.6447003483772278
1761467201384483000,6.040483154296875,-0.8034354448318481,0.23206986486911774,0.6584502458572388
1761467201394466000,6.050466064453125,-0.8228230476379395,0.24565282464027405,0.667963981628418
1761467201404449000,6.060448974609375,-0.8434404134750366,0.27189934253692627,0.691277801990509
1761467201414432000,6.070431884765625,-0.8667744994163513,0.30375272035598755,0.7227721810340881
1761467201424415200,6.080415283203125,-0.8838824033737183,0.32620397210121155,0.7367628216743469
1761467201434398000,6.09039794921875,-0.8981882929801941,0.36506685614585876,0.7290117740631104
1761467201444381000,6.100380859375,-0.9020293354988098,0.41676944494247437,0.7057690620422363
1761467201454364200,6.1103642578125,-0.8911377787590027,0.45281270146369934,0.6753276586532593
1761467201464347100,6.12034716796875,-0.8780744075775146,0.4604509174823761,0.6524883508682251
1761467201474329900,6.130329833984375,-0.8602579236030579,0.438198059797287,0.6374726295471191
1761467201484313000,6.14031298828125,-0.834030032157898,0.41844671964645386,0.6339292526245117
1761467201494295000,6.150294921875,-0.798714280128479,0.40511631965637207,0.6376529335975647
1761467201504278000,6.160278076171875,-0.7616822123527527,0.41356921195983887,0.6310256719589233
1761467201514261000,6.170260986328125,-0.7258277535438538,0.428975909948349,0.6175312399864197
1761467201524244000,6.180243896484375,-0.6937728524208069,0.42461711168289185,0.6120102405548096
1761467201534227000,6.19022705078125,-0.6666808128356934,0.4153623580932617,0.62593013048172
1761467201544210000,6.2002099609375,-0.6512547135353088,0.4014286994934082,0.634518027305603
1761467201554193000,6.21019287109375,-0.6395182013511658,0.3951723575592041,0.6231334209442139
1761467201564176100,6.220176025390625,-0.6243123412132263,0.40304863452911377,0.5964706540107727
1761467201574158800,6.230158935546875,-0.6061264872550964,0.41214707493782043,0.5626858472824097
1761467201584142000,6.24014208984375,-0.5890575051307678,0.4091086685657501,0.5200560688972473
1761467201594125000,6.250125,-0.5740633010864258,0.38998281955718994,0.4798582196235657
1761467201604108000,6.26010791015625,-0.5544331669807434,0.33829113841056824,0.4387589693069458
1761467201614090000,6.270090087890625,-0.5389280915260315,0.2812591791152954,0.40766647458076477
1761467201624073000,6.280072998046875,-0.5191317796707153,0.2473587542772293,0.38395023345947266
1761467201634056200,6.29005615234375,-0.4861587882041931,0.23747803270816803,0.36847588419914246
1761467201644039000,6.300038818359375,-0.4523124098777771,0.2340497523546219,0.3532884120941162
1761467201654022000,6.31002197265625,-0.4216100573539734,0.24682722985744476,0.34298795461654663
1761467201664005000,6.320005126953125,-0.37307873368263245,0.2746085226535797,0.332468718290329
1761467201673988000,6.329988037109375,-0.31546950340270996,0.2855072617530823,0.32451388239860535
1761467201683970800,6.339970703125,-0.26489102840423584,0.2632693350315094,0.3181800842285156
1761467201693954000,6.3499541015625,-0.22626350820064545,0.2442193329334259,0.31882816553115845
1761467201703937000,6.35993701171875,-0.19653889536857605,0.22962547838687897,0.31988438963890076
1761467201713919000,6.3699189453125,-0.17216327786445618,0.2155003398656845,0.31527405977249146
1761467201723902000,6.37990185546875,-0.14897140860557556,0.22776606678962708,0.2991640567779541
1761467201733885000,6.389885009765625,-0.1277381032705307,0.2594091296195984,0.28030070662498474
1761467201743868200,6.3998681640625,-0.10832127928733826,0.29695677757263184,0.24649931490421295
1761467201753851000,6.409850830078125,-0.1041819229722023,0.3117455840110779,0.22650745511054993
1761467201763834000,6.419834228515625,-0.09528510272502899,0.3238871991634369,0.2325243353843689
1761467201773817000,6.429817138671875,-0.08435414731502533,0.3105382025241852,0.25777459144592285
1761467201783799800,6.4397998046875,-0.07771941274404526,0.26258212327957153,0.27872994542121887
1761467201793783000,6.449782958984375,-0.080949567258358,0.2125934362411499,0.3093852698802948
1761467201803766000,6.45976611328125,-0.07902170717716217,0.19133581221103668,0.3251200318336487
1761467201813749000,6.4697490234375,-0.086366206407547,0.18488144874572754,0.33652594685554504
1761467201823732000,6.47973193359375,-0.09700474143028259,0.1806510090827942,0.34104397892951965
1761467201833714000,6.4897138671875,-0.09650630503892899,0.16885730624198914,0.33846476674079895
1761467201843700700,6.49970068359375,-0.1014973372220993,0.14834989607334137,0.33985042572021484
1761467201853683500,6.509683349609375,-0.10419729351997375,0.11361070722341537,0.3368947207927704
1761467201863666400,6.51966650390625,-0.09953862428665161,0.07134447991847992,0.3291401267051697
1761467201873649700,6.529649658203125,-0.08252943307161331,0.0329304076731205,0.3073228895664215
1761467201883632600,6.539632568359375,-0.06688815355300903,-0.005247870460152626,0.2783229351043701
1761467201893615400,6.549615478515625,-0.051548004150390625,-0.04528365284204483,0.24553333222866058
1761467201903598600,6.5595986328125,-0.03919173777103424,-0.1032010167837143,0.2196815013885498
1761467201913581600,6.56958154296875,-0.03412039205431938,-0.18100251257419586,0.21411213278770447
1761467201923564800,6.579564697265625,-0.03231104090809822,-0.24430371820926666,0.21823205053806305
1761467201933546500,6.58954638671875,-0.012990860268473625,-0.2586381733417511,0.21355360746383667
1761467201943529700,6.59952978515625,0.010200479067862034,-0.25594010949134827,0.19169996678829193
1761467201953512700,6.6095126953125,0.03746659308671951,-0.2538742125034332,0.1765321046113968
1761467201963495400,6.619495361328125,0.06425213813781738,-0.27830737829208374,0.18231409788131714
1761467201973478700,6.629478759765625,0.08845734596252441,-0.30884647369384766,0.19718775153160095
1761467201983461600,6.639461669921875,0.10947580635547638,-0.2977168560028076,0.18323545157909393
1761467201993444600,6.649444580078125,0.11408878117799759,-0.27373695373535156,0.1440574824810028
1761467202003427600,6.659427490234375,0.1110684871673584,-0.25543251633644104,0.096028171479702
1761467202013410600,6.66941064453125,0.09728792309761047,-0.29713985323905945,0.07863649725914001
1761467202023393500,6.6793935546875,0.07725322991609573,-0.3892522156238556,0.10460471361875534
1761467202033376800,6.689376708984375,0.04318230599164963,-0.471103698015213,0.16370531916618347
1761467202043358500,6.6993583984375,-0.003052033483982086,-0.4938628077507019,0.22085383534431458
1761467202053341700,6.709341796875,-0.052573662251234055,-0.47057056427001953,0.25194621086120605
1761467202063324700,6.71932470703125,-0.09318847209215164,-0.4226890504360199,0.26449477672576904
1761467202073307400,6.729307373046875,-0.1300388127565384,-0.3810385763645172,0.28694358468055725
1761467202083290600,6.73929052734375,-0.1605980545282364,-0.3307911157608032,0.3150860071182251
1761467202093273600,6.749273681640625,-0.17967744171619415,-0.30818697810173035,0.33591699600219727
1761467202103256600,6.759256591796875,-0.18391212821006775,-0.2946522533893585,0.34723809361457825
1761467202113239600,6.769239501953125,-0.1949354112148285,-0.2803826332092285,0.3525131642818451
1761467202123222500,6.779222412109375,-0.20131555199623108,-0.2540530264377594,0.3480507731437683
1761467202133205800,6.789205810546875,-0.20803971588611603,-0.20607084035873413,0.3319767117500305
1761467202143188500,6.7991884765625,-0.2099103182554245,-0.14931701123714447,0.30676138401031494
1761467202153171500,6.80917138671875,-0.20703986287117004,-0.1119355633854866,0.26745766401290894
1761467202163153700,6.819153564453125,-0.1988527774810791,-0.1042957529425621,0.22614456713199615
1761467202173136400,6.829136474609375,-0.18552231788635254,-0.10716690123081207,0.19179432094097137
1761467202183119600,6.83911962890625,-0.16380903124809265,-0.11121490597724915,0.16618137061595917
1761467202193102600,6.8491025390625,-0.14716623723506927,-0.09827104210853577,0.15153880417346954
1761467202203085600,6.85908544921875,-0.13393086194992065,-0.06693149358034134,0.14257141947746277
1761467202213068500,6.869068603515625,-0.11675991117954254,-0.0325826071202755,0.12763135135173798
1761467202223051500,6.879051513671875,-0.11332549899816513,-0.030357003211975098,0.136275976896286
1761467202233034500,6.889034423828125,-0.10722096264362335,-0.05681104585528374,0.17010793089866638
1761467202243017700,6.899017822265625,-0.10613066703081131,-0.09264973551034927,0.21895375847816467
1761467202253000400,6.90900048828125,-0.10266224294900894,-0.10807526111602783,0.27300533652305603
1761467202262983700,6.918983642578125,-0.1066117137670517,-0.1288316696882248,0.3274235725402832
1761467202272965600,6.928965576171875,-0.09799034148454666,-0.15294086933135986,0.38538363575935364
1761467202282948600,6.938948486328125,-0.08783330768346786,-0.17710426449775696,0.43264490365982056
1761467202292931600,6.948931640625,-0.07856445014476776,-0.18875791132450104,0.47085922956466675
1761467202302914600,6.95891455078125,-0.06681351363658905,-0.17989784479141235,0.49434778094291687
1761467202312897800,6.968897705078125,-0.05775834619998932,-0.16861605644226074,0.5033304691314697
1761467202322880500,6.978880615234375,-0.04875180125236511,-0.14753100275993347,0.4998398721218109
1761467202332863500,6.988863525390625,-0.04802494868636131,-0.13116289675235748,0.4918983578681946
1761467202342846700,6.9988466796875,-0.05608287453651428,-0.13661891222000122,0.48679494857788086
1761467202352829700,7.00882958984375,-0.06986621767282486,-0.14106658101081848,0.49475446343421936
1761467202362812400,7.0188125,-0.07962244004011154,-0.11868617683649063,0.5082204937934875
1761467202372794600,7.028794677734375,-0.08866801112890244,-0.05366608873009682,0.50669926404953
1761467202382777600,7.038777587890625,-0.10244747996330261,0.0226297490298748,0.491237998008728
1761467202392760600,7.048760498046875,-0.11136937141418457,0.08625707775354385,0.4788552522659302
1761467202402743600,7.05874365234375,-0.125067338347435,0.1257011592388153,0.4677394926548004
1761467202412726500,7.0687265625,-0.12829697132110596,0.1562589704990387,0.4659644663333893
1761467202422709800,7.078709716796875,-0.13749206066131592,0.18338459730148315,0.4752780795097351
1761467202432692500,7.0886923828125,-0.14893627166748047,0.2055484503507614,0.4863538444042206
1761467202442675700,7.09867578125,-0.16107389330863953,0.22591310739517212,0.49043166637420654
1761467202452658700,7.10865869140625,-0.17219382524490356,0.25075751543045044,0.494241863489151
1761467202462641400,7.118641357421875,-0.1867394894361496,0.23920951783657074,0.49534305930137634
1761467202472624600,7.128624755859375,-0.19100378453731537,0.21873076260089874,0.49013060331344604
1761467202482606600,7.138606689453125,-0.2064429223537445,0.23238132894039154,0.48615318536758423
1761467202492589600,7.148589599609375,-0.21835969388484955,0.267929345369339,0.47392892837524414
1761467202502572500,7.158572509765625,-0.22549057006835938,0.30067718029022217,0.4663993716239929
1761467202512555500,7.168555419921875,-0.2494412660598755,0.3334836959838867,0.4602648615837097
1761467202522538800,7.178538818359375,-0.2626582682132721,0.342617005109787,0.45499977469444275
1761467202532521500,7.188521484375,-0.2715303301811218,0.3418007791042328,0.45183148980140686
1761467202542504400,7.19850439453125,-0.2931264340877533,0.3322749137878418,0.44539597630500793
1761467202552487700,7.20848779296875,-0.31020960211753845,0.3125118911266327,0.4371711313724518
1761467202562470700,7.218470703125,-0.31733381748199463,0.2853409945964813,0.4312138855457306
1761467202572453400,7.228453369140625,-0.34660038352012634,0.2661561965942383,0.4342712461948395
1761467202582436600,7.2384365234375,-0.37302425503730774,0.2578308880329132,0.4513660967350006
1761467202592418600,7.24841845703125,-0.40962496399879456,0.2456388920545578,0.46712741255760193
1761467202602401500,7.258401611328125,-0.444259911775589,0.2286931872367859,0.49523892998695374
1761467202612384500,7.268384521484375,-0.4820265471935272,0.21864938735961914,0.5270304083824158
1761467202622367700,7.27836767578125,-0.511378824710846,0.21358512341976166,0.5605950355529785
1761467202632350700,7.288350830078125,-0.5334591269493103,0.20552705228328705,0.5858560800552368
1761467202642333400,7.29833349609375,-0.5455951690673828,0.19598761200904846,0.6056864857673645
1761467202652316700,7.308316650390625,-0.5400330424308777,0.17536455392837524,0.6203963756561279
1761467202662299600,7.318299560546875,-0.5327993631362915,0.14605726301670074,0.6441895365715027
1761467202672282600,7.32828271484375,-0.5298997759819031,0.08160258829593658,0.6573913097381592
1761467202682265600,7.338265625,-0.5303674340248108,0.05064866691827774,0.6552261710166931
1761467202692248600,7.34824853515625,-0.536887526512146,0.05010751634836197,0.6400467753410339
1761467202702230800,7.358230712890625,-0.5451552867889404,0.04386666417121887,0.629568338394165
1761467202712213500,7.368213623046875,-0.5709705352783203,0.06700248271226883,0.6425100564956665
1761467202722196500,7.378196533203125,-0.5985923409461975,0.10913769155740738,0.6672286987304688
1761467202732179700,7.3881796875,-0.6283228397369385,0.13561338186264038,0.7017921805381775
1761467202742162700,7.39816259765625,-0.654735267162323,0.1482066810131073,0.7259305119514465
1761467202752145400,7.4081455078125,-0.6736357808113098,0.15565600991249084,0.7437900900840759
1761467202762128600,7.418128662109375,-0.6842674016952515,0.15017442405223846,0.7497364282608032
1761467202772111600,7.428111572265625,-0.6709535121917725,0.13089679181575775,0.7572163939476013
1761467202782094600,7.438094482421875,-0.6590025424957275,0.07631663978099823,0.7753951549530029
1761467202792077600,7.44807763671875,-0.6411240696907043,0.019999492913484573,0.805970311164856
1761467202802059800,7.458059814453125,-0.6129696369171143,-0.005001462996006012,0.8492634296417236
1761467202812042500,7.46804248046875,-0.58109450340271,0.008803831413388252,0.8856387734413147
1761467202822025500,7.478025390625,-0.5355366468429565,0.07163339108228683,0.901680588722229
1761467202832008700,7.4880087890625,-0.46893686056137085,0.16311712563037872,0.8724338412284851
1761467202841990700,7.49799072265625,-0.40830308198928833,0.21835161745548248,0.8047283291816711
1761467202851974000,7.507973876953125,-0.34935399889945984,0.19732870161533356,0.7425854802131653
1761467202861956600,7.51795654296875,-0.319041907787323,0.10259474068880081,0.718622624874115
1761467202871939600,7.527939697265625,-0.316944420337677,-0.019408149644732475,0.7123364210128784
1761467202881922800,7.5379228515625,-0.34716492891311646,-0.10232406854629517,0.6920780539512634
1761467202891905800,7.54790576171875,-0.4013931453227997,-0.10818390548229218,0.6592633128166199
1761467202901887700,7.5578876953125,-0.47369584441185,-0.04977119341492653,0.6244097352027893
1761467202911870700,7.56787060546875,-0.5165154337882996,0.03966508433222771,0.6024544835090637
1761467202921853700,7.577853759765625,-0.5656872391700745,0.11569034308195114,0.5835425853729248
1761467202931836700,7.587836669921875,-0.5570878386497498,0.19052429497241974,0.5420325398445129
1761467202941819600,7.597819580078125,-0.5267011523246765,0.2468743920326233,0.5059395432472229
1761467202951802600,7.607802734375,-0.4702174961566925,0.2786595821380615,0.48855873942375183
1761467202961785900,7.617785888671875,-0.4170996844768524,0.22400937974452972,0.4591774344444275
1761467202971768600,7.6277685546875,-0.3834054470062256,0.10157617181539536,0.45949360728263855
1761467202981751800,7.637751708984375,-0.3539524972438812,-0.02209729328751564,0.4495088756084442
1761467202991734800,7.64773486328125,-0.33005788922309875,-0.10421600937843323,0.41228845715522766
1761467203001716700,7.657716796875,-0.3253600597381592,-0.1179877519607544,0.36534997820854187
1761467203011699700,7.66769970703125,-0.323078989982605,-0.09078678488731384,0.3162047564983368
1761467203021682700,7.6776826171875,-0.32802021503448486,-0.04174015298485756,0.2668324112892151
1761467203031666000,7.687666015625,-0.32286491990089417,0.007534701842814684,0.22856083512306213
1761467203041648600,7.697648681640625,-0.32496240735054016,0.04911356791853905,0.2084268033504486
1761467203051631600,7.707631591796875,-0.32472413778305054,0.09612806886434555,0.2080080658197403
1761467203061614800,7.71761474609375,-0.3257092535495758,0.14802376925945282,0.21756455302238464
1761467203071597800,7.727597900390625,-0.3414049744606018,0.17354698479175568,0.25221946835517883
1761467203081580500,7.73758056640625,-0.3633832335472107,0.18207842111587524,0.3017140328884125
1761467203091563800,7.747563720703125,-0.3863391578197479,0.17571203410625458,0.35079753398895264
1761467203101546800,7.757546630859375,-0.4088423550128937,0.18137924373149872,0.39059528708457947
1761467203111528700,7.76752880859375,-0.4262349009513855,0.2136678397655487,0.41281965374946594
1761467203121511700,7.77751171875,-0.4398231506347656,0.26450732350349426,0.40519821643829346
1761467203131494700,7.78749462890625,-0.4459998309612274,0.33198073506355286,0.385086327791214
1761467203141478000,7.797477783203125,-0.44413241744041443,0.38152724504470825,0.36128273606300354
1761467203151460600,7.807460693359375,-0.4407723546028137,0.39933520555496216,0.3364926278591156
1761467203161443600,7.817443603515625,-0.446196973323822,0.3769018054008484,0.3234226405620575
1761467203171426800,7.8274267578125,-0.4597989320755005,0.3462457060813904,0.3257356286048889
1761467203181409500,7.837409423828125,-0.4910777807235718,0.30038556456565857,0.3481573164463043
1761467203191392800,7.847392822265625,-0.5261343121528625,0.25023138523101807,0.3741925060749054
1761467203201375700,7.857375732421875,-0.5659992098808289,0.19269031286239624,0.40659624338150024
1761467203211358000,7.86735791015625,-0.6080422401428223,0.17053841054439545,0.42250996828079224
1761467203221340700,7.877340576171875,-0.6257690787315369,0.1783697009086609,0.4321114718914032
1761467203231323600,7.88732373046875,-0.6430573463439941,0.200321763753891,0.4500477612018585
1761467203241307000,7.897306884765625,-0.6560141444206238,0.23484298586845398,0.4720816910266876
1761467203251289600,7.90728955078125,-0.6644209027290344,0.26663070917129517,0.4964117407798767
1761467203261272600,7.9172724609375,-0.6563699245452881,0.2976043224334717,0.507534921169281
1761467203271255800,7.927255859375,-0.6498425006866455,0.32294610142707825,0.5190567970275879
1761467203281238800,7.93723876953125,-0.6380146145820618,0.3731677234172821,0.5187116861343384
1761467203291221500,7.947221435546875,-0.6278101801872253,0.4239741861820221,0.5125437378883362
1761467203301204700,7.957204833984375,-0.6217719912528992,0.4858008027076721,0.500085175037384
1761467203311187700,7.967187744140625,-0.5961973071098328,0.5175742506980896,0.4854450523853302
1761467203321169700,7.977169677734375,-0.5731191635131836,0.5191119313240051,0.480569064617157
1761467203331152600,7.987152587890625,-0.550284206867218,0.49443989992141724,0.4822109639644623
1761467203341135600,7.997135498046875,-0.5157651305198669,0.464309424161911,0.4874725639820099
1761467203351118800,8.007118896484375,-0.47569742798805237,0.45644694566726685,0.4914805591106415
1761467203361101600,8.0171015625,-0.46385300159454346,0.4658527076244354,0.474028617143631
1761467203371084800,8.027084716796875,-0.47096166014671326,0.4789978563785553,0.4413259029388428
1761467203381067800,8.03706787109375,-0.47163596749305725,0.496125191450119,0.40688616037368774
1761467203391050800,8.04705078125,-0.4714706838130951,0.535882294178009,0.3868880569934845
1761467203401033700,8.05703369140625,-0.46033334732055664,0.5760523676872253,0.37337809801101685
1761467203411016700,8.0670166015625,-0.43963372707366943,0.5953537821769714,0.36277589201927185
1761467203420999000,8.0769990234375,-0.40439239144325256,0.5943683981895447,0.3565315902233124
1761467203430981600,8.086981689453125,-0.40039578080177307,0.5694896578788757,0.3354354202747345
1761467203440964600,8.096964599609375,-0.38588714599609375,0.5251847505569458,0.31321507692337036
1761467203450947800,8.10694775390625,-0.3644963502883911,0.4831917881965637,0.28483396768569946
1761467203460930800,8.116930908203125,-0.3411865234375,0.44622018933296204,0.2581973075866699
1761467203470913500,8.12691357421875,-0.3394351899623871,0.4274643063545227,0.23080690205097198
1761467203480896800,8.136896728515625,-0.31573811173439026,0.4188116788864136,0.2005496621131897
1761467203490879700,8.146879638671875,-0.29021626710891724,0.4129026234149933,0.1800481230020523
1761467203500862700,8.15686279296875,-0.2660699188709259,0.4178989827632904,0.17323948442935944
1761467203510845700,8.166845703125,-0.23766130208969116,0.42231008410453796,0.1704438030719757
1761467203520827600,8.17682763671875,-0.20530283451080322,0.41435176134109497,0.17195114493370056
1761467203530811000,8.186810791015626,-0.1915743499994278,0.40848594903945923,0.1818382441997528
1761467203540793600,8.196793701171876,-0.18380776047706604,0.4022379219532013,0.20480002462863922
1761467203550776800,8.20677685546875,-0.19156864285469055,0.38256603479385376,0.2307078242301941
1761467203560759800,8.216759765625,-0.19849258661270142,0.36311909556388855,0.26014214754104614
1761467203570742500,8.226742431640625,-0.20829883217811584,0.3428671956062317,0.27831462025642395
1761467203580725800,8.236725830078125,-0.23479782044887543,0.3309799134731293,0.2759702205657959
1761467203590708700,8.246708740234375,-0.2233385145664215,0.32719191908836365,0.249687060713768
1761467203600691700,8.256691650390625,-0.22496384382247925,0.2816372215747833,0.23267532885074615
1761467203610674700,8.2666748046875,-0.20287273824214935,0.20930145680904388,0.24250100553035736
1761467203620656600,8.27665673828125,-0.1858340948820114,0.14256343245506287,0.2806241512298584
1761467203630639900,8.286639892578124,-0.16130535304546356,0.08672003448009491,0.320768266916275
1761467203640622600,8.29662255859375,-0.14488057792186737,0.023618564009666443,0.347219318151474
1761467203650605600,8.30660546875,-0.143122598528862,-0.034791991114616394,0.36313843727111816
1761467203660588800,8.3165888671875,-0.147999107837677,-0.039306316524744034,0.36346492171287537
1761467203670571800,8.32657177734375,-0.15303479135036469,-0.018875999376177788,0.3498906195163727
1761467203680554800,8.3365546875,-0.15007735788822174,0.007146013434976339,0.32879358530044556
1761467203690537700,8.346537841796875,-0.14980706572532654,0.036045290529727936,0.3085425794124603
1761467203700520700,8.356520751953125,-0.13761964440345764,0.1161731481552124,0.27865180373191833
1761467203710504000,8.36650390625,-0.12245648354291916,0.2016087919473648,0.22591394186019897
1761467203720485600,8.376485595703125,-0.13262657821178436,0.18808579444885254,0.16587190330028534
1761467203730468900,8.38646875,-0.15449371933937073,0.07065750658512115,0.1406889706850052
1761467203740451800,8.396451904296875,-0.1765657365322113,-0.08219169080257416,0.1463649570941925
1761467203750434600,8.4064345703125,-0.16593213379383087,-0.19022443890571594,0.15027454495429993
1761467203760417800,8.416417724609374,-0.1509886085987091,-0.20921063423156738,0.1058274582028389
1761467203770400800,8.42640087890625,-0.1327293962240219,-0.17007191479206085,0.03816595673561096
1761467203780383700,8.4363837890625,-0.10732949525117874,-0.1389017403125763,-0.021634522825479507
1761467203790366700,8.44636669921875,-0.0819312334060669,-0.13551706075668335,-0.0496693029999733
1761467203800349700,8.456349609375,-0.0577598474919796,-0.1343548595905304,-0.043886784464120865
1761467203810332700,8.466332763671875,-0.05599357560276985,-0.12996095418930054,-0.03238936886191368
1761467203820315600,8.476315673828125,-0.06228023022413254,-0.14365999400615692,-0.023971382528543472
1761467203830297600,8.486297607421875,-0.0734056606888771,-0.15314657986164093,-0.006075107492506504
1761467203840278300,8.4962783203125,-0.08503381907939911,-0.169280007481575,0.008105958811938763
1761467203850261200,8.50626123046875,-0.0955442488193512,-0.17503882944583893,0.017703989520668983
1761467203860244200,8.516244140625,-0.09703908115625381,-0.1433434784412384,0.02803412638604641
1761467203870227500,8.5262275390625,-0.07821080088615417,-0.09273587912321091,0.03528735786676407
1761467203880210200,8.536210205078126,-0.050737638026475906,-0.055232975631952286,0.050490811467170715
1761467203890193200,8.546193115234376,-0.013744117692112923,-0.043640535324811935,0.08211126178503036
1761467203900176400,8.55617626953125,0.022290581837296486,-0.05487081781029701,0.12078408896923065
1761467203910159400,8.566159423828125,0.06479313969612122,-0.05937309190630913,0.1460658758878708
1761467203920142000,8.57614208984375,0.09719341993331909,-0.0725988820195198,0.16447976231575012
1761467203930126000,8.5861259765625,0.10481125116348267,-0.08162212371826172,0.1787618100643158
1761467203940109300,8.596109375,0.09814535826444626,-0.09191470593214035,0.19182701408863068
1761467203950092300,8.60609228515625,0.07006212323904037,-0.08663610368967056,0.20624083280563354
1761467203960075300,8.6160751953125,0.02388744056224823,-0.055885378271341324,0.2183758020401001
1761467203970058200,8.626058349609375,-0.005109836347401142,-0.008689966052770615,0.23960046470165253
1761467203980041200,8.636041259765625,-0.031873539090156555,0.03783652186393738,0.25616294145584106
1761467203990024400,8.6460244140625,-0.03966785967350006,0.07800707221031189,0.26874852180480957
1761467204000006100,8.656006103515624,-0.03881698101758957,0.10249936580657959,0.27998918294906616
1761467204009989400,8.6659892578125,-0.022165294736623764,0.10818513482809067,0.29766207933425903
1761467204019972400,8.675972412109376,-0.0029969257302582264,0.10835477709770203,0.30986976623535156
1761467204029955000,8.685955078125,0.010242098942399025,0.10055413842201233,0.3274783790111542
1761467204039938300,8.695938232421875,0.01569944992661476,0.07904325425624847,0.3451455235481262
1761467204049921300,8.70592138671875,0.016277901828289032,0.05987074226140976,0.35566583275794983
1761467204059904300,8.715904296875,0.005689173936843872,0.030814852565526962,0.3739047348499298
1761467204069887200,8.72588720703125,0.0017476808279752731,0.00311973225325346,0.39337748289108276
1761467204079870200,8.7358701171875,-0.0005410397425293922,-0.0022518637124449015,0.4022713899612427
1761467204089853200,8.745853271484375,-0.00827682577073574,0.012479886412620544,0.4092647135257721
1761467204099835100,8.755835205078125,-0.006540977396070957,0.036208122968673706,0.4174390435218811
1761467204109818000,8.765818115234374,-0.008029507473111153,0.047824934124946594,0.40999725461006165
1761467204119801300,8.77580126953125,-0.004326381254941225,0.06690781563520432,0.3998359441757202
1761467204129784300,8.785784423828124,-0.004903591237962246,0.09759509563446045,0.38580793142318726
1761467204139767300,8.795767333984376,-0.004643932916224003,0.12074942141771317,0.3674126863479614
1761467204149750300,8.805750244140626,-0.0029588532634079456,0.12235172092914581,0.3657819628715515
1761467204159733200,8.815733154296876,-0.014507917687296867,0.09977956116199493,0.381474107503891
1761467204169716500,8.825716552734375,-0.025019293650984764,0.074094258248806,0.39951762557029724
1761467204179699200,8.83569921875,-0.04454425722360611,0.06883131712675095,0.3989279866218567
1761467204189682200,8.84568212890625,-0.060757242143154144,0.09637830406427383,0.39351385831832886
1761467204199664400,8.855664306640625,-0.07908911257982254,0.1460244208574295,0.37052997946739197
1761467204209647000,8.865647216796875,-0.10018008947372437,0.1902015060186386,0.34009355306625366
1761467204219630300,8.87563037109375,-0.11429191380739212,0.2285877764225006,0.31154873967170715
1761467204229613300,8.88561328125,-0.12901006639003754,0.2666674256324768,0.2811368405818939
1761467204239596300,8.89559619140625,-0.13457366824150085,0.30368348956108093,0.2602856159210205
1761467204249579300,8.905579345703124,-0.14216510951519012,0.33353614807128906,0.2640613317489624
1761467204259562200,8.915562255859374,-0.14747118949890137,0.3576694428920746,0.27833083271980286
1761467204269545200,8.925545166015626,-0.15236766636371613,0.37665438652038574,0.2979518473148346
1761467204279528200,8.935528076171876,-0.15325023233890533,0.3929119110107422,0.3114929497241974
1761467204289511200,8.94551123046875,-0.14828509092330933,0.40123435854911804,0.3205118775367737
1761467204299493400,8.955493408203125,-0.14666935801506042,0.40818068385124207,0.3389366865158081
1761467204309476000,8.96547607421875,-0.15121668577194214,0.4098856449127197,0.35984617471694946
1761467204319459000,8.975458984375,-0.1515817940235138,0.37533673644065857,0.42145758867263794
1761467204329442300,8.9854423828125,-0.13686326146125793,0.3145672380924225,0.4838249087333679
1761467204339425300,8.99542529296875,-0.15677545964717865,0.22396117448806763,0.4777313470840454
1761467204349408300,9.005408203125,-0.1642448604106903,0.17038019001483917,0.45553869009017944
1761467204359391200,9.01539111328125,-0.16803348064422607,0.15616557002067566,0.42157140374183655
1761467204369374200,9.025374267578124,-0.17574192583560944,0.16685041785240173,0.38239651918411255
1761467204379357400,9.035357421875,-0.19068226218223572,0.1845196932554245,0.3565715551376343
1761467204389339100,9.045339111328126,-0.20568570494651794,0.2091689109802246,0.3557943105697632
1761467204399322400,9.055322265625,-0.22891885042190552,0.22497664391994476,0.37120547890663147
1761467204409305300,9.065305419921875,-0.25129610300064087,0.22928288578987122,0.39930638670921326
1761467204419288000,9.0752880859375,-0.28427910804748535,0.24452975392341614,0.42335259914398193
1761467204429271300,9.085271240234375,-0.30312034487724304,0.25839224457740784,0.4448414742946625
1761467204439254300,9.095254150390625,-0.30820992588996887,0.2691314220428467,0.4739586114883423
1761467204449237200,9.1052373046875,-0.31778907775878906,0.2608035206794739,0.49163830280303955
