time,seconds_elapsed,z,y,x
1761467165412125200,0.115125244140625,0.13482317328453064,-0.2271386682987213,-0.1701362431049347
1761467165422108200,0.125108154296875,0.15435905754566193,-0.24522365629673004,-0.15869876742362976
1761467165432091100,0.135091064453125,0.16801013052463531,-0.22955799102783203,-0.14193953573703766
1761467165442073000,0.145072998046875,0.17752240598201752,-0.2001657485961914,-0.1106167659163475
1761467165452056000,0.15505615234375,0.1783403903245926,-0.18015140295028687,-0.07275630533695221
1761467165462039300,0.165039306640625,0.16843421757221222,-0.17059758305549622,-0.03692054748535156
1761467165472022300,0.175022216796875,0.15283814072608948,-0.18152649700641632,0.001239115372300148
1761467165482005000,0.1850048828125,0.12091215699911118,-0.18446876108646393,0.04223155602812767
1761467165491988200,0.19498828125,0.08488310873508453,-0.18047529458999634,0.07911605387926102
1761467165501971200,0.20497119140625,0.03327184543013573,-0.1659405678510666,0.10027805715799332
1761467165511954400,0.214954345703125,-0.013756383210420609,-0.14215560257434845,0.11012803018093109
1761467165521937200,0.224937255859375,-0.05386705324053764,-0.10199673473834991,0.10992909222841263
1761467165531919400,0.23491943359375,-0.08240484446287155,-0.056946199387311935,0.10611598193645477
1761467165541902300,0.24490234375,-0.1012730747461319,-0.0009806682355701923,0.0969400629401207
1761467165551885000,0.254885009765625,-0.10868380218744278,0.05185183882713318,0.09176503866910934
1761467165561868300,0.264868408203125,-0.10731706768274307,0.10975668579339981,0.09083160012960434
1761467165571851300,0.274851318359375,-0.11001580953598022,0.14317308366298676,0.10029564052820206
1761467165581834200,0.284834228515625,-0.10599017143249512,0.18092897534370422,0.12386754155158997
1761467165591817200,0.294817138671875,-0.0930214375257492,0.22000516951084137,0.14881613850593567
1761467165601800200,0.30480029296875,-0.08294909447431564,0.24416722357273102,0.16852591931819916
1761467165611782400,0.314782470703125,-0.060138750821352005,0.26908618211746216,0.17621758580207825
1761467165621765000,0.32476513671875,-0.036295998841524124,0.27202337980270386,0.17803652584552765
1761467165631748000,0.334748046875,-0.0214349627494812,0.2680141031742096,0.16923628747463226
1761467165641731300,0.3447314453125,-0.010731983929872513,0.26323720812797546,0.16114987432956696
1761467165651714300,0.35471435546875,0.013052978552877903,0.2565871775150299,0.14690084755420685
1761467165661697000,0.364697021484375,0.03339153900742531,0.2466072291135788,0.13699789345264435
1761467165671680300,0.37468017578125,0.05426924675703049,0.21639442443847656,0.1288130134344101
1761467165681663200,0.384663330078125,0.05477577820420265,0.1639128476381302,0.1287485659122467
1761467165691645200,0.394645263671875,0.050783902406692505,0.10716475546360016,0.14377419650554657
1761467165701628200,0.404628173828125,0.048621684312820435,0.07295965403318405,0.16963616013526917
1761467165711611400,0.414611328125,0.0464458242058754,0.07805496454238892,0.19275116920471191
1761467165721594000,0.424593994140625,0.049138277769088745,0.08956994116306305,0.20887048542499542
1761467165731577000,0.4345771484375,0.05006541311740875,0.11008883267641068,0.22116295993328094
1761467165741560300,0.444560302734375,0.05250274017453194,0.14016711711883545,0.23578397929668427
1761467165751543300,0.454543212890625,0.05979610234498978,0.16725265979766846,0.2571769058704376
1761467165761526000,0.464526123046875,0.057386208325624466,0.18080148100852966,0.28357523679733276
1761467165771509200,0.47450927734375,0.05118916556239128,0.19627274572849274,0.2981128692626953
1761467165781491200,0.4844912109375,0.03824833407998085,0.22686049342155457,0.28841495513916016
1761467165791474200,0.49447412109375,0.021430738270282745,0.264807790517807,0.2691100537776947
1761467165801457200,0.50445703125,-0.0007999995723366737,0.3067456781864166,0.2620140612125397
1761467165811440000,0.514440185546875,-0.028845883905887604,0.3142828643321991,0.2659253776073456
1761467165821423400,0.52442333984375,-0.056171514093875885,0.3258756101131439,0.2825440466403961
1761467165831406000,0.534406005859375,-0.07308213412761688,0.3413386642932892,0.2957756519317627
1761467165841389000,0.54438916015625,-0.08467727154493332,0.37465906143188477,0.2927476167678833
1761467165851372300,0.554372314453125,-0.10153350234031677,0.40140366554260254,0.2774161398410797
1761467165861354200,0.564354248046875,-0.1178315207362175,0.4081055223941803,0.2698354423046112
1761467165871337200,0.574337158203125,-0.14473780989646912,0.4017483592033386,0.26629069447517395
1761467165881320200,0.5843203125,-0.14680761098861694,0.382815420627594,0.2856220304965973
1761467165891303400,0.594303466796875,-0.15917359292507172,0.3649699091911316,0.3187843859195709
1761467165901286100,0.6042861328125,-0.15713360905647278,0.3443988561630249,0.32401907444000244
1761467165911269000,0.61426904296875,-0.14752402901649475,0.3076099455356598,0.29977574944496155
1761467165921252400,0.62425244140625,-0.1291130632162094,0.2538734972476959,0.2819024622440338
1761467165931235300,0.6342353515625,-0.11867264658212662,0.20259185135364532,0.2709176540374756
1761467165941217300,0.64421728515625,-0.10794570297002792,0.15896688401699066,0.2611049711704254
1761467165951200300,0.6542001953125,-0.11029000580310822,0.13263732194900513,0.2549044191837311
1761467165961183200,0.664183349609375,-0.11516572535037994,0.11583675444126129,0.2553126811981201
1761467165971166200,0.674166259765625,-0.13144968450069427,0.10806102305650711,0.2637597620487213
1761467165981149200,0.684149169921875,-0.14858046174049377,0.11640257388353348,0.27479296922683716
1761467165991132200,0.694132080078125,-0.16403543949127197,0.13345009088516235,0.2994270622730255
1761467166001115400,0.704115478515625,-0.1789185106754303,0.15074066817760468,0.3247867524623871
1761467166011098000,0.71409814453125,-0.18943262100219727,0.16316628456115723,0.34023967385292053
1761467166021080300,0.724080322265625,-0.20391248166561127,0.17461735010147095,0.35654300451278687
1761467166031063300,0.734063232421875,-0.20858250558376312,0.18825890123844147,0.37506622076034546
1761467166041046000,0.7440458984375,-0.2244967669248581,0.19705559313297272,0.3686341345310211
1761467166051029200,0.754029296875,-0.23821765184402466,0.21903972327709198,0.35863253474235535
1761467166061012200,0.76401220703125,-0.25112706422805786,0.22719457745552063,0.33816057443618774
1761467166070995500,0.773995361328125,-0.2718241512775421,0.2435140609741211,0.33002206683158875
1761467166080978200,0.783978271484375,-0.2834451198577881,0.2532809376716614,0.3295362889766693
1761467166090961200,0.793961181640625,-0.2998729944229126,0.2620459496974945,0.3489214777946472
1761467166100943400,0.803943359375,-0.31648343801498413,0.27627310156822205,0.3714406192302704
1761467166110926000,0.813926025390625,-0.3360498547554016,0.28945496678352356,0.3991070091724396
1761467166120909300,0.823909423828125,-0.35090550780296326,0.3060869574546814,0.42772215604782104
1761467166130892300,0.833892333984375,-0.35761716961860657,0.305602490901947,0.44175389409065247
1761467166140875000,0.843875,-0.3509877622127533,0.29903727769851685,0.4380457103252411
1761467166150858200,0.853858154296875,-0.3283340632915497,0.2952055335044861,0.420793354511261
1761467166160841200,0.86384130859375,-0.30766844749450684,0.28225913643836975,0.4071044325828552
1761467166170824200,0.87382421875,-0.2713873088359833,0.27861860394477844,0.4090854227542877
1761467166180806100,0.88380615234375,-0.23925547301769257,0.27305448055267334,0.41048651933670044
1761467166190789000,0.8937890625,-0.22464744746685028,0.24958224594593048,0.4027755558490753
1761467166200772400,0.9037724609375,-0.22499631345272064,0.21937240660190582,0.39494720101356506
1761467166210755000,0.913755126953125,-0.24082735180854797,0.2022521048784256,0.39937102794647217
1761467166220738000,0.923738037109375,-0.24164414405822754,0.2452312707901001,0.41452816128730774
1761467166230721300,0.93372119140625,-0.23731495440006256,0.3496745228767395,0.4001934230327606
1761467166240704300,0.943704345703125,-0.20983752608299255,0.45573651790618896,0.3751637041568756
1761467166250687200,0.953687255859375,-0.1738469898700714,0.47196030616760254,0.37057870626449585
1761467166260669200,0.963669189453125,-0.13472968339920044,0.4031223952770233,0.3940752446651459
1761467166270652400,0.97365234375,-0.10232677310705185,0.3110541105270386,0.43707942962646484
1761467166280635100,0.98363525390625,-0.08878513425588608,0.22938133776187897,0.4654458165168762
1761467166290618000,0.9936181640625,-0.08348841220140457,0.1846664696931839,0.48261910676956177
1761467166300601300,1.003601318359375,-0.0990053191781044,0.1429339349269867,0.5023605823516846
1761467166310584300,1.013584228515625,-0.12473495304584503,0.09699448943138123,0.5314708352088928
1761467166320567000,1.023567138671875,-0.16060826182365417,0.055120278149843216,0.5564448833465576
1761467166330550300,1.03355029296875,-0.1961764395236969,0.028563514351844788,0.5683770775794983
1761467166340532200,1.0435322265625,-0.21607345342636108,-0.001468154601752758,0.5768951773643494
1761467166350515200,1.05351513671875,-0.22361944615840912,-0.04113655164837837,0.5771002769470215
1761467166360498200,1.063498291015625,-0.23913449048995972,-0.07928153872489929,0.5715941786766052
1761467166370481200,1.073481201171875,-0.2406517118215561,-0.10385040193796158,0.557561993598938
1761467166380464400,1.08346435546875,-0.24375508725643158,-0.10563898086547852,0.5419726371765137
1761467166390447000,1.093447021484375,-0.2475159466266632,-0.10914818197488785,0.5137234926223755
1761467166400430000,1.10343017578125,-0.24487140774726868,-0.12016594409942627,0.48704949021339417
1761467166410413300,1.113413330078125,-0.24953684210777283,-0.1246241107583046,0.4638300836086273
1761467166420395000,1.12339501953125,-0.24382860958576202,-0.12208079546689987,0.45462217926979065
1761467166430378200,1.133378173828125,-0.24123843014240265,-0.10112997144460678,0.4497363567352295
1761467166440361200,1.143361328125,-0.23297277092933655,-0.05803123489022255,0.4370836615562439
1761467166450344400,1.153344482421875,-0.22482140362262726,-0.012578722089529037,0.4169345200061798
1761467166460327200,1.1633271484375,-0.22266237437725067,0.018171202391386032,0.3880850374698639
1761467166470310100,1.17331005859375,-0.22913628816604614,0.0289994478225708,0.3677211403846741
1761467166480293400,1.18329345703125,-0.23724375665187836,0.03454867750406265,0.3585638701915741
1761467166490275000,1.193275146484375,-0.25307390093803406,0.040982745587825775,0.34671398997306824
1761467166500258300,1.20325830078125,-0.265404611825943,0.04828433319926262,0.33723554015159607
1761467166510241300,1.2132412109375,-0.2741276025772095,0.029096271842718124,0.3328661620616913
1761467166520224000,1.22322412109375,-0.2879536747932434,0.001042800024151802,0.33892032504081726
1761467166530207200,1.233207275390625,-0.3093775510787964,-0.019408410415053368,0.35108765959739685
1761467166540190200,1.243190185546875,-0.3286955952644348,-0.027950499206781387,0.3589935302734375
1761467166550173200,1.253173095703125,-0.3469006419181824,-0.04104885086417198,0.3673819601535797
1761467166560156200,1.26315625,-0.35333484411239624,-0.07232288271188736,0.37335172295570374
1761467166570138000,1.27313818359375,-0.3730946481227875,-0.12315773218870163,0.3976905345916748
1761467166580121300,1.283121337890625,-0.3777652978897095,-0.1738366186618805,0.42921462655067444
1761467166590104000,1.29310400390625,-0.39971891045570374,-0.20115183293819427,0.4580113887786865
1761467166600087000,1.303087158203125,-0.42180129885673523,-0.17498813569545746,0.47467344999313354
1761467166610070300,1.3130703125,-0.44774678349494934,-0.11828074604272842,0.4720517098903656
1761467166620053200,1.32305322265625,-0.4796871244907379,-0.06480606645345688,0.4613892138004303
1761467166630036200,1.3330361328125,-0.5094985365867615,-0.027547458186745644,0.45013144612312317
1761467166640019200,1.343019287109375,-0.5316397547721863,-0.003512162249535322,0.45334509015083313
1761467166650001400,1.35300146484375,-0.5374252200126648,0.032660942524671555,0.4621758460998535
1761467166659984100,1.362984130859375,-0.5314951539039612,0.08464211970567703,0.47525835037231445
1761467166669967000,1.372967041015625,-0.525334358215332,0.1465933471918106,0.48821648955345154
1761467166679950300,1.382950439453125,-0.5155221819877625,0.18870218098163605,0.5030732154846191
1761467166689933300,1.392933349609375,-0.5154844522476196,0.20588693022727966,0.5160371661186218
1761467166699916000,1.402916015625,-0.5106931328773499,0.1913335621356964,0.5233629941940308
1761467166709899300,1.412899169921875,-0.5029429793357849,0.16902142763137817,0.5187293291091919
1761467166719882200,1.42288232421875,-0.5032439231872559,0.1657196432352066,0.5002235770225525
1761467166729864200,1.4328642578125,-0.5049631595611572,0.17375339567661285,0.4833475351333618
1761467166739847200,1.44284716796875,-0.5056209564208984,0.1952701359987259,0.465326726436615
1761467166749830100,1.452830078125,-0.5032771825790405,0.2371385544538498,0.4559856057167053
1761467166759813400,1.4628134765625,-0.48955419659614563,0.287535697221756,0.4545546770095825
1761467166769796000,1.472796142578125,-0.4810165464878082,0.3081727623939514,0.448924720287323
1761467166779779000,1.482779052734375,-0.45985934138298035,0.31060636043548584,0.43559184670448303
1761467166789762300,1.49276220703125,-0.43850407004356384,0.3193538188934326,0.416818767786026
1761467166799745300,1.502745361328125,-0.41565388441085815,0.32848259806632996,0.39607328176498413
1761467166809727200,1.512727294921875,-0.39087817072868347,0.3262440264225006,0.3832644522190094
1761467166819710200,1.522710205078125,-0.3668404817581177,0.2890934646129608,0.3600430190563202
1761467166829693400,1.532693359375,-0.3351176381111145,0.23302946984767914,0.32871657609939575
1761467166839676200,1.54267626953125,-0.3033173680305481,0.18470081686973572,0.29238438606262207
1761467166849659100,1.5526591796875,-0.2793984115123749,0.15295735001564026,0.2598061263561249
1761467166859642400,1.562642333984375,-0.25417134165763855,0.1362239122390747,0.22696107625961304
1761467166869625300,1.572625244140625,-0.2310810089111328,0.1454397588968277,0.1917707324028015
1761467166879607300,1.582607177734375,-0.19707244634628296,0.139492928981781,0.16798098385334015
1761467166889590300,1.59259033203125,-0.17173072695732117,0.1059529259800911,0.1451508104801178
1761467166899573200,1.6025732421875,-0.1576165109872818,0.056975528597831726,0.1196499764919281
1761467166909556200,1.61255615234375,-0.14664342999458313,0.0045760381035506725,0.10485716164112091
1761467166919539200,1.622539306640625,-0.13012303411960602,-0.03382354974746704,0.1098007932305336
1761467166929522200,1.632522216796875,-0.12256279587745667,-0.052730854600667953,0.13009431958198547
1761467166939505200,1.642505126953125,-0.12280699610710144,-0.06816413998603821,0.16050682961940765
1761467166949488000,1.652488037109375,-0.11241185665130615,-0.07305749505758286,0.1896180659532547
1761467166959470300,1.66247021484375,-0.09419476985931396,-0.08310054242610931,0.21336360275745392
1761467166969453000,1.672453125,-0.0622088685631752,-0.10243429243564606,0.2180318534374237
1761467166979436000,1.68243603515625,-0.021497927606105804,-0.12374889850616455,0.2139420360326767
1761467166989419300,1.692419189453125,0.010215943679213524,-0.15740983188152313,0.21509051322937012
1761467166999402200,1.70240234375,0.036573246121406555,-0.18848413228988647,0.22901272773742676
1761467167009385200,1.71238525390625,0.049715861678123474,-0.20657283067703247,0.24103082716464996
1761467167019368200,1.7223681640625,0.05083838105201721,-0.20943519473075867,0.2407328188419342
1761467167029351200,1.73235107421875,0.050604674965143204,-0.22798292338848114,0.24388010799884796
1761467167039333000,1.7423330078125,0.031191296875476837,-0.279793918132782,0.2577841877937317
1761467167049316000,1.752316162109375,0.005913030821830034,-0.36490514874458313,0.29353657364845276
1761467167059299300,1.76229931640625,-0.024416113272309303,-0.44033119082450867,0.3373274505138397
1761467167069282300,1.7722822265625,-0.0512748621404171,-0.40028929710388184,0.3749759793281555
1761467167079265000,1.78226513671875,-0.06531291455030441,-0.20328490436077118,0.34948021173477173
1761467167089248300,1.792248291015625,-0.057891037315130234,0.031143391504883766,0.2857688367366791
1761467167099231200,1.802231201171875,-0.027228735387325287,0.11139695346355438,0.2512071430683136
1761467167109213200,1.812213134765625,0.01686146855354309,-0.0035062150564044714,0.2728724181652069
1761467167119196200,1.822196044921875,0.044626522809267044,-0.18903851509094238,0.2967577874660492
1761467167129179100,1.83217919921875,0.057008735835552216,-0.3335568606853485,0.29520392417907715
1761467167139162400,1.842162353515625,0.03827393054962158,-0.40510642528533936,0.278033971786499
1761467167149145000,1.85214501953125,-0.0006554350256919861,-0.42402133345603943,0.26693519949913025
1761467167159128000,1.862128173828125,-0.04328145831823349,-0.4013679325580597,0.2581441104412079
1761467167169111300,1.872111328125,-0.09335120767354965,-0.3796926438808441,0.2449726164340973
1761467167179094300,1.88209423828125,-0.1310890018939972,-0.3417934775352478,0.23518869280815125
1761467167189076200,1.892076171875,-0.1685260534286499,-0.2909763753414154,0.22723130881786346
1761467167199059200,1.90205908203125,-0.18600304424762726,-0.23689952492713928,0.2243383228778839
1761467167209042400,1.91204248046875,-0.17737232148647308,-0.19928623735904694,0.2218412458896637
1761467167219025200,1.922025146484375,-0.14793772995471954,-0.19083575904369354,0.227517232298851
1761467167229008100,1.932008056640625,-0.11256436258554459,-0.20858125388622284,0.24644187092781067
1761467167238991400,1.941991455078125,-0.07385877519845963,-0.23577184975147247,0.26137101650238037
1761467167248974300,1.951974365234375,-0.051613956689834595,-0.2678130865097046,0.27407753467559814
1761467167258957000,1.96195703125,-0.044214095920324326,-0.28656625747680664,0.28143051266670227
1761467167268939300,1.971939208984375,-0.054950278252363205,-0.2876266837120056,0.28809839487075806
1761467167278922200,1.981922119140625,-0.08486263453960419,-0.26699599623680115,0.2905429005622864
1761467167288905200,1.9919052734375,-0.1240881159901619,-0.21486341953277588,0.28797924518585205
1761467167298888200,2.00188818359375,-0.1577819138765335,-0.15503230690956116,0.29175323247909546
1761467167308871200,2.01187109375,-0.18925759196281433,-0.10103791207075119,0.3004704713821411
1761467167318854400,2.0218544921875,-0.2100057452917099,-0.07383425533771515,0.31128236651420593
1761467167328837000,2.031837158203125,-0.20741543173789978,-0.06931785494089127,0.336066871881485
1761467167338819300,2.0418193359375,-0.19118081033229828,-0.08100700378417969,0.3574206233024597
1761467167348802300,2.05180224609375,-0.168349951505661,-0.08042250573635101,0.39295101165771484
1761467167358785300,2.061785400390625,-0.14316096901893616,-0.06990674883127213,0.42522132396698
1761467167368768300,2.071768310546875,-0.11993154883384705,-0.0354561023414135,0.46670112013816833
1761467167378751200,2.081751220703125,-0.10445831716060638,-0.004455308895558119,0.5066970586776733
1761467167388734200,2.091734130859375,-0.09687621146440506,0.0174284465610981,0.5415680408477783
1761467167398717200,2.10171728515625,-0.09755159169435501,0.03968048468232155,0.5792222619056702
1761467167408700200,2.1117001953125,-0.10383869707584381,0.06728973239660263,0.607875645160675
1761467167418682000,2.12168212890625,-0.10546348989009857,0.0752595067024231,0.6304043531417847
1761467167428665000,2.1316650390625,-0.11488843709230423,0.05905716121196747,0.6593708992004395
1761467167438648300,2.1416484375,-0.11891193687915802,0.030208203941583633,0.6815577149391174
1761467167448631300,2.15163134765625,-0.12879139184951782,0.025399113073945045,0.7088721990585327
1761467167458614000,2.161614013671875,-0.15056033432483673,0.0332581028342247,0.715786874294281
1761467167468597200,2.17159716796875,-0.17219685018062592,0.02855447307229042,0.7195203900337219
1761467167478580200,2.181580322265625,-0.19713975489139557,0.028169114142656326,0.7334761619567871
1761467167488562200,2.191562255859375,-0.2425394505262375,0.045628227293491364,0.756174623966217
1761467167498545200,2.201545166015625,-0.2843098044395447,0.0958772823214531,0.7753229737281799
1761467167508528000,2.211528076171875,-0.33228224515914917,0.15908096730709076,0.7888396978378296
1761467167518511400,2.221511474609375,-0.37420254945755005,0.2343706637620926,0.7946041226387024
1761467167528494000,2.231494140625,-0.40037277340888977,0.29501208662986755,0.7862147688865662
1761467167538477000,2.24147705078125,-0.41352933645248413,0.31091007590293884,0.7679463028907776
1761467167548460300,2.251460205078125,-0.4214491844177246,0.3188299238681793,0.7579337954521179
1761467167558443300,2.261443359375,-0.41572633385658264,0.3158820867538452,0.751726508140564
1761467167568425200,2.27142529296875,-0.4083610475063324,0.3147954046726227,0.7468473315238953
1761467167578408200,2.281408203125,-0.40061497688293457,0.30886054039001465,0.7460771799087524
1761467167588391400,2.291391357421875,-0.39399272203445435,0.30697101354599,0.7550989389419556
1761467167598374100,2.3013740234375,-0.3868296146392822,0.28555598855018616,0.7571424245834351
1761467167608357000,2.311357177734375,-0.3877447545528412,0.2568526268005371,0.7494372129440308
1761467167618340400,2.32134033203125,-0.39164841175079346,0.23389749228954315,0.7543110251426697
1761467167628323300,2.3313232421875,-0.40090179443359375,0.23378312587738037,0.7508108615875244
1761467167638306000,2.34130615234375,-0.4028938412666321,0.24521447718143463,0.7505437731742859
1761467167648288300,2.351288330078125,-0.414499968290329,0.2587011754512787,0.7608574032783508
1761467167658271200,2.361271240234375,-0.4202590584754944,0.2622016370296478,0.779833197593689
1761467167668254200,2.371254150390625,-0.440855473279953,0.255045622587204,0.8072684407234192
1761467167678237200,2.3812373046875,-0.4667927920818329,0.2584659159183502,0.8324781656265259
1761467167688220200,2.39122021484375,-0.4853668212890625,0.272301584482193,0.858120858669281
1761467167698203400,2.401203369140625,-0.5101046562194824,0.27416685223579407,0.8718550205230713
1761467167708186000,2.41118603515625,-0.5392193794250488,0.2597804665565491,0.8716179728507996
1761467167718168300,2.421168212890625,-0.5702002048492432,0.24349762499332428,0.8759272694587708
1761467167728151300,2.4311513671875,-0.5956671237945557,0.2271476536989212,0.8828819990158081
1761467167738134300,2.44113427734375,-0.6226544976234436,0.20430386066436768,0.8841955065727234
1761467167748117200,2.4511171875,-0.6367594003677368,0.19595319032669067,0.8948321342468262
1761467167758100200,2.461100341796875,-0.6449565887451172,0.19893352687358856,0.8999927639961243
1761467167768083200,2.471083251953125,-0.6479312181472778,0.20664769411087036,0.9061866998672485
1761467167778066200,2.481066162109375,-0.6537923216819763,0.20183615386486053,0.9126855731010437
1761467167788048400,2.49104833984375,-0.6563206315040588,0.19886143505573273,0.9175185561180115
1761467167798031400,2.50103125,-0.6589787006378174,0.20474888384342194,0.9136140942573547
1761467167808014000,2.51101416015625,-0.6575514674186707,0.21240739524364471,0.9036054015159607
1761467167817997000,2.5209970703125,-0.657299816608429,0.2106044441461563,0.8902304768562317
1761467167827980000,2.53097998046875,-0.6599124073982239,0.2064126878976822,0.8859026432037354
1761467167837963000,2.540962890625,-0.664920449256897,0.2101576179265976,0.8888832926750183
1761467167847946200,2.5509462890625,-0.6677457690238953,0.22493262588977814,0.8930402398109436
1761467167857929000,2.560928955078125,-0.6719825863838196,0.23522786796092987,0.902640163898468
1761467167867911200,2.5709111328125,-0.6728648543357849,0.2510718107223511,0.907131016254425
1761467167877894100,2.58089404296875,-0.6673174500465393,0.24424205720424652,0.8973186016082764
1761467167887876900,2.590876953125,-0.6696293354034424,0.23214563727378845,0.8854501843452454
1761467167897860000,2.600860107421875,-0.6769487857818604,0.22959326207637787,0.8761022090911865
1761467167907843000,2.610843017578125,-0.6844340562820435,0.24239787459373474,0.8654522895812988
1761467167917826000,2.620825927734375,-0.6906384229660034,0.2673431932926178,0.8547375798225403
1761467167927809000,2.63080908203125,-0.6886100172996521,0.29560232162475586,0.8490756154060364
1761467167937791200,2.640791259765625,-0.6785147786140442,0.28604984283447266,0.8295554518699646
1761467167947774200,2.650774169921875,-0.6678959131240845,0.24653415381908417,0.8113964796066284
1761467167957757000,2.6607568359375,-0.6523592472076416,0.1869099736213684,0.7946390509605408
1761467167967740200,2.670740234375,-0.6390050649642944,0.14691422879695892,0.7985841035842896
1761467167977723100,2.68072314453125,-0.6300491690635681,0.12578816711902618,0.7983060479164124
1761467167987706000,2.6907060546875,-0.629764199256897,0.12376410514116287,0.8018531203269958
1761467167997689000,2.700689208984375,-0.6411324739456177,0.13899604976177216,0.8041418194770813
1761467168007672000,2.710672119140625,-0.6585692763328552,0.16421355307102203,0.7950699329376221
1761467168017654300,2.720654296875,-0.6753597259521484,0.18199361860752106,0.7847933173179626
1761467168027637000,2.730636962890625,-0.6902223229408264,0.17077630758285522,0.7651042938232422
1761467168037620000,2.740619873046875,-0.7042598724365234,0.1351831555366516,0.7525815963745117
1761467168047603200,2.750603271484375,-0.7179452776908875,0.11210794001817703,0.7419137358665466
1761467168057586200,2.760586181640625,-0.7249776124954224,0.10118791460990906,0.7432405352592468
1761467168067569000,2.77056884765625,-0.7259199023246765,0.11076841503381729,0.7523676156997681
1761467168077552000,2.78055224609375,-0.7160694003105164,0.11547955125570297,0.7692925333976746
1761467168087534000,2.7905341796875,-0.7118585705757141,0.10792328417301178,0.7908775806427002
1761467168097517000,2.80051708984375,-0.7071005702018738,0.09460587799549103,0.8149163722991943
1761467168107500000,2.8105,-0.6995468735694885,0.07909595221281052,0.8341573476791382
1761467168117483300,2.820483154296875,-0.7062076926231384,0.06821826845407486,0.8428994417190552
1761467168127466200,2.83046630859375,-0.7151374816894531,0.07110946625471115,0.8410631418228149
1761467168137449000,2.840448974609375,-0.7227285504341125,0.09888757020235062,0.8219349980354309
1761467168147432200,2.85043212890625,-0.7309600710868835,0.14582087099552155,0.8072523474693298
1761467168157414100,2.8604140625,-0.7347111105918884,0.1897241324186325,0.7912725806236267
1761467168167397000,2.870397216796875,-0.7307348847389221,0.21948321163654327,0.7664593458175659
1761467168177380000,2.880380126953125,-0.7312027812004089,0.24270758032798767,0.7462888360023499
1761467168187363000,2.890363037109375,-0.7219530344009399,0.2501783072948456,0.7280174493789673
1761467168197346000,2.900345947265625,-0.6998397707939148,0.2589627504348755,0.7182160019874573
1761467168207329000,2.9103291015625,-0.6757199168205261,0.26935839653015137,0.7079516053199768
1761467168217312000,2.92031201171875,-0.6502332091331482,0.2746059000492096,0.6953971982002258
1761467168227295200,2.930295166015625,-0.618723452091217,0.2691251337528229,0.6778581738471985
1761467168237277000,2.94027685546875,-0.5819624662399292,0.2791396975517273,0.653378427028656
1761467168247260200,2.95026025390625,-0.5473352670669556,0.30622273683547974,0.6346908807754517
1761467168257243100,2.9602431640625,-0.5127086043357849,0.3577972650527954,0.6142969727516174
1761467168267225900,2.970225830078125,-0.48196837306022644,0.43091121315956116,0.5909886360168457
1761467168277209000,2.980208984375,-0.457271009683609,0.5013260245323181,0.5686127543449402
1761467168287192000,2.990192138671875,-0.4414510130882263,0.5302128791809082,0.5424404144287109
1761467168297175300,3.00017529296875,-0.4260171949863434,0.5012105107307434,0.5195958018302917
1761467168307157000,3.010156982421875,-0.39501848816871643,0.44355833530426025,0.4817114770412445
1761467168317140200,3.02014013671875,-0.38517358899116516,0.3512726128101349,0.4487095773220062
1761467168327123200,3.030123291015625,-0.3573356866836548,0.2594187259674072,0.39942488074302673
1761467168337106000,3.04010595703125,-0.32674023509025574,0.1819968968629837,0.3426116704940796
1761467168347089200,3.050089111328125,-0.2927091717720032,0.15469752252101898,0.2819397747516632
1761467168357072100,3.060072021484375,-0.2665904760360718,0.17417001724243164,0.22457259893417358
1761467168367055000,3.07005517578125,-0.24032427370548248,0.1809326559305191,0.19121497869491577
1761467168377037000,3.080037109375,-0.2288479208946228,0.15173056721687317,0.21758240461349487
1761467168387020000,3.09002001953125,-0.24717462062835693,0.07673724740743637,0.2809875011444092
1761467168397003300,3.100003173828125,-0.3014056384563446,-0.008978188969194889,0.35122382640838623
1761467168406986000,3.109986083984375,-0.3792250156402588,-0.04562694579362869,0.42420586943626404
1761467168416969000,3.119968994140625,-0.4571150243282318,-0.000550546683371067,0.49359744787216187
1761467168426952200,3.1299521484375,-0.5113812685012817,0.08768046647310257,0.5437718629837036
1761467168436935200,3.13993505859375,-0.5415796637535095,0.19057808816432953,0.5806582570075989
1761467168446917000,3.149917236328125,-0.5536682605743408,0.27854469418525696,0.6122183203697205
1761467168456900000,3.159900146484375,-0.5485621690750122,0.34812694787979126,0.6275267004966736
1761467168466883000,3.169883056640625,-0.5155789852142334,0.3805720806121826,0.6225783228874207
1761467168476866000,3.179865966796875,-0.4681118428707123,0.37319085001945496,0.5885108709335327
1761467168486849000,3.18984912109375,-0.41088300943374634,0.33909156918525696,0.5284678936004639
1761467168496832300,3.199832275390625,-0.3498348295688629,0.3016512393951416,0.4717566967010498
1761467168506815200,3.209815185546875,-0.2974391579627991,0.25560879707336426,0.4220394492149353
1761467168516798000,3.2197978515625,-0.2523246705532074,0.21597138047218323,0.3774746358394623
1761467168526780200,3.2297802734375,-0.21963216364383698,0.17714813351631165,0.34280166029930115
1761467168536763100,3.23976318359375,-0.21242298185825348,0.14146870374679565,0.3101406693458557
1761467168546746000,3.24974609375,-0.23073959350585938,0.0936092883348465,0.3025439381599426
1761467168556729000,3.25972900390625,-0.250015527009964,0.027329599484801292,0.31554895639419556
1761467168566712000,3.269712158203125,-0.28656208515167236,-0.031465061008930206,0.3538690507411957
1761467168576695300,3.2796953125,-0.3345956802368164,-0.05039987340569496,0.39959579706192017
1761467168586678000,3.289677978515625,-0.38359329104423523,-0.011570166796445847,0.4353434145450592
1761467168596660200,3.29966015625,-0.41930416226387024,0.04895602539181709,0.45559197664260864
1761467168606643200,3.309643310546875,-0.4583394527435303,0.11177143454551697,0.48291417956352234
1761467168616626000,3.3196259765625,-0.4849438965320587,0.18180404603481293,0.5136412382125854
1761467168626609200,3.329609130859375,-0.50562983751297,0.24476724863052368,0.5361741781234741
1761467168636592000,3.339592041015625,-0.5168635845184326,0.29484400153160095,0.5510130524635315
1761467168646574800,3.349574951171875,-0.5233138799667358,0.32898297905921936,0.5533818006515503
1761467168656558000,3.35955810546875,-0.5139901041984558,0.35296714305877686,0.5422298312187195
1761467168666540000,3.3695400390625,-0.5046581625938416,0.3554409444332123,0.5226536989212036
1761467168676523000,3.37952294921875,-0.4919218420982361,0.34639233350753784,0.5010413527488708
1761467168686506000,3.389506103515625,-0.47558972239494324,0.31822720170021057,0.4691336452960968
1761467168696489200,3.3994892578125,-0.4525637626647949,0.277622789144516,0.43140465021133423
1761467168706472200,3.40947216796875,-0.4385875165462494,0.222659170627594,0.392557293176651
1761467168716455000,3.419454833984375,-0.4294840395450592,0.16468827426433563,0.3624763786792755
1761467168726438100,3.429438232421875,-0.41330769658088684,0.13384482264518738,0.3482501804828644
1761467168736420000,3.439420166015625,-0.3986845314502716,0.1289408653974533,0.3316424489021301
1761467168746403000,3.449403076171875,-0.391300231218338,0.14091946184635162,0.31105586886405945
1761467168756386000,3.459385986328125,-0.3710889518260956,0.147318497300148,0.29567453265190125
1761467168766369000,3.469369140625,-0.3435656726360321,0.12763841450214386,0.2781502306461334
1761467168776352300,3.479352294921875,-0.31742992997169495,0.0674605518579483,0.2582641541957855
1761467168786335000,3.4893349609375,-0.29364556074142456,-0.00026216194964945316,0.2374437153339386
1761467168796318000,3.49931787109375,-0.2746276557445526,-0.07241198420524597,0.22157447040081024
1761467168806304500,3.509304443359375,-0.2566125690937042,-0.09863734990358353,0.17643578350543976
1761467168816287500,3.51928759765625,-0.22079837322235107,-0.10352637618780136,0.1377432495355606
1761467168826270500,3.5292705078125,-0.19746531546115875,-0.10412836074829102,0.10612782090902328
1761467168836253400,3.53925341796875,-0.1711929589509964,-0.0878729596734047,0.07199940830469131
1761467168846236400,3.549236328125,-0.1344711184501648,-0.07323343306779861,0.048829492181539536
1761467168856219600,3.5592197265625,-0.11221642047166824,-0.05307410657405853,0.029857398942112923
1761467168866202400,3.569202392578125,-0.09654208272695541,-0.02713419683277607,0.00996485911309719
1761467168876184600,3.5791845703125,-0.07768770307302475,-0.001609928673133254,-0.005901721306145191
1761467168886167600,3.58916748046875,-0.060453176498413086,0.005666685290634632,-0.019854364916682243
1761467168896150300,3.599150390625,-0.04164300113916397,-0.008542077615857124,-0.028627881780266762
1761467168906133500,3.609133544921875,-0.03242400288581848,-0.04144630208611488,-0.02766006626188755
1761467168916116500,3.619116455078125,-0.027547752484679222,-0.09255582839250565,-0.022989680990576744
1761467168926099500,3.629099365234375,-0.02269224263727665,-0.0967692956328392,-0.006793459877371788
1761467168936082400,3.63908251953125,-0.021460797637701035,-0.08932522684335709,0.012580503709614277
1761467168946065400,3.6490654296875,-0.009309552609920502,-0.07022810727357864,0.016914114356040955
1761467168956047600,3.659047607421875,-0.011481626890599728,-0.043936312198638916,0.01439050305634737
1761467168966030300,3.6690302734375,-0.009117446839809418,-0.006106653716415167,0.011176800355315208
1761467168976013300,3.679013427734375,-0.011182195506989956,-0.02148587629199028,0.006108271889388561
1761467168985996500,3.68899658203125,-0.0217300932854414,-0.05721162632107735,0.019493984058499336
1761467168995979500,3.6989794921875,-0.01740724965929985,-0.1114647388458252,0.05617370083928108
1761467169005962500,3.70896240234375,-0.0183009784668684,-0.18574917316436768,0.08550837635993958
1761467169015945500,3.718945556640625,-0.025902707129716873,-0.25772085785865784,0.11237594485282898
1761467169025927400,3.728927490234375,-0.02618441730737686,-0.2848580777645111,0.13078947365283966
1761467169035910400,3.738910400390625,-0.0433194600045681,-0.2563164532184601,0.12468497455120087
1761467169045893400,3.748893310546875,-0.07316669076681137,-0.1622476577758789,0.09647981077432632
1761467169055876600,3.758876708984375,-0.10354803502559662,-0.017160775139927864,0.033618293702602386
1761467169065859600,3.768859619140625,-0.13142871856689453,0.0962599590420723,-0.040420956909656525
1761467169075842300,3.77884228515625,-0.15817910432815552,0.08934160321950912,-0.09515611082315445
1761467169085825500,3.788825439453125,-0.19115251302719116,-0.08255980163812637,-0.10051506757736206
1761467169095807500,3.798807373046875,-0.211221843957901,-0.37530645728111267,-0.06668733060359955
1761467169105790500,3.80879052734375,-0.23509176075458527,-0.6508892774581909,-0.027551710605621338
1761467169115773400,3.8187734375,-0.2524885833263397,-0.7993679642677307,-0.01674540340900421
1761467169125756400,3.82875634765625,-0.26192721724510193,-0.7866223454475403,-0.016509922221302986
1761467169135739600,3.83873974609375,-0.26768842339515686,-0.6569551825523376,-0.024160385131835938
1761467169145722400,3.848722412109375,-0.2665873169898987,-0.48140639066696167,-0.03526059538125992
1761467169155705300,3.858705322265625,-0.2562558650970459,-0.3107118606567383,-0.029025869444012642
1761467169165687600,3.8686875,-0.2259165346622467,-0.16508400440216064,-0.011703159660100937
1761467169175670300,3.878670166015625,-0.1686399281024933,-0.06420879065990448,-0.004883869551122189
1761467169185653500,3.888653564453125,-0.10447775572538376,-0.017984965816140175,-0.009006010368466377
1761467169195636500,3.898636474609375,-0.030287420377135277,-0.010743564926087856,-0.03803020715713501
1761467169205619500,3.908619384765625,0.058753643184900284,-0.04216901212930679,-0.07134179025888443
1761467169215602400,3.9186025390625,0.128217414021492,-0.11906912177801132,-0.112160325050354
1761467169225585400,3.92858544921875,0.16953256726264954,-0.20014755427837372,-0.14555680751800537
1761467169235567600,3.938567626953125,0.19345255196094513,-0.2564758062362671,-0.14987458288669586
1761467169245550300,3.94855029296875,0.19742175936698914,-0.2618890404701233,-0.14656725525856018
1761467169255533600,3.958533447265625,0.1746240258216858,-0.24717028439044952,-0.1369873285293579
1761467169265516500,3.9685166015625,0.14390164613723755,-0.22392570972442627,-0.12899650633335114
1761467169275499500,3.97849951171875,0.10286951065063477,-0.1988680213689804,-0.11940114200115204
1761467169285482500,3.988482421875,0.062180645763874054,-0.15132254362106323,-0.09746117144823074
1761467169295465500,3.998465576171875,0.03165150061249733,-0.10089211910963058,-0.06633947044610977
1761467169305447700,4.00844775390625,0.014605145901441574,-0.041020289063453674,-0.02540394850075245
1761467169315430400,4.018430419921875,0.022118456661701202,0.001769517781212926,0.021539058536291122
1761467169325413400,4.028413330078125,0.04817115515470505,0.03334273025393486,0.05988767743110657
1761467169335396600,4.038396728515625,0.0910685583949089,0.046418849378824234,0.09130498766899109
1761467169345379300,4.04837939453125,0.13553787767887115,0.03337642922997475,0.11388270556926727
1761467169355362300,4.0583623046875,0.17889679968357086,0.010015444830060005,0.12592871487140656
1761467169365345500,4.068345458984375,0.21784622967243195,-0.010132692754268646,0.12471357733011246
1761467169375327200,4.0783271484375,0.25562822818756104,-0.025900470092892647,0.10386396199464798
1761467169385310500,4.088310546875,0.28681305050849915,-0.041840311139822006,0.08358806371688843
1761467169395293400,4.09829345703125,0.30928879976272583,-0.053809091448783875,0.06894201040267944
1761467169405276400,4.1082763671875,0.30925554037094116,-0.07115858048200607,0.06961726397275925
1761467169415259400,4.11825927734375,0.310504287481308,-0.09568016231060028,0.09085144847631454
1761467169425242400,4.128242431640625,0.28892749547958374,-0.11242570728063583,0.1154283732175827
1761467169435225600,4.1382255859375,0.2516839802265167,-0.10922937840223312,0.1321791410446167
1761467169445207300,4.148207275390625,0.20864157378673553,-0.07172870635986328,0.1356363445520401
1761467169455190500,4.1581904296875,0.1666610985994339,-0.011637668125331402,0.13976344466209412
1761467169465173500,4.168173583984375,0.13358908891677856,0.06186342239379883,0.13982591032981873
1761467169475156500,4.178156494140625,0.11690463870763779,0.1193203255534172,0.14284086227416992
1761467169485139500,4.188139404296875,0.10617545992136002,0.1566917896270752,0.1452830731868744
1761467169495122400,4.198122314453125,0.09892207384109497,0.1767491102218628,0.15161767601966858
1761467169505105400,4.20810546875,0.09229065477848053,0.18941767513751984,0.15240958333015442
1761467169515087400,4.21808740234375,0.09705957770347595,0.2141701728105545,0.1480843424797058
1761467169525070300,4.2280703125,0.09768225252628326,0.2462344914674759,0.1359717845916748
1761467169535053600,4.238053466796875,0.1012391746044159,0.2742144763469696,0.09889020770788193
1761467169545036500,4.24803662109375,0.09837879240512848,0.28985002636909485,0.05873902514576912
1761467169555019300,4.258019287109375,0.09793458133935928,0.31297558546066284,0.03242965415120125
1761467169565002500,4.26800244140625,0.09189079701900482,0.3405238687992096,0.01705070212483406
1761467169574985500,4.2779853515625,0.08853761106729507,0.37207886576652527,0.015384361147880554
1761467169584967400,4.287967529296875,0.08742361515760422,0.4069327116012573,0.019918659701943398
1761467169594950400,4.297950439453125,0.08290156722068787,0.42385923862457275,0.02601916342973709
1761467169604933400,4.307933349609375,0.07917425036430359,0.4174143075942993,0.038097597658634186
1761467169614916600,4.31791650390625,0.07383514940738678,0.4034247398376465,0.04335574060678482
1761467169624899300,4.3278994140625,0.06620606780052185,0.37929242849349976,0.051905855536460876
1761467169634882600,4.337882568359375,0.06007760390639305,0.3511159121990204,0.054603636264801025
1761467169644865500,4.347865478515625,0.05272233486175537,0.32761475443840027,0.045847050845623016
1761467169654847500,4.357847412109375,0.04489530622959137,0.3041938543319702,0.041901845484972
1761467169664830500,4.36783056640625,0.028013182803988457,0.2753158509731293,0.031181951984763145
1761467169674813400,4.3778134765625,0.008212846703827381,0.2242894321680069,0.0277163814753294
1761467169684796700,4.387796630859375,-0.02050809934735298,0.18390309810638428,0.04487793892621994
1761467169694779400,4.397779296875,-0.05550177022814751,0.17365045845508575,0.07903218269348145
1761467169704762400,4.407762451171875,-0.09098692983388901,0.18521006405353546,0.12639299035072327
1761467169714745600,4.41774560546875,-0.1251600682735443,0.2188660353422165,0.17849133908748627
1761467169724727300,4.427727294921875,-0.14128009974956512,0.24519480764865875,0.2242407351732254
1761467169734710500,4.43771044921875,-0.15754428505897522,0.2619119882583618,0.24830664694309235
1761467169744693500,4.447693603515625,-0.18137748539447784,0.255357027053833,0.28169381618499756
1761467169754676500,4.457676513671875,-0.20611000061035156,0.24469372630119324,0.31341925263404846
1761467169764659500,4.467659423828125,-0.23011349141597748,0.2420254498720169,0.3468675911426544
1761467169774642400,4.477642333984375,-0.24860408902168274,0.24422122538089752,0.3644452393054962
1761467169784625400,4.48762548828125,-0.2670532464981079,0.25799402594566345,0.3762342929840088
1761467169794607400,4.497607421875,-0.2859784662723541,0.27369096875190735,0.3799579441547394
1761467169804590300,4.50759033203125,-0.3024250268936157,0.28324440121650696,0.380036860704422
1761467169814568700,4.517568603515625,-0.317914217710495,0.2878282070159912,0.38322731852531433
1761467169824552000,4.527552001953125,-0.3257730007171631,0.29295092821121216,0.37822192907333374
1761467169834535000,4.537534912109375,-0.34127873182296753,0.29806259274482727,0.37186145782470703
1761467169844518000,4.547517822265625,-0.3448145389556885,0.2874085009098053,0.3718225955963135
1761467169854500900,4.5575009765625,-0.3458590507507324,0.2707299292087555,0.37557074427604675
1761467169864482800,4.56748291015625,-0.34692129492759705,0.25077030062675476,0.38121721148490906
1761467169874466000,4.577466064453125,-0.34334519505500793,0.2284892350435257,0.3895036280155182
1761467169884448800,4.58744873046875,-0.3567518889904022,0.21507546305656433,0.3867592215538025
1761467169894432800,4.597432861328125,-0.36230218410491943,0.2022440880537033,0.3863826394081116
1761467169904415700,4.607415771484375,-0.3791612386703491,0.19027523696422577,0.39492881298065186
1761467169914399000,4.61739892578125,-0.3835189640522003,0.17890514433383942,0.3965104818344116
1761467169924380700,4.627380615234375,-0.37541547417640686,0.16004671156406403,0.3889642655849457
1761467169934364000,4.637364013671875,-0.36334124207496643,0.14158673584461212,0.3782399892807007
1761467169944347000,4.647346923828125,-0.3509112596511841,0.1263025850057602,0.3799200654029846
1761467169954329900,4.657329833984375,-0.3457876145839691,0.1217602863907814,0.39804500341415405
1761467169964312800,4.667312744140625,-0.3467934727668762,0.14022865891456604,0.4190899133682251
1761467169974295800,4.6772958984375,-0.33478978276252747,0.21563473343849182,0.4336718022823334
1761467169984279000,4.687279052734375,-0.3146933317184448,0.3271642327308655,0.41475576162338257
1761467169994260700,4.6972607421875,-0.28583213686943054,0.4165697395801544,0.3804771304130554
1761467170004244000,4.707243896484375,-0.2551162838935852,0.39942917227745056,0.363736093044281
1761467170014227000,4.71722705078125,-0.2157057821750641,0.32129549980163574,0.3843793272972107
1761467170024209700,4.727209716796875,-0.17801600694656372,0.2737870514392853,0.4005781412124634
1761467170034193000,4.73719287109375,-0.13959671556949615,0.3072717785835266,0.4026713967323303
1761467170044176000,4.74717578125,-0.12230192869901657,0.3532833755016327,0.39347344636917114
1761467170054158800,4.757158935546875,-0.11827309429645538,0.380158931016922,0.38978976011276245
1761467170064140800,4.767140869140625,-0.13415728509426117,0.36370381712913513,0.396040141582489
1761467170074123800,4.777123779296875,-0.16304299235343933,0.311260849237442,0.4103682339191437
1761467170084107000,4.78710693359375,-0.1953398734331131,0.27073293924331665,0.41849401593208313
1761467170094089700,4.79708984375,-0.22885096073150635,0.2721526622772217,0.40712764859199524
1761467170104072700,4.80707275390625,-0.256499707698822,0.2592635154724121,0.3903077244758606
1761467170114056000,4.817055908203125,-0.28196221590042114,0.22146953642368317,0.3649216592311859
1761467170124039000,4.827038818359375,-0.29247990250587463,0.1756383180618286,0.3452973961830139
1761467170134020900,4.837020751953125,-0.29827335476875305,0.14268170297145844,0.32690829038619995
1761467170144003800,4.84700390625,-0.29042547941207886,0.13069334626197815,0.32505351305007935
1761467170153986800,4.85698681640625,-0.28069666028022766,0.14989259839057922,0.3190787136554718
1761467170163969800,4.8669697265625,-0.26385724544525146,0.17889413237571716,0.3029317557811737
1761467170173952800,4.876952880859375,-0.24547317624092102,0.2143983393907547,0.2807697355747223
1761467170183936000,4.88693603515625,-0.22242861986160278,0.2230244278907776,0.25496047735214233
1761467170193919000,4.8969189453125,-0.20131269097328186,0.21445970237255096,0.2243010699748993
1761467170203901000,4.90690087890625,-0.19232283532619476,0.21173344552516937,0.16727520525455475
1761467170213884000,4.9168837890625,-0.16965481638908386,0.2456653118133545,0.13649439811706543
1761467170223867000,4.926866943359375,-0.15594252943992615,0.27484872937202454,0.0992761105298996
1761467170233849900,4.936849853515625,-0.1506577432155609,0.312165230512619,0.07310310006141663
1761467170243832800,4.946832763671875,-0.14575780928134918,0.31881675124168396,0.054391853511333466
1761467170253815800,4.95681591796875,-0.1476696878671646,0.3056927025318146,0.056621987372636795
1761467170263799000,4.966799072265625,-0.16132891178131104,0.25608745217323303,0.08707021921873093
1761467170273780700,4.97678076171875,-0.1791771501302719,0.18721996247768402,0.12738941609859467
1761467170283764000,4.986763916015625,-0.20743805170059204,0.11746048927307129,0.17236730456352234
1761467170293747000,4.996746826171875,-0.23025575280189514,0.04629070684313774,0.20905420184135437
1761467170303729700,5.006729736328125,-0.2566363513469696,-0.0038812935817986727,0.22683650255203247
1761467170313713000,5.016712890625,-0.27598607540130615,-0.03431430086493492,0.22208568453788757
1761467170323695900,5.02669580078125,-0.29316446185112,-0.047724898904561996,0.19635969400405884
1761467170333677800,5.036677734375,-0.3024927079677582,-0.05300142243504524,0.16808757185935974
1761467170343660800,5.046660888671875,-0.30925023555755615,-0.059465277940034866,0.1272992193698883
1761467170353643800,5.056643798828125,-0.2976660430431366,-0.0698753073811531,0.08927540481090546
1761467170363627000,5.066626953125,-0.2834189236164093,-0.07560140639543533,0.06500955671072006
1761467170373609700,5.076609619140625,-0.25656092166900635,-0.05528867244720459,0.03221193328499794
1761467170383593000,5.086593017578125,-0.22167262434959412,-0.029406454414129257,-0.008033313788473606
1761467170393576000,5.096575927734375,-0.18524643778800964,0.017284618690609932,-0.03938910737633705
1761467170403558000,5.106557861328125,-0.1672656387090683,0.0819697454571724,-0.07714755833148956
1761467170413540900,5.116540771484375,-0.15749981999397278,0.14059977233409882,-0.11136092245578766
1761467170423523800,5.12652392578125,-0.15810243785381317,0.1446867436170578,-0.14259611070156097
1761467170433506800,5.1365068359375,-0.15910804271697998,0.08869323879480362,-0.14752641320228577
1761467170443489800,5.14648974609375,-0.15740841627120972,0.009605348110198975,-0.13975238800048828
1761467170453472800,5.15647265625,-0.15788139402866364,-0.036800235509872437,-0.12345515936613083
1761467170463456000,5.1664560546875,-0.1614733636379242,-0.04028711095452309,-0.11333815008401871
1761467170473437700,5.176437744140625,-0.16375809907913208,-0.016923198476433754,-0.1146918311715126
1761467170483421000,5.1864208984375,-0.16242697834968567,-0.005372492130845785,-0.12627039849758148
1761467170493404000,5.19640380859375,-0.15971028804779053,-0.012548912316560745,-0.1389441192150116
1761467170503386600,5.20638671875,-0.15183262526988983,-0.039946574717760086,-0.15531852841377258
1761467170513369900,5.216369873046875,-0.13716979324817657,-0.06567217409610748,-0.1757175475358963
1761467170523352800,5.226352783203125,-0.12141353636980057,-0.08674611151218414,-0.19130021333694458
1761467170533335800,5.236335693359375,-0.09760887175798416,-0.0887482762336731,-0.2038130760192871
1761467170543317800,5.24631787109375,-0.07541878521442413,-0.10201159119606018,-0.2046278715133667
1761467170553300700,5.25630078125,-0.055208057165145874,-0.11285305768251419,-0.1942250281572342
1761467170563284000,5.266283935546875,-0.03136000782251358,-0.12965431809425354,-0.17864523828029633
1761467170573266700,5.2762666015625,-0.012403363361954689,-0.13301308453083038,-0.17022991180419922
1761467170583250000,5.28625,0.012959012761712074,-0.13009972870349884,-0.16042864322662354
1761467170593233000,5.29623291015625,0.04188467189669609,-0.1484915167093277,-0.15774551033973694
1761467170603214800,5.30621484375,0.06294222921133041,-0.19319835305213928,-0.15341778099536896
1761467170613197800,5.31619775390625,0.08221312612295151,-0.24477633833885193,-0.15013383328914642
1761467170623180800,5.326180908203125,0.09521771967411041,-0.2691877484321594,-0.15398254990577698
1761467170633164000,5.3361640625,0.10047613084316254,-0.26355117559432983,-0.16380241513252258
1761467170643146800,5.346146728515625,0.10764443129301071,-0.26013147830963135,-0.18323883414268494
1761467170653129700,5.356129638671875,0.1191231906414032,-0.2641581594944,-0.20421522855758667
1761467170663113000,5.366113037109375,0.13868820667266846,-0.2827433943748474,-0.21833308041095734
1761467170673094700,5.3760947265625,0.1630587875843048,-0.3000459372997284,-0.23518316447734833
1761467170683078000,5.386077880859375,0.19355958700180054,-0.3097309172153473,-0.24107670783996582
1761467170693060900,5.396060791015625,0.22162529826164246,-0.3088379502296448,-0.23766812682151794
1761467170703043800,5.4060439453125,0.2547113597393036,-0.31460902094841003,-0.2304254025220871
1761467170713026800,5.41602685546875,0.27848726511001587,-0.2937716543674469,-0.23082274198532104
1761467170723009800,5.426009765625,0.29756367206573486,-0.2535226047039032,-0.23619458079338074
1761467170732992800,5.43599267578125,0.31128960847854614,-0.21577681601047516,-0.2490331530570984
1761467170742974700,5.445974609375,0.31853780150413513,-0.2102743238210678,-0.26240724325180054
1761467170752957700,5.455957763671875,0.32027843594551086,-0.2340739220380783,-0.2768551707267761
1761467170762941000,5.46594091796875,0.32849085330963135,-0.2558336555957794,-0.2973599433898926
1761467170772924000,5.475923828125,0.3357383906841278,-0.25363361835479736,-0.3298707604408264
1761467170782907000,5.485906982421875,0.341896653175354,-0.24500221014022827,-0.3551047146320343
1761467170792889900,5.495889892578125,0.3465939462184906,-0.25020602345466614,-0.36318206787109375
1761467170802872000,5.5058720703125,0.33901247382164,-0.2636375427246094,-0.3536505699157715
1761467170812855800,5.515855712890625,0.33009782433509827,-0.26242899894714355,-0.34292975068092346
1761467170822838800,5.5258388671875,0.3138917088508606,-0.2545875310897827,-0.3372015655040741
1761467170832821500,5.535821533203125,0.3053852915763855,-0.2455519735813141,-0.335336834192276
1761467170842804700,5.5458046875,0.29993581771850586,-0.24169699847698212,-0.32973068952560425
1761467170852787700,5.55578759765625,0.29196497797966003,-0.2653810381889343,-0.3299733102321625
1761467170862770700,5.565770751953125,0.28819039463996887,-0.2987251281738281,-0.3147982656955719
1761467170872752600,5.575752685546875,0.2739965617656708,-0.33127960562705994,-0.2950463891029358
1761467170882735600,5.585735595703125,0.2574068307876587,-0.36682969331741333,-0.2892546057701111
1761467170892718800,5.59571875,0.24122066795825958,-0.39027854800224304,-0.29600465297698975
1761467170902701600,5.60570166015625,0.22455433011054993,-0.3984612822532654,-0.3088762164115906
1761467170912684800,5.615684814453125,0.21009628474712372,-0.4074539840221405,-0.3207682967185974
1761467170922667800,5.625667724609375,0.2039416879415512,-0.4068634808063507,-0.3479125201702118
1761467170932649700,5.635649658203125,0.19800151884555817,-0.36938828229904175,-0.3789154291152954
1761467170942632700,5.6456328125,0.19859330356121063,-0.31620532274246216,-0.4151407778263092
1761467170952615700,5.65561572265625,0.1926930695772171,-0.28473713994026184,-0.43267664313316345
1761467170962599000,5.665598876953125,0.19202882051467896,-0.30820101499557495,-0.4213208258152008
1761467170972581600,5.67558154296875,0.21255752444267273,-0.32550758123397827,-0.38976237177848816
1761467170982564600,5.685564697265625,0.2199859619140625,-0.27982068061828613,-0.37013038992881775
1761467170992547800,5.6955478515625,0.22182726860046387,-0.18114417791366577,-0.3717016577720642
1761467171002529500,5.705529541015625,0.2148013710975647,-0.10070977360010147,-0.37642309069633484
1761467171012512800,5.7155126953125,0.198563814163208,-0.08571724593639374,-0.35681235790252686
1761467171022495700,5.725495849609375,0.18288488686084747,-0.11676297336816788,-0.3123645782470703
1761467171032478700,5.735478759765625,0.1692950427532196,-0.175267294049263,-0.2792569696903229
1761467171042461700,5.745461669921875,0.1599453091621399,-0.2211725115776062,-0.2547931373119354
1761467171052444700,5.755444580078125,0.15890881419181824,-0.2619907855987549,-0.23604154586791992
1761467171062427600,5.765427734375,0.1580350399017334,-0.29542651772499084,-0.22385118901729584
1761467171072409600,5.77540966796875,0.15476146340370178,-0.3018159568309784,-0.22252920269966125
1761467171082392600,5.785392578125,0.15699735283851624,-0.2755102515220642,-0.215165913105011
1761467171092375800,5.795375732421875,0.14993171393871307,-0.20994852483272552,-0.18805627524852753
1761467171102358800,5.80535888671875,0.14181122183799744,-0.1346818208694458,-0.16759131848812103
1761467171112341800,5.815341796875,0.11954692751169205,-0.08337921649217606,-0.15222887694835663
1761467171122324700,5.82532470703125,0.102620430290699,-0.03677528351545334,-0.14328822493553162
1761467171132306700,5.835306640625,0.07835530489683151,0.013380828313529491,-0.14159205555915833
1761467171142289700,5.84528955078125,0.055144038051366806,0.06650009751319885,-0.15280041098594666
1761467171152272600,5.855272705078125,0.03945748880505562,0.12158439308404922,-0.157989040017128
1761467171162256000,5.865255859375,0.04154456406831741,0.1782323271036148,-0.15782395005226135
1761467171172238800,5.87523876953125,0.05956537649035454,0.2202892303466797,-0.14439469575881958
1761467171182221600,5.8852216796875,0.08583933860063553,0.2431335151195526,-0.12827150523662567
1761467171192204800,5.895204833984375,0.1149040162563324,0.238902285695076,-0.10656780749559402
1761467171202186800,5.905186767578125,0.1378452032804489,0.1985645741224289,-0.08666778355836868
1761467171212169700,5.915169677734375,0.14876362681388855,0.13056474924087524,-0.06669513881206512
1761467171222152700,5.925152587890625,0.15286391973495483,0.04623251408338547,-0.04755445942282677
1761467171232135700,5.9351357421875,0.14597351849079132,-0.028597254306077957,-0.027689937502145767
1761467171242118700,5.94511865234375,0.1495421826839447,-0.08757338672876358,-0.008005860261619091
1761467171252101600,5.9551015625,0.15235741436481476,-0.12884145975112915,0.02387350983917713
1761467171262084600,5.965084716796875,0.16182613372802734,-0.15681056678295135,0.054521508514881134
1761467171272066800,5.97506689453125,0.16776417195796967,-0.15575222671031952,0.08644375205039978
1761467171282049500,5.985049560546875,0.17314518988132477,-0.13927817344665527,0.11778882145881653
1761467171292032800,5.99503271484375,0.16302065551280975,-0.11366736143827438,0.14880773425102234
1761467171302015700,6.005015625,0.15113525092601776,-0.09290225058794022,0.17021098732948303
1761467171311998700,6.014998779296875,0.1335887461900711,-0.07374453544616699,0.189509317278862
1761467171321981700,6.024981689453125,0.11697375774383545,-0.07483349740505219,0.18368937075138092
1761467171331964000,6.0349638671875,0.10364516824483871,-0.08089751750230789,0.16437026858329773
1761467171341946600,6.044946533203125,0.08546289056539536,-0.08355539292097092,0.1407247930765152
1761467171351929600,6.0549296875,0.07457535713911057,-0.06884010136127472,0.11537496745586395
1761467171361912800,6.064912841796875,0.06617110222578049,-0.04740422964096069,0.07956860959529877
1761467171371895800,6.074895751953125,0.05157404765486717,-0.023527128621935844,0.046882566064596176
1761467171381878500,6.08487841796875,0.04639126732945442,-0.0033909669145941734,0.025951985269784927
1761467171391861800,6.09486181640625,0.04643414542078972,0.01127772405743599,0.02428271621465683
1761467171401843700,6.10484375,0.05136317387223244,0.03251039981842041,0.030169017612934113
1761467171411826700,6.11482666015625,0.05485804006457329,0.04698414355516434,0.03486044332385063
1761467171421809700,6.1248095703125,0.051368169486522675,0.044450465589761734,0.0429018959403038
1761467171431792600,6.134792724609375,0.0385889858007431,0.030513612553477287,0.04969615116715431
1761467171441775900,6.14477587890625,0.026117760688066483,0.003139414358884096,0.05756429582834244
1761467171451758600,6.154758544921875,0.005957632325589657,-0.024213112890720367,0.0755920335650444
1761467171461740800,6.16474072265625,-0.01991972140967846,-0.02745838835835457,0.08885697275400162
1761467171471723800,6.174723876953125,-0.053404174745082855,0.0020667461212724447,0.09801025688648224
1761467171481706500,6.18470654296875,-0.08367471396923065,0.05328700691461563,0.10447122156620026
1761467171491689700,6.194689697265625,-0.10624632984399796,0.11115855723619461,0.10419371724128723
1761467171501672700,6.204672607421875,-0.12162571400403976,0.15633779764175415,0.10901575535535812
1761467171511655700,6.21465576171875,-0.12898243963718414,0.1677236109972,0.1237182691693306
1761467171521638700,6.224638671875,-0.14187884330749512,0.1616266667842865,0.13847003877162933
1761467171531620900,6.234620849609375,-0.1492222547531128,0.151258185505867,0.15497684478759766
1761467171541603800,6.244603759765625,-0.1486237645149231,0.1505969613790512,0.16570277512073517
1761467171551586600,6.254586669921875,-0.14961233735084534,0.14856284856796265,0.18153473734855652
1761467171561569800,6.26456982421875,-0.1539219468832016,0.14084957540035248,0.20423124730587006
1761467171571552800,6.274552734375,-0.15107236802577972,0.12257681041955948,0.22940903902053833
1761467171581535700,6.28453564453125,-0.15254120528697968,0.11156012117862701,0.2576165199279785
1761467171591518700,6.294518798828125,-0.1542682647705078,0.12031446397304535,0.28976887464523315
1761467171601500700,6.304500732421875,-0.1586727797985077,0.127624973654747,0.3238297700881958
1761467171611484000,6.31448388671875,-0.16858240962028503,0.11185133457183838,0.35359910130500793
1761467171621466600,6.324466552734375,-0.1904381811618805,0.08957017958164215,0.3759104609489441
1761467171631449600,6.33444970703125,-0.21272164583206177,0.09110762178897858,0.38168418407440186
1761467171641432800,6.344432861328125,-0.22823618352413177,0.10553188621997833,0.3751329481601715
1761467171651415800,6.354415771484375,-0.2519042193889618,0.10824085772037506,0.3703081011772156
1761467171661397800,6.364397705078125,-0.26282617449760437,0.09842599928379059,0.3811050355434418
1761467171671380700,6.374380615234375,-0.27187052369117737,0.0883062481880188,0.41229090094566345
1761467171681363700,6.38436376953125,-0.2872805893421173,0.07552582025527954,0.44758281111717224
1761467171691346700,6.3943466796875,-0.2981604039669037,0.07169033586978912,0.48092079162597656
1761467171701329700,6.40432958984375,-0.30882593989372253,0.06660506874322891,0.5023134350776672
1761467171711313000,6.41431298828125,-0.31209683418273926,0.07990569621324539,0.5037110447883606
1761467171721295600,6.424295654296875,-0.3167703449726105,0.10115770250558853,0.4863480031490326
1761467171731277800,6.43427783203125,-0.3171879053115845,0.0965389758348465,0.4646728038787842
1761467171741260800,6.4442607421875,-0.313821017742157,0.0675988420844078,0.4476500153541565
1761467171751243800,6.454243896484375,-0.3065553903579712,0.03863910213112831,0.4322630763053894
1761467171761226800,6.464226806640625,-0.3005283772945404,0.0347340926527977,0.4333917796611786
1761467171771209700,6.474209716796875,-0.299250066280365,0.06044904142618179,0.43597638607025146
1761467171781192700,6.484192626953125,-0.30564555525779724,0.09293171018362045,0.45243871212005615
1761467171791175700,6.49417578125,-0.3207035958766937,0.12563559412956238,0.4872901439666748
1761467171801157600,6.50415771484375,-0.3416377305984497,0.15495584905147552,0.532102644443512
1761467171811143400,6.514143310546875,-0.35872748494148254,0.2072848379611969,0.574537992477417
1761467171821126400,6.52412646484375,-0.3674970865249634,0.2611381411552429,0.5908860564231873
1761467171831109600,6.534109619140625,-0.35265156626701355,0.3166258931159973,0.5985756516456604
1761467171841092600,6.544092529296875,-0.31503933668136597,0.3417162299156189,0.5989212393760681
1761467171851075300,6.554075439453125,-0.27850183844566345,0.3206937611103058,0.6142451167106628
1761467171861057500,6.5640576171875,-0.22923754155635834,0.2765822410583496,0.6295073628425598
1761467171871040500,6.57404052734375,-0.17712746560573578,0.2658233344554901,0.6171876192092896
1761467171881023500,6.5840234375,-0.12948022782802582,0.30110806226730347,0.5739640593528748
1761467171891006500,6.59400634765625,-0.08060376346111298,0.3522689938545227,0.5220513343811035
1761467171900989400,6.603989501953125,-0.030839042738080025,0.34590160846710205,0.5032403469085693
1761467171910972700,6.61397265625,-0.003798901569098234,0.24382105469703674,0.532705545425415
1761467171920955400,6.623955322265625,0.008611690253019333,0.11443566530942917,0.5917653441429138
1761467171930937600,6.6339375,-0.011372935958206654,0.038306016474962234,0.6363711953163147
1761467171940920600,6.643920654296875,-0.06882958114147186,0.033421799540519714,0.6489630937576294
1761467171950903300,6.6539033203125,-0.13706296682357788,0.057198237627744675,0.6354720592498779
1761467171960886500,6.663886474609375,-0.20440354943275452,0.07844966650009155,0.6051298975944519
1761467171970869500,6.673869384765625,-0.2477683424949646,0.07647600024938583,0.5785363912582397
1761467171980852500,6.6838525390625,-0.2948856055736542,0.0583345852792263,0.5602622628211975
1761467171990835500,6.69383544921875,-0.3165208697319031,0.05423757806420326,0.5372576117515564
1761467172000817700,6.703817626953125,-0.32532501220703125,0.08510201424360275,0.500222384929657
1761467172010800600,6.713800537109375,-0.3161914348602295,0.12157506495714188,0.4602280855178833
1761467172020783400,6.723783447265625,-0.30232250690460205,0.14684297144412994,0.4309168756008148
1761467172030766600,6.7337666015625,-0.2660617232322693,0.1547488272190094,0.4147440195083618
1761467172040749600,6.74374951171875,-0.23498684167861938,0.14081904292106628,0.40867018699645996
1761467172050732500,6.753732666015625,-0.2118636816740036,0.12146877497434616,0.41178902983665466
1761467172060715500,6.763715576171875,-0.2154756635427475,0.11244876682758331,0.41788196563720703
1761467172070697500,6.773697509765625,-0.229522243142128,0.12175784260034561,0.42193344235420227
1761467172080680700,6.7836806640625,-0.27771809697151184,0.16434256732463837,0.40027913451194763
1761467172090663400,6.793663330078125,-0.3179589807987213,0.22291319072246552,0.3715020716190338
1761467172100646400,6.803646484375,-0.34617841243743896,0.2684917151927948,0.35096484422683716
1761467172110629600,6.813629638671875,-0.3798242509365082,0.2660408318042755,0.34220144152641296
1761467172120612600,6.823612548828125,-0.39903712272644043,0.21209636330604553,0.32731375098228455
1761467172130595300,6.83359521484375,-0.40639224648475647,0.13532781600952148,0.3287225663661957
1761467172140577500,6.84357763671875,-0.42024487257003784,0.066741943359375,0.3537308871746063
1761467172150560500,6.853560546875,-0.4333745241165161,0.018246842548251152,0.3971982002258301
1761467172160543500,6.86354345703125,-0.4613051116466522,-0.005064895376563072,0.44699719548225403
1761467172170526500,6.8735263671875,-0.5075809955596924,-0.008716888725757599,0.4864428639411926
1761467172180509400,6.883509521484375,-0.5397046804428101,0.0031823243480175734,0.5104911923408508
1761467172190492400,6.893492431640625,-0.5617229342460632,0.00813580397516489,0.5119998455047607
1761467172200475400,6.903475341796875,-0.5798241496086121,-0.031030746176838875,0.49066466093063354
1761467172210457600,6.91345751953125,-0.5824388265609741,-0.07488129287958145,0.48324722051620483
1761467172220440300,6.9234404296875,-0.5866329073905945,-0.0973503589630127,0.48222896456718445
1761467172230423600,6.933423583984375,-0.581278383731842,-0.06006370857357979,0.4821253716945648
1761467172240406500,6.943406494140625,-0.5744909644126892,-0.002301993779838085,0.4712042212486267
1761467172250389500,6.953389404296875,-0.5598155856132507,0.06562965363264084,0.46007221937179565
1761467172260372500,6.96337255859375,-0.5367005467414856,0.1221807450056076,0.4421529769897461
1761467172270355500,6.97335546875,-0.5114409923553467,0.15020997822284698,0.4196162223815918
1761467172280337700,6.983337646484375,-0.4823243319988251,0.1434304565191269,0.41273459792137146
1761467172290320400,6.9933203125,-0.464326947927475,0.11062165349721909,0.4222479462623596
1761467172300303400,7.003303466796875,-0.4570525884628296,0.09036888182163239,0.42386671900749207
1761467172310286600,7.01328662109375,-0.4535689055919647,0.11685774475336075,0.40736764669418335
1761467172320269600,7.02326953125,-0.4517901539802551,0.1723330318927765,0.37920519709587097
1761467172330252300,7.033252197265625,-0.45186978578567505,0.2396066039800644,0.35134586691856384
1761467172340235500,7.043235595703125,-0.4395628869533539,0.28915947675704956,0.33112114667892456
1761467172350217500,7.053217529296875,-0.42611098289489746,0.3132917284965515,0.32082483172416687
1761467172360200400,7.063200439453125,-0.3964032828807831,0.31796005368232727,0.32340821623802185
1761467172370183400,7.073183349609375,-0.3657473623752594,0.3129463791847229,0.3271097242832184
1761467172380166700,7.083166748046875,-0.34604334831237793,0.30564457178115845,0.3272384703159332
1761467172390149600,7.093149658203125,-0.31862130761146545,0.2993752062320709,0.3239430785179138
1761467172400132400,7.10313232421875,-0.30135753750801086,0.2943900525569916,0.32063984870910645
1761467172410115600,7.113115478515625,-0.2899586856365204,0.2833091616630554,0.3153873085975647
1761467172420097500,7.12309765625,-0.280905157327652,0.25618287920951843,0.3141675293445587
1761467172430080500,7.13308056640625,-0.27428293228149414,0.24018369615077972,0.3171593248844147
1761467172440063500,7.1430634765625,-0.2622658312320709,0.22613464295864105,0.31833314895629883
1761467172450046500,7.15304638671875,-0.24081726372241974,0.22287492454051971,0.31220680475234985
1761467172460029700,7.16302978515625,-0.21758687496185303,0.22360144555568695,0.304145485162735
1761467172470012400,7.173012451171875,-0.19379819929599762,0.21815021336078644,0.30617108941078186
1761467172479995400,7.182995361328125,-0.17722196877002716,0.20659717917442322,0.3023836016654968
1761467172489977600,7.1929775390625,-0.15385299921035767,0.19496102631092072,0.29163187742233276
1761467172499960300,7.202960205078125,-0.13681983947753906,0.19269807636737823,0.28105777502059937
1761467172509943600,7.212943603515625,-0.12454613298177719,0.1965000182390213,0.2677731513977051
1761467172519926500,7.222926513671875,-0.10282943397760391,0.20576366782188416,0.26053813099861145
1761467172529909500,7.232909423828125,-0.08545390516519547,0.20753920078277588,0.27106401324272156
1761467172539892500,7.242892578125,-0.07632554322481155,0.1964516043663025,0.2848070561885834
1761467172549875500,7.25287548828125,-0.0743848979473114,0.1800454705953598,0.29548338055610657
1761467172559857700,7.262857666015625,-0.07384788244962692,0.17453821003437042,0.29635921120643616
1761467172569840400,7.27284033203125,-0.06760543584823608,0.16890189051628113,0.29975420236587524
1761467172579823600,7.28282373046875,-0.07727199047803879,0.15083765983581543,0.3057880103588104
1761467172589806600,7.292806640625,-0.09220113605260849,0.10274577140808105,0.319717675447464
1761467172599789600,7.30278955078125,-0.11281795799732208,0.052523475140333176,0.3355627954006195
1761467172609772500,7.3127724609375,-0.1316017508506775,0.01649516634643078,0.3441440165042877
1761467172619755500,7.322755615234375,-0.14626695215702057,0.026885375380516052,0.34251686930656433
1761467172629738500,7.332738525390625,-0.16569843888282776,0.04834406077861786,0.3353146016597748
1761467172639720400,7.342720458984375,-0.1840164214372635,0.08393546938896179,0.32040151953697205
1761467172649703400,7.352703369140625,-0.20374883711338043,0.14613865315914154,0.30406010150909424
1761467172659686700,7.362686767578125,-0.2092539370059967,0.23512065410614014,0.2715725004673004
1761467172669669400,7.37266943359375,-0.2114182859659195,0.30803027749061584,0.2270502895116806
1761467172679652400,7.38265234375,-0.20736251771450043,0.29458439350128174,0.19776594638824463
1761467172689635600,7.392635498046875,-0.20197387039661407,0.15948385000228882,0.19728177785873413
1761467172699618600,7.40261865234375,-0.1877886950969696,-0.014372993260622025,0.19693225622177124
1761467172709600500,7.4126005859375,-0.1733170747756958,-0.15227146446704865,0.17541098594665527
1761467172719583500,7.42258349609375,-0.16143207252025604,-0.18822234869003296,0.127460315823555
1761467172729566500,7.43256640625,-0.15792815387248993,-0.1541631817817688,0.08263346552848816
1761467172739549400,7.442549560546875,-0.1611344963312149,-0.0958796888589859,0.06136927381157875
1761467172749532400,7.452532470703125,-0.16452708840370178,-0.05870542302727699,0.06729773432016373
1761467172759515600,7.462515625,-0.1681012064218521,-0.043780628591775894,0.08727133274078369
1761467172769498600,7.47249853515625,-0.16744020581245422,-0.04532020166516304,0.09516973793506622
1761467172779481300,7.4824814453125,-0.14885807037353516,-0.0327666774392128,0.0965881422162056
1761467172789463600,7.492463623046875,-0.12967610359191895,-0.02368636429309845,0.0985381081700325
1761467172799446500,7.502446533203125,-0.0992136001586914,-0.006089350208640099,0.10431114584207535
1761467172809426400,7.512426513671875,-0.07291248440742493,-0.015414674766361713,0.11633611470460892
1761467172819409400,7.522409423828125,-0.04702688008546829,-0.04854211211204529,0.1399528533220291
1761467172829392400,7.532392333984375,-0.04660903662443161,-0.09086719155311584,0.1583944410085678
1761467172839375400,7.542375244140625,-0.03825104236602783,-0.1133352741599083,0.17408838868141174
1761467172849358300,7.5523583984375,-0.04791032522916794,-0.11795319616794586,0.191942498087883
1761467172859340500,7.562340576171875,-0.05985521525144577,-0.11772149056196213,0.19611847400665283
1761467172869323300,7.5723232421875,-0.065761037170887,-0.1062278226017952,0.1981011927127838
1761467172879306200,7.58230615234375,-0.08045139163732529,-0.08870851248502731,0.20049764215946198
1761467172889289500,7.59228955078125,-0.09845302253961563,-0.06507855653762817,0.1927877962589264
1761467172899272400,7.6022724609375,-0.11908095329999924,-0.03653489053249359,0.1873079538345337
1761467172909255200,7.612255126953125,-0.14016547799110413,-0.01661364547908306,0.17776745557785034
1761467172919238400,7.62223828125,-0.15478549897670746,-0.00579508300870657,0.1570708304643631
1761467172929221400,7.632221435546875,-0.15139396488666534,0.029158640652894974,0.14647544920444489
1761467172939203300,7.642203369140625,-0.13881859183311462,0.07919032871723175,0.15718157589435577
1761467172949186300,7.652186279296875,-0.10545264184474945,0.11479945480823517,0.17919740080833435
1761467172959169300,7.662169189453125,-0.07243318110704422,0.135158509016037,0.2122434824705124
1761467172969152500,7.672152587890625,-0.03978442773222923,0.13522641360759735,0.22333768010139465
1761467172979135200,7.68213525390625,-0.004419694654643536,0.13665468990802765,0.23314277827739716
1761467172989118500,7.692118408203125,0.03361503779888153,0.13477103412151337,0.2359849065542221
1761467172999101400,7.702101318359375,0.06487424671649933,0.12169597297906876,0.24330134689807892
1761467173009084200,7.712084228515625,0.09162703901529312,0.09651977568864822,0.25933223962783813
1761467173019066400,7.72206640625,0.10186352580785751,0.045231252908706665,0.2765115201473236
1761467173029049300,7.73204931640625,0.10059239715337753,-0.01738472282886505,0.29259806871414185
1761467173039032300,7.7420322265625,0.09711392968893051,-0.07460024952888489,0.30659547448158264
1761467173049015300,7.752015380859375,0.09191756695508957,-0.10177834331989288,0.3124064803123474
1761467173058998300,7.761998291015625,0.07958223670721054,-0.09090670943260193,0.3081783652305603
1761467173068981500,7.7719814453125,0.07221486419439316,-0.06352834403514862,0.2936446964740753
1761467173078964200,7.781964111328125,0.06102586165070534,-0.02297958731651306,0.2831305265426636
1761467173088946400,7.791946533203125,0.04844668507575989,0.017483683302998543,0.281568318605423
1761467173098929400,7.801929443359375,0.03506945073604584,0.03237393498420715,0.29262304306030273
1761467173108912000,7.811912109375,0.016466736793518066,0.033760640770196915,0.30440008640289307
1761467173118895400,7.821895263671875,0.000775613822042942,0.03756004944443703,0.30815958976745605
1761467173128878300,7.83187841796875,-0.020878281444311142,0.06579035520553589,0.2951580286026001
1761467173138861300,7.841861328125,-0.03893490880727768,0.09755057841539383,0.26980599761009216
1761467173148844300,7.85184423828125,-0.061716921627521515,0.12331985682249069,0.2469252198934555
1761467173158827300,7.8618271484375,-0.06484664976596832,0.14855025708675385,0.22900980710983276
1761467173168809500,7.8718095703125,-0.06434757262468338,0.16302241384983063,0.21337491273880005
1761467173178792200,7.881792236328125,-0.05771227180957794,0.17352768778800964,0.2028179168701172
1761467173188775400,7.891775390625,-0.06509722024202347,0.18348443508148193,0.21173150837421417
1761467173198758400,7.90175830078125,-0.06686796247959137,0.19541680812835693,0.21260568499565125
1761467173208741400,7.911741455078125,-0.06678061187267303,0.1972155123949051,0.20736724138259888
1761467173218724400,7.921724365234375,-0.06984138488769531,0.193916916847229,0.20492565631866455
1761467173228707300,7.931707275390625,-0.07194608449935913,0.18393220007419586,0.21766702830791473
1761467173238690300,7.941690185546875,-0.07318291813135147,0.1776619255542755,0.2270885705947876
1761467173248672300,7.95167236328125,-0.08209971338510513,0.18150806427001953,0.23136454820632935
1761467173258655200,7.9616552734375,-0.09746571630239487,0.19187025725841522,0.22785520553588867
1761467173268638500,7.971638427734375,-0.11085102707147598,0.20574851334095,0.2273516058921814
1761467173278621400,7.981621337890625,-0.12529300153255463,0.20974697172641754,0.2218228280544281
1761467173288604200,7.991604248046875,-0.13684606552124023,0.18413615226745605,0.22453393042087555
1761467173298587400,8.00158740234375,-0.15351079404354095,0.15054383873939514,0.23565395176410675
1761467173308569300,8.0115693359375,-0.16706813871860504,0.11006271094083786,0.25531792640686035
1761467173318552300,8.02155224609375,-0.1805030107498169,0.09580055624246597,0.2843005657196045
1761467173328535300,8.031535400390625,-0.19234715402126312,0.090875044465065,0.30535152554512024
1761467173338517500,8.041517578125,-0.20043739676475525,0.09531182795763016,0.33007776737213135
1761467173348500200,8.051500244140625,-0.20822980999946594,0.10041231662034988,0.34983736276626587
1761467173358483200,8.061483154296875,-0.2205028086900711,0.07537902891635895,0.36186084151268005
1761467173368466400,8.071466552734375,-0.23244816064834595,0.06593306362628937,0.3844982385635376
1761467173378449400,8.081449462890625,-0.2526625096797943,0.08478527516126633,0.4086983799934387
1761467173388432400,8.091432373046874,-0.27752870321273804,0.1029573529958725,0.4292190968990326
1761467173398415400,8.101415283203124,-0.3030701279640198,0.13312947750091553,0.4527966380119324
1761467173408398300,8.1113984375,-0.3381069600582123,0.16533136367797852,0.4650211036205292
1761467173418381600,8.121381591796874,-0.35576996207237244,0.20104624330997467,0.4818783402442932
1761467173428363300,8.13136328125,-0.3745758831501007,0.21035398542881012,0.49263912439346313
1761467173438346500,8.141346435546875,-0.39192402362823486,0.16993892192840576,0.510093092918396
1761467173448329500,8.15132958984375,-0.4179399013519287,0.12057750672101974,0.5299714803695679
1761467173458312200,8.161312255859375,-0.42292630672454834,0.09665536135435104,0.5377579927444458
1761467173468295400,8.17129541015625,-0.4441322684288025,0.09878988564014435,0.5431287884712219
1761467173478278400,8.1812783203125,-0.45367443561553955,0.10058294236660004,0.5429362058639526
1761467173488261000,8.19126123046875,-0.45835307240486145,0.11386492848396301,0.5399846434593201
1761467173498244400,8.201244384765625,-0.46521952748298645,0.12671740353107452,0.5487982034683228
1761467173508226300,8.211226318359374,-0.4600854814052582,0.1356312781572342,0.548931896686554
1761467173518209500,8.22120947265625,-0.44723621010780334,0.1507512331008911,0.5513578653335571
1761467173528192300,8.231192138671876,-0.4293290972709656,0.15454117953777313,0.5541722774505615
1761467173538175200,8.24117529296875,-0.41080206632614136,0.14519774913787842,0.5558577179908752
1761467173548158500,8.251158447265626,-0.3855571746826172,0.13641703128814697,0.5581510066986084
1761467173558141200,8.26114111328125,-0.36686083674430847,0.08455953001976013,0.5521525740623474
1761467173568124400,8.27112451171875,-0.3726225793361664,0.020315032452344894,0.5462529063224792
1761467173578107400,8.281107421875,-0.38099879026412964,-0.029715359210968018,0.5299918055534363
1761467173588089300,8.29108935546875,-0.3984776437282562,-0.05392775684595108,0.5125036239624023
1761467173598072300,8.301072265625,-0.42001843452453613,-0.06326179206371307,0.4928632974624634
1761467173608055300,8.31105517578125,-0.4371284544467926,-0.051174767315387726,0.4861084520816803
1761467173618038500,8.32103857421875,-0.43745559453964233,0.0012794812209904194,0.4858483374118805
1761467173628021200,8.331021240234374,-0.417602002620697,0.09443125873804092,0.47926342487335205
1761467173638004200,8.341004150390624,-0.3736806809902191,0.18352220952510834,0.45965903997421265
1761467173647987500,8.350987548828124,-0.3115440607070923,0.16136977076530457,0.4472505748271942
1761467173657970400,8.360970458984376,-0.238944411277771,0.03912561014294624,0.4666547179222107
1761467173667953200,8.370953125,-0.17201784253120422,-0.09304387122392654,0.4928458333015442
1761467173677935400,8.380935302734375,-0.11128082871437073,-0.14126570522785187,0.4827977120876312
1761467173687918300,8.39091845703125,-0.07036162912845612,-0.13021571934223175,0.4419946074485779
1761467173697901300,8.4009013671875,-0.045730575919151306,-0.12666697800159454,0.3915947377681732
1761467173707884300,8.41088427734375,-0.04509913921356201,-0.18043993413448334,0.3806845545768738
1761467173717867300,8.4208671875,-0.07596004009246826,-0.2694219648838043,0.4168551564216614
1761467173727850500,8.4308505859375,-0.11818259954452515,-0.3543187379837036,0.4543367326259613
1761467173737833200,8.440833251953125,-0.17559686303138733,-0.3730001747608185,0.4836728572845459
1761467173747816400,8.45081640625,-0.2280968278646469,-0.3469824194908142,0.4968717098236084
1761467173757799400,8.46079931640625,-0.2717970609664917,-0.3066232204437256,0.5014075040817261
1761467173767781400,8.470781494140626,-0.30113792419433594,-0.2631116807460785,0.48744428157806396
1761467173777764400,8.480764404296876,-0.3277304470539093,-0.23875179886817932,0.46682867407798767
1761467173787747300,8.490747314453126,-0.346283882856369,-0.19762541353702545,0.45044997334480286
1761467173797730600,8.50073046875,-0.3512497544288635,-0.14059007167816162,0.4371671974658966
1761467173807713300,8.51071337890625,-0.3334276080131531,-0.05758998915553093,0.42729511857032776
1761467173817696800,8.52069677734375,-0.3186478614807129,0.066002257168293,0.4036041796207428
1761467173827679700,8.5306796875,-0.2928442358970642,0.19641432166099548,0.3765539228916168
1761467173837662700,8.540662841796875,-0.2624704837799072,0.29727786779403687,0.3637903034687042
1761467173847645700,8.550645751953125,-0.22889016568660736,0.37253668904304504,0.363251268863678
1761467173857627600,8.560627685546875,-0.19643695652484894,0.4020966589450836,0.36558520793914795
1761467173867610600,8.570610595703124,-0.17395775020122528,0.4052724540233612,0.3703157901763916
1761467173877593900,8.58059375,-0.16155238449573517,0.3836056590080261,0.3739014267921448
1761467173887578600,8.59057861328125,-0.1728585660457611,0.3388099670410156,0.38350850343704224
1761467173897561900,8.600561767578125,-0.21804484724998474,0.2511634826660156,0.3843901455402374
1761467173907544600,8.610544677734374,-0.28073567152023315,0.16314466297626495,0.3861970901489258
1761467173917526800,8.62052685546875,-0.3440383970737457,0.08831670135259628,0.36951878666877747
1761467173927509800,8.630509765625,-0.3996529281139374,0.0317532904446125,0.360772967338562
1761467173937492700,8.64049267578125,-0.45249229669570923,-0.00293311127461493,0.35800814628601074
1761467173947475700,8.650475830078125,-0.49146872758865356,-0.017546407878398895,0.358137309551239
1761467173957458700,8.660458740234375,-0.5207989811897278,-0.002662122482433915,0.3689264953136444
1761467173967442000,8.67044189453125,-0.5446619391441345,0.031501442193984985,0.38299039006233215
1761467173977424600,8.680424560546875,-0.5549537539482117,0.05666804686188698,0.3875446617603302
1761467173987407600,8.69040771484375,-0.5470331907272339,0.07793977856636047,0.38281968235969543
1761467173997390800,8.700390869140625,-0.5293068885803223,0.07158039510250092,0.3600805401802063
1761467174007372500,8.71037255859375,-0.49777424335479736,0.042083751410245895,0.3314419686794281
1761467174017355800,8.720355712890624,-0.45558667182922363,0.015440257266163826,0.3007164001464844
1761467174027338800,8.7303388671875,-0.41130125522613525,-0.010567907243967056,0.2799810469150543
1761467174037321700,8.74032177734375,-0.3841237425804138,-0.03911544010043144,0.25859877467155457
1761467174047304700,8.7503046875,-0.35919150710105896,-0.06256909668445587,0.2241465300321579
1761467174057287700,8.76028759765625,-0.34772372245788574,-0.07396915555000305,0.18671537935733795
1761467174067270700,8.770270751953126,-0.33078309893608093,-0.06479936093091965,0.14850114285945892
1761467174077254000,8.78025390625,-0.3039550483226776,-0.04410577565431595,0.12107164412736893
1761467174087236600,8.790236572265625,-0.2791498303413391,-0.04832156002521515,0.09537985920906067
1761467174097219600,8.800219482421875,-0.25712645053863525,-0.07449387013912201,0.0772143229842186
1761467174107201800,8.810201904296875,-0.2327587753534317,-0.0987992063164711,0.05973467603325844
1761467174117184500,8.8201845703125,-0.21369080245494843,-0.10662384331226349,0.041523709893226624
1761467174127167700,8.830167724609375,-0.19916805624961853,-0.10945717990398407,0.034443166106939316
1761467174137150700,8.840150634765624,-0.1792357712984085,-0.09861386567354202,0.02760476991534233
1761467174147134000,8.850134033203124,-0.16732904314994812,-0.08562882989645004,0.022883784025907516
1761467174157116700,8.86011669921875,-0.14553017914295197,-0.06717848032712936,0.009239817969501019
1761467174167099600,8.870099609375,-0.1230110228061676,-0.08148684352636337,-0.008291504345834255
1761467174177083000,8.880082763671876,-0.0958002507686615,-0.13750994205474854,-0.015928972512483597
1761467174187065600,8.890065673828126,-0.06507562845945358,-0.19465579092502594,-0.027850612998008728
1761467174197047800,8.9000478515625,-0.04170631244778633,-0.261823832988739,-0.029750989750027657
1761467174207030800,8.91003076171875,-0.019344814121723175,-0.31307610869407654,-0.010313643142580986
1761467174217013500,8.920013427734375,0.0019245147705078125,-0.33327800035476685,0.009460709057748318
1761467174226996700,8.929996826171875,0.020234279334545135,-0.3278752267360687,0.006248936988413334
1761467174236979700,8.939979736328125,0.04195566475391388,-0.3040498197078705,-0.006152867339551449
1761467174246962700,8.949962646484375,0.0547068789601326,-0.2896610498428345,-0.012976418249309063
1761467174256945700,8.959945556640625,0.06479566544294357,-0.27449098229408264,-0.018688801676034927
1761467174266928600,8.9699287109375,0.08319384604692459,-0.24273093044757843,-0.012696954421699047
1761467174276911600,8.97991162109375,0.10782112181186676,-0.20641493797302246,-0.005335129331797361
1761467174286894800,8.989894775390624,0.13356563448905945,-0.16947582364082336,0.004380081780254841
1761467174296876500,8.99987646484375,0.14884799718856812,-0.15273718535900116,0.008868209086358547
1761467174306859800,9.00985986328125,0.16059067845344543,-0.15932850539684296,0.02588900551199913
1761467174316842800,9.0198427734375,0.16023026406764984,-0.17913813889026642,0.04343689605593681
1761467174326825700,9.02982568359375,0.16679388284683228,-0.21732653677463531,0.05799240618944168
1761467174336808700,9.03980859375,0.171861469745636,-0.25180312991142273,0.06615515053272247
1761467174346791700,9.049791748046875,0.18630406260490417,-0.2593497335910797,0.070196233689785
1761467174356775000,9.05977490234375,0.20337937772274017,-0.27119699120521545,0.0754634216427803
1761467174366757600,9.069757568359375,0.220463827252388,-0.2857634127140045,0.08149760961532593
1761467174376740600,9.07974072265625,0.23099064826965332,-0.27569523453712463,0.09662047028541565
1761467174386723800,9.089723876953125,0.23980891704559326,-0.2517473101615906,0.0983579233288765
1761467174396705500,9.09970556640625,0.24056372046470642,-0.21230895817279816,0.0896729901432991
1761467174406688800,9.109688720703126,0.23617322742938995,-0.17279323935508728,0.05970097705721855
1761467174416671700,9.119671630859376,0.22912061214447021,-0.13314485549926758,0.006991547532379627
1761467174426654700,9.12965478515625,0.21770603954792023,-0.09578736126422882,-0.04448362812399864
1761467174436637700,9.1396376953125,0.20571590960025787,-0.05569899454712868,-0.08247197419404984
1761467174446620700,9.14962060546875,0.19854268431663513,-0.026245765388011932,-0.09897957742214203
1761467174456603600,9.159603759765625,0.18892431259155273,-0.012403517961502075,-0.10492466390132904
1761467174466587000,9.1695869140625,0.1641228199005127,0.0025341524742543697,-0.09688511490821838
1761467174476569600,9.179569580078125,0.13340415060520172,0.0211342666298151,-0.09328360855579376
1761467174486552800,9.189552734375,0.09895643591880798,0.06247531995177269,-0.10091782361268997
1761467174496534800,9.19953466796875,0.0688244104385376,0.11500361561775208,-0.12675224244594574
1761467174506517800,9.209517822265624,0.039857737720012665,0.16743434965610504,-0.1861143708229065
1761467174516500700,9.219500732421874,0.02016560547053814,0.19622254371643066,-0.24179314076900482
1761467174526483700,9.229483642578124,0.008141166530549526,0.19286297261714935,-0.27770960330963135
1761467174536466700,9.239466796875,0.012232158333063126,0.15582023561000824,-0.2858189046382904
1761467174546449700,9.24944970703125,0.020794488489627838,0.1245587170124054,-0.2782776355743408
1761467174556432600,9.2594326171875,0.03717735782265663,0.1137770414352417,-0.27729490399360657
1761467174566416000,9.269415771484375,0.047975677996873856,0.15463605523109436,-0.2938355505466461
1761467174576398600,9.279398681640625,0.054404228925704956,0.19983340799808502,-0.3030254542827606
1761467174586381600,9.289381591796875,0.050235580652952194,0.21291778981685638,-0.2964133620262146
1761467174596363800,9.29936376953125,0.03946595638990402,0.18885013461112976,-0.266867071390152
1761467174606346500,9.309346435546875,0.008112028241157532,0.18485912680625916,-0.22907868027687073
1761467174616329700,9.319329833984375,-0.021416760981082916,0.2056131809949875,-0.19170436263084412
1761467174626312700,9.329312744140625,-0.04630107060074806,0.2245437353849411,-0.16485384106636047
1761467174636295700,9.339295654296874,-0.061025504022836685,0.22687561810016632,-0.13912178575992584
1761467174646278700,9.349278564453124,-0.056631822139024734,0.21473081409931183,-0.10684160888195038
1761467174656261600,9.35926171875,-0.038159072399139404,0.18309015035629272,-0.07724152505397797
1761467174666244900,9.369244873046876,-0.01352456770837307,0.12228112667798996,-0.047024767845869064
1761467174676227800,9.379227783203126,0.00450019771233201,0.05846882611513138,-0.015396526083350182
1761467174686210600,9.38921044921875,0.01098552718758583,0.014217210933566093,0.010831882245838642
1761467174696193800,9.39919384765625,-0.008958196267485619,-0.009434394538402557,0.04576285183429718
1761467174706175700,9.40917578125,-0.04121360555291176,0.005987704731523991,0.07910004258155823
1761467174716158700,9.41915869140625,-0.08148254454135895,0.041822079569101334,0.11235866695642471
1761467174726141700,9.4291416015625,-0.1215394139289856,0.08063579350709915,0.14652596414089203
1761467174736124700,9.439124755859375,-0.15913784503936768,0.12182971090078354,0.1850106120109558
1761467174746108000,9.44910791015625,-0.18398860096931458,0.14708606898784637,0.21347633004188538
1761467174756090600,9.459090576171874,-0.1897854208946228,0.1545204222202301,0.23268073797225952
1761467174766073600,9.469073486328124,-0.17941853404045105,0.13418851792812347,0.24966320395469666
1761467174776056800,9.479056884765624,-0.15624363720417023,0.08907853066921234,0.2601384222507477
1761467174786039800,9.489039794921876,-0.1336594969034195,0.03596844524145126,0.2735615372657776
1761467174796022500,9.4990224609375,-0.12838225066661835,-0.0056156376376748085,0.27428048849105835
1761467174806004700,9.509004638671875,-0.13101080060005188,-0.0058686379343271255,0.27855220437049866
1761467174815986700,9.518986572265625,-0.13572239875793457,0.00476220203563571,0.2716008126735687
1761467174825969700,9.5289697265625,-0.14936737716197968,0.026288533583283424,0.27060666680336
1761467174835952600,9.53895263671875,-0.15507619082927704,0.035643115639686584,0.29202866554260254
1761467174845935900,9.548935791015625,-0.15395206212997437,0.009062105789780617,0.3304484784603119
1761467174855918600,9.558918701171875,-0.160091370344162,0.026149265468120575,0.30036115646362305
1761467174865901800,9.56890185546875,-0.15220974385738373,0.00891035795211792,0.2666332721710205
1761467174875884800,9.578884765625,-0.14062559604644775,-0.009181525558233261,0.24445666372776031
1761467174885867500,9.588867431640624,-0.12869836390018463,-0.005168940406292677,0.2344469130039215
1761467174895850800,9.598850830078124,-0.12132088840007782,-0.021697403863072395,0.21312473714351654
1761467174905833700,9.608833740234376,-0.11104773730039597,-0.05036153644323349,0.19659796357154846
1761467174915816000,9.61881591796875,-0.10782451927661896,-0.0651816800236702,0.18480345606803894
1761467174925798700,9.628798583984375,-0.09730609506368637,-0.06184100732207298,0.17445547878742218
1761467174935781600,9.63878173828125,-0.10146336257457733,-0.04248795285820961,0.16424475610256195
1761467174945764900,9.648764892578125,-0.10949412733316422,-0.0272006094455719,0.16866613924503326
1761467174955747600,9.65874755859375,-0.10724908113479614,-0.048858847469091415,0.18114373087882996
1761467174965730600,9.66873046875,-0.08051253855228424,-0.08822702616453171,0.1852830946445465
