time,seconds_elapsed,z,y,x
1761467205731722800,0.12272265625,0.17653298377990723,0.04897071048617363,0.13719740509986877
1761467205741706000,0.1327060546875,0.1909961998462677,0.04905378445982933,0.18269410729408264
1761467205751688000,0.14268798828125,0.19620268046855927,0.05205223709344864,0.22148331999778748
1761467205761671000,0.1526708984375,0.21122898161411285,0.041791144758462906,0.25787222385406494
1761467205771654000,0.16265380859375,0.2137499302625656,0.004936989396810532,0.28329768776893616
1761467205781636900,0.172636962890625,0.2120421975851059,-0.048359423875808716,0.29978859424591064
1761467205791620000,0.1826201171875,0.20388706028461456,-0.09538339078426361,0.31977400183677673
1761467205801602800,0.192602783203125,0.18432791531085968,-0.11392144113779068,0.3356045186519623
1761467205811585800,0.202585693359375,0.17155113816261292,-0.08810529112815857,0.337230384349823
1761467205821569000,0.212569091796875,0.1715693324804306,-0.03387441486120224,0.3196580111980438
1761467205831550700,0.22255078125,0.16752105951309204,0.0254666730761528,0.2914138734340668
1761467205841538800,0.232538818359375,0.16579461097717285,0.04303837940096855,0.2720724046230316
1761467205851521800,0.242521728515625,0.15866585075855255,0.028812304139137268,0.2722489833831787
1761467205861504800,0.2525048828125,0.13164182007312775,0.009054684080183506,0.28377947211265564
1761467205871487700,0.26248779296875,0.10693833976984024,0.012186028994619846,0.2937774956226349
1761467205881471000,0.272470947265625,0.07956258952617645,0.03837922587990761,0.290591835975647
1761467205891453700,0.28245361328125,0.06445127725601196,0.07398302108049393,0.27643924951553345
1761467205901437000,0.29243701171875,0.058775827288627625,0.08441522717475891,0.2648829221725464
1761467205911420000,0.302419921875,0.050004441291093826,0.0878475159406662,0.2664177119731903
1761467205921401900,0.31240185546875,0.034203775227069855,0.08285650610923767,0.2680027484893799
1761467205931384800,0.322384765625,0.02039794996380806,0.08109083026647568,0.259705126285553
1761467205941367800,0.332367919921875,0.0001362166367471218,0.1183316558599472,0.2507716417312622
1761467205951351000,0.34235107421875,-0.02572174370288849,0.1838211864233017,0.24420267343521118
1761467205961333800,0.352333740234375,-0.044533923268318176,0.23449058830738068,0.24510206282138824
1761467205971316700,0.362316650390625,-0.05218864604830742,0.25356146693229675,0.23774774372577667
1761467205981300000,0.372300048828125,-0.0567987859249115,0.2765178680419922,0.22849488258361816
1761467205991283000,0.382282958984375,-0.0731109157204628,0.28775453567504883,0.21450157463550568
1761467206001265700,0.392265625,-0.08224613219499588,0.2934147119522095,0.21047663688659668
1761467206011247900,0.402247802734375,-0.09199436753988266,0.27549588680267334,0.22715121507644653
1761467206021230800,0.41223095703125,-0.11971282958984375,0.2304803878068924,0.25364524126052856
1761467206031213800,0.4222138671875,-0.15049177408218384,0.19033004343509674,0.28557413816452026
1761467206041196800,0.43219677734375,-0.186374694108963,0.16328145563602448,0.31240931153297424
1761467206051179800,0.4421796875,-0.2219816893339157,0.1733063906431198,0.3451099991798401
1761467206061162800,0.452162841796875,-0.25632062554359436,0.18572834134101868,0.3844525218009949
1761467206071145700,0.462145751953125,-0.2884618043899536,0.17637665569782257,0.42676135897636414
1761467206081129000,0.47212890625,-0.3129834830760956,0.1532374620437622,0.45973628759384155
1761467206091112000,0.48211181640625,-0.3393399715423584,0.12253227829933167,0.4909498691558838
1761467206101094000,0.492093994140625,-0.3640868365764618,0.12030207365751266,0.5148124694824219
1761467206111076900,0.502076904296875,-0.3800266683101654,0.13620062172412872,0.5295624136924744
1761467206121059800,0.512059814453125,-0.3978942334651947,0.15129005908966064,0.5447704195976257
1761467206131042800,0.522042724609375,-0.4180288016796112,0.15460781753063202,0.5586806535720825
1761467206141025800,0.53202587890625,-0.43577876687049866,0.16715991497039795,0.5824736952781677
1761467206151008800,0.5420087890625,-0.45430320501327515,0.187574103474617,0.6090672016143799
1761467206160992000,0.551991943359375,-0.482634037733078,0.210106760263443,0.631354808807373
1761467206170974700,0.561974609375,-0.5041050314903259,0.23690268397331238,0.6522337198257446
1761467206180957000,0.57195703125,-0.5187051892280579,0.2841578722000122,0.6795480847358704
1761467206190940000,0.58193994140625,-0.5230413675308228,0.3288758099079132,0.711092472076416
1761467206200922600,0.591922607421875,-0.52186518907547,0.3548188805580139,0.7398883700370789
1761467206210905900,0.60190576171875,-0.5204832553863525,0.31374919414520264,0.7586591243743896
1761467206220888800,0.611888916015625,-0.5274226665496826,0.23803454637527466,0.7605442404747009
1761467206230871800,0.621871826171875,-0.5560367703437805,0.18827763199806213,0.753136932849884
1761467206240854800,0.631854736328125,-0.5765631198883057,0.15646080672740936,0.7220998406410217
1761467206250837800,0.641837646484375,-0.5867102742195129,0.14331384003162384,0.6940376162528992
1761467206260821000,0.651821044921875,-0.6131327748298645,0.160472571849823,0.6754635572433472
1761467206270802700,0.661802734375,-0.610700249671936,0.1906706988811493,0.6681081652641296
1761467206280786000,0.671785888671875,-0.6125288605690002,0.2124090939760208,0.6709451079368591
1761467206290769000,0.681768798828125,-0.6020589470863342,0.22216558456420898,0.6691988706588745
1761467206300752000,0.691751953125,-0.5839967727661133,0.19506770372390747,0.6707677841186523
1761467206310734800,0.70173486328125,-0.5704753994941711,0.1461275964975357,0.6741702556610107
1761467206320717800,0.7117177734375,-0.5600680112838745,0.08233784884214401,0.671097993850708
1761467206330700800,0.72170068359375,-0.5343828797340393,0.029338808730244637,0.6629554033279419
1761467206340684000,0.73168408203125,-0.5248855352401733,-0.009045743383467197,0.652042806148529
1761467206350665700,0.741665771484375,-0.5137265920639038,-0.03826088830828667,0.6396226286888123
1761467206360649000,0.75164892578125,-0.5118141174316406,-0.05517464876174927,0.6291002631187439
1761467206370632000,0.7616318359375,-0.5154029726982117,-0.04031500592827797,0.636872410774231
1761467206380614700,0.77161474609375,-0.5445108413696289,-0.017660681158304214,0.6580805778503418
1761467206390598000,0.781597900390625,-0.5707235336303711,-0.008472242392599583,0.6829012036323547
1761467206400580900,0.791580810546875,-0.5965840220451355,0.016280943527817726,0.7263002395629883
1761467206410563800,0.801563720703125,-0.6028802990913391,0.05440356209874153,0.7606329321861267
1761467206420546800,0.811546875,-0.5904180407524109,0.15029354393482208,0.7721555233001709
1761467206430529800,0.82152978515625,-0.5293338894844055,0.2729046642780304,0.7447792887687683
1761467206440512000,0.831511962890625,-0.45107460021972656,0.33967873454093933,0.6912264823913574
1761467206450494700,0.84149462890625,-0.3737528920173645,0.3222038745880127,0.6489608287811279
1761467206460478000,0.85147802734375,-0.3057916462421417,0.24627506732940674,0.5885491967201233
1761467206470461000,0.8614609375,-0.24287709593772888,0.1551443636417389,0.4916972219944
1761467206480443600,0.871443603515625,-0.19198653101921082,0.0603942945599556,0.41212478280067444
1761467206490427000,0.881427001953125,-0.12428152561187744,-0.0554734542965889,0.37922435998916626
1761467206500409900,0.891409912109375,-0.11803019046783447,-0.17680102586746216,0.40358462929725647
1761467206510392800,0.901392822265625,-0.17864054441452026,-0.2444130927324295,0.4692155718803406
1761467206520375800,0.911375732421875,-0.2659846842288971,-0.27309557795524597,0.5266134738922119
1761467206530357800,0.921357666015625,-0.3488233685493469,-0.24620269238948822,0.555683434009552
1761467206540341000,0.931341064453125,-0.4180523455142975,-0.13312113285064697,0.5400430560112
1761467206550323700,0.94132373046875,-0.46835118532180786,0.03885994851589203,0.5074190497398376
1761467206560306700,0.951306640625,-0.5113774538040161,0.18336418271064758,0.47608140110969543
1761467206570290000,0.9612900390625,-0.5566123127937317,0.26945990324020386,0.463641494512558
1761467206580273000,0.97127294921875,-0.5567420125007629,0.3276122510433197,0.4536765217781067
1761467206590255600,0.981255615234375,-0.5310622453689575,0.3771696984767914,0.41571077704429626
1761467206600238800,0.99123876953125,-0.4805351793766022,0.42667293548583984,0.3406691253185272
1761467206610220800,1.001220703125,-0.4060700237751007,0.4477127194404602,0.25476938486099243
1761467206620203800,1.011203857421875,-0.3333510160446167,0.4416126012802124,0.18928614258766174
1761467206630186800,1.021186767578125,-0.27099841833114624,0.4053909480571747,0.14804710447788239
1761467206640170000,1.031169921875,-0.21329642832279205,0.33862781524658203,0.12706273794174194
1761467206650153000,1.041153076171875,-0.16550947725772858,0.27359527349472046,0.11536507308483124
1761467206660135700,1.0511357421875,-0.1349567323923111,0.20798486471176147,0.12034012377262115
1761467206670119000,1.061118896484375,-0.12086674571037292,0.14520803093910217,0.13507245481014252
1761467206680102000,1.071101806640625,-0.13995015621185303,0.0875745564699173,0.14873553812503815
1761467206690083800,1.081083740234375,-0.1785321682691574,0.060423899441957474,0.1600891351699829
1761467206700066800,1.09106689453125,-0.2243880331516266,0.0735693871974945,0.1635979413986206
1761467206710049800,1.1010498046875,-0.2787468731403351,0.08249416947364807,0.16341179609298706
1761467206720033000,1.111032958984375,-0.3372963070869446,0.06277821958065033,0.164551243185997
1761467206730015700,1.121015625,-0.3738897442817688,0.020839020609855652,0.15288393199443817
1761467206739998700,1.130998779296875,-0.3910278081893921,-0.0021490282379090786,0.12950289249420166
1761467206749982000,1.14098193359375,-0.40403255820274353,0.021611427888274193,0.1147199422121048
1761467206759965000,1.15096484375,-0.3897080719470978,0.06748208403587341,0.0978582501411438
1761467206769947600,1.16094775390625,-0.38063496351242065,0.11028173565864563,0.09245922416448593
1761467206779929900,1.170929931640625,-0.3716816306114197,0.1725395768880844,0.0914633721113205
1761467206789912800,1.180912841796875,-0.3439945876598358,0.19421637058258057,0.08274897933006287
1761467206799895800,1.190895751953125,-0.31912076473236084,0.19264300167560577,0.07471995055675507
1761467206809878800,1.200878662109375,-0.2895820438861847,0.16819757223129272,0.05392652377486229
1761467206819862000,1.210862060546875,-0.25328391790390015,0.12071548402309418,0.02193324640393257
1761467206829844700,1.2208447265625,-0.23002123832702637,0.07706067711114883,-0.013910770416259766
1761467206839827700,1.23082763671875,-0.20306946337223053,0.05191350355744362,-0.06072234362363815
1761467206849810700,1.240810791015625,-0.18107308447360992,0.05702624097466469,-0.10487275570631027
1761467206859792600,1.250792724609375,-0.1695018708705902,0.08666887134313583,-0.13435344398021698
1761467206869776000,1.26077587890625,-0.1483880579471588,0.12308839708566666,-0.15523049235343933
1761467206879758600,1.270758544921875,-0.12457650154829025,0.1428796947002411,-0.16458392143249512
1761467206889741600,1.280741455078125,-0.10294551402330399,0.17337901890277863,-0.16571815311908722
1761467206899724800,1.290724853515625,-0.07914058119058609,0.21082206070423126,-0.16804185509681702
1761467206909707500,1.30070751953125,-0.055833663791418076,0.22866684198379517,-0.1774129867553711
1761467206919690500,1.3106904296875,-0.011951329186558723,0.24725760519504547,-0.18121130764484406
1761467206929673700,1.320673828125,0.023728106170892715,0.2404625415802002,-0.21190796792507172
1761467206939656700,1.33065673828125,0.08461105078458786,0.21293941140174866,-0.23651839792728424
1761467206949638700,1.340638671875,0.12775105237960815,0.19240351021289825,-0.24743176996707916
1761467206959621600,1.35062158203125,0.15049156546592712,0.16166070103645325,-0.2718636691570282
1761467206969604600,1.3606044921875,0.17893864214420319,0.13463734090328217,-0.2874671220779419
1761467206979587600,1.370587646484375,0.19398078322410583,0.10185033828020096,-0.29591718316078186
1761467206989570600,1.380570556640625,0.1922614425420761,0.06824550777673721,-0.30085790157318115
1761467206999553800,1.3905537109375,0.18809974193572998,0.04101229086518288,-0.3008338510990143
1761467207009536800,1.400536865234375,0.17518819868564606,0.013335123658180237,-0.2954372465610504
1761467207019519500,1.41051953125,0.16172818839550018,-0.005831083282828331,-0.29459333419799805
1761467207029501700,1.420501708984375,0.16625051200389862,-0.026143012568354607,-0.29467883706092834
1761467207039484700,1.430484619140625,0.16587112843990326,-0.0413702018558979,-0.2896925210952759
1761467207049467600,1.440467529296875,0.18199817836284637,-0.06817971169948578,-0.30501261353492737
1761467207059450600,1.45045068359375,0.20517291128635406,-0.09550318121910095,-0.3247891962528229
1761467207069433600,1.46043359375,0.23599767684936523,-0.13642185926437378,-0.3388400375843048
1761467207079416800,1.470416748046875,0.2707289457321167,-0.1882595270872116,-0.35416072607040405
1761467207089399600,1.480399658203125,0.29514479637145996,-0.2177625596523285,-0.36085379123687744
1761467207099382500,1.490382568359375,0.3158142864704132,-0.21706505119800568,-0.3576117157936096
1761467207109365800,1.50036572265625,0.3364761471748352,-0.19794915616512299,-0.35502633452415466
1761467207119347500,1.510347412109375,0.3605872094631195,-0.18970508873462677,-0.3613046705722809
1761467207129330700,1.52033056640625,0.3817201852798462,-0.17733150720596313,-0.36879560351371765
1761467207139313700,1.530313720703125,0.408308744430542,-0.14136330783367157,-0.38329192996025085
1761467207149296600,1.540296630859375,0.4310966432094574,-0.11536365747451782,-0.4176025092601776
1761467207159279600,1.550279541015625,0.4426216781139374,-0.1382007747888565,-0.4626782238483429
1761467207169262600,1.5602626953125,0.44783294200897217,-0.20274220407009125,-0.4879082143306732
1761467207179245800,1.570245849609375,0.4314502775669098,-0.24557025730609894,-0.48976415395736694
1761467207189228800,1.580228759765625,0.4197390079498291,-0.26164695620536804,-0.48632389307022095
1761467207199210800,1.590210693359375,0.4121612310409546,-0.25745710730552673,-0.4788223206996918
1761467207209193700,1.60019384765625,0.4270477890968323,-0.2592739164829254,-0.46546152234077454
1761467207219176700,1.6101767578125,0.4445621371269226,-0.28034037351608276,-0.4377705454826355
1761467207229159700,1.62015966796875,0.45833998918533325,-0.3012368679046631,-0.40821373462677
1761467207239142700,1.630142578125,0.46098196506500244,-0.33094796538352966,-0.39783763885498047
1761467207249125600,1.640125732421875,0.43770089745521545,-0.36117804050445557,-0.41539400815963745
1761467207259108600,1.650108642578125,0.4578235149383545,-0.38935476541519165,-0.4337247908115387
1761467207269091600,1.660091552734375,0.4452930688858032,-0.39213883876800537,-0.40848416090011597
1761467207279074600,1.670074462890625,0.43887749314308167,-0.4105108678340912,-0.37738922238349915
1761467207289056800,1.680056884765625,0.4375842809677124,-0.44921618700027466,-0.35664162039756775
1761467207299039500,1.69003955078125,0.4271121323108673,-0.47708407044410706,-0.3374634385108948
1761467207309022700,1.700022705078125,0.4166906476020813,-0.46621304750442505,-0.34050053358078003
1761467207319005700,1.710005615234375,0.404298335313797,-0.40885332226753235,-0.36650463938713074
1761467207328988700,1.71998876953125,0.4027036428451538,-0.3297574520111084,-0.3978561460971832
1761467207338971600,1.7299716796875,0.41407182812690735,-0.25468114018440247,-0.4228629767894745
1761467207348954600,1.73995458984375,0.43247586488723755,-0.14528217911720276,-0.45223870873451233
1761467207358937900,1.749937744140625,0.4614788889884949,-0.02622653916478157,-0.4868932366371155
1761467207368920600,1.759920654296875,0.4824962913990021,0.04316558316349983,-0.5029515624046326
1761467207378902800,1.76990283203125,0.4830443561077118,-0.018641937524080276,-0.4794562757015228
1761467207388885800,1.7798857421875,0.4541330933570862,-0.15972980856895447,-0.39327797293663025
1761467207398868500,1.789868408203125,0.3708157241344452,-0.22722448408603668,-0.3092692196369171
1761467207408851700,1.799851806640625,0.29522937536239624,-0.16794544458389282,-0.278453528881073
1761467207418834700,1.809834716796875,0.1887597292661667,0.022059228271245956,-0.28029564023017883
1761467207428817700,1.819817626953125,0.11794255673885345,0.15082518756389618,-0.30455759167671204
1761467207438800600,1.829800537109375,0.05423053726553917,0.15641215443611145,-0.30385807156562805
1761467207448783600,1.83978369140625,0.020911194384098053,0.08899901807308197,-0.25897663831710815
1761467207458766600,1.8497666015625,-0.010577201843261719,0.02036438137292862,-0.19080086052417755
1761467207468748500,1.85974853515625,-0.010719148442149162,-0.04135144501924515,-0.12350223958492279
1761467207478731500,1.8697314453125,-0.012436237186193466,-0.09287142008543015,-0.07360710203647614
1761467207488714800,1.87971484375,-0.0035127834416925907,-0.17779403924942017,-0.03525732085108757
1761467207498697700,1.88969775390625,0.012891460210084915,-0.27240633964538574,-0.010296761058270931
1761467207508680700,1.8996806640625,0.017110973596572876,-0.33360975980758667,0.019682709127664566
1761467207518663700,1.90966357421875,0.0038609059993177652,-0.36641523241996765,0.05695514380931854
1761467207528646700,1.919646728515625,-0.01587711274623871,-0.35725024342536926,0.10855335742235184
1761467207538630000,1.9296298828125,-0.053122226148843765,-0.34097880125045776,0.16626523435115814
1761467207548612600,1.939612548828125,-0.09598767012357712,-0.31149014830589294,0.20910431444644928
1761467207558594800,1.9495947265625,-0.132817804813385,-0.2652674615383148,0.24356187880039215
1761467207568577800,1.959577880859375,-0.15669438242912292,-0.20390105247497559,0.2738209664821625
1761467207578560500,1.969560546875,-0.18476618826389313,-0.1805376559495926,0.30031976103782654
1761467207588543700,1.979543701171875,-0.22847452759742737,-0.1496354043483734,0.3073688745498657
1761467207598526700,1.989526611328125,-0.23868428170681,-0.11056531220674515,0.287122905254364
1761467207608509700,1.999509765625,-0.27916887402534485,-0.07202937453985214,0.2537127435207367
1761467207618492700,2.00949267578125,-0.24667111039161682,-0.020797347649931908,0.21132798492908478
1761467207628475600,2.0194755859375,-0.21733425557613373,0.060681793838739395,0.19740603864192963
1761467207638458600,2.029458740234375,-0.17746011912822723,0.14957888424396515,0.21680612862110138
1761467207648440600,2.039440673828125,-0.12499531358480453,0.2015611231327057,0.23177841305732727
1761467207658423600,2.049423583984375,-0.08040546625852585,0.21664437651634216,0.25453367829322815
1761467207668406800,2.05940673828125,-0.049220386892557144,0.17992497980594635,0.28530117869377136
1761467207678389500,2.069389404296875,-0.025009743869304657,0.11623230576515198,0.3135979473590851
1761467207688372700,2.079372802734375,-0.011241202242672443,0.043827883899211884,0.33338895440101624
1761467207698355700,2.089355712890625,-0.006264855619519949,0.006724487990140915,0.35721856355667114
1761467207708338700,2.099338623046875,-0.017281554639339447,0.013894782401621342,0.39576223492622375
1761467207718321700,2.10932177734375,-0.027960631996393204,0.04765608161687851,0.43990474939346313
1761467207728304600,2.1193046875,-0.04236087575554848,0.08925678580999374,0.48464104533195496
1761467207738286800,2.129286865234375,-0.05921827256679535,0.13101738691329956,0.5337333679199219
1761467207748269600,2.13926953125,-0.08142264187335968,0.14427725970745087,0.5866376161575317
1761467207758252500,2.14925244140625,-0.12362191081047058,0.14689958095550537,0.6438232660293579
1761467207768235800,2.15923583984375,-0.16887114942073822,0.16456937789916992,0.6851435899734497
1761467207778218800,2.16921875,-0.20249147713184357,0.19819921255111694,0.7173888683319092
1761467207788201500,2.179201416015625,-0.2344464808702469,0.23150736093521118,0.7411045432090759
1761467207798184700,2.189184814453125,-0.26835447549819946,0.26649749279022217,0.7748522758483887
1761467207808167700,2.199167724609375,-0.29735124111175537,0.3066244125366211,0.8116062879562378
1761467207818150700,2.209150634765625,-0.31510815024375916,0.3385039269924164,0.8610991835594177
1761467207828132600,2.219132568359375,-0.33992668986320496,0.35886672139167786,0.9136455059051514
1761467207838115600,2.229115478515625,-0.36052975058555603,0.3843659460544586,0.9642202854156494
1761467207848094500,2.239094482421875,-0.37386554479599,0.42020729184150696,0.9986957311630249
1761467207858077400,2.249077392578125,-0.3767266869544983,0.4491563141345978,1.01116943359375
1761467207868060400,2.259060302734375,-0.3827406167984009,0.46260368824005127,1.0156280994415283
1761467207878043400,2.26904345703125,-0.39787742495536804,0.48339319229125977,1.0271754264831543
1761467207888026400,2.2790263671875,-0.4219968914985657,0.48551252484321594,1.0395796298980713
1761467207898009300,2.28900927734375,-0.4483952224254608,0.47257184982299805,1.0460214614868164
1761467207907992300,2.298992431640625,-0.47435757517814636,0.4744856059551239,1.0629528760910034
1761467207917975600,2.3089755859375,-0.5099203586578369,0.5009034276008606,1.0980671644210815
1761467207927957200,2.318957275390625,-0.5437456965446472,0.5187727212905884,1.1241672039031982
1761467207937940500,2.3289404296875,-0.5626214146614075,0.5311288237571716,1.1473798751831055
1761467207947923500,2.33892333984375,-0.5744783282279968,0.5411710739135742,1.1841144561767578
1761467207957906400,2.348906494140625,-0.5802866220474243,0.5347484350204468,1.2191565036773682
1761467207967889400,2.358889404296875,-0.5795231461524963,0.49986153841018677,1.2220820188522339
1761467207977872400,2.368872314453125,-0.580956757068634,0.4660957157611847,1.204949140548706
1761467207987855400,2.37885546875,-0.5758589506149292,0.44749540090560913,1.1781824827194214
1761467207997838600,2.388838623046875,-0.5697636008262634,0.4225592017173767,1.1450161933898926
1761467208007821300,2.3988212890625,-0.5765844583511353,0.39283832907676697,1.1153757572174072
1761467208017803500,2.408803466796875,-0.5904334187507629,0.3604224920272827,1.0982930660247803
1761467208027786500,2.418786376953125,-0.6117629408836365,0.32368817925453186,1.0939692258834839
1761467208037769200,2.428769287109375,-0.6414687037467957,0.2977450489997864,1.0905307531356812
1761467208047752400,2.43875244140625,-0.656907320022583,0.30292731523513794,1.08083176612854
1761467208057735400,2.4487353515625,-0.6753939390182495,0.3301049768924713,1.0723488330841064
1761467208067718400,2.458718505859375,-0.6977027058601379,0.33873122930526733,1.0753861665725708
1761467208077701400,2.468701416015625,-0.694267988204956,0.34367790818214417,1.0832628011703491
1761467208087684400,2.478684326171875,-0.6906615495681763,0.32922014594078064,1.1025395393371582
1761467208097667300,2.488667236328125,-0.678630530834198,0.3001392185688019,1.1120831966400146
1761467208107650600,2.498650634765625,-0.6631079912185669,0.2691091299057007,1.115098476409912
1761467208117632500,2.508632568359375,-0.6408050060272217,0.27254706621170044,1.1111724376678467
1761467208127615500,2.518615478515625,-0.6289411187171936,0.3127562701702118,1.1060339212417603
1761467208137598500,2.528598388671875,-0.6256209015846252,0.35400882363319397,1.1003520488739014
1761467208147581400,2.53858154296875,-0.6295037865638733,0.36114662885665894,1.1102110147476196
1761467208157564400,2.548564453125,-0.6452067494392395,0.3394855558872223,1.1132992506027222
1761467208167547400,2.55854736328125,-0.6668164730072021,0.3293980360031128,1.1182564496994019
1761467208177530600,2.568530517578125,-0.6927230954170227,0.3300478458404541,1.1097748279571533
1761467208187513300,2.578513427734375,-0.7112696170806885,0.34769928455352783,1.1015528440475464
1761467208197496300,2.588496337890625,-0.7131829857826233,0.37948814034461975,1.0862469673156738
1761467208207479600,2.5984794921875,-0.717324435710907,0.4033290147781372,1.084080457687378
1761467208217461200,2.608461181640625,-0.6929861903190613,0.4309854507446289,1.0930616855621338
1761467208227444500,2.618444580078125,-0.6844984292984009,0.4464983642101288,1.1102824211120605
1761467208237427500,2.628427490234375,-0.6642594337463379,0.45306676626205444,1.1191177368164062
1761467208247410200,2.63841015625,-0.6543234586715698,0.44545572996139526,1.131238341331482
1761467208257393400,2.648393310546875,-0.6556978821754456,0.4200098216533661,1.146369218826294
1761467208267376400,2.65837646484375,-0.6641778945922852,0.3914487361907959,1.1628565788269043
1761467208277359400,2.668359375,-0.6874111890792847,0.3380081057548523,1.171065092086792
1761467208287342300,2.67834228515625,-0.714506983757019,0.2721063196659088,1.1707844734191895
1761467208297325300,2.6883251953125,-0.7429720759391785,0.21527130901813507,1.1608011722564697
1761467208307308500,2.69830859375,-0.7788158059120178,0.15649613738059998,1.1469849348068237
1761467208317290200,2.708290283203125,-0.8064277768135071,0.11418576538562775,1.1402958631515503
1761467208327273500,2.7182734375,-0.8236581683158875,0.09955035895109177,1.155036449432373
1761467208337256400,2.72825634765625,-0.8458743095397949,0.09719134122133255,1.1922656297683716
1761467208347239400,2.738239501953125,-0.8729719519615173,0.08071302622556686,1.2324697971343994
1761467208357222400,2.748222412109375,-0.8927498459815979,0.07584221661090851,1.2862170934677124
1761467208367205400,2.758205322265625,-0.9132223725318909,0.12962768971920013,1.3460673093795776
1761467208377188400,2.768188232421875,-0.9011459350585938,0.27375099062919617,1.386868953704834
1761467208387171600,2.778171630859375,-0.8585805892944336,0.45814213156700134,1.3678580522537231
1761467208397154300,2.788154296875,-0.7903264760971069,0.5766763091087341,1.2983262538909912
1761467208407137300,2.79813720703125,-0.7102087736129761,0.5827850699424744,1.1758264303207397
1761467208417120500,2.80812060546875,-0.5960146188735962,0.5268200635910034,1.0354801416397095
1761467208427102200,2.818102294921875,-0.4743611812591553,0.4852678179740906,0.9382058382034302
1761467208437085400,2.82808544921875,-0.3768487572669983,0.41242459416389465,0.9285905957221985
1761467208447068400,2.838068359375,-0.31030169129371643,0.29394641518592834,1.0097051858901978
1761467208457051400,2.848051513671875,-0.3112553656101227,0.12961633503437042,1.1300371885299683
1761467208467034400,2.858034423828125,-0.3836888074874878,-0.02010098658502102,1.269120693206787
1761467208477017300,2.868017333984375,-0.4972737729549408,-0.16086453199386597,1.3953838348388672
1761467208487000600,2.87800048828125,-0.6366164088249207,-0.2212437093257904,1.4660651683807373
1761467208496983600,2.887983642578125,-0.7571218609809875,-0.20467905700206757,1.4705214500427246
1761467208506966300,2.89796630859375,-0.8282111883163452,-0.11213234066963196,1.4357107877731323
1761467208516949500,2.907949462890625,-0.8755919337272644,0.0029510632157325745,1.3734437227249146
1761467208526931500,2.917931396484375,-0.9026912450790405,0.17585599422454834,1.2913546562194824
1761467208536914400,2.92791455078125,-0.8751005530357361,0.358756422996521,1.1788042783737183
1761467208546897400,2.9378974609375,-0.8203648924827576,0.4869447648525238,1.0180414915084839
1761467208556880400,2.94788037109375,-0.7471315264701843,0.556788444519043,0.8525511622428894
1761467208566863400,2.95786328125,-0.6777737736701965,0.5884526371955872,0.7047252058982849
1761467208576846300,2.967846435546875,-0.625870943069458,0.565842866897583,0.5854059457778931
1761467208586829300,2.977829345703125,-0.6030314564704895,0.49940094351768494,0.5212528109550476
1761467208596812500,2.9878125,-0.5960177183151245,0.38394275307655334,0.5252512097358704
1761467208606795300,2.997795166015625,-0.6358574628829956,0.23238864541053772,0.5927575826644897
1761467208616778500,3.007778564453125,-0.6905606389045715,0.09324336796998978,0.7052404880523682
1761467208626761500,3.017761474609375,-0.7648143768310547,0.015359219163656235,0.8108726143836975
1761467208636743400,3.027743408203125,-0.8457184433937073,0.01084238849580288,0.8707862496376038
1761467208646726400,3.037726318359375,-0.9217436909675598,0.044565729796886444,0.8911599516868591
1761467208656709400,3.04770947265625,-0.9713422060012817,0.09025081992149353,0.8694873452186584
1761467208666692600,3.057692626953125,-1.0096880197525024,0.14359551668167114,0.8206515908241272
1761467208676675300,3.06767529296875,-1.0145233869552612,0.1880781650543213,0.7677299380302429
1761467208686658300,3.077658203125,-0.9951331615447998,0.24057413637638092,0.7022520899772644
1761467208696641500,3.0876416015625,-0.9439725279808044,0.3235771656036377,0.6445526480674744
1761467208706624500,3.09762451171875,-0.8728197813034058,0.38004791736602783,0.5832589268684387
1761467208716607200,3.107607177734375,-0.8031985759735107,0.41822105646133423,0.5571566820144653
1761467208726590500,3.117590576171875,-0.7358542084693909,0.40188124775886536,0.5730917453765869
1761467208736573400,3.127573486328125,-0.6810701489448547,0.3670814335346222,0.6170992851257324
1761467208746555400,3.137555419921875,-0.6492416262626648,0.33529794216156006,0.6650042533874512
1761467208756538400,3.147538330078125,-0.6342730522155762,0.3229594826698303,0.6824285387992859
1761467208766521300,3.157521240234375,-0.625163197517395,0.31266021728515625,0.6726936101913452
1761467208776504600,3.167504638671875,-0.635414183139801,0.31846457719802856,0.6570296883583069
1761467208786487300,3.1774873046875,-0.6348857879638672,0.2956692576408386,0.6242421865463257
1761467208796470500,3.187470458984375,-0.629349410533905,0.26812005043029785,0.5848190188407898
1761467208806453500,3.19745361328125,-0.619038999080658,0.2561526298522949,0.527725100517273
1761467208816436500,3.2074365234375,-0.6004268527030945,0.2707462012767792,0.47560548782348633
1761467208826419500,3.21741943359375,-0.573633074760437,0.30108362436294556,0.4258485734462738
1761467208836402400,3.22740234375,-0.5440995693206787,0.32736852765083313,0.37489303946495056
1761467208846385200,3.23738525390625,-0.4978378117084503,0.32562869787216187,0.32935431599617004
1761467208856368400,3.247368408203125,-0.45971429347991943,0.2599070966243744,0.2907755970954895
1761467208866350000,3.25735009765625,-0.39362743496894836,0.17726252973079681,0.25106149911880493
1761467208876333300,3.267333251953125,-0.3397844433784485,0.12025747448205948,0.2079155594110489
1761467208886316300,3.27731640625,-0.29373544454574585,0.08050127327442169,0.14622876048088074
1761467208896299000,3.287299072265625,-0.256984680891037,0.06976720690727234,0.06861843168735504
1761467208906282200,3.2972822265625,-0.2379569113254547,0.07683736830949783,-0.009758127853274345
1761467208916265200,3.30726513671875,-0.2099299132823944,0.05574256554245949,-0.07346455752849579
1761467208926248200,3.317248291015625,-0.16709937155246735,0.018776293843984604,-0.1272987723350525
1761467208936231200,3.327231201171875,-0.13409283757209778,-0.03958689048886299,-0.16616573929786682
1761467208946214100,3.337214111328125,-0.08875598013401031,-0.07456964254379272,-0.16448581218719482
1761467208956197400,3.347197265625,-0.06606235355138779,-0.12481734901666641,-0.11111127585172653
1761467208966180000,3.35718017578125,-0.06638592481613159,-0.21895423531532288,-0.02865128591656685
1761467208976163000,3.3671630859375,-0.07016269862651825,-0.3145396113395691,0.05101877823472023
1761467208986145300,3.377145263671875,-0.07606452703475952,-0.33847397565841675,0.09911680221557617
1761467208996128300,3.387128173828125,-0.07064252346754074,-0.3157687783241272,0.0983305275440216
1761467209006111200,3.397111328125,-0.036064308136701584,-0.2749614417552948,0.0656503438949585
1761467209016094200,3.40709423828125,0.01851728931069374,-0.21828797459602356,0.04455230012536049
1761467209026077200,3.4170771484375,0.07711721956729889,-0.1786835640668869,0.0430513434112072
1761467209036060200,3.42706005859375,0.1299591362476349,-0.17008155584335327,0.04203934222459793
1761467209046043100,3.437043212890625,0.17415829002857208,-0.1867838352918625,0.046462055295705795
1761467209056026000,3.447026123046875,0.2043820470571518,-0.22138240933418274,0.05589193478226662
1761467209066009300,3.45700927734375,0.2184203714132309,-0.24776208400726318,0.08559869974851608
1761467209075992000,3.466991943359375,0.20492473244667053,-0.22605516016483307,0.13348957896232605
1761467209085975300,3.476975341796875,0.17742598056793213,-0.12222489714622498,0.1620706170797348
1761467209095958300,3.486958251953125,0.15071116387844086,0.07759714871644974,0.14442478120326996
1761467209105940200,3.496940185546875,0.12643378973007202,0.2519015669822693,0.1079527959227562
1761467209115923200,3.506923095703125,0.09584110230207443,0.29322031140327454,0.10298845171928406
1761467209125906200,3.51690625,0.06535377353429794,0.16038744151592255,0.1438423991203308
1761467209135889400,3.526889404296875,0.033816806972026825,-0.0573558583855629,0.18615411221981049
1761467209145872100,3.5368720703125,-0.00935809314250946,-0.25538158416748047,0.21134363114833832
1761467209155855000,3.546855224609375,-0.05496092140674591,-0.3612261116504669,0.20316043496131897
1761467209165838300,3.55683837890625,-0.0895194336771965,-0.3836057186126709,0.20136785507202148
1761467209175821300,3.5668212890625,-0.11826256662607193,-0.361575186252594,0.21565449237823486
1761467209185804000,3.576803955078125,-0.13747967779636383,-0.3526650369167328,0.23371659219264984
1761467209195787300,3.586787353515625,-0.1475892812013626,-0.346345990896225,0.24898117780685425
1761467209205770200,3.596770263671875,-0.15179866552352905,-0.33804836869239807,0.2527593970298767
1761467209215753200,3.606753173828125,-0.1476539969444275,-0.32022321224212646,0.2352457195520401
1761467209225736200,3.616736083984375,-0.1335136741399765,-0.30838707089424133,0.21298275887966156
1761467209235718100,3.62671826171875,-0.11885950714349747,-0.28462475538253784,0.18644174933433533
1761467209245701400,3.636701416015625,-0.11943128705024719,-0.24371777474880219,0.16073398292064667
1761467209255684000,3.64668408203125,-0.09276072680950165,-0.1954239010810852,0.14336948096752167
1761467209265667300,3.656667236328125,-0.08963044732809067,-0.14000192284584045,0.1402738243341446
1761467209275650300,3.666650390625,-0.08453185856342316,-0.07572370767593384,0.14279094338417053
1761467209285633000,3.676633056640625,-0.0817033126950264,0.0026696352288126945,0.13007088005542755
1761467209295616300,3.6866162109375,-0.08398815989494324,0.0824088454246521,0.09933949261903763
1761467209305599200,3.69659912109375,-0.08332396298646927,0.1327710896730423,0.06752243638038635
1761467209315582200,3.706582275390625,-0.08022723346948624,0.14324292540550232,0.03071414679288864
1761467209325565200,3.716565185546875,-0.06635881960391998,0.1300610899925232,0.01033963356167078
1761467209335548200,3.726548095703125,-0.05648402124643326,0.10248034447431564,0.016453450545668602
1761467209345531100,3.73653125,-0.0442020557820797,0.08276363462209702,0.03594566136598587
1761467209355514400,3.746514404296875,-0.020987002179026604,0.06785688549280167,0.05044982209801674
1761467209365496000,3.75649609375,-0.013639874756336212,0.05889188498258591,0.049592550843954086
1761467209375479300,3.766479248046875,-0.016346747055649757,0.030444955453276634,0.036330968141555786
1761467209385462300,3.776462158203125,-0.01534060388803482,-0.010504608042538166,0.02665570192039013
1761467209395445000,3.786445068359375,-0.00978564191609621,-0.06401196867227554,0.03299727290868759
1761467209405428200,3.79642822265625,-0.020617783069610596,-0.10225922614336014,0.06832623481750488
1761467209415411200,3.8064111328125,-0.0197744220495224,-0.12412672489881516,0.11336801201105118
1761467209425394200,3.816394287109375,-0.005517990328371525,-0.1169833317399025,0.1509241759777069
1761467209435377200,3.826377197265625,0.014964578673243523,-0.0881151407957077,0.1693463772535324
1761467209445360000,3.836360107421875,0.04204040393233299,-0.044804953038692474,0.16516734659671783
1761467209455343400,3.84634326171875,0.08070097118616104,-0.007802298292517662,0.13439148664474487
1761467209465326300,3.856326416015625,0.11953864991664886,0.002351003000512719,0.09895972907543182
1761467209475309000,3.86630908203125,0.14697116613388062,-0.007106790319085121,0.06714842468500137
1761467209485292300,3.876292236328125,0.16912387311458588,-0.03773580491542816,0.04737791791558266
1761467209495275300,3.886275146484375,0.17876237630844116,-0.040978942066431046,0.03670987859368324
1761467209505257200,3.89625732421875,0.17660334706306458,-0.02679574489593506,0.033844318240880966
1761467209515240200,3.906240234375,0.17705166339874268,0.009716354310512543,0.03278054669499397
1761467209525223200,3.91622314453125,0.17727349698543549,0.05650516599416733,0.023649102076888084
1761467209535206400,3.926206298828125,0.18727059662342072,0.10101500153541565,-0.0005287800449877977
1761467209545189000,3.936189208984375,0.19807769358158112,0.09422314167022705,-0.020074518397450447
1761467209555172000,3.946172119140625,0.20898155868053436,0.04981615021824837,-0.0183145422488451
1761467209565155300,3.9561552734375,0.21076081693172455,0.0021953692194074392,0.003548678942024708
1761467209575138000,3.966137939453125,0.20852160453796387,-0.010950736701488495,0.007779430132359266
1761467209585121300,3.976121337890625,0.19725163280963898,-0.00003417301923036575,-0.017364006489515305
1761467209595104300,3.986104248046875,0.1851431429386139,0.0225912407040596,-0.05067482590675354
1761467209605087200,3.996087158203125,0.16969440877437592,0.0388391837477684,-0.08165750652551651
1761467209615070200,4.0060703125,0.16401158273220062,0.02122349478304386,-0.10412175208330154
1761467209625051100,4.016051025390625,0.15782612562179565,0.0012002510484308004,-0.10820651054382324
1761467209635034000,4.0260341796875,0.14013643562793732,0.005880704149603844,-0.10332664102315903
1761467209645017000,4.03601708984375,0.12897752225399017,0.03262576460838318,-0.1061922013759613
1761467209655000300,4.046000244140625,0.12420579046010971,0.06536231935024261,-0.11735808849334717
1761467209664983300,4.0559833984375,0.12430592626333237,0.11597968637943268,-0.1271428018808365
1761467209674966000,4.065966064453125,0.13238734006881714,0.1735275387763977,-0.1295384168624878
1761467209684948200,4.0759482421875,0.1507602334022522,0.21130341291427612,-0.13262423872947693
1761467209694931200,4.08593115234375,0.164372056722641,0.2264956831932068,-0.1290217638015747
1761467209704914200,4.0959140625,0.16830261051654816,0.21778741478919983,-0.11950310319662094
1761467209714897200,4.105897216796875,0.17062044143676758,0.19235199689865112,-0.10798211395740509
1761467209724880100,4.115880126953125,0.166722372174263,0.1479291319847107,-0.08276756852865219
1761467209734863400,4.12586328125,0.16842207312583923,0.09284132719039917,-0.061737705022096634
1761467209744846000,4.13584619140625,0.1687546968460083,0.05149761959910393,-0.032076746225357056
1761467209754829000,4.1458291015625,0.16436532139778137,0.047251053154468536,-0.004566185642033815
1761467209764812300,4.155812255859375,0.16422444581985474,0.03438079357147217,0.025178128853440285
1761467209774795300,4.165795166015625,0.1529954969882965,0.0165556613355875,0.06130891293287277
1761467209784778200,4.1757783203125,0.1260128766298294,-0.006048716604709625,0.09447165578603745
1761467209794761200,4.18576123046875,0.0856674313545227,-0.03571281209588051,0.13216716051101685
1761467209804744200,4.195744140625,0.049065738916397095,-0.05070161446928978,0.1663389801979065
1761467209814727400,4.2057275390625,0.012347356416285038,-0.04207497835159302,0.18682146072387695
1761467209824710100,4.215710205078125,-0.022119540721178055,-0.010339685715734959,0.19339148700237274
1761467209834692400,4.2256923828125,-0.06385981291532516,0.031550005078315735,0.1967329978942871
1761467209844675300,4.23567529296875,-0.10192703455686569,0.06845928728580475,0.1935899257659912
1761467209854659300,4.245659423828125,-0.13995087146759033,0.10429457575082779,0.17834845185279846
1761467209864642300,4.255642333984375,-0.16785120964050293,0.12467867136001587,0.16466298699378967
1761467209874625500,4.26562548828125,-0.18293656408786774,0.12488452345132828,0.1593574434518814
1761467209884608500,4.2756083984375,-0.18022093176841736,0.11140334606170654,0.15971989929676056
1761467209894591200,4.28559130859375,-0.15967224538326263,0.08446238189935684,0.1540330946445465
1761467209904574500,4.295574462890625,-0.1239834800362587,0.055362820625305176,0.1376674324274063
1761467209914557400,4.305557373046875,-0.07903361320495605,0.023832324892282486,0.11449500173330307
1761467209924540400,4.31554052734375,-0.04224098101258278,-0.02344091422855854,0.09510239958763123
1761467209934523400,4.3255234375,-0.031091975048184395,-0.06308504939079285,0.09152518957853317
1761467209944506400,4.33550634765625,-0.03995497524738312,-0.0978584811091423,0.1103324368596077
1761467209954489300,4.3454892578125,-0.06449858099222183,-0.13481925427913666,0.13945931196212769
1761467209964472300,4.355472412109375,-0.1047448068857193,-0.16585521399974823,0.17486338317394257
1761467209974455300,4.365455322265625,-0.14184130728244781,-0.15302783250808716,0.2304379642009735
1761467209984437500,4.3754375,-0.17568235099315643,-0.09049148112535477,0.2949674129486084
1761467209994420500,4.38542041015625,-0.19579747319221497,0.024671968072652817,0.36410316824913025
1761467210004403500,4.395403564453125,-0.17704083025455475,0.18254496157169342,0.4114603102207184
1761467210014386400,4.405386474609375,-0.15816630423069,0.28162822127342224,0.43213987350463867
1761467210024369400,4.415369384765625,-0.14513172209262848,0.1984899342060089,0.4495137929916382
1761467210034352400,4.425352294921875,-0.11685426533222198,-0.02617155946791172,0.4741300344467163
1761467210044335400,4.43533544921875,-0.09948938339948654,-0.19772253930568695,0.4896211326122284
1761467210054318300,4.445318359375,-0.09845121204853058,-0.21725037693977356,0.4732152819633484
1761467210064301600,4.455301513671875,-0.09928664565086365,-0.14305098354816437,0.430471807718277
1761467210074284300,4.4652841796875,-0.08975116163492203,-0.12055595964193344,0.4198776185512543
1761467210084267300,4.475267333984375,-0.09459225833415985,-0.1975780427455902,0.47254428267478943
1761467210094250500,4.48525048828125,-0.1285792589187622,-0.34517747163772583,0.5550302863121033
1761467210104233500,4.4952333984375,-0.19406825304031372,-0.46638059616088867,0.6169524788856506
1761467210114216400,4.505216552734375,-0.2855321764945984,-0.5124049186706543,0.6331400871276855
1761467210124199400,4.515199462890625,-0.3868763744831085,-0.4618474543094635,0.6237407326698303
1761467210134182400,4.525182373046875,-0.43980082869529724,-0.36253923177719116,0.5786622166633606
1761467210144165600,4.53516552734375,-0.48446550965309143,-0.27103596925735474,0.5307844281196594
1761467210154147300,4.545147216796875,-0.5211849808692932,-0.2016444206237793,0.46871599555015564
1761467210164130600,4.555130615234375,-0.5325710773468018,-0.12746340036392212,0.41598913073539734
1761467210174113500,4.565113525390625,-0.5217694640159607,-0.0353829525411129,0.3688083589076996
1761467210184096300,4.57509619140625,-0.49277591705322266,0.06495989859104156,0.3074858784675598
1761467210194079500,4.58507958984375,-0.4334371089935303,0.1476564258337021,0.24885644018650055
1761467210204062500,4.5950625,-0.3646561801433563,0.20788514614105225,0.2065984457731247
1761467210214045400,4.60504541015625,-0.3032023012638092,0.21365846693515778,0.17766304314136505
1761467210224028400,4.6150283203125,-0.2490440011024475,0.18417540192604065,0.1679030954837799
1761467210234011400,4.625011474609375,-0.23003749549388885,0.10155946016311646,0.17273177206516266
1761467210243994400,4.634994384765625,-0.216856449842453,-0.0021922411397099495,0.19390657544136047
1761467210253977300,4.644977294921875,-0.21240337193012238,-0.0964910015463829,0.2083103358745575
1761467210263960300,4.654960205078125,-0.24935287237167358,-0.16847702860832214,0.2108808308839798
1761467210273943600,4.664943603515625,-0.2829238772392273,-0.18401503562927246,0.21978051960468292
1761467210283926500,4.674926513671875,-0.32149335741996765,-0.17577148973941803,0.24005569517612457
1761467210293909200,4.6849091796875,-0.37874892354011536,-0.1400342583656311,0.2761564552783966
1761467210303892500,4.694892578125,-0.4260290861129761,-0.11435607075691223,0.31481650471687317
1761467210313875500,4.70487548828125,-0.4656701683998108,-0.11293409764766693,0.33608487248420715
1761467210323858400,4.7148583984375,-0.49591726064682007,-0.11589393019676208,0.33875441551208496
1761467210333840400,4.72484033203125,-0.5181457996368408,-0.09121042490005493,0.3246042728424072
1761467210343823400,4.7348232421875,-0.5357874035835266,-0.059407755732536316,0.3105137348175049
1761467210353806600,4.744806640625,-0.540459394454956,0.010025165043771267,0.28977760672569275
1761467210363789300,4.754789306640625,-0.5313572883605957,0.09465110301971436,0.2684006690979004
1761467210373772300,4.764772216796875,-0.5097028613090515,0.16824650764465332,0.2509721517562866
1761467210383755500,4.774755615234375,-0.48573386669158936,0.19843663275241852,0.23326346278190613
1761467210393738500,4.784738525390625,-0.45609188079833984,0.1843005120754242,0.222342848777771
1761467210403721200,4.79472119140625,-0.4365522861480713,0.13729572296142578,0.1944023072719574
1761467210413704400,4.804704345703125,-0.4222467243671417,0.097782664000988,0.16279375553131104
1761467210423687400,4.8146875,-0.40688639879226685,0.08454755693674088,0.12190385907888412
1761467210433670400,4.82467041015625,-0.38972872495651245,0.10033834725618362,0.07934744656085968
1761467210443653400,4.8346533203125,-0.38056957721710205,0.1422535628080368,0.0408831425011158
1761467210453636400,4.84463623046875,-0.3639034330844879,0.19859321415424347,0.02152404934167862
1761467210463619600,4.85461962890625,-0.3626458942890167,0.2587638795375824,0.026792049407958984
1761467210473602300,4.864602294921875,-0.34296560287475586,0.2958219349384308,0.040644362568855286
1761467210483585300,4.874585205078125,-0.31850817799568176,0.3110722601413727,0.052365999668836594
1761467210493568500,4.884568603515625,-0.2982432544231415,0.33245956897735596,0.05692187324166298
1761467210503551500,4.894551513671875,-0.2485784888267517,0.3307972252368927,0.05324617773294449
1761467210513534200,4.9045341796875,-0.21034559607505798,0.30596253275871277,0.047148447483778
1761467210523516400,4.914516357421875,-0.17018991708755493,0.26589953899383545,0.0544806607067585
1761467210533499400,4.92449951171875,-0.12444889545440674,0.2373403161764145,0.06671515107154846
1761467210543482400,4.934482421875,-0.08256696909666061,0.21382194757461548,0.05324941501021385
1761467210553465300,4.94446533203125,-0.05142120644450188,0.20731619000434875,0.03266916796565056
1761467210563448300,4.9544482421875,-0.03163578361272812,0.1892319917678833,0.015666482970118523
1761467210573431600,4.964431640625,-0.012991515919566154,0.1508125364780426,-0.006862957961857319
1761467210583414300,4.974414306640625,-0.003789228852838278,0.10732152312994003,-0.029191965237259865
1761467210593397500,4.9843974609375,-0.00010927300900220871,0.057796843349933624,-0.043340008705854416
1761467210603380500,4.99438037109375,-0.0038885646499693394,0.009896164759993553,-0.04626122862100601
1761467210613363500,5.004363525390625,-0.005030614789575338,-0.017915425822138786,-0.029341593384742737
1761467210623346400,5.014346435546875,-0.005056446883827448,-0.033369749784469604,-0.013645721599459648
1761467210633329400,5.024329345703125,0.0002138582058250904,-0.029348811134696007,0.003188232658430934
1761467210643312400,5.0343125,0.01348998211324215,-0.022117264568805695,0.024316420778632164
1761467210653295600,5.044295654296875,0.0283993910998106,-0.019486697390675545,0.0646594762802124
1761467210663278300,5.0542783203125,0.049789369106292725,-0.04641924425959587,0.11056011915206909
1761467210673261300,5.06426123046875,0.07476440072059631,-0.04559063911437988,0.15527044236660004
1761467210683244500,5.07424462890625,0.0938507467508316,-0.012323225848376751,0.17328380048274994
1761467210693227500,5.0842275390625,0.11836926639080048,0.06270533055067062,0.15725380182266235
1761467210703210200,5.094210205078125,0.1426868587732315,0.1290510594844818,0.10055802762508392
1761467210713193500,5.104193359375,0.1613776981830597,0.16345930099487305,0.027900829911231995
1761467210723175400,5.114175537109375,0.17229558527469635,0.1841701716184616,-0.037507202476263046
1761467210733158400,5.124158447265625,0.1620374619960785,0.18831735849380493,-0.09245025366544724
1761467210743141400,5.134141357421875,0.16523832082748413,0.1912308633327484,-0.13635991513729095
1761467210753124400,5.144124267578125,0.15682947635650635,0.18280935287475586,-0.15721651911735535
1761467210763107300,5.154107421875,0.13930535316467285,0.15631622076034546,-0.15951694548130035
1761467210773090300,5.16409033203125,0.1228710412979126,0.09153451025485992,-0.1513189822435379
1761467210783073500,5.174073486328125,0.10568726062774658,0.00871792621910572,-0.14893439412117004
1761467210793056500,5.184056396484375,0.08126191794872284,-0.05896656960248947,-0.1522654891014099
1761467210803039200,5.194039306640625,0.060047972947359085,-0.09807775169610977,-0.1661807745695114
1761467210813022500,5.2040224609375,0.049292951822280884,-0.12165714055299759,-0.18741075694561005
1761467210823005400,5.21400537109375,0.04834246635437012,-0.11393237859010696,-0.21002471446990967
1761467210832988400,5.223988525390625,0.04949815943837166,-0.07513696700334549,-0.246908038854599
1761467210842971400,5.233971435546875,0.05480770394206047,-0.02706771157681942,-0.292674720287323
1761467210852953300,5.243953369140625,0.06564247608184814,-0.000774103682488203,-0.341177374124527
1761467210862936600,5.2539365234375,0.07580749690532684,-0.036471378058195114,-0.3637324869632721
1761467210872919600,5.26391943359375,0.08557350933551788,-0.08938779681921005,-0.35720738768577576
1761467210882902500,5.273902587890625,0.11352817714214325,-0.07168763130903244,-0.3360091745853424
1761467210892885500,5.283885498046875,0.11997354030609131,-0.023066818714141846,-0.3384803235530853
1761467210902868500,5.293868408203125,0.12028779089450836,-0.006407414563000202,-0.37605565786361694
1761467210912851500,5.3038515625,0.11564218997955322,-0.06923165917396545,-0.4056660234928131
1761467210922834700,5.313834716796875,0.12424473464488983,-0.16907623410224915,-0.4116418659687042
1761467210932816400,5.32381640625,0.13604602217674255,-0.2683606445789337,-0.3871489465236664
1761467210942799600,5.333799560546875,0.12849411368370056,-0.30618128180503845,-0.3447045385837555
1761467210952782600,5.343782470703125,0.11891314387321472,-0.3068401515483856,-0.30294299125671387
1761467210962765600,5.353765625,0.09940122812986374,-0.27160945534706116,-0.263114333152771
1761467210972748500,5.36374853515625,0.07192394137382507,-0.21046754717826843,-0.21424807608127594
1761467210982731500,5.3737314453125,0.04196418076753616,-0.14061923325061798,-0.1635550707578659
1761467210992714800,5.38371484375,0.008324659429490566,-0.0738835260272026,-0.10663093626499176
1761467211002697500,5.393697509765625,-0.02405059151351452,-0.012023353949189186,-0.041023433208465576
1761467211012680400,5.403680419921875,-0.05637931823730469,0.03667953982949257,0.002948859240859747
1761467211022663700,5.41366357421875,-0.06840402632951736,0.06635913997888565,0.04198334366083145
1761467211032646400,5.423646484375,-0.07046879082918167,0.08295357972383499,0.08239040523767471
1761467211042629400,5.43362939453125,-0.05102691426873207,0.07723044604063034,0.1193510890007019
1761467211052612600,5.443612548828125,-0.030079275369644165,0.04353811591863632,0.14850935339927673
1761467211062595600,5.453595703125,0.00038356008008122444,-0.0056818947196006775,0.1506182998418808
1761467211072578300,5.463578369140625,0.009108452126383781,-0.049961190670728683,0.1367880403995514
1761467211082561500,5.4735615234375,0.005550469271838665,-0.08829259872436523,0.1157328262925148
1761467211092544500,5.48354443359375,-0.011167505756020546,-0.09841635078191757,0.09944681078195572
1761467211102527700,5.49352783203125,-0.030290333554148674,-0.08549629151821136,0.07908427715301514
1761467211112510500,5.503510498046875,-0.05786430463194847,-0.04418624937534332,0.069437675178051
1761467211122493400,5.513493408203125,-0.07487737387418747,0.007571754977107048,0.07625696808099747
1761467211132476700,5.5234765625,-0.07422338426113129,0.05339683219790459,0.10505004227161407
1761467211142458400,5.533458251953125,-0.06258857250213623,0.07898101955652237,0.14286239445209503
1761467211152441600,5.543441650390625,-0.05430492013692856,0.09466861188411713,0.16386482119560242
1761467211162424600,5.553424560546875,-0.027980109676718712,0.09539671987295151,0.18959681689739227
1761467211172407600,5.563407470703125,0.0014140554703772068,0.08284653723239899,0.21224461495876312
1761467211182390500,5.573390625,0.022935060784220695,0.06126001849770546,0.23498748242855072
1761467211192373500,5.58337353515625,0.03834657743573189,0.028832215815782547,0.255833238363266
1761467211202356500,5.5933564453125,0.05033719539642334,0.0016354811377823353,0.27395740151405334
1761467211212339700,5.603339599609375,0.04154440760612488,-0.01417800597846508,0.274479478597641
1761467211222322400,5.613322509765625,0.03783275932073593,-0.007806126493960619,0.2676599323749542
1761467211232305400,5.623305419921875,0.04881249740719795,0.00796893984079361,0.2526470124721527
1761467211242288600,5.63328857421875,0.0610332116484642,0.037364114075899124,0.24716810882091522
1761467211252271600,5.643271728515625,0.062082689255476,0.06670673191547394,0.25759291648864746
1761467211262254600,5.653254638671875,0.0542047917842865,0.1050296202301979,0.28146177530288696
1761467211272237600,5.663237548828125,0.04239381477236748,0.13126681745052338,0.30750933289527893
1761467211282220500,5.673220458984375,0.030394144356250763,0.1331544667482376,0.3253812789916992
1761467211292203500,5.68320361328125,0.03127450495958328,0.14831258356571198,0.3380237817764282
1761467211302186500,5.6931865234375,0.008014723658561707,0.15262743830680847,0.324331670999527
1761467211312169500,5.70316943359375,-0.007285403087735176,0.171097531914711,0.3136555850505829
1761467211322152700,5.713152587890625,-0.014052214100956917,0.2088191956281662,0.2960924506187439
1761467211332135400,5.723135498046875,-0.016301188617944717,0.28028640151023865,0.2737971842288971
1761467211342118400,5.733118408203125,-0.016049254685640335,0.31760552525520325,0.24616342782974243
1761467211352101600,5.7431015625,-0.02507868781685829,0.30923160910606384,0.23413190245628357
1761467211362083300,5.753083251953125,-0.03214698284864426,0.25249695777893066,0.2570350766181946
1761467211372066600,5.763066650390625,-0.041787777096033096,0.18534430861473083,0.2932472229003906
1761467211382049500,5.773049560546875,-0.0600365549325943,0.16661189496517181,0.33241167664527893
1761467211392032500,5.783032470703125,-0.0827208086848259,0.20851989090442657,0.34906330704689026
1761467211402015500,5.793015380859375,-0.11141370236873627,0.27529600262641907,0.34324800968170166
1761467211411998500,5.80299853515625,-0.1385689675807953,0.339679479598999,0.32302364706993103
1761467211421981700,5.812981689453125,-0.1583530604839325,0.379058837890625,0.3130226731300354
1761467211431964700,5.822964599609375,-0.16281598806381226,0.41025376319885254,0.3052680790424347
1761467211441947400,5.832947509765625,-0.14946556091308594,0.4155691862106323,0.289139986038208
1761467211451930600,5.8429306640625,-0.12455018609762192,0.38597968220710754,0.2784738838672638
1761467211461913600,5.85291357421875,-0.10599566996097565,0.3428969085216522,0.2851158082485199
1761467211471896600,5.862896484375,-0.08557542413473129,0.30049267411231995,0.2929811179637909
1761467211481879600,5.872879638671875,-0.08334556221961975,0.2804654538631439,0.2999679148197174
1761467211491862500,5.882862548828125,-0.08275521546602249,0.2648552656173706,0.3129478394985199
1761467211501845500,5.892845458984375,-0.09516821056604385,0.23594240844249725,0.3429102599620819
1761467211511828500,5.902828369140625,-0.11615964770317078,0.20472951233386993,0.37375810742378235
1761467211521811500,5.9128115234375,-0.13695839047431946,0.17659401893615723,0.3996661305427551
1761467211531794400,5.92279443359375,-0.14988598227500916,0.16138407588005066,0.4106989800930023
1761467211541777700,5.932777587890625,-0.16067925095558167,0.1603742092847824,0.42345231771469116
1761467211551760400,5.942760498046875,-0.16379676759243011,0.17445848882198334,0.4367959499359131
1761467211561743600,5.95274365234375,-0.1703270971775055,0.18917804956436157,0.4591712951660156
1761467211571726600,5.9627265625,-0.17854760587215424,0.19714286923408508,0.4736688435077667
1761467211581708500,5.97270849609375,-0.19447223842144012,0.18471203744411469,0.49082252383232117
1761467211591691500,5.98269140625,-0.2215297371149063,0.1567917764186859,0.5012291669845581
1761467211601674500,5.992674560546875,-0.2491041123867035,0.13640820980072021,0.5054697394371033
1761467211611657700,6.00265771484375,-0.28585466742515564,0.14911454916000366,0.5017326474189758
1761467211621640400,6.012640380859375,-0.3166213631629944,0.21665817499160767,0.4881528615951538
1761467211631623400,6.02262353515625,-0.33781543374061584,0.28374171257019043,0.48209118843078613
1761467211641606700,6.032606689453125,-0.36313942074775696,0.31594786047935486,0.48652908205986023
1761467211651589600,6.042589599609375,-0.3629310429096222,0.3028782606124878,0.5073396563529968
1761467211661572400,6.052572265625,-0.367617666721344,0.2950730621814728,0.5375571846961975
1761467211671555600,6.0625556640625,-0.35562896728515625,0.3066328465938568,0.552146315574646
1761467211681538600,6.07253857421875,-0.3395591974258423,0.3358522355556488,0.5513446927070618
1761467211691521500,6.082521484375,-0.31752461194992065,0.3401378095149994,0.5363519191741943
1761467211701504500,6.09250439453125,-0.2718372941017151,0.2742818295955658,0.5070384740829468
1761467211711487500,6.102487548828125,-0.23923857510089874,0.1900758445262909,0.48380428552627563
1761467211721470700,6.112470703125,-0.23138676583766937,0.08780913054943085,0.47191646695137024
1761467211731453400,6.122453369140625,-0.2399921715259552,-0.0041970182210206985,0.4624156057834625
1761467211741436400,6.1324365234375,-0.2677311301231384,-0.03591633215546608,0.46454933285713196
1761467211751419600,6.142419677734375,-0.30524563789367676,-0.04815446585416794,0.4658501446247101
1761467211761402600,6.152402587890625,-0.36400535702705383,-0.014121928252279758,0.4704456925392151
1761467211771385300,6.16238525390625,-0.3968040347099304,0.05820724368095398,0.48437225818634033
1761467211781368600,6.17236865234375,-0.40316471457481384,0.17964577674865723,0.4908842146396637
1761467211791350500,6.1823505859375,-0.37581753730773926,0.2872602641582489,0.47141847014427185
1761467211801333500,6.19233349609375,-0.3177070915699005,0.32074233889579773,0.4476313889026642
1761467211811316500,6.20231640625,-0.23572249710559845,0.25863850116729736,0.4323539733886719
1761467211821299500,6.212299560546875,-0.16640548408031464,0.13799411058425903,0.4014282822608948
1761467211831282700,6.22228271484375,-0.11190779507160187,0.04692216217517853,0.3717629611492157
1761467211841265400,6.232265380859375,-0.06844846904277802,-0.0024435254745185375,0.3714372515678406
1761467211851248400,6.242248291015625,-0.03463139757514,-0.047770243138074875,0.397192120552063
1761467211861231000,6.252231201171875,-0.05082501471042633,-0.14774851500988007,0.4569025933742523
1761467211871214000,6.262214111328125,-0.09039296209812164,-0.24494560062885284,0.530026376247406
1761467211881197300,6.272197265625,-0.15144991874694824,-0.29149073362350464,0.5914927124977112
1761467211891180300,6.28218017578125,-0.22087427973747253,-0.3092934489250183,0.6168848872184753
1761467211901163000,6.2921630859375,-0.2796100378036499,-0.2825087010860443,0.6196169853210449
1761467211911146200,6.302146240234375,-0.34154072403907776,-0.22014735639095306,0.6133186221122742
1761467211921129200,6.312129150390625,-0.38645145297050476,-0.1819368600845337,0.5795257687568665
1761467211931112000,6.32211181640625,-0.41677069664001465,-0.15239036083221436,0.558334231376648
1761467211941095200,6.33209521484375,-0.4341323673725128,-0.11923027783632278,0.5487796068191528
1761467211951078100,6.342078125,-0.4246121644973755,-0.05776525288820267,0.5457924008369446
1761467211961061000,6.35206103515625,-0.4004615545272827,0.025511527433991432,0.5411054491996765
1761467211971044000,6.362044189453125,-0.3733435273170471,0.11355233192443848,0.5340671539306641
1761467211981027000,6.372027099609375,-0.3513255715370178,0.20823515951633453,0.5122630596160889
1761467211991010300,6.38201025390625,-0.3222505450248718,0.3000853359699249,0.476489782333374
1761467212000993300,6.3919931640625,-0.30594295263290405,0.3696982264518738,0.43209221959114075
1761467212010975200,6.401975341796875,-0.28618353605270386,0.4159906804561615,0.4005870819091797
1761467212020958200,6.411958251953125,-0.2754155695438385,0.4312668442726135,0.3939933776855469
1761467212030941200,6.421941162109375,-0.24908766150474548,0.41963958740234375,0.41300714015960693
1761467212040924200,6.431924072265625,-0.2395751178264618,0.3382587134838104,0.4564669728279114
1761467212050907100,6.4419072265625,-0.22986313700675964,0.1899566352367401,0.5273199081420898
1761467212060890000,6.45189013671875,-0.2596849501132965,0.04729296267032623,0.625338613986969
1761467212070873300,6.461873291015625,-0.3385702967643738,-0.028190873563289642,0.6884353160858154
1761467212080856000,6.47185595703125,-0.4246218204498291,0.016557954251766205,0.6883370280265808
1761467212090839000,6.481839111328125,-0.5260075330734253,0.0021096959244459867,0.6675613522529602
1761467212100822300,6.491822265625,-0.58953857421875,-0.03457561507821083,0.6559911966323853
1761467212110805200,6.50180517578125,-0.6515442728996277,-0.06363998353481293,0.6475620865821838
1761467212120788200,6.511788330078125,-0.7136630415916443,-0.04439731314778328,0.6508479118347168
1761467212130771200,6.521771240234375,-0.7392045259475708,-0.0045342817902565,0.6567758917808533
1761467212140754200,6.531754150390625,-0.7576006054878235,0.05399454012513161,0.6696818470954895
1761467212150737200,6.541737060546875,-0.7667713165283203,0.10104606300592422,0.6698326468467712
1761467212160720100,6.55172021484375,-0.7537378072738647,0.11778509616851807,0.6613361239433289
1761467212170703000,6.561703125,-0.7395310401916504,0.1546734869480133,0.6421130895614624
1761467212180686300,6.571686279296875,-0.725290060043335,0.19576312601566315,0.6225795745849609
1761467212190669000,6.5816689453125,-0.7232279777526855,0.2419445961713791,0.5998631715774536
1761467212200652000,6.591652099609375,-0.7018776535987854,0.26717057824134827,0.5798380970954895
1761467212210635300,6.60163525390625,-0.6932266354560852,0.28864699602127075,0.5648310780525208
1761467212220617000,6.611616943359375,-0.6793952584266663,0.28971144556999207,0.544036328792572
1761467212230600200,6.62160009765625,-0.6567115187644958,0.27751657366752625,0.528644323348999
1761467212240583200,6.631583251953125,-0.6259893178939819,0.24613656103610992,0.5189429521560669
1761467212250566100,6.641566162109375,-0.5974634289741516,0.20721592009067535,0.5183022618293762
1761467212260549000,6.651549072265625,-0.5605692863464355,0.18701769411563873,0.5184687376022339
1761467212270532000,6.661531982421875,-0.5268493294715881,0.1695423424243927,0.5261778235435486
1761467212280515000,6.67151513671875,-0.5007855296134949,0.16893728077411652,0.5476146936416626
1761467212290498300,6.681498291015625,-0.4943029284477234,0.18882372975349426,0.568472146987915
1761467212300481000,6.69148095703125,-0.4778091609477997,0.21251308917999268,0.5786542296409607
1761467212310464300,6.70146435546875,-0.485803484916687,0.2571867108345032,0.5656186938285828
1761467212320447200,6.711447265625,-0.48883920907974243,0.30325382947921753,0.5268944501876831
1761467212330430200,6.72143017578125,-0.4878048300743103,0.3464088439941406,0.4662829041481018
1761467212340413200,6.7314130859375,-0.48710203170776367,0.37717339396476746,0.403546541929245
1761467212350396200,6.741396240234375,-0.47543761134147644,0.374371737241745,0.3502310812473297
1761467212360379100,6.751379150390625,-0.44624483585357666,0.3322112262248993,0.3062779903411865
1761467212370362000,6.761362060546875,-0.4101909399032593,0.25680437684059143,0.2936379015445709
1761467212380345000,6.771344970703125,-0.3643169403076172,0.19310928881168365,0.3192040026187897
1761467212390328000,6.781328125,-0.3200949430465698,0.1407754123210907,0.36191326379776
1761467212400311300,6.791311279296875,-0.286010205745697,0.1185489371418953,0.4016686677932739
1761467212410294000,6.8012939453125,-0.25158414244651794,0.11268879473209381,0.4196891188621521
1761467212420277000,6.811277099609375,-0.1937573254108429,0.09441632032394409,0.41596680879592896
1761467212430260200,6.82126025390625,-0.19555537402629852,0.08594222366809845,0.4092133343219757
1761467212440242200,6.8312421875,-0.1898178607225418,0.09174391627311707,0.4007146656513214
1761467212450225200,6.84122509765625,-0.20181241631507874,0.0842682495713234,0.3868628740310669
1761467212460208000,6.8512080078125,-0.2142896056175232,0.07238256186246872,0.36968734860420227
1761467212470191400,6.86119140625,-0.22252343595027924,0.06672296673059464,0.3649982213973999
1761467212480174000,6.871174072265625,-0.2212805300951004,0.06109090521931648,0.36959004402160645
1761467212490157000,6.881156982421875,-0.2032155841588974,0.04714931547641754,0.38286808133125305
1761467212500140300,6.891140380859375,-0.19327028095722198,0.03175917640328407,0.40437522530555725
1761467212510123300,6.901123291015625,-0.1801062971353531,0.033030733466148376,0.42567241191864014
1761467212520106000,6.91110595703125,-0.18382087349891663,0.04281145706772804,0.4332546889781952
1761467212530089200,6.921089111328125,-0.18893088400363922,0.019940171390771866,0.4358896017074585
1761467212540072200,6.931072265625,-0.20858794450759888,-0.018620803952217102,0.4537394344806671
1761467212550055200,6.94105517578125,-0.23403188586235046,-0.05701644346117973,0.45885583758354187
1761467212560038100,6.9510380859375,-0.2735646665096283,-0.06797721236944199,0.4456484317779541
1761467212570021000,6.961021240234375,-0.3069903552532196,-0.07841452211141586,0.4114682674407959
1761467212580004000,6.971004150390625,-0.3372390866279602,-0.0627753809094429,0.35820290446281433
1761467212589987300,6.9809873046875,-0.3671718239784241,-0.02799811400473118,0.2984946668148041
1761467212599970000,6.990969970703125,-0.3692501485347748,0.04247472062706947,0.2204587161540985
1761467212609953300,7.000953369140625,-0.3720954656600952,0.12990805506706238,0.12196453660726547
1761467212619936300,7.010936279296875,-0.35554659366607666,0.18381576240062714,0.020645368844270706
1761467212629919000,7.0209189453125,-0.3338387906551361,0.13719964027404785,-0.043824877589941025
1761467212639901200,7.030901123046875,-0.2953566610813141,0.007923683151602745,-0.03637761250138283
1761467212649884200,7.04088427734375,-0.2527849078178406,-0.11306970566511154,0.006712776143103838
1761467212659867100,7.0508671875,-0.23925524950027466,-0.13476382195949554,0.013953380286693573
1761467212669850000,7.06085009765625,-0.22454781830310822,-0.0853251963853836,-0.03590133786201477
1761467212679833000,7.0708330078125,-0.21019099652767181,-0.04200275242328644,-0.08878905326128006
1761467212689816300,7.08081640625,-0.2121342271566391,-0.0521659329533577,-0.10801306366920471
1761467212699799000,7.090799072265625,-0.20497246086597443,-0.12171251326799393,-0.0968078151345253
1761467212709782000,7.100781982421875,-0.18951644003391266,-0.17693687975406647,-0.0864449217915535
1761467212719765200,7.11076513671875,-0.18282178044319153,-0.209228515625,-0.06624777615070343
1761467212729748200,7.120748291015625,-0.16846390068531036,-0.22469653189182281,-0.011853612959384918
1761467212739731200,7.130731201171875,-0.14358331263065338,-0.23177921772003174,0.06478230655193329
1761467212749714200,7.140714111328125,-0.1271819770336151,-0.22039461135864258,0.14012163877487183
1761467212759697200,7.150697265625,-0.11379719525575638,-0.18509520590305328,0.19729465246200562
1761467212769680400,7.160680419921875,-0.11040361225605011,-0.13477137684822083,0.2388249933719635
1761467212779663000,7.1706630859375,-0.10828879475593567,-0.10948838293552399,0.26500147581100464
1761467212789646000,7.18064599609375,-0.10245048999786377,-0.11889063566923141,0.2804100513458252
1761467212799629300,7.19062939453125,-0.09407991170883179,-0.12020836770534515,0.29377883672714233
1761467212809612300,7.2006123046875,-0.08207066357135773,-0.1422170102596283,0.28043845295906067
1761467212819595000,7.210594970703125,-0.0713554322719574,-0.17639708518981934,0.2664547264575958
1761467212829578200,7.220578125,-0.057553913444280624,-0.20816627144813538,0.258189857006073
1761467212839561200,7.230561279296875,-0.056347500532865524,-0.23119622468948364,0.25855761766433716
1761467212849547300,7.24054736328125,-0.047020211815834045,-0.22085699439048767,0.2529250979423523
1761467212859530200,7.2505302734375,-0.030699826776981354,-0.1879453808069229,0.23987002670764923
1761467212869513200,7.26051318359375,-0.02042796090245247,-0.12022406607866287,0.23140627145767212
1761467212879496200,7.27049609375,-0.01486488152295351,-0.0521070659160614,0.23008215427398682
1761467212889479200,7.280479248046875,-0.005556647200137377,0.0040947371162474155,0.2436203956604004
1761467212899462100,7.290462158203125,-0.0009453832171857357,0.05640454590320587,0.28477394580841064
1761467212909445000,7.300445068359375,-0.001255251932889223,0.09156893193721771,0.32249656319618225
1761467212919428000,7.310427978515625,0.0014001857489347458,0.11759946495294571,0.35106614232063293
1761467212929411000,7.3204111328125,0.00849463976919651,0.12279669940471649,0.3650829493999481
1761467212939394300,7.330394287109375,0.033005308359861374,0.12597358226776123,0.3708556294441223
1761467212949377000,7.340376953125,0.03263254091143608,0.12183190882205963,0.36374562978744507
1761467212959360000,7.350360107421875,0.03204238414764404,0.10526065528392792,0.35723021626472473
1761467212969343200,7.36034326171875,0.03098978102207184,0.09124200791120529,0.3594842553138733
1761467212979326200,7.370326171875,0.028319165110588074,0.07063819468021393,0.3649384081363678
1761467212989309200,7.38030908203125,0.013988181948661804,0.07164565473794937,0.3848324716091156
1761467212999292200,7.390292236328125,0.013518666848540306,0.09049497544765472,0.4095010757446289
1761467213009275100,7.400275146484375,0.02484857849776745,0.1148436963558197,0.41780102252960205
1761467213019258400,7.41025830078125,0.04615972936153412,0.13002344965934753,0.4006875455379486
1761467213029241000,7.420240966796875,0.06181958690285683,0.1272931545972824,0.37437793612480164
1761467213039224000,7.43022412109375,0.06793500483036041,0.10201655328273773,0.35919684171676636
1761467213049206300,7.440206298828125,0.06768736243247986,0.05752451345324516,0.36268457770347595
1761467213059189000,7.45018896484375,0.0656050369143486,0.01099456287920475,0.3753974437713623
1761467213069172200,7.460172119140625,0.04659368470311165,0.009114479646086693,0.3840016722679138
1761467213079155200,7.4701552734375,0.02788843959569931,0.03359745442867279,0.37330907583236694
1761467213089138200,7.48013818359375,0.004230393096804619,0.08428485691547394,0.3671124577522278
1761467213099121200,7.49012109375,-0.03326398506760597,0.12411244213581085,0.36167293787002563
1761467213109104000,7.500104248046875,-0.06169968843460083,0.14582791924476624,0.36850133538246155
1761467213119087000,7.510087158203125,-0.09212097525596619,0.15375934541225433,0.38542065024375916
1761467213129070000,7.520070068359375,-0.1250637322664261,0.14298856258392334,0.39782604575157166
1761467213139053000,7.530052978515625,-0.1503741443157196,0.17459042370319366,0.42036810517311096
1761467213149036300,7.540036376953125,-0.16968777775764465,0.21826520562171936,0.4330175817012787
1761467213159019300,7.550019287109375,-0.18850195407867432,0.25049662590026855,0.4306652247905731
1761467213169002000,7.560001953125,-0.19801002740859985,0.27708280086517334,0.4225088655948639
1761467213178985200,7.569985107421875,-0.20979158580303192,0.29682615399360657,0.40756240487098694
1761467213188968200,7.57996826171875,-0.22019709646701813,0.30028048157691956,0.3976585566997528
1761467213198951200,7.589951171875,-0.23456218838691711,0.30546486377716064,0.3908914625644684
1761467213208934100,7.59993408203125,-0.24284608662128448,0.3094395399093628,0.39048629999160767
1761467213218917000,7.609917236328125,-0.254184752702713,0.2941141128540039,0.39737963676452637
1761467213228900000,7.619900146484375,-0.2702113389968872,0.2603992223739624,0.4215030372142792
1761467213238883300,7.62988330078125,-0.2766982614994049,0.22579222917556763,0.43949058651924133
1761467213248865000,7.639864990234375,-0.2902737259864807,0.2008150964975357,0.45450663566589355
1761467213258848300,7.64984814453125,-0.30437061190605164,0.19821558892726898,0.4724994897842407
1761467213268831200,7.659831298828125,-0.32247665524482727,0.19568249583244324,0.48999014496803284
1761467213278814000,7.66981396484375,-0.33351704478263855,0.19379591941833496,0.5101433396339417
1761467213288797200,7.679797119140625,-0.34675660729408264,0.20562295615673065,0.5357717275619507
1761467213298780200,7.6897802734375,-0.35621216893196106,0.2171882539987564,0.5544189214706421
1761467213308763400,7.699763427734375,-0.3617217242717743,0.22483089566230774,0.5743336081504822
1761467213318746000,7.70974609375,-0.3658325970172882,0.21896715462207794,0.5993154048919678
1761467213328729000,7.71972900390625,-0.3703632354736328,0.20284655690193176,0.622141420841217
1761467213338712300,7.72971240234375,-0.3800230324268341,0.1794019490480423,0.6371968388557434
1761467213348695300,7.7396953125,-0.3953186273574829,0.15562193095684052,0.6404244899749756
1761467213358678000,7.749677978515625,-0.4203864336013794,0.16148461401462555,0.6457372307777405
1761467213368661200,7.7596611328125,-0.43793660402297974,0.1989513635635376,0.6562473773956299
1761467213378644200,7.769644287109375,-0.4377318024635315,0.2530055642127991,0.653323769569397
1761467213388627000,7.779626953125,-0.4466319680213928,0.2833845019340515,0.6441478729248047
1761467213398610200,7.789610107421875,-0.4512008726596832,0.28938913345336914,0.63223797082901
1761467213408593200,7.79959326171875,-0.44796910881996155,0.25980138778686523,0.6189740896224976
1761467213418576100,7.809576171875,-0.4397745728492737,0.24169322848320007,0.6117798089981079
1761467213428559000,7.81955908203125,-0.42336389422416687,0.21838870644569397,0.6088729500770569
1761467213438542000,7.8295419921875,-0.41437411308288574,0.19285085797309875,0.6055562496185303
1761467213448524300,7.839524169921875,-0.4094436466693878,0.15759092569351196,0.6041901707649231
1761467213458507000,7.849507080078125,-0.4106447100639343,0.10461798310279846,0.6028625965118408
1761467213468490200,7.859490234375,-0.40878215432167053,0.054968997836112976,0.618004560470581
1761467213478473200,7.86947314453125,-0.4086063802242279,-0.013900079764425755,0.6218970417976379
1761467213488456200,7.879456298828125,-0.4122891128063202,-0.07730626314878464,0.6244701147079468
1761467213498439200,7.889439208984375,-0.42529574036598206,-0.10384573042392731,0.6272097229957581
1761467213508422100,7.899422119140625,-0.4387947916984558,-0.07258028537034988,0.6408287882804871
1761467213518405000,7.909405029296875,-0.45110392570495605,-0.03663480281829834,0.6632022857666016
1761467213528388400,7.919388427734375,-0.4339073598384857,0.011338436976075172,0.6805403232574463
1761467213538371000,7.92937109375,-0.41063106060028076,0.10764153301715851,0.6660295724868774
1761467213548354000,7.93935400390625,-0.3732128441333771,0.21806520223617554,0.6109481453895569
1761467213558337300,7.949337158203125,-0.30953559279441833,0.2406032681465149,0.5486767888069153
1761467213568320300,7.9593203125,-0.23121404647827148,0.16412542760372162,0.5269626379013062
1761467213578303000,7.969302978515625,-0.17368550598621368,0.06249575316905975,0.5199201703071594
1761467213588286200,7.9792861328125,-0.11991652101278305,-0.014543772675096989,0.4943523705005646
1761467213598269200,7.989269287109375,-0.05539532005786896,-0.0383114218711853,0.4635257422924042
1761467213608252200,7.999252197265625,-0.026488645002245903,-0.013898840174078941,0.4708453416824341
1761467213618235100,8.009235107421874,-0.02429633028805256,-0.0013058159966021776,0.520024836063385
1761467213628218000,8.019218017578124,-0.052906397730112076,-0.007169422693550587,0.5760078430175781
1761467213638201300,8.029201416015624,-0.07878327369689941,-0.015031074173748493,0.5992559194564819
1761467213648184000,8.03918408203125,-0.11644284427165985,-0.014764156192541122,0.5745649933815002
1761467213658166300,8.049166259765625,-0.14596985280513763,-0.025594431906938553,0.5307690501213074
1761467213668149200,8.059149169921875,-0.1835189163684845,-0.033256784081459045,0.4930420517921448
1761467213678132000,8.069132080078125,-0.22362932562828064,-0.04754490777850151,0.4691726565361023
1761467213688115200,8.079115234375,-0.24678680300712585,-0.05562843382358551,0.4466118812561035
1761467213698098200,8.08909814453125,-0.2682358920574188,-0.032193683087825775,0.41502490639686584
1761467213708081200,8.0990810546875,-0.2698133885860443,0.01336818840354681,0.3838867247104645
1761467213718064000,8.109064208984375,-0.26217037439346313,0.055067434906959534,0.3673138916492462
1761467213728047000,8.119047119140625,-0.2569980025291443,0.08847185969352722,0.365438848733902
1761467213738030000,8.129030029296874,-0.2568749785423279,0.1225760355591774,0.3650239109992981
1761467213748013300,8.139013427734374,-0.2493070811033249,0.15348923206329346,0.3714834749698639
1761467213757996000,8.14899609375,-0.2523875832557678,0.18585437536239624,0.3785741329193115
1761467213767979300,8.158979248046874,-0.25773942470550537,0.23277859389781952,0.3882735073566437
1761467213777962200,8.168962158203126,-0.25610610842704773,0.2880786061286926,0.3932275176048279
1761467213787945200,8.1789453125,-0.2610790729522705,0.3619407117366791,0.40886202454566956
1761467213797928200,8.18892822265625,-0.28835463523864746,0.44024965167045593,0.5075515508651733
1761467213807911200,8.1989111328125,-0.30863285064697266,0.4609067142009735,0.5823329091072083
1761467213817894100,8.20889404296875,-0.33593347668647766,0.42773890495300293,0.5749833583831787
1761467213827877000,8.218877197265625,-0.3689453601837158,0.38587015867233276,0.49944186210632324
1761467213837860000,8.228860107421875,-0.36649179458618164,0.36850103735923767,0.38954707980155945
1761467213847843000,8.238843017578125,-0.38604599237442017,0.3577987551689148,0.28496304154396057
1761467213857825500,8.248825439453125,-0.3891405761241913,0.3214018642902374,0.20368653535842896
1761467213867807700,8.258807861328124,-0.3836783766746521,0.31210991740226746,0.16685885190963745
1761467213877790700,8.268790771484374,-0.4085373878479004,0.27437877655029297,0.15107083320617676
1761467213887773400,8.2787734375,-0.44164174795150757,0.2333153486251831,0.15658850967884064
1761467213897756700,8.288756591796876,-0.48250025510787964,0.20350472629070282,0.20871961116790771
1761467213907739600,8.29873974609375,-0.47394514083862305,0.18345515429973602,0.27590397000312805
