time,seconds_elapsed,z,y,x
1761467281884324000,0.113323974609375,0.17656362056732178,-0.24549126625061035,-0.14764900505542755
1761467281894307000,0.12330712890625,0.17785745859146118,-0.19388768076896667,-0.1806066483259201
1761467281904290300,0.133290283203125,0.18002207577228546,-0.16009216010570526,-0.2306695431470871
1761467281914273000,0.14327294921875,0.1852421760559082,-0.11988246440887451,-0.26263391971588135
1761467281924255000,0.1532548828125,0.183497816324234,-0.07461938261985779,-0.2820957899093628
1761467281934236700,0.163236572265625,0.1864258348941803,-0.03733966127038002,-0.3009136915206909
1761467281944220000,0.173219970703125,0.18940670788288116,0.0026397118344902992,-0.3281777799129486
1761467281954203000,0.183202880859375,0.18826383352279663,0.026204537600278854,-0.35565057396888733
1761467281964185900,0.193185791015625,0.18605899810791016,0.05523911491036415,-0.3881230354309082
1761467281974168800,0.2031689453125,0.18662311136722565,0.06924143433570862,-0.4178104102611542
1761467281984151800,0.21315185546875,0.20107501745224,0.05739622935652733,-0.4285520017147064
1761467281994134800,0.223134765625,0.20671021938323975,0.04461804777383804,-0.408963143825531
1761467282004118000,0.233117919921875,0.21664726734161377,0.022373195737600327,-0.381573885679245
1761467282014100700,0.243100830078125,0.22526772320270538,-0.0018201005877926946,-0.34320905804634094
1761467282024084000,0.253083984375,0.23248116672039032,-0.027471667155623436,-0.28163835406303406
1761467282034067000,0.26306689453125,0.23978747427463531,-0.058410197496414185,-0.18624025583267212
1761467282044050000,0.2730498046875,0.23382039368152618,-0.07341950386762619,-0.09432099014520645
1761467282054033000,0.283032958984375,0.23704180121421814,-0.07350559532642365,-0.03141050785779953
1761467282064016000,0.293015869140625,0.23814168572425842,-0.065083347260952,0.0037631916347891092
1761467282073998800,0.302998779296875,0.2345447540283203,-0.03673604503273964,0.03142024204134941
1761467282083982000,0.312982177734375,0.2231413722038269,0.025034910067915916,0.053291186690330505
1761467282093964800,0.32296484375,0.21834535896778107,0.07318650931119919,0.048852548003196716
1761467282103947800,0.33294775390625,0.2061789631843567,0.10290206223726273,0.032416582107543945
1761467282113931000,0.342930908203125,0.1856330931186676,0.130686417222023,0.013840864412486553
1761467282123913700,0.352913818359375,0.1694386750459671,0.15326255559921265,-0.0007647096645087004
1761467282133896700,0.362896728515625,0.15674522519111633,0.17688442766666412,-0.008035781793296337
1761467282143880000,0.3728798828125,0.14830513298511505,0.19705015420913696,-0.012918953783810139
1761467282153863000,0.38286279296875,0.1320093870162964,0.20842744410037994,-0.010983363725244999
1761467282163846000,0.392845947265625,0.1203620508313179,0.21464724838733673,-0.027671264484524727
1761467282173828900,0.402828857421875,0.11164842545986176,0.21348601579666138,-0.047964394092559814
1761467282183811800,0.412811767578125,0.10368956625461578,0.23106446862220764,-0.056511275470256805
1761467282193795000,0.422795166015625,0.09917899966239929,0.2568437159061432,-0.05583685263991356
1761467282203776800,0.43277685546875,0.08843181282281876,0.25875240564346313,-0.04349203780293465
1761467282213760000,0.442760009765625,0.07242598384618759,0.25243866443634033,-0.022013800218701363
1761467282223743000,0.452742919921875,0.04989484325051308,0.2613202929496765,0.010809925384819508
1761467282233725700,0.4627255859375,0.028972186148166656,0.26649409532546997,0.038866907358169556
1761467282243709000,0.472708984375,0.002696906216442585,0.2612817585468292,0.05251188203692436
1761467282253692000,0.48269189453125,-0.022929737344384193,0.25303220748901367,0.06298433244228363
1761467282263675000,0.4926748046875,-0.04281316325068474,0.22975191473960876,0.07490596920251846
1761467282273657900,0.502657958984375,-0.053239572793245316,0.2137448638677597,0.08757790178060532
1761467282283640800,0.512640869140625,-0.06554044783115387,0.21080340445041656,0.10005241632461548
1761467282293623800,0.522623779296875,-0.0677923932671547,0.20507650077342987,0.10645440965890884
1761467282303607000,0.53260693359375,-0.08155027776956558,0.20250043272972107,0.09945695847272873
1761467282313589800,0.54258984375,-0.09281404316425323,0.19358687102794647,0.09497570991516113
1761467282323573000,0.552572998046875,-0.10532984137535095,0.17601054906845093,0.09296901524066925
1761467282333556000,0.562555908203125,-0.11545129865407944,0.16421180963516235,0.09411000460386276
1761467282343538700,0.57253857421875,-0.12168869376182556,0.16536682844161987,0.10326888412237167
1761467282353522000,0.58252197265625,-0.12421824038028717,0.16370828449726105,0.11203720420598984
1761467282363505000,0.5925048828125,-0.12497670948505402,0.1638544797897339,0.1089138463139534
1761467282373487900,0.60248779296875,-0.12619702517986298,0.16534458100795746,0.1046789363026619
1761467282383470800,0.612470947265625,-0.12968230247497559,0.1591724455356598,0.10064691305160522
1761467282393453800,0.622453857421875,-0.13788959383964539,0.15661509335041046,0.1096612960100174
1761467282403436800,0.632436767578125,-0.16234247386455536,0.1671026200056076,0.12665706872940063
1761467282413420000,0.642419921875,-0.1802118867635727,0.186121866106987,0.1523379236459732
1761467282423402800,0.65240283203125,-0.20781315863132477,0.20835500955581665,0.1814233660697937
1761467282433385700,0.6623857421875,-0.22904132306575775,0.22599536180496216,0.2080252468585968
1761467282443369000,0.672368896484375,-0.23625263571739197,0.2418651282787323,0.24160531163215637
1761467282453352000,0.68235205078125,-0.25311949849128723,0.24834738671779633,0.28057438135147095
1761467282463334000,0.692333984375,-0.2551911771297455,0.26395323872566223,0.311619371175766
1761467282473316900,0.70231689453125,-0.2555548846721649,0.2727525532245636,0.34082379937171936
1761467282483300000,0.712300048828125,-0.25519269704818726,0.2680124044418335,0.36542901396751404
1761467282493282800,0.72228271484375,-0.24798329174518585,0.2517651319503784,0.38923731446266174
1761467282503265800,0.732265869140625,-0.2444271594285965,0.220267653465271,0.4192966818809509
1761467282513249000,0.7422490234375,-0.2433178871870041,0.20385240018367767,0.4563865065574646
1761467282523232000,0.75223193359375,-0.23636570572853088,0.197402223944664,0.5054794549942017
1761467282533214700,0.762214599609375,-0.2377750426530838,0.1969100683927536,0.5588012337684631
1761467282543198000,0.772197998046875,-0.24145260453224182,0.2343732863664627,0.6056420207023621
1761467282553181000,0.782180908203125,-0.2436622828245163,0.27142226696014404,0.6429272294044495
1761467282563163600,0.79216357421875,-0.24969352781772614,0.3120248317718506,0.6758984923362732
1761467282573147000,0.80214697265625,-0.24371735751628876,0.34437355399131775,0.6910362839698792
1761467282583129900,0.8121298828125,-0.2212490737438202,0.355339914560318,0.6880660653114319
1761467282593112800,0.82211279296875,-0.2129976749420166,0.3225947618484497,0.6847134232521057
1761467282603095800,0.832095703125,-0.22809593379497528,0.2596608102321625,0.6905404329299927
1761467282613078800,0.842078857421875,-0.24690163135528564,0.24260303378105164,0.7165757417678833
1761467282623062000,0.85206201171875,-0.2680495083332062,0.25177255272865295,0.7349116206169128
1761467282633045000,0.862044921875,-0.2877514660358429,0.2552298903465271,0.7292817234992981
1761467282643027700,0.87202783203125,-0.281658411026001,0.24469415843486786,0.7111850380897522
1761467282653011000,0.882010986328125,-0.2691774070262909,0.22202707827091217,0.6830219626426697
1761467282662994000,0.891993896484375,-0.25109028816223145,0.2444455772638321,0.6529791355133057
1761467282672977000,0.901976806640625,-0.2085299789905548,0.2810716927051544,0.5701001882553101
1761467282682960000,0.9119599609375,-0.1719788908958435,0.3363488018512726,0.49706485867500305
1761467282692942800,0.92194287109375,-0.13502690196037292,0.3690432906150818,0.4719063639640808
1761467282702925800,0.93192578125,-0.124953493475914,0.3352557420730591,0.4923008680343628
1761467282712907800,0.94190771484375,-0.12733624875545502,0.25141745805740356,0.5404142141342163
1761467282722890800,0.951890869140625,-0.1447482705116272,0.17328326404094696,0.5870709419250488
1761467282732874000,0.9618740234375,-0.1657865345478058,0.10344382375478745,0.6119220852851868
1761467282742857000,0.97185693359375,-0.2061225026845932,0.012868913821876049,0.5982632637023926
1761467282752839700,0.981839599609375,-0.2566453218460083,-0.0601966567337513,0.572513222694397
1761467282762823000,0.991822998046875,-0.3013257086277008,-0.08922804147005081,0.5668470859527588
1761467282772806000,1.001805908203125,-0.3399221897125244,-0.09259924292564392,0.5803698301315308
1761467282782788900,1.011788818359375,-0.3641473650932312,-0.08386913686990738,0.5942260026931763
1761467282792771800,1.021771728515625,-0.3910283148288727,-0.06449113041162491,0.6072463989257812
1761467282802754800,1.0317548828125,-0.4084232747554779,-0.013198914006352425,0.6152340173721313
1761467282812738000,1.041738037109375,-0.42368555068969727,0.05229644477367401,0.6152623891830444
1761467282822720800,1.051720703125,-0.4333283305168152,0.11787997931241989,0.6003414988517761
1761467282832703700,1.061703857421875,-0.4437314569950104,0.1833847165107727,0.5788543224334717
1761467282842687000,1.07168701171875,-0.4543153941631317,0.23575763404369354,0.5416816473007202
1761467282852670000,1.081669921875,-0.4713169038295746,0.26600223779678345,0.5096266865730286
1761467282862652700,1.091652587890625,-0.4983980357646942,0.27052268385887146,0.4830789566040039
1761467282872636000,1.101635986328125,-0.521744430065155,0.26002198457717896,0.46146172285079956
1761467282882619000,1.111618896484375,-0.548653781414032,0.24778637290000916,0.4445224106311798
1761467282892601900,1.121601806640625,-0.561848521232605,0.21392466127872467,0.44042152166366577
1761467282902584800,1.131584716796875,-0.5765070915222168,0.16997158527374268,0.44279518723487854
1761467282912567800,1.14156787109375,-0.5922732353210449,0.12707456946372986,0.4373534917831421
1761467282922551600,1.151551513671875,-0.606767475605011,0.10011059790849686,0.4303711950778961
1761467282932534800,1.16153466796875,-0.6130474805831909,0.08675290644168854,0.41728827357292175
1761467282942517800,1.171517822265625,-0.6251962780952454,0.08213552087545395,0.39357495307922363
1761467282952500700,1.181500732421875,-0.6236926913261414,0.06478013098239899,0.36949482560157776
1761467282962483700,1.191483642578125,-0.6279944777488708,0.044673267751932144,0.3374370038509369
1761467282972465700,1.201465576171875,-0.6117260456085205,0.034315578639507294,0.30282169580459595
1761467282982449000,1.211448974609375,-0.5909805297851562,0.04705800488591194,0.27926576137542725
1761467282992431600,1.221431640625,-0.5580907464027405,0.07073000073432922,0.2607428729534149
1761467283002414600,1.23141455078125,-0.5192927122116089,0.1053745299577713,0.24303366243839264
1761467283012397800,1.241397705078125,-0.4827764928340912,0.1489214450120926,0.23183536529541016
1761467283022380800,1.251380859375,-0.4528236389160156,0.17132821679115295,0.22733674943447113
1761467283032363800,1.26136376953125,-0.4371390640735626,0.18550872802734375,0.22749273478984833
1761467283042346800,1.2713466796875,-0.42450371384620667,0.17813682556152344,0.22588472068309784
1761467283052329700,1.281329833984375,-0.42467430233955383,0.16780418157577515,0.22089065611362457
1761467283062313000,1.29131298828125,-0.4322802722454071,0.1735885590314865,0.22447074949741364
1761467283072295700,1.301295654296875,-0.44226086139678955,0.15239539742469788,0.23315425217151642
1761467283082278700,1.311278564453125,-0.45259714126586914,0.12254747748374939,0.24033012986183167
1761467283092262000,1.321261962890625,-0.46008676290512085,0.10597823560237885,0.24046312272548676
1761467283102244900,1.331244873046875,-0.4610617458820343,0.10641898959875107,0.22238852083683014
1761467283112227600,1.3412275390625,-0.4600540101528168,0.1132073849439621,0.199761763215065
1761467283122210800,1.3512109375,-0.444950670003891,0.12869127094745636,0.16337339580059052
1761467283132193800,1.36119384765625,-0.426178514957428,0.14617140591144562,0.12926918268203735
1761467283142176800,1.3711767578125,-0.39554363489151,0.1687038689851761,0.09010632336139679
1761467283152159700,1.38115966796875,-0.3530566990375519,0.17293274402618408,0.05506157875061035
1761467283162142700,1.391142822265625,-0.3160238265991211,0.169312983751297,0.027419563382864
1761467283172125700,1.401125732421875,-0.27363595366477966,0.15643663704395294,-0.0020248182117938995
1761467283182108700,1.411108642578125,-0.22702370584011078,0.11733371019363403,-0.030145401135087013
1761467283192091600,1.421091552734375,-0.18147550523281097,0.08309131115674973,-0.056490182876586914
1761467283202075000,1.431074951171875,-0.1370001882314682,0.07073770463466644,-0.06685574352741241
1761467283212057900,1.441057861328125,-0.10010821372270584,0.06046382337808609,-0.07775111496448517
1761467283222039800,1.451039794921875,-0.058191925287246704,0.0542416125535965,-0.08896035701036453
1761467283232022800,1.461022705078125,-0.02043009176850319,0.05551154166460037,-0.08942323178052902
1761467283242005800,1.471005859375,0.015018979087471962,0.050001729279756546,-0.08480903506278992
1761467283251988700,1.48098876953125,0.04963887855410576,0.05016976594924927,-0.07919561862945557
1761467283261971700,1.4909716796875,0.07571682333946228,0.07026038318872452,-0.06630352139472961
1761467283271954700,1.50095458984375,0.09445198625326157,0.10034415870904922,-0.05714893341064453
1761467283281938000,1.51093798828125,0.10978380590677261,0.10566568374633789,-0.05310732126235962
1761467283291920600,1.520920654296875,0.12270694226026535,0.11501896381378174,-0.05235923454165459
1761467283301903600,1.530903564453125,0.13131879270076752,0.13778260350227356,-0.04902203008532524
1761467283311886800,1.540886962890625,0.1444445550441742,0.15444855391979218,-0.04478379711508751
1761467283321869800,1.550869873046875,0.1488739252090454,0.17743456363677979,-0.03599456697702408
1761467283331852800,1.560852783203125,0.1658511459827423,0.1952812373638153,-0.03613298758864403
1761467283341835800,1.570835693359375,0.17657916247844696,0.1874219924211502,-0.04552435874938965
1761467283351818800,1.58081884765625,0.19069093465805054,0.13432832062244415,-0.05998651310801506
1761467283361802000,1.590802001953125,0.20210310816764832,0.0769481286406517,-0.09013296663761139
1761467283371784700,1.60078466796875,0.20486292243003845,0.05307583883404732,-0.12162370979785919
1761467283381767700,1.610767578125,0.20745576918125153,0.0552750788629055,-0.15130624175071716
1761467283391751000,1.6207509765625,0.19950616359710693,0.07051614671945572,-0.17660781741142273
1761467283401733600,1.630733642578125,0.19753915071487427,0.0775412991642952,-0.1915135234594345
1761467283411716600,1.640716552734375,0.2046976238489151,0.07570437341928482,-0.20962657034397125
1761467283421699800,1.650699951171875,0.20986415445804596,0.05361665040254593,-0.23906569182872772
1761467283431682800,1.660682861328125,0.22091859579086304,0.025638872757554054,-0.2691625654697418
1761467283441665500,1.67066552734375,0.22886759042739868,-0.0025757206603884697,-0.30026695132255554
1761467283451648800,1.680648681640625,0.24802228808403015,-0.024765601381659508,-0.32866597175598145
1761467283461631700,1.6906318359375,0.25497737526893616,-0.05249922722578049,-0.35999780893325806
1761467283471614700,1.70061474609375,0.2521182894706726,-0.07993330806493759,-0.38136786222457886
1761467283481596700,1.7105966796875,0.2511342465877533,-0.10253448784351349,-0.39259815216064453
1761467283491579600,1.72057958984375,0.24138306081295013,-0.1285405158996582,-0.3963683843612671
1761467283501563000,1.73056298828125,0.2394259124994278,-0.15926168859004974,-0.40673819184303284
1761467283511545600,1.740545654296875,0.24168679118156433,-0.18239600956439972,-0.4032779932022095
1761467283521528800,1.75052880859375,0.2559210956096649,-0.20986784994602203,-0.40153414011001587
1761467283531511800,1.76051171875,0.2601194977760315,-0.22826115787029266,-0.3940609097480774
1761467283541494800,1.770494873046875,0.26909008622169495,-0.23600509762763977,-0.3918270468711853
1761467283551477800,1.780477783203125,0.262613445520401,-0.2361605018377304,-0.3946288526058197
1761467283561460700,1.790460693359375,0.2588898241519928,-0.24229775369167328,-0.40414008498191833
1761467283571443700,1.800443603515625,0.2491312325000763,-0.21663957834243774,-0.4143775999546051
1761467283581427000,1.810427001953125,0.24366775155067444,-0.16959376633167267,-0.42801085114479065
1761467283591409700,1.82040966796875,0.22868837416172028,-0.13820119202136993,-0.4422832131385803
1761467283601392600,1.830392578125,0.21524207293987274,-0.12613867223262787,-0.42593538761138916
1761467283611375900,1.8403759765625,0.200347900390625,-0.11595989763736725,-0.3802542984485626
1761467283621358600,1.850358642578125,0.18203413486480713,-0.10318125039339066,-0.33281514048576355
1761467283631341600,1.860341552734375,0.1596192568540573,-0.09535262733697891,-0.30027690529823303
1761467283641324800,1.87032470703125,0.13455145061016083,-0.106815405189991,-0.2738809883594513
1761467283651307800,1.880307861328125,0.09986081719398499,-0.14652670919895172,-0.24050423502922058
1761467283661290800,1.890290771484375,0.06161436438560486,-0.23602889478206635,-0.194707453250885
1761467283671273700,1.900273681640625,0.029466532170772552,-0.34656763076782227,-0.14344561100006104
1761467283681256700,1.910256591796875,0.02000884711742401,-0.4212479889392853,-0.08044719696044922
1761467283691240000,1.920239990234375,0.02458503656089306,-0.43902426958084106,-0.0247239600867033
1761467283701222700,1.93022265625,0.037859030067920685,-0.42443546652793884,-0.005699135363101959
1761467283711205600,1.94020556640625,0.05930379033088684,-0.38222041726112366,-0.022407062351703644
1761467283721188900,1.95018896484375,0.0861433893442154,-0.33467474579811096,-0.04958834871649742
1761467283731170600,1.960170654296875,0.1146586537361145,-0.2825830578804016,-0.07712703198194504
1761467283741153800,1.97015380859375,0.13590562343597412,-0.2149944305419922,-0.11968860775232315
1761467283751136800,1.98013671875,0.15154631435871124,-0.1348273754119873,-0.16845981776714325
1761467283761119700,1.99011962890625,0.15598633885383606,-0.06168099120259285,-0.2145008146762848
1761467283771102700,2.000102783203125,0.160690575838089,-0.009475743398070335,-0.2532867193222046
1761467283781085700,2.010085693359375,0.15339617431163788,0.025923527777194977,-0.2733115553855896
1761467283791068700,2.020068603515625,0.14185860753059387,0.06101423501968384,-0.27439719438552856
1761467283801052000,2.030052001953125,0.122255340218544,0.0722530409693718,-0.26146700978279114
1761467283811034600,2.04003466796875,0.10680729895830154,0.0674060732126236,-0.24218980967998505
1761467283821017900,2.050017822265625,0.11084385216236115,0.0315261036157608,-0.2240278571844101
1761467283831000800,2.060000732421875,0.12351924926042557,-0.017301175743341446,-0.1730579137802124
1761467283840983800,2.06998388671875,0.14239118993282318,-0.050205595791339874,-0.10585065931081772
1761467283850966800,2.079966796875,0.17388120293617249,-0.07423834502696991,-0.017001042142510414
1761467283860949800,2.08994970703125,0.19690397381782532,-0.09826485067605972,0.08783002942800522
1761467283870932700,2.0999326171875,0.2078814059495926,-0.10356763005256653,0.18376518785953522
1761467283880915700,2.109915771484375,0.20850485563278198,-0.10367389023303986,0.25960269570350647
1761467283890898700,2.119898681640625,0.21047204732894897,-0.11842238903045654,0.31032794713974
1761467283900881700,2.129881591796875,0.20145325362682343,-0.10963182896375656,0.33338746428489685
1761467283910865000,2.139864990234375,0.19876326620578766,-0.08505520224571228,0.3130456805229187
1761467283920847400,2.149847412109375,0.18929839134216309,-0.04639808088541031,0.27589431405067444
1761467283930830600,2.15983056640625,0.184626966714859,-0.022246820852160454,0.22519661486148834
1761467283940813600,2.1698134765625,0.17227602005004883,-0.008092387579381466,0.18996113538742065
1761467283950796500,2.179796630859375,0.16147036850452423,0.00900272000581026,0.16885104775428772
1761467283960779500,2.189779541015625,0.14463679492473602,0.03741438686847687,0.15288299322128296
1761467283970762500,2.199762451171875,0.13011661171913147,0.059177301824092865,0.13763917982578278
1761467283980745500,2.209745361328125,0.11621997505426407,0.06798011064529419,0.1259652078151703
1761467283990727400,2.2197275390625,0.1098184585571289,0.06650066375732422,0.10251948982477188
1761467284000710400,2.22971044921875,0.10356535762548447,0.08926963061094284,0.07853053510189056
1761467284010693600,2.239693603515625,0.10382334142923355,0.1344798058271408,0.0655171200633049
1761467284020676600,2.249676513671875,0.09742482751607895,0.18184731900691986,0.06575281172990799
1761467284030659300,2.259659423828125,0.08151594549417496,0.22988443076610565,0.06956222653388977
1761467284040642600,2.269642578125,0.06844568252563477,0.2597600519657135,0.07926492393016815
1761467284050625500,2.27962548828125,0.04354957491159439,0.2779882550239563,0.10409032553434372
1761467284060608500,2.2896083984375,0.01508624479174614,0.28976768255233765,0.13644933700561523
1761467284070591500,2.299591552734375,-0.010751711204648018,0.2990437150001526,0.16348674893379211
1761467284080574500,2.309574462890625,-0.04708761349320412,0.29556483030319214,0.17897090315818787
1761467284090557700,2.3195576171875,-0.0749230906367302,0.27788886427879333,0.19009865820407867
1761467284100540400,2.32954052734375,-0.09453433752059937,0.2592632472515106,0.2037937045097351
1761467284110523400,2.3395234375,-0.10649973154067993,0.24979859590530396,0.21920377016067505
1761467284120506600,2.349506591796875,-0.11237040162086487,0.23995341360569,0.24515201151371002
1761467284130489600,2.359489501953125,-0.12341825664043427,0.2300252914428711,0.26661112904548645
1761467284140472300,2.369472412109375,-0.13037842512130737,0.20419049263000488,0.2901236414909363
1761467284150455600,2.37945556640625,-0.14897604286670685,0.1782468557357788,0.31449559330940247
1761467284160438500,2.3894384765625,-0.15900950133800507,0.16147853434085846,0.33376702666282654
1761467284170421500,2.39942138671875,-0.16449256241321564,0.13795936107635498,0.3578342795372009
1761467284180404500,2.409404541015625,-0.17572656273841858,0.11445191502571106,0.3793041408061981
1761467284190387500,2.419387451171875,-0.19596907496452332,0.10298244655132294,0.40688246488571167
1761467284200370400,2.429370361328125,-0.21683600544929504,0.09431545436382294,0.4228704869747162
1761467284210353700,2.439353759765625,-0.24354179203510284,0.09044454246759415,0.4353758990764618
1761467284220336400,2.44933642578125,-0.2659544348716736,0.09555914252996445,0.4504547119140625
1761467284230319600,2.459319580078125,-0.2925437092781067,0.10657747834920883,0.46516287326812744
1761467284240302600,2.469302490234375,-0.30767711997032166,0.133588045835495,0.4794810712337494
1761467284250284500,2.479284423828125,-0.3232540786266327,0.16749633848667145,0.4934253394603729
1761467284260267500,2.489267578125,-0.34150153398513794,0.1835714429616928,0.5015783309936523
1761467284270250500,2.49925048828125,-0.3517162799835205,0.1904630959033966,0.5013065338134766
1761467284280233500,2.5092333984375,-0.35890626907348633,0.17798085510730743,0.5085559487342834
1761467284290216400,2.519216552734375,-0.36805427074432373,0.14312253892421722,0.5155428051948547
1761467284300199400,2.529199462890625,-0.3757484257221222,0.11055260896682739,0.5371320247650146
1761467284310182700,2.5391826171875,-0.37263569235801697,0.0981462225317955,0.5525955557823181
1761467284320165400,2.549165283203125,-0.3691272437572479,0.09489769488573074,0.5674373507499695
1761467284330148400,2.5591484375,-0.3526701331138611,0.08998090773820877,0.5709723234176636
1761467284340131600,2.569131591796875,-0.3426390588283539,0.08067848533391953,0.5788382291793823
1761467284350114600,2.579114501953125,-0.3184942901134491,0.08076430857181549,0.5997348427772522
1761467284360097500,2.58909765625,-0.29791924357414246,0.07921621203422546,0.6332168579101562
1761467284370080500,2.59908056640625,-0.29336637258529663,0.07221710681915283,0.6676193475723267
1761467284380063500,2.6090634765625,-0.29107046127319336,0.042033907026052475,0.708611249923706
1761467284390046700,2.619046630859375,-0.29750481247901917,0.03150004893541336,0.7476118803024292
1761467284400029400,2.629029541015625,-0.3077683448791504,0.017971191555261612,0.7782589793205261
1761467284410012400,2.639012451171875,-0.32368627190589905,0.013442542403936386,0.7991712689399719
1761467284419995600,2.64899560546875,-0.339376837015152,0.012942668050527573,0.8208504319190979
1761467284429978600,2.658978515625,-0.3460254669189453,0.06250869482755661,0.8214609026908875
1761467284439961300,2.66896142578125,-0.3436395227909088,0.15921685099601746,0.787959635257721
1761467284449944600,2.678944580078125,-0.32765743136405945,0.23992334306240082,0.71661776304245
1761467284459927600,2.688927490234375,-0.30886855721473694,0.2634068429470062,0.6460434794425964
1761467284469910300,2.69891015625,-0.2926988899707794,0.26937827467918396,0.6053326725959778
1761467284479893500,2.7088935546875,-0.2670385241508484,0.29573583602905273,0.5908975601196289
1761467284489876500,2.71887646484375,-0.24635180830955505,0.3388226628303528,0.5854048132896423
1761467284499859500,2.728859375,-0.22743910551071167,0.37324079871177673,0.5899984836578369
1761467284509841400,2.73884130859375,-0.22696498036384583,0.37679576873779297,0.6277210712432861
1761467284519824400,2.748824462890625,-0.2358490228652954,0.31944432854652405,0.6822711229324341
1761467284529807600,2.7588076171875,-0.25899869203567505,0.22379200160503387,0.7306063175201416
1761467284539790300,2.768790283203125,-0.2889701724052429,0.12852700054645538,0.7606577277183533
1761467284549773600,2.778773681640625,-0.3222666084766388,0.09847921133041382,0.7635207176208496
1761467284559756500,2.788756591796875,-0.34576529264450073,0.0922069326043129,0.7349665760993958
1761467284569739500,2.798739501953125,-0.37736037373542786,0.07634211331605911,0.6908447742462158
1761467284579722500,2.808722412109375,-0.4069763123989105,0.06845196336507797,0.6661905646324158
1761467284589705500,2.81870556640625,-0.43140149116516113,0.06901265680789948,0.6581919193267822
1761467284599688400,2.8286884765625,-0.4505402743816376,0.07861015200614929,0.6535511016845703
1761467284609671700,2.838671630859375,-0.4671555161476135,0.09040652960538864,0.6444532871246338
1761467284619654400,2.848654296875,-0.4760113060474396,0.09703513979911804,0.6393674612045288
1761467284629637400,2.858637451171875,-0.4781136214733124,0.1382044106721878,0.6280213594436646
1761467284639620600,2.86862060546875,-0.4846724569797516,0.16313345730304718,0.6047080159187317
1761467284649603600,2.878603515625,-0.48934370279312134,0.19227810204029083,0.571027398109436
1761467284659586300,2.88858642578125,-0.49278584122657776,0.23467455804347992,0.5240620374679565
1761467284669569500,2.898569580078125,-0.4963710904121399,0.29097792506217957,0.4681527018547058
1761467284679552500,2.908552490234375,-0.502781331539154,0.3673589825630188,0.41196829080581665
1761467284689535700,2.91853564453125,-0.5103424191474915,0.40208977460861206,0.37159857153892517
1761467284699518500,2.9285185546875,-0.5300136208534241,0.39547714591026306,0.3444865345954895
1761467284709501400,2.93850146484375,-0.5493108630180359,0.4005330801010132,0.32441869378089905
1761467284719484700,2.948484619140625,-0.5713421106338501,0.3976595401763916,0.32157257199287415
1761467284729467400,2.95846728515625,-0.5877938270568848,0.3729112446308136,0.3402772545814514
1761467284739450400,2.968450439453125,-0.6139721870422363,0.3428124785423279,0.3809458315372467
1761467284749433600,2.97843359375,-0.6442413330078125,0.2861715257167816,0.41816645860671997
1761467284759415300,2.988415283203125,-0.6665259003639221,0.229314386844635,0.4466886520385742
1761467284769398500,2.9983984375,-0.6865030527114868,0.19804461300373077,0.45780256390571594
1761467284779381500,3.008381591796875,-0.6990915536880493,0.18633949756622314,0.4589378833770752
1761467284789364500,3.018364501953125,-0.6992384791374207,0.17400012910366058,0.45088961720466614
1761467284799347500,3.028347412109375,-0.6968001127243042,0.15438061952590942,0.44417712092399597
1761467284809330400,3.038330322265625,-0.6851091384887695,0.14594998955726624,0.42591652274131775
1761467284819313400,3.0483134765625,-0.6676385402679443,0.18816907703876495,0.39831048250198364
1761467284829296600,3.058296630859375,-0.6422738432884216,0.238199383020401,0.3691740334033966
1761467284839279400,3.068279296875,-0.6124304533004761,0.2656267583370209,0.35095882415771484
1761467284849262600,3.0782626953125,-0.583142876625061,0.27402380108833313,0.3424338102340698
1761467284859245600,3.08824560546875,-0.5487865209579468,0.26769107580184937,0.35510993003845215
1761467284869228500,3.098228515625,-0.5276689529418945,0.2713847756385803,0.3749515116214752
1761467284879211500,3.10821142578125,-0.5055660605430603,0.2876143455505371,0.39313849806785583
1761467284889194500,3.118194580078125,-0.4974023103713989,0.29010066390037537,0.3968285620212555
1761467284899177500,3.128177490234375,-0.49849075078964233,0.27344074845314026,0.39226630330085754
1761467284909160700,3.13816064453125,-0.5037878751754761,0.27149835228919983,0.3880234658718109
1761467284919143400,3.148143310546875,-0.5229858160018921,0.28423652052879333,0.3839051425457001
1761467284929127200,3.158127197265625,-0.5402392148971558,0.30624473094940186,0.3727455139160156
1761467284939110100,3.168110107421875,-0.5393095016479492,0.32893165946006775,0.35043197870254517
1761467284949093000,3.178093017578125,-0.5395919680595398,0.3508523404598236,0.3248472213745117
1761467284959076000,3.188076171875,-0.5285374522209167,0.3599766194820404,0.30039912462234497
1761467284969059300,3.198059326171875,-0.5093990564346313,0.3650404214859009,0.28139039874076843
1761467284979042000,3.2080419921875,-0.4921913146972656,0.3394154906272888,0.26693928241729736
1761467284989025000,3.21802490234375,-0.4670659303665161,0.2977982461452484,0.2509584128856659
1761467284999008300,3.22800830078125,-0.43338093161582947,0.2657518982887268,0.2290530800819397
1761467285008991200,3.2379912109375,-0.39102786779403687,0.23734790086746216,0.2079988718032837
1761467285018973200,3.24797314453125,-0.35741931200027466,0.21332459151744843,0.1829766184091568
1761467285028956200,3.2579560546875,-0.31792521476745605,0.2027718722820282,0.15446245670318604
1761467285038939100,3.267939208984375,-0.28339067101478577,0.20105838775634766,0.12306804955005646
1761467285048922000,3.277922119140625,-0.25679001212120056,0.2115665078163147,0.10772615671157837
1761467285058905000,3.287905029296875,-0.22240646183490753,0.22381705045700073,0.10672454535961151
1761467285068888000,3.29788818359375,-0.19021481275558472,0.21701689064502716,0.11745044589042664
1761467285078871000,3.30787109375,-0.1647254377603531,0.21652208268642426,0.13170422613620758
1761467285088854000,3.31785400390625,-0.1363002210855484,0.2257804572582245,0.14941732585430145
1761467285098837200,3.327837158203125,-0.11261886358261108,0.22361983358860016,0.16729645431041718
1761467285108820200,3.3378203125,-0.10349202901124954,0.214230015873909,0.18367917835712433
1761467285118803000,3.347802978515625,-0.09178424626588821,0.19539694488048553,0.21021464467048645
1761467285128786200,3.3577861328125,-0.07890784740447998,0.17320628464221954,0.24069640040397644
1761467285138769200,3.36776904296875,-0.0630071759223938,0.16064602136611938,0.2756171226501465
1761467285148752100,3.377752197265625,-0.04540722444653511,0.15282705426216125,0.3115195631980896
1761467285158735000,3.387735107421875,-0.04093177989125252,0.15928548574447632,0.3437073230743408
1761467285168718000,3.397718017578125,-0.032326873391866684,0.17438790202140808,0.3583921492099762
1761467285178701000,3.407701171875,-0.025119826197624207,0.18480725586414337,0.3672759234905243
1761467285188684300,3.417684326171875,-0.01950662024319172,0.20242613554000854,0.37500306963920593
1761467285198667000,3.4276669921875,-0.016668489202857018,0.2213209867477417,0.3638606667518616
1761467285208650200,3.437650146484375,-0.014349156990647316,0.22139251232147217,0.3360616862773895
1761467285218633200,3.44763330078125,-0.0194373931735754,0.2183365374803543,0.30886709690093994
1761467285228616200,3.4576162109375,-0.025783400982618332,0.18843095004558563,0.2864065170288086
1761467285238599200,3.46759912109375,-0.021232325583696365,0.16048480570316315,0.27102383971214294
1761467285248582100,3.47758203125,-0.022005131468176842,0.15593059360980988,0.2543312609195709
1761467285258565000,3.487565185546875,-0.01701223850250244,0.1525196135044098,0.23048213124275208
1761467285268548000,3.497548095703125,-0.01336220558732748,0.12969936430454254,0.19521719217300415
1761467285278531000,3.507531005859375,0.002321416512131691,0.10558336228132248,0.15269556641578674
1761467285288513300,3.51751318359375,0.019725393503904343,0.02719353325664997,0.10691002756357193
1761467285298496000,3.52749609375,0.0411318838596344,-0.06262557208538055,0.058144088834524155
1761467285308479000,3.53747900390625,0.05178504437208176,-0.147984117269516,0.03361290320754051
1761467285318462200,3.547462158203125,0.06408591568470001,-0.22126738727092743,0.004283509217202663
1761467285328445200,3.557445068359375,0.08190944790840149,-0.27194422483444214,-0.03161408379673958
1761467285338428000,3.567427978515625,0.10445816814899445,-0.2982431948184967,-0.09106303006410599
1761467285348411100,3.5774111328125,0.12645499408245087,-0.29505571722984314,-0.13551655411720276
1761467285358394000,3.58739404296875,0.13130143284797668,-0.23468159139156342,-0.15665273368358612
1761467285368377000,3.597377197265625,0.13529253005981445,-0.10244680941104889,-0.17179621756076813
1761467285378360000,3.607360107421875,0.1276886761188507,-0.002442719414830208,-0.20571663975715637
1761467285388343000,3.617343017578125,0.11591167002916336,-0.003979391418397427,-0.2503507435321808
1761467285398326300,3.627326171875,0.11030066013336182,-0.0670398473739624,-0.24466250836849213
1761467285408309200,3.637309326171875,0.09706926345825195,-0.09958525002002716,-0.18498186767101288
1761467285418292000,3.6472919921875,0.07956644147634506,-0.09885793924331665,-0.11793918907642365
1761467285428275200,3.657275146484375,0.050440020859241486,-0.12435337156057358,-0.07258383929729462
1761467285438258200,3.667258056640625,0.018382219597697258,-0.14444799721240997,-0.03257010504603386
1761467285448241200,3.6772412109375,-0.021054619923233986,-0.17367024719715118,0.010546324774622917
1761467285458224000,3.68722412109375,-0.06702397763729095,-0.23604626953601837,0.05658359080553055
1761467285468207000,3.69720703125,-0.09684842079877853,-0.2737594544887543,0.10665405541658401
1761467285478190000,3.707190185546875,-0.10600490123033524,-0.2642354369163513,0.17209859192371368
1761467285488173000,3.717173095703125,-0.11467266082763672,-0.21547646820545197,0.25318002700805664
1761467285498156000,3.727156005859375,-0.11407451331615448,-0.14731338620185852,0.33820146322250366
1761467285508139000,3.737138916015625,-0.11387486755847931,-0.07810280472040176,0.40210384130477905
1761467285518122200,3.747122314453125,-0.10668673366308212,-0.0011094864457845688,0.43142765760421753
1761467285528105000,3.75710498046875,-0.10249201953411102,0.08182591199874878,0.4361747205257416
1761467285538088200,3.767088134765625,-0.0946442186832428,0.12927120923995972,0.4172345697879791
1761467285548071200,3.7770712890625,-0.0939164012670517,0.16739463806152344,0.39473628997802734
1761467285558054100,3.78705419921875,-0.09786959737539291,0.21817979216575623,0.36828896403312683
1761467285568036000,3.7970361328125,-0.09915642440319061,0.25485989451408386,0.3391050696372986
1761467285578019000,3.80701904296875,-0.1204284280538559,0.26999545097351074,0.3154141306877136
1761467285588002300,3.817002197265625,-0.1434537023305893,0.281971275806427,0.2917855679988861
1761467285597985000,3.826985107421875,-0.15928912162780762,0.3045889735221863,0.2712092101573944
1761467285607968000,3.836968017578125,-0.17581520974636078,0.3287452459335327,0.2619630992412567
1761467285617951200,3.846951171875,-0.188127800822258,0.3398793935775757,0.2572628855705261
1761467285627934200,3.856934326171875,-0.19233323633670807,0.31637731194496155,0.250725656747818
1761467285637917000,3.8669169921875,-0.18054582178592682,0.28366944193840027,0.2685699164867401
1761467285647900200,3.876900146484375,-0.17018219828605652,0.2590315341949463,0.3153519332408905
1761467285657883100,3.886883056640625,-0.1537073403596878,0.24189116060733795,0.38854944705963135
1761467285667866000,3.8968662109375,-0.1322566717863083,0.2225639671087265,0.46937432885169983
1761467285677849000,3.90684912109375,-0.11413706839084625,0.2132226675748825,0.5439057946205139
1761467285687832000,3.91683203125,-0.1082339808344841,0.21312619745731354,0.603215754032135
1761467285697815300,3.926815185546875,-0.10022026300430298,0.21723811328411102,0.6460646390914917
1761467285707798300,3.93679833984375,-0.10183124244213104,0.2310042828321457,0.6801901459693909
1761467285717781000,3.946781005859375,-0.11595825105905533,0.2610706090927124,0.7008475065231323
1761467285727764200,3.95676416015625,-0.12712541222572327,0.29926031827926636,0.6922718286514282
1761467285737747200,3.966747314453125,-0.1516840159893036,0.3113228380680084,0.6663217544555664
1761467285747730000,3.97672998046875,-0.1731114238500595,0.32069769501686096,0.6242217421531677
1761467285757713200,3.986713134765625,-0.2025555968284607,0.318374902009964,0.5799509286880493
1761467285767696100,3.996696044921875,-0.2229621708393097,0.31075945496559143,0.550433337688446
1761467285777679000,4.00667919921875,-0.23527956008911133,0.3088662028312683,0.5275048613548279
1761467285787661000,4.0166611328125,-0.2540110945701599,0.3251050114631653,0.5175508856773376
1761467285797644000,4.02664404296875,-0.2535884380340576,0.34413063526153564,0.5129846334457397
1761467285807627300,4.036627197265625,-0.2596811056137085,0.3635903596878052,0.506064236164093
1761467285817610000,4.04660986328125,-0.26288703083992004,0.38898253440856934,0.5203342437744141
1761467285827593200,4.05659326171875,-0.26418253779411316,0.42402413487434387,0.5414922833442688
1761467285837576200,4.066576171875,-0.26609814167022705,0.4456769526004791,0.550823986530304
1761467285847559200,4.07655908203125,-0.2734226882457733,0.4604261517524719,0.5552664399147034
1761467285857542100,4.086542236328125,-0.28850072622299194,0.4678196310997009,0.5674125552177429
1761467285867525000,4.096525146484375,-0.309999942779541,0.47095078229904175,0.5729491114616394
1761467285877508000,4.106508056640625,-0.33390793204307556,0.4467466473579407,0.5845375657081604
1761467285887490000,4.116489990234375,-0.3653244078159332,0.44162145256996155,0.6062818765640259
1761467285897473000,4.12647314453125,-0.3989494740962982,0.4453701376914978,0.6326586008071899
1761467285907456300,4.136456298828125,-0.4218788146972656,0.43504151701927185,0.6471325159072876
1761467285917439200,4.146439208984375,-0.44692477583885193,0.41159477829933167,0.6598759889602661
1761467285927422000,4.156421875,-0.4665466248989105,0.39317095279693604,0.6696401238441467
1761467285937405200,4.1664052734375,-0.47261276841163635,0.3785390257835388,0.682543933391571
1761467285947388000,4.176387939453125,-0.4793623387813568,0.3645617365837097,0.6911253333091736
1761467285957371000,4.186370849609375,-0.4731944799423218,0.35725003480911255,0.6934041976928711
1761467285967354000,4.19635400390625,-0.4679720401763916,0.3426462411880493,0.6959133148193359
1761467285977336800,4.2063369140625,-0.4599987864494324,0.3212064504623413,0.6919401288032532
1761467285987320000,4.216320068359375,-0.4507460594177246,0.3095841705799103,0.6889688968658447
1761467285997303000,4.226302978515625,-0.44368043541908264,0.31122520565986633,0.6875949501991272
1761467286007286000,4.2362861328125,-0.44056132435798645,0.3182166516780853,0.6868919730186462
1761467286017269000,4.24626904296875,-0.4307960569858551,0.3211146891117096,0.683255672454834
1761467286027252000,4.256251953125,-0.43755313754081726,0.31169044971466064,0.6777896881103516
1761467286037235000,4.26623486328125,-0.4410189688205719,0.29851552844047546,0.6782594919204712
1761467286047218200,4.27621826171875,-0.46201738715171814,0.28817930817604065,0.6865251064300537
1761467286057201000,4.286200927734375,-0.4790365695953369,0.28333741426467896,0.6952118277549744
1761467286067183900,4.296183837890625,-0.4892590641975403,0.29871684312820435,0.7216747999191284
1761467286077167000,4.3061669921875,-0.5017260909080505,0.3109535276889801,0.7514795660972595
1761467286087150000,4.316150146484375,-0.5152216553688049,0.313923716545105,0.7858291864395142
1761467286097132800,4.3261328125,-0.5217692852020264,0.295088529586792,0.8220234513282776
1761467286107116000,4.336115966796875,-0.5314407348632812,0.2712547481060028,0.8644587993621826
1761467286117099000,4.34609912109375,-0.5356544256210327,0.2528648376464844,0.8999617099761963
1761467286127082000,4.35608203125,-0.5449458360671997,0.2474227249622345,0.9100967049598694
1761467286137065000,4.36606494140625,-0.551867663860321,0.2633068859577179,0.900501549243927
1761467286147048000,4.3760478515625,-0.5506302118301392,0.2769724428653717,0.8842496871948242
1761467286157030100,4.386030029296875,-0.5486893057823181,0.2773556709289551,0.8734912872314453
1761467286167012900,4.396012939453125,-0.542550265789032,0.2789664566516876,0.8756677508354187
1761467286176996000,4.40599609375,-0.5263584852218628,0.2854642868041992,0.8883952498435974
1761467286186979000,4.41597900390625,-0.5156671404838562,0.29496338963508606,0.9033759832382202
1761467286196962000,4.425962158203125,-0.5141717791557312,0.29016944766044617,0.9091206789016724
1761467286206945000,4.435945068359375,-0.5152564644813538,0.2820129692554474,0.9080309271812439
1761467286216928000,4.445927978515625,-0.520460844039917,0.2745873034000397,0.911991536617279
1761467286226911000,4.455910888671875,-0.5263497233390808,0.2745785117149353,0.9206994771957397
1761467286236894000,4.46589404296875,-0.5363901257514954,0.2763822674751282,0.9225149750709534
1761467286246877000,4.475876953125,-0.5314629077911377,0.29215216636657715,0.897193968296051
1761467286256860000,4.48585986328125,-0.5186663866043091,0.32586485147476196,0.8445723056793213
1761467286266843100,4.495843017578125,-0.505151629447937,0.3719102442264557,0.7831960916519165
1761467286276825900,4.505825927734375,-0.473958820104599,0.42431193590164185,0.7191678881645203
1761467286286809000,4.51580908203125,-0.4455612897872925,0.4679895043373108,0.6862135529518127
1761467286296792000,4.5257919921875,-0.4110267460346222,0.5027973055839539,0.6998854279518127
1761467286306775000,4.535775146484375,-0.38042151927948,0.51923668384552,0.7330449223518372
1761467286316758000,4.545758056640625,-0.3543664813041687,0.5191623568534851,0.7592498660087585
1761467286326741000,4.555740966796875,-0.34478864073753357,0.4923328459262848,0.777225136756897
1761467286336724000,4.565723876953125,-0.34359073638916016,0.4499094784259796,0.783799946308136
1761467286346709000,4.575708984375,-0.36594483256340027,0.38943663239479065,0.7806161642074585
1761467286356692000,4.58569189453125,-0.3819238245487213,0.3466297686100006,0.7799692749977112
1761467286366675000,4.595675048828125,-0.40311840176582336,0.31420227885246277,0.7861408591270447
1761467286376658000,4.605657958984375,-0.4259917438030243,0.27584850788116455,0.79173344373703
1761467286386641200,4.61564111328125,-0.44121137261390686,0.25325295329093933,0.7946345210075378
1761467286396624100,4.6256240234375,-0.4563596844673157,0.22439493238925934,0.8091245293617249
1761467286406606800,4.63560693359375,-0.46740269660949707,0.19763770699501038,0.8254554271697998
1761467286416590000,4.645590087890625,-0.4610303044319153,0.21880237758159637,0.849795401096344
1761467286426573000,4.655572998046875,-0.4570486545562744,0.26968061923980713,0.8660466074943542
1761467286436556000,4.66555615234375,-0.457449734210968,0.3192521631717682,0.8683220148086548
1761467286446539000,4.6755390625,-0.4664510190486908,0.37243279814720154,0.8467026948928833
1761467286456522000,4.68552197265625,-0.48125019669532776,0.4316292703151703,0.8111138343811035
1761467286466505000,4.6955048828125,-0.5027950406074524,0.48343944549560547,0.7641133069992065
1761467286476488200,4.70548828125,-0.5326504111289978,0.5349979996681213,0.7055522799491882
1761467286486471000,4.715470947265625,-0.5686281323432922,0.5648528933525085,0.6507119536399841
1761467286496454000,4.725453857421875,-0.6041637659072876,0.5709856152534485,0.6068164110183716
1761467286506437000,4.73543701171875,-0.6345813274383545,0.5720466375350952,0.5858226418495178
1761467286516419800,4.745419921875,-0.6711881160736084,0.560406506061554,0.5930600166320801
1761467286526403000,4.755403076171875,-0.7116035223007202,0.553844690322876,0.614119827747345
1761467286536386000,4.765385986328125,-0.7608810663223267,0.5680156350135803,0.6313920021057129
1761467286546369000,4.775369140625,-0.8045709133148193,0.542404055595398,0.6437073349952698
1761467286556352000,4.78535205078125,-0.8489487767219543,0.5093515515327454,0.644891619682312
1761467286566335000,4.7953349609375,-0.8810714483261108,0.4789033830165863,0.6604796648025513
1761467286576318000,4.80531787109375,-0.9045179486274719,0.4554063081741333,0.6798304319381714
1761467286586301200,4.81530126953125,-0.9151725172996521,0.4373863935470581,0.6996247172355652
1761467286596284000,4.825283935546875,-0.9279767274856567,0.4250202775001526,0.7165640592575073
1761467286606266000,4.83526611328125,-0.9331014156341553,0.4160221815109253,0.7336524128913879
1761467286616249000,4.8452490234375,-0.927298367023468,0.379171758890152,0.7430523037910461
1761467286626231800,4.855231689453125,-0.9099639058113098,0.33586791157722473,0.7478874325752258
1761467286636215000,4.865215087890625,-0.8894498348236084,0.30075597763061523,0.758271336555481
1761467286646198000,4.875197998046875,-0.8604941368103027,0.27451446652412415,0.7596442103385925
1761467286656181000,4.885180908203125,-0.8249459862709045,0.2902500331401825,0.7381008267402649
1761467286666164000,4.8951640625,-0.7913068532943726,0.3429742455482483,0.701774537563324
1761467286676147000,4.90514697265625,-0.7646763324737549,0.39530643820762634,0.6640825867652893
1761467286686130000,4.9151298828125,-0.754374623298645,0.43415191769599915,0.6391589045524597
1761467286696113200,4.925113037109375,-0.7434015870094299,0.45705991983413696,0.6220965385437012
1761467286706095900,4.935095947265625,-0.7363551259040833,0.4768279790878296,0.6124958395957947
1761467286716079000,4.9450791015625,-0.7339332699775696,0.49363812804222107,0.6049985289573669
1761467286726062000,4.95506201171875,-0.7261878848075867,0.5003650188446045,0.6047043204307556
1761467286736044800,4.965044921875,-0.7180982828140259,0.510780930519104,0.6107501983642578
1761467286746028000,4.975028076171875,-0.7066405415534973,0.5138238072395325,0.6163329482078552
1761467286756011000,4.985010986328125,-0.687457799911499,0.5285926461219788,0.6182984113693237
1761467286765994000,4.994993896484375,-0.6719087362289429,0.5391082763671875,0.6055216789245605
1761467286775977000,5.00497705078125,-0.6535619497299194,0.5458572506904602,0.5822208523750305
1761467286785960000,5.0149599609375,-0.639124870300293,0.5643828511238098,0.5586355924606323
1761467286795943000,5.02494287109375,-0.6267595291137695,0.5816110968589783,0.5274843573570251
1761467286805926100,5.034926025390625,-0.6105761528015137,0.5823155045509338,0.5015685558319092
1761467286815908900,5.044908935546875,-0.6002569198608398,0.5723944306373596,0.4730285108089447
1761467286825892000,5.05489208984375,-0.5794818997383118,0.5489682555198669,0.43668273091316223
1761467286835875000,5.064875,-0.551296055316925,0.5263841152191162,0.4066270887851715
1761467286845858000,5.074858154296875,-0.5189573168754578,0.4967857301235199,0.38932162523269653
1761467286855841000,5.084841064453125,-0.4779973328113556,0.4602500796318054,0.3800748586654663
1761467286865824000,5.094823974609375,-0.4371858835220337,0.4473840892314911,0.3788554072380066
1761467286875807000,5.104806884765625,-0.3987402319908142,0.4520387351512909,0.3827795684337616
1761467286885790200,5.114790283203125,-0.35791629552841187,0.4500296115875244,0.37426087260246277
1761467286895773000,5.12477294921875,-0.328914999961853,0.43793830275535583,0.35214516520500183
1761467286905756000,5.134755859375,-0.30303433537483215,0.4306327700614929,0.33005642890930176
1761467286915739100,5.1447392578125,-0.2773646414279938,0.44020310044288635,0.31165453791618347
1761467286925721600,5.1547216796875,-0.26360583305358887,0.45722952485084534,0.30298274755477905
1761467286935703800,5.164703857421875,-0.24659064412117004,0.45656025409698486,0.30220749974250793
1761467286945686800,5.174686767578125,-0.24091875553131104,0.4493177831172943,0.3284689486026764
1761467286955669800,5.184669677734375,-0.24086548388004303,0.4447725713253021,0.3678344488143921
1761467286965652700,5.19465283203125,-0.23727576434612274,0.4397537112236023,0.4041237533092499
1761467286975635700,5.2046357421875,-0.232175812125206,0.4326832890510559,0.442707359790802
1761467286985619000,5.214618896484375,-0.22362947463989258,0.407056599855423,0.4815923571586609
1761467286995601700,5.2246015625,-0.22309471666812897,0.37757009267807007,0.5256322622299194
1761467287005584600,5.234584716796875,-0.2208884060382843,0.35078930854797363,0.5598626732826233
1761467287015568000,5.24456787109375,-0.21572346985340118,0.3013884723186493,0.5773873329162598
1761467287025550800,5.25455078125,-0.2148440033197403,0.2467840313911438,0.5916231870651245
1761467287035533600,5.264533447265625,-0.2020038366317749,0.20298008620738983,0.5959071516990662
1761467287045516800,5.274516845703125,-0.18051950633525848,0.15675964951515198,0.5889922976493835
1761467287055499800,5.284499755859375,-0.15315712988376617,0.097218818962574,0.568860650062561
1761467287065482800,5.294482666015625,-0.11639087647199631,0.028906481340527534,0.5319480299949646
1761467287075465700,5.3044658203125,-0.07420507073402405,-0.025141308084130287,0.5016140937805176
1761467287085448700,5.31444873046875,-0.024846695363521576,-0.04940016567707062,0.46811404824256897
1761467287095431700,5.324431640625,0.015135342255234718,-0.04185010492801666,0.45616045594215393
1761467287105415000,5.334414794921875,0.048799581825733185,0.028331590816378593,0.4112374782562256
1761467287115397600,5.344397705078125,0.07507485896348953,0.10357973724603653,0.34323444962501526
1761467287125380900,5.354380859375,0.0978589802980423,0.11702138185501099,0.3082031309604645
1761467287135363800,5.36436376953125,0.10428332537412643,0.1585504561662674,0.29655954241752625
1761467287145346600,5.3743466796875,0.08752472698688507,0.18992266058921814,0.2616346478462219
1761467287155329800,5.384329833984375,0.060284316539764404,0.19545218348503113,0.20951524376869202
1761467287165312800,5.394312744140625,0.02570064179599285,0.1729079782962799,0.16277465224266052
1761467287175295700,5.404295654296875,-0.028551677241921425,0.0942951887845993,0.14496715366840363
1761467287185278700,5.41427880859375,-0.07913573086261749,-0.04647541791200638,0.1840832382440567
1761467287195261700,5.42426171875,-0.11928714066743851,-0.1669594794511795,0.2666255235671997
1761467287205244700,5.43424462890625,-0.1500653326511383,-0.22720986604690552,0.34417852759361267
1761467287215228000,5.444227783203125,-0.16956393420696259,-0.26811152696609497,0.38459891080856323
1761467287225210600,5.454210693359375,-0.1660340577363968,-0.29520633816719055,0.3996563255786896
1761467287235193900,5.46419384765625,-0.15117815136909485,-0.3090744912624359,0.4022665023803711
1761467287245176800,5.4741767578125,-0.1324586421251297,-0.3002582788467407,0.39159369468688965
1761467287255159800,5.484159912109375,-0.11590415984392166,-0.26293566823005676,0.36737704277038574
1761467287265142800,5.494142822265625,-0.0986265018582344,-0.19354990124702454,0.33975473046302795
1761467287275125800,5.504125732421875,-0.08159425854682922,-0.11861839890480042,0.3070910573005676
1761467287285108700,5.514108642578125,-0.06762565672397614,-0.017351772636175156,0.27349817752838135
1761467287295092000,5.524092041015625,-0.056306689977645874,0.09711381793022156,0.23974554240703583
1761467287305074700,5.53407470703125,-0.04405573010444641,0.20365266501903534,0.2007012963294983
1761467287315057700,5.5440576171875,-0.03819810971617699,0.28099191188812256,0.17133168876171112
1761467287325041000,5.554041015625,-0.03080121800303459,0.33077573776245117,0.16702328622341156
1761467287335023600,5.564023681640625,-0.02729623392224312,0.347191721200943,0.1847495585680008
1761467287345005800,5.574005859375,-0.02323179692029953,0.32951226830482483,0.21457718312740326
1761467287354988800,5.58398876953125,-0.023731140419840813,0.2725387215614319,0.2606131434440613
1761467287364971500,5.593971435546875,-0.016454346477985382,0.21224519610404968,0.33012792468070984
1761467287374954800,5.603954833984375,-0.0069151706993579865,0.16791501641273499,0.4200069308280945
1761467287384937700,5.613937744140625,0.0027354953344911337,0.12942680716514587,0.526333212852478
1761467287394920700,5.623920654296875,0.018171442672610283,0.10307295620441437,0.6321773529052734
1761467287404903700,5.633903564453125,0.024076666682958603,0.08762356638908386,0.7246300578117371
1761467287414886700,5.64388671875,0.025946205481886864,0.08077604323625565,0.7913166880607605
1761467287424870000,5.653869873046875,0.013607434928417206,0.08331158012151718,0.8372343182563782
1761467287434852900,5.663852783203125,0.0006503579206764698,0.11369425058364868,0.8536396622657776
1761467287444835600,5.673835693359375,-0.018784405663609505,0.16842801868915558,0.8354222774505615
1761467287454818800,5.68381884765625,-0.037813492119312286,0.22569504380226135,0.7897781133651733
1761467287464801800,5.6938017578125,-0.06368337571620941,0.2533572316169739,0.7294606566429138
1761467287474784800,5.70378466796875,-0.08467601239681244,0.27673766016960144,0.6693757176399231
1761467287484767700,5.713767822265625,-0.09790565818548203,0.3041394054889679,0.6125052571296692
1761467287494750700,5.723750732421875,-0.11181215196847916,0.3186861276626587,0.55184006690979
1761467287504733700,5.733733642578125,-0.12032235413789749,0.329347163438797,0.5001806616783142
1761467287514717000,5.743717041015625,-0.12719011306762695,0.3338066339492798,0.46038633584976196
1761467287524699600,5.75369970703125,-0.13157771527767181,0.3349754810333252,0.4386345148086548
1761467287534682600,5.7636826171875,-0.1428612619638443,0.3383345305919647,0.4345945119857788
1761467287544665900,5.773665771484375,-0.15398527681827545,0.36060404777526855,0.44105541706085205
1761467287554648600,5.783648681640625,-0.1676134616136551,0.3874756097793579,0.4387557804584503
1761467287564631800,5.7936318359375,-0.18669672310352325,0.40769001841545105,0.42441919445991516
1761467287574614800,5.80361474609375,-0.20407411456108093,0.43263503909111023,0.414156973361969
1761467287584597800,5.81359765625,-0.2316502034664154,0.4643944799900055,0.40002337098121643
1761467287594580700,5.823580810546875,-0.2562333345413208,0.48703160881996155,0.3794027864933014
1761467287604563700,5.833563720703125,-0.2706306576728821,0.49970343708992004,0.36150553822517395
1761467287614546700,5.843546630859375,-0.27797645330429077,0.4957939386367798,0.3564862906932831
1761467287624530000,5.853530029296875,-0.2822716534137726,0.4766536355018616,0.3541070520877838
1761467287634512600,5.8635126953125,-0.2839728593826294,0.44418010115623474,0.36660313606262207
1761467287644495600,5.87349560546875,-0.287509948015213,0.4223637282848358,0.3994239568710327
1761467287654478800,5.883478759765625,-0.28335168957710266,0.40200066566467285,0.42316845059394836
1761467287664461800,5.8934619140625,-0.28738224506378174,0.371623158454895,0.43922245502471924
1761467287674444800,5.90344482421875,-0.2853603661060333,0.3399384617805481,0.4638199210166931
1761467287684427800,5.913427734375,-0.28398826718330383,0.31808626651763916,0.48832234740257263
1761467287694410800,5.92341064453125,-0.28543993830680847,0.30745333433151245,0.5128415822982788
1761467287704394000,5.93339404296875,-0.2858125865459442,0.31298452615737915,0.5312166213989258
1761467287714376700,5.943376708984375,-0.2851230800151825,0.3347974121570587,0.5478480458259583
1761467287724359700,5.953359619140625,-0.29574277997016907,0.3423764109611511,0.5589190125465393
1761467287734343000,5.963343017578125,-0.30728599429130554,0.3540538549423218,0.5808424353599548
1761467287744325600,5.97332568359375,-0.3115876615047455,0.3525548279285431,0.5990222096443176
1761467287754308600,5.98330859375,-0.32304883003234863,0.3604992926120758,0.6133444309234619
1761467287764291800,5.993291748046875,-0.33844485878944397,0.3638628125190735,0.6185789108276367
1761467287774274800,6.00327490234375,-0.3531723916530609,0.37287041544914246,0.6178097724914551
1761467287784257500,6.013257568359375,-0.36832669377326965,0.36532944440841675,0.6214250326156616
1761467287794240800,6.02324072265625,-0.37400561571121216,0.3511084318161011,0.6327453255653381
1761467287804223700,6.0332236328125,-0.3956795036792755,0.338979572057724,0.6381456851959229
1761467287814206700,6.043206787109375,-0.41814538836479187,0.3300529420375824,0.6438600420951843
1761467287824189700,6.053189697265625,-0.44351813197135925,0.31978875398635864,0.6515324115753174
1761467287834172700,6.063172607421875,-0.4613695740699768,0.29742807149887085,0.6602311134338379
1761467287844156000,6.073156005859375,-0.4755365550518036,0.31023168563842773,0.6601588726043701
1761467287854139000,6.083138916015625,-0.4741394519805908,0.34798625111579895,0.6561926007270813
1761467287864121600,6.09312158203125,-0.4632079303264618,0.3562083840370178,0.650099515914917
1761467287874104800,6.103104736328125,-0.4477695822715759,0.33596116304397583,0.6512345671653748
1761467287884087800,6.113087890625,-0.43867984414100647,0.3056773245334625,0.6625223755836487
1761467287894070800,6.12307080078125,-0.42577362060546875,0.2576639950275421,0.666236400604248
1761467287904052700,6.133052734375,-0.41604188084602356,0.19519802927970886,0.6623445749282837
1761467287914035700,6.14303564453125,-0.4042651057243347,0.127921000123024,0.660152792930603
1761467287924022500,6.1530224609375,-0.3837968409061432,0.08167067170143127,0.6561762094497681
1761467287934005500,6.163005615234375,-0.3720126152038574,0.054847847670316696,0.6433232426643372
1761467287943988500,6.172988525390625,-0.3614206314086914,0.03765404596924782,0.6206685304641724
1761467287953971500,6.182971435546875,-0.3551126718521118,0.02599605917930603,0.5899212956428528
1761467287963954400,6.192954345703125,-0.35816094279289246,0.0153764383867383,0.5743167400360107
1761467287973937400,6.2029375,-0.3501751720905304,0.025169413536787033,0.5687558054924011
1761467287983920600,6.212920654296875,-0.34583356976509094,0.025720886886119843,0.5752013325691223
1761467287993903400,6.2229033203125,-0.34182897210121155,0.0445486381649971,0.5914937257766724
1761467288003886300,6.23288623046875,-0.3400072157382965,0.0484890341758728,0.6257435083389282
1761467288013869600,6.24286962890625,-0.34897592663764954,0.07081244885921478,0.6678643226623535
1761467288023852500,6.2528525390625,-0.344312846660614,0.1320069432258606,0.6677504777908325
1761467288033835500,6.26283544921875,-0.3491225242614746,0.1939994841814041,0.6141617894172668
1761467288043818500,6.272818603515625,-0.34342655539512634,0.2149205058813095,0.5424667596817017
1761467288053801500,6.282801513671875,-0.30051103234291077,0.20166222751140594,0.49217644333839417
1761467288063784700,6.29278466796875,-0.2585245966911316,0.20000745356082916,0.47607171535491943
1761467288073767400,6.302767333984375,-0.20646299421787262,0.2198847532272339,0.46624279022216797
1761467288083750400,6.31275048828125,-0.15487849712371826,0.25899365544319153,0.44947388768196106
1761467288093733600,6.322733642578125,-0.11072888225317001,0.2794691026210785,0.44157254695892334
1761467288103716600,6.332716552734375,-0.08344770222902298,0.2973262071609497,0.4625178575515747
1761467288113699300,6.34269921875,-0.0812458023428917,0.27366748452186584,0.4975157678127289
1761467288123682600,6.3526826171875,-0.09564830362796783,0.17866511642932892,0.5232856273651123
1761467288133665500,6.36266552734375,-0.11735519766807556,0.1456669420003891,0.5394805669784546
1761467288143648500,6.3726484375,-0.1448998749256134,0.1323239505290985,0.5217601656913757
1761467288153631500,6.382631591796875,-0.1709304004907608,0.1039130762219429,0.4823858439922333
1761467288163614500,6.392614501953125,-0.19926220178604126,0.0874788835644722,0.4194142520427704
1761467288173597700,6.40259765625,-0.22318750619888306,0.07378437370061874,0.36520108580589294
1761467288183580400,6.412580322265625,-0.23771439492702484,0.05716521292924881,0.3284161388874054
1761467288193563400,6.4225634765625,-0.24297493696212769,0.035357650369405746,0.2991354763507843
1761467288203546600,6.432546630859375,-0.24839532375335693,0.0003453260287642479,0.28462401032447815
1761467288213529600,6.442529541015625,-0.24539685249328613,-0.007268118672072887,0.26088884472846985
1761467288223512300,6.45251220703125,-0.2398265302181244,0.04193837568163872,0.22448065876960754
1761467288233495600,6.46249560546875,-0.23099203407764435,0.1072382852435112,0.1915767788887024
1761467288243478500,6.472478515625,-0.2314453274011612,0.1753934919834137,0.17644965648651123
1761467288253461500,6.48246142578125,-0.2279805690050125,0.2330554574728012,0.17175719141960144
1761467288263444500,6.492444580078125,-0.23961976170539856,0.29091769456863403,0.19040291011333466
1761467288273427500,6.502427490234375,-0.2660068869590759,0.3183397352695465,0.22837001085281372
1761467288283410400,6.512410400390625,-0.30645400285720825,0.22539643943309784,0.25510329008102417
1761467288293393700,6.5223935546875,-0.36244696378707886,0.1188524141907692,0.29646992683410645
1761467288303376400,6.53237646484375,-0.4006080627441406,0.0506267324090004,0.33662545680999756
1761467288313359600,6.542359619140625,-0.4398966133594513,-0.0029411520808935165,0.3585115671157837
1761467288323342600,6.552342529296875,-0.475103497505188,-0.03779950737953186,0.3566526472568512
1761467288333325300,6.5623251953125,-0.4992881715297699,-0.056360140442848206,0.3328402638435364
1761467288343308500,6.57230859375,-0.5111263990402222,-0.056506965309381485,0.2830630838871002
1761467288353291500,6.58229150390625,-0.5140763521194458,-0.04786420986056328,0.22679689526557922
1761467288363274500,6.5922744140625,-0.5064241886138916,-0.04089593142271042,0.17206263542175293
1761467288373257500,6.602257568359375,-0.4737570583820343,-0.03231682628393173,0.1293620467185974
1761467288383240400,6.612240478515625,-0.430227130651474,-0.020740453153848648,0.09734375774860382
1761467288393223400,6.622223388671875,-0.3874887228012085,0.00444452790543437,0.06379804760217667
1761467288403206700,6.63220654296875,-0.3515763580799103,0.024019844830036163,0.03658255189657211
1761467288413189400,6.642189453125,-0.3141576051712036,0.04463643580675125,0.012714235112071037
1761467288423172400,6.65217236328125,-0.2882516086101532,0.06322389841079712,-0.0015159574104472995
1761467288433155600,6.662155517578125,-0.27228090167045593,0.08154352009296417,-0.009014620445668697
1761467288443138600,6.672138671875,-0.26672616600990295,0.1336476355791092,0.000534221064299345
1761467288453121500,6.68212158203125,-0.26274794340133667,0.16293016076087952,0.027288071811199188
1761467288463104500,6.6921044921875,-0.27013081312179565,0.16968934237957,0.060627155005931854
1761467288473087500,6.70208740234375,-0.2918824255466461,0.16508448123931885,0.09418059140443802
1761467288483070700,6.71207080078125,-0.30556750297546387,0.14658549427986145,0.1275937259197235
1761467288493053400,6.722053466796875,-0.31490185856819153,0.12346473336219788,0.1527499556541443
1761467288503036400,6.732036376953125,-0.3207038342952728,0.11124341189861298,0.15938794612884521
1761467288513019600,6.74201953125,-0.324840247631073,0.09563010185956955,0.15436042845249176
1761467288523002400,6.75200244140625,-0.3154049217700958,0.0918356254696846,0.14284278452396393
1761467288532985300,6.7619853515625,-0.2961798310279846,0.10863937437534332,0.12590642273426056
1761467288542968600,6.771968505859375,-0.27319422364234924,0.12330940365791321,0.10326380282640457
1761467288552951600,6.78195166015625,-0.239773690700531,0.12237276136875153,0.07788228243589401
1761467288562934300,6.791934326171875,-0.21256262063980103,0.10565770417451859,0.04239216446876526
1761467288572917500,6.80191748046875,-0.16068130731582642,0.0834868848323822,0.028485935181379318
1761467288582900500,6.811900390625,-0.11944238841533661,0.056274525821208954,0.024665592238307
1761467288592883700,6.8218837890625,-0.08110485225915909,0.0316285640001297,0.023183543235063553
1761467288602866400,6.831866455078125,-0.03612508252263069,0.0007243584841489792,0.006612518802285194
1761467288612849400,6.841849365234375,0.010781708173453808,-0.0074254474602639675,-0.015468815341591835
1761467288622832600,6.85183251953125,0.04538113251328468,0.019846826791763306,-0.042124051600694656
1761467288632815600,6.861815673828125,0.08269281685352325,0.03643273189663887,-0.06539449095726013
1761467288642798300,6.87179833984375,0.0998460128903389,0.042221181094646454,-0.07943785935640335
1761467288652781600,6.881781494140625,0.12285785377025604,0.040444858372211456,-0.07876061648130417
1761467288662764500,6.8917646484375,0.14813493192195892,0.03334452956914902,-0.059565361589193344
1761467288672747500,6.90174755859375,0.1683853417634964,-0.0031061586923897266,-0.03432738408446312
1761467288682730500,6.91173046875,0.19569768011569977,-0.027529442682862282,-0.0065661845728755
1761467288692713500,6.92171337890625,0.20862732827663422,-0.03378866985440254,0.028736945241689682
1761467288702696400,6.931696533203125,0.23142772912979126,-0.012685933150351048,0.04989863559603691
1761467288712679400,6.941679443359375,0.24102549254894257,-0.010859803296625614,0.04759287089109421
1761467288722662400,6.951662353515625,0.24842077493667603,-0.01851269230246544,0.022302519530057907
1761467288732645600,6.961645751953125,0.2544943690299988,-0.02719086781144142,-0.0025002986658364534
1761467288742628600,6.971628662109375,0.2537217438220978,-0.01984468288719654,-0.024081045761704445
1761467288752611300,6.981611328125,0.2556685209274292,-0.006305438932031393,-0.03380131721496582
1761467288762594600,6.991594482421875,0.2468206286430359,-0.004352014511823654,-0.030545147135853767
1761467288772577500,7.00157763671875,0.23179134726524353,-0.02074962854385376,-0.018239213153719902
1761467288782560500,7.011560546875,0.2158949375152588,-0.06491649895906448,-0.003851245855912566
1761467288792544500,7.02154443359375,0.1923092007637024,-0.12504056096076965,0.012130916118621826
1761467288802527500,7.031527587890625,0.17323459684848785,-0.1719040721654892,0.03166141360998154
1761467288812509400,7.041509521484375,0.14953166246414185,-0.20485669374465942,0.04957010596990585
1761467288822493400,7.051493408203125,0.13269725441932678,-0.22900137305259705,0.04368380829691887
1761467288832476700,7.0614765625,0.12970519065856934,-0.25631183385849,0.020369432866573334
1761467288842459400,7.07145947265625,0.12691128253936768,-0.28628644347190857,-0.010694504715502262
1761467288852442600,7.081442626953125,0.1294223666191101,-0.2575320303440094,-0.04048382490873337
1761467288862425600,7.091425537109375,0.12341977655887604,-0.14387856423854828,-0.0961693525314331
1761467288872408300,7.101408203125,0.12877219915390015,-0.012787665240466595,-0.17970313131809235
1761467288882391600,7.1113916015625,0.1089978739619255,0.045704614371061325,-0.23997771739959717
1761467288892374500,7.12137451171875,0.08453568071126938,0.036610983312129974,-0.2838039994239807
1761467288902357500,7.131357421875,0.07632244378328323,-0.0016596155473962426,-0.29539644718170166
1761467288912340500,7.141340576171875,0.06959023326635361,-0.1052805557847023,-0.2908850610256195
1761467288922318800,7.15131884765625,0.07559587061405182,-0.21362189948558807,-0.28212374448776245
1761467288932301800,7.1613017578125,0.07473674416542053,-0.30251529812812805,-0.25603407621383667
1761467288942284800,7.171284912109375,0.06687209755182266,-0.32504960894584656,-0.2136460691690445
1761467288952267800,7.181267822265625,0.06810487806797028,-0.3151506185531616,-0.1659456491470337
1761467288962251000,7.1912509765625,0.060492485761642456,-0.29578840732574463,-0.12726685404777527
1761467288972233700,7.201233642578125,0.049349553883075714,-0.271891325712204,-0.11402615159749985
1761467288982217000,7.211217041015625,0.03431856259703636,-0.23879380524158478,-0.11782032251358032
1761467288992200000,7.221199951171875,0.021302098408341408,-0.20833975076675415,-0.12838800251483917
1761467289002183000,7.231182861328125,0.010903581976890564,-0.1824636608362198,-0.13631367683410645
1761467289012166000,7.241165771484375,0.011458318680524826,-0.14256444573402405,-0.1367725282907486
1761467289022148900,7.25114892578125,0.0232955701649189,-0.11938653886318207,-0.12777681648731232
1761467289032131800,7.2611318359375,0.05084437131881714,-0.09716325998306274,-0.10899513959884644
1761467289042115000,7.271114990234375,0.07913385331630707,-0.05621672421693802,-0.09457549452781677
1761467289052097800,7.281097900390625,0.09964791685342789,-0.007693660445511341,-0.0862288773059845
1761467289062080800,7.291080810546875,0.11501871794462204,0.037267837673425674,-0.09392311424016953
1761467289072064000,7.30106396484375,0.11084447801113129,0.08218551427125931,-0.10762561112642288
1761467289082047000,7.311046875,0.08799219131469727,0.1246580183506012,-0.14104154706001282
1761467289092029700,7.32102978515625,0.04374776780605316,0.10055828094482422,-0.22610104084014893
1761467289102013000,7.331012939453125,0.04672490805387497,0.14458265900611877,-0.26562976837158203
1761467289111996000,7.340995849609375,0.05093163624405861,0.21171297132968903,-0.230382040143013
1761467289121979000,7.350978759765625,0.06680071353912354,0.22289656102657318,-0.18113647401332855
1761467289131961900,7.3609619140625,0.07458166778087616,0.18321120738983154,-0.14623814821243286
1761467289141944800,7.37094482421875,0.1018994078040123,0.14712709188461304,-0.11389616876840591
1761467289151928000,7.380927978515625,0.13198620080947876,0.1158277615904808,-0.05792104825377464
1761467289161910800,7.390910888671875,0.16059429943561554,0.08388960361480713,0.00371596054174006
1761467289171893800,7.400893798828125,0.1998319774866104,0.0693703144788742,0.06724566966295242
1761467289181877000,7.410876953125,0.23410426080226898,0.062388550490140915,0.11685922741889954
1761467289191860000,7.42085986328125,0.2609585225582123,0.06718436628580093,0.15705643594264984
1761467289201842700,7.4308427734375,0.2796899080276489,0.08858922868967056,0.19121462106704712
1761467289211826000,7.440825927734375,0.28471556305885315,0.13171939551830292,0.22320690751075745
1761467289221809000,7.450808837890625,0.285489022731781,0.1994340568780899,0.23493099212646484
1761467289231791900,7.4607919921875,0.2691121995449066,0.24405477941036224,0.23751825094223022
1761467289241774800,7.47077490234375,0.23832280933856964,0.2760179042816162,0.2351365089416504
1761467289251757800,7.4807578125,0.20426471531391144,0.28627318143844604,0.23115108907222748
1761467289261740800,7.49074072265625,0.17029455304145813,0.2828174829483032,0.22560881078243256
1761467289271724000,7.50072412109375,0.12890104949474335,0.2832728922367096,0.2097339630126953
1761467289281706800,7.510706787109375,0.09360585361719131,0.2973030209541321,0.18357473611831665
1761467289291690000,7.52068994140625,0.07165102660655975,0.3023776710033417,0.1500423401594162
1761467289301673000,7.5306728515625,0.056205011904239655,0.2983919382095337,0.11410665512084961
1761467289311655700,7.54065576171875,0.0480986163020134,0.28821706771850586,0.09716922044754028
1761467289321639000,7.550638916015625,0.048591338098049164,0.2790415287017822,0.09559927880764008
1761467289331622000,7.560621826171875,0.048952460289001465,0.28753992915153503,0.09247006475925446
1761467289341604900,7.57060498046875,0.04520077258348465,0.30565229058265686,0.08872652798891068
1761467289351588900,7.5805888671875,0.031453538686037064,0.3238946795463562,0.07275715470314026
1761467289361571800,7.59057177734375,0.02048315480351448,0.3410954177379608,0.04263322055339813
1761467289371554800,7.600554931640625,0.0025986963883042336,0.3514881134033203,0.020697562023997307
1761467289381537800,7.610537841796875,-0.01344027929008007,0.3314821124076843,0.005909630097448826
1761467289391521000,7.62052099609375,-0.03427179157733917,0.30610191822052,-0.0004233666695654392
1761467289401503700,7.630503662109375,-0.05206158384680748,0.2831624746322632,0.004790320061147213
1761467289411487000,7.640487060546875,-0.06354779750108719,0.2556922435760498,0.02218475751578808
1761467289421470000,7.650469970703125,-0.06890595704317093,0.2396373301744461,0.05092865601181984
1761467289431453000,7.660452880859375,-0.07768373191356659,0.21713389456272125,0.09612675756216049
1761467289441436000,7.670435791015625,-0.08826453983783722,0.17835025489330292,0.14482901990413666
1761467289451419000,7.6804189453125,-0.09319085627794266,0.134970024228096,0.1823045015335083
1761467289461401900,7.69040185546875,-0.10363517701625824,0.09501644223928452,0.21337448060512543
1761467289471384800,7.700384765625,-0.11115994304418564,0.07436548918485641,0.23352767527103424
1761467289481367800,7.710367919921875,-0.11940740048885345,0.06296482682228088,0.2406066656112671
1761467289491350800,7.720350830078125,-0.12560084462165833,0.06884774565696716,0.25205186009407043
1761467289501334000,7.730333984375,-0.1315680593252182,0.0667385682463646,0.270807147026062
1761467289511316700,7.740316650390625,-0.13675083220005035,0.0743757113814354,0.2872982621192932
1761467289521299700,7.7502998046875,-0.1431092619895935,0.0744660422205925,0.294597864151001
1761467289531283000,7.760282958984375,-0.14564111828804016,0.07927597314119339,0.295611172914505
1761467289541266000,7.770265869140625,-0.15383808314800262,0.08149109035730362,0.2963257133960724
1761467289551249000,7.780248779296875,-0.1677325963973999,0.07566648721694946,0.30035853385925293
1761467289561232000,7.79023193359375,-0.17028342187404633,0.05329844728112221,0.3033510446548462
1761467289571214800,7.80021484375,-0.17384326457977295,0.024884115904569626,0.3064730763435364
1761467289581198000,7.810197998046875,-0.1719285547733307,0.005770729389041662,0.3059360086917877
1761467289591180800,7.820180908203125,-0.161651149392128,-0.0057325283996760845,0.3123643398284912
1761467289601163800,7.830163818359375,-0.1519821286201477,-0.007253158837556839,0.32549265027046204
1761467289611147000,7.84014697265625,-0.1424163281917572,0.010333025828003883,0.32454031705856323
1761467289621130000,7.8501298828125,-0.1461903154850006,0.038978151977062225,0.32819151878356934
1761467289631112700,7.86011279296875,-0.14830167591571808,0.06529258191585541,0.32153254747390747
1761467289641096000,7.870095947265625,-0.16099467873573303,0.08052433282136917,0.3198757767677307
1761467289651079000,7.880078857421875,-0.17496509850025177,0.0781562477350235,0.323180228471756
1761467289661062000,7.890061767578125,-0.18659795820713043,0.0737684816122055,0.3446946442127228
1761467289671044900,7.900044921875,-0.19616803526878357,0.07081876695156097,0.3785032033920288
1761467289681027800,7.91002783203125,-0.20933356881141663,0.07086142152547836,0.41435325145721436
1761467289691011000,7.920010986328125,-0.2183707356452942,0.0563671700656414,0.4461412727832794
1761467289700995000,7.9299951171875,-0.221067413687706,0.030804118141531944,0.48110058903694153
1761467289710977800,7.939977783203125,-0.22876740992069244,0.0014933664351701736,0.5226911902427673
1761467289720960800,7.949960693359375,-0.21950317919254303,-0.02025328390300274,0.5690475702285767
1761467289730944000,7.959944091796875,-0.22902077436447144,-0.05622246861457825,0.6119646430015564
1761467289740927000,7.969927001953125,-0.2356509566307068,-0.09186162054538727,0.6548018455505371
1761467289750909700,7.97990966796875,-0.24943627417087555,-0.12550213932991028,0.6987698078155518
1761467289760893000,7.989892822265625,-0.2529391944408417,-0.1683805137872696,0.7398654818534851
1761467289770876000,7.9998759765625,-0.2579379379749298,-0.19580814242362976,0.7780203223228455
1761467289780855800,8.009855712890625,-0.2526978552341461,-0.15780068933963776,0.7803954482078552
1761467289790839000,8.019839111328125,-0.2365708202123642,-0.0895816832780838,0.7428928017616272
1761467289800821800,8.02982177734375,-0.21781766414642334,-0.058201998472213745,0.6773790717124939
1761467289810804700,8.0398046875,-0.18537263572216034,-0.07594424486160278,0.6254927515983582
1761467289820788000,8.0497880859375,-0.15023033320903778,-0.09848356992006302,0.580697774887085
1761467289830771000,8.05977099609375,-0.11744549125432968,-0.10199547559022903,0.5066328644752502
1761467289840754000,8.06975390625,-0.07217112183570862,-0.0750553235411644,0.428600549697876
1761467289850737000,8.07973681640625,-0.0317925326526165,-0.01899418979883194,0.3507491648197174
1761467289860719900,8.089719970703126,0.003331710584461689,0.007053451146930456,0.28945523500442505
1761467289870703000,8.099703125,0.0007103611715137959,-0.014139451086521149,0.25882062315940857
1761467289880685800,8.109685791015625,0.004931021016091108,-0.06798291951417923,0.25529414415359497
1761467289890669800,8.119669921875,-0.0036896318197250366,-0.1042298674583435,0.266986221075058
1761467289900652800,8.12965283203125,-0.032755106687545776,-0.12207598239183426,0.2668921947479248
1761467289910636000,8.139635986328125,-0.052538931369781494,-0.12014785408973694,0.25026023387908936
1761467289920618800,8.14961865234375,-0.08981261402368546,-0.09438608586788177,0.21488459408283234
1761467289930603000,8.15960302734375,-0.1438835710287094,-0.0564110092818737,0.1871456503868103
1761467289940586000,8.1695859375,-0.20220015943050385,-0.02447526343166828,0.1788436621427536
1761467289950569200,8.1795693359375,-0.2460496425628662,0.010474197566509247,0.17523640394210815
1761467289960552200,8.18955224609375,-0.28250831365585327,0.03849091753363609,0.1756807267665863
1761467289970535000,8.199534912109375,-0.28967568278312683,0.04871159791946411,0.1845887303352356
1761467289980518100,8.20951806640625,-0.2750897705554962,0.03518565371632576,0.19467224180698395
1761467289990501000,8.219501220703124,-0.25868549942970276,0.01972787082195282,0.20789723098278046
1761467290000484400,8.229484375,-0.2406938076019287,0.03607526421546936,0.1974748969078064
1761467290010467000,8.239467041015626,-0.21060754358768463,0.027731848880648613,0.18938155472278595
1761467290020450000,8.249449951171876,-0.19851574301719666,0.009570609778165817,0.18122965097427368
1761467290030433300,8.259433349609376,-0.20366282761096954,-0.010076859965920448,0.1723698526620865
1761467290040416300,8.269416259765626,-0.21185831725597382,-0.031216014176607132,0.16136126220226288
1761467290050399000,8.27939892578125,-0.2221868634223938,-0.04647432640194893,0.13155117630958557
1761467290060382200,8.28938232421875,-0.24391290545463562,-0.05397343635559082,0.09723859280347824
1761467290070365200,8.299365234375,-0.2578500211238861,-0.06793373078107834,0.07311221957206726
1761467290080348000,8.309347900390625,-0.271335244178772,-0.07035329937934875,0.044753700494766235
1761467290090331100,8.3193310546875,-0.28033989667892456,-0.04618803784251213,0.014597659930586815
1761467290100314000,8.329314208984375,-0.28272172808647156,-0.009796392172574997,-0.015321274287998676
1761467290110297000,8.339297119140625,-0.27902287244796753,0.017096208408474922,-0.03445315361022949
1761467290120280000,8.349280029296875,-0.2725208103656769,0.04750460758805275,-0.036182764917612076
1761467290130263000,8.359262939453124,-0.2647997736930847,0.064647376537323,-0.009996168315410614
1761467290140247000,8.3692470703125,-0.25213590264320374,0.04276871308684349,0.027879152446985245
1761467290150230300,8.379230224609374,-0.22461186349391937,0.041647519916296005,0.07992903888225555
1761467290160213200,8.389213134765624,-0.210089311003685,0.05972699075937271,0.11135122925043106
1761467290170196000,8.399196044921876,-0.20278212428092957,0.08149033784866333,0.12133968621492386
1761467290180179200,8.40917919921875,-0.1977265477180481,0.09620019048452377,0.12553779780864716
1761467290190162200,8.419162109375,-0.1939544379711151,0.12524889409542084,0.13232485949993134
1761467290200145000,8.429144775390625,-0.1873217523097992,0.10579881072044373,0.04074690490961075
1761467290210128100,8.439128173828125,-0.18100127577781677,0.12292852997779846,-0.00202958844602108
1761467290220111000,8.449111083984375,-0.18347208201885223,0.14292627573013306,-0.0012416231911629438
1761467290230094000,8.459093994140625,-0.18759092688560486,0.1314949244260788,-0.011201046407222748
1761467290240077000,8.4690771484375,-0.18755067884922028,0.1122312918305397,-0.023604335263371468
1761467290250060000,8.47906005859375,-0.17913243174552917,0.08266700804233551,-0.024811014533042908
1761467290260043300,8.489043212890625,-0.16416624188423157,0.049495548009872437,-0.016956854611635208
1761467290270026200,8.499026123046875,-0.14151446521282196,0.030969534069299698,-0.005734293721616268
1761467290280009000,8.509009033203125,-0.12310872226953506,0.009003661572933197,0.005916936323046684
1761467290289992200,8.5189921875,-0.09799244999885559,0.01323648914694786,0.03659282624721527
1761467290299975200,8.52897509765625,-0.06582816690206528,0.030792415142059326,0.06390676647424698
1761467290309958100,8.538958251953124,-0.040362488478422165,0.0315554104745388,0.060408174991607666
