time,seconds_elapsed,z,y,x
1761467126365477000,0.11647705078125,-0.19693636894226074,-0.238796666264534,0.07462821900844574
1761467126375459000,0.126458984375,-0.17773976922035217,-0.24362657964229584,0.09769625216722488
1761467126385442000,0.136442138671875,-0.16839051246643066,-0.2478814274072647,0.1313207745552063
1761467126395424000,0.146424072265625,-0.17100094258785248,-0.24507898092269897,0.1848284751176834
1761467126405407200,0.1564072265625,-0.17100363969802856,-0.2411498725414276,0.23585540056228638
1761467126415390000,0.166389892578125,-0.1639489233493805,-0.2164599746465683,0.2642723619937897
1761467126425372200,0.1763720703125,-0.1392076015472412,-0.16398616135120392,0.23451213538646698
1761467126435355100,0.186355224609375,-0.10486241430044174,-0.09184858202934265,0.13636505603790283
1761467126445338000,0.196338134765625,-0.054325979202985764,-0.024146024137735367,-0.024498632177710533
1761467126455320000,0.206320068359375,-0.00011334335431456566,0.018786262720823288,-0.2084282636642456
1761467126465303300,0.21630322265625,0.0528251938521862,0.019817549735307693,-0.3574329912662506
1761467126475286000,0.2262861328125,0.07104015350341797,-0.021698201075196266,-0.42277923226356506
1761467126485268200,0.236268310546875,0.0672369971871376,-0.08427704870700836,-0.3712698519229889
1761467126495251200,0.246251220703125,0.049662794917821884,-0.14147615432739258,-0.18788114190101624
1761467126505234000,0.25623388671875,0.017851993441581726,-0.18105600774288177,0.08258963376283646
1761467126515216100,0.266216064453125,-0.011619612574577332,-0.19927842915058136,0.37506571412086487
1761467126525199000,0.27619921875,-0.032551996409893036,-0.17896507680416107,0.6056933999061584
1761467126535182000,0.28618212890625,-0.04417908936738968,-0.13560934364795685,0.7237987518310547
1761467126545164000,0.2961640625,-0.041503600776195526,-0.11902783811092377,0.7065678834915161
1761467126555147300,0.306147216796875,-0.024770691990852356,-0.11343413591384888,0.5737107396125793
1761467126565129000,0.31612890625,0.009091010317206383,-0.10266726464033127,0.3874710202217102
1761467126575112200,0.3261123046875,0.050376396626234055,-0.10300308465957642,0.20279090106487274
1761467126585095200,0.33609521484375,0.08349764347076416,-0.1029350608587265,0.04974600672721863
1761467126595077000,0.3460771484375,0.11252343654632568,-0.10946459323167801,-0.042216405272483826
1761467126605060000,0.35606005859375,0.13527992367744446,-0.09736120700836182,-0.06962402164936066
1761467126615043000,0.36604296875,0.15223494172096252,-0.08084854483604431,-0.06395015120506287
1761467126625025000,0.37602490234375,0.17603152990341187,-0.079070083796978,-0.05238015577197075
1761467126635008000,0.386008056640625,0.2059987485408783,-0.09491775184869766,-0.05366753041744232
1761467126644991200,0.3959912109375,0.23684817552566528,-0.11348568648099899,-0.07252892851829529
1761467126654973000,0.405972900390625,0.25501304864883423,-0.13370761275291443,-0.10022047907114029
1761467126664956200,0.4159560546875,0.2536028027534485,-0.15747110545635223,-0.13528214395046234
1761467126674939100,0.425939208984375,0.2360917180776596,-0.16078060865402222,-0.1700126975774765
1761467126684921000,0.435921142578125,0.2085067182779312,-0.17303304374217987,-0.19990457594394684
1761467126694904000,0.445904052734375,0.17241129279136658,-0.1912812888622284,-0.21475063264369965
1761467126704887000,0.455886962890625,0.12895552814006805,-0.19702981412410736,-0.20123761892318726
1761467126714869000,0.465868896484375,0.08072114735841751,-0.19095727801322937,-0.16607937216758728
1761467126724852000,0.47585205078125,0.03705744072794914,-0.17566682398319244,-0.11242906749248505
1761467126734835200,0.485835205078125,-0.002534178551286459,-0.15351039171218872,-0.05117210000753403
1761467126744817000,0.49581689453125,-0.03597663715481758,-0.13046039640903473,0.008985167369246483
1761467126754800000,0.505800048828125,-0.05936584994196892,-0.11738826334476471,0.05993730202317238
1761467126764781800,0.51578173828125,-0.08501208573579788,-0.11897313594818115,0.08935775607824326
1761467126774764500,0.5257646484375,-0.10825961828231812,-0.1295062005519867,0.08406898379325867
1761467126784747500,0.53574755859375,-0.13281750679016113,-0.14394579827785492,0.055639393627643585
1761467126794729700,0.545729736328125,-0.1521477997303009,-0.16027550399303436,0.025352060794830322
1761467126804712400,0.55571240234375,-0.17212806642055511,-0.16566024720668793,0.0009080981835722923
1761467126814695700,0.56569580078125,-0.18901623785495758,-0.16442321240901947,0.0008694822899997234
1761467126824677600,0.575677734375,-0.19520270824432373,-0.15068557858467102,0.008278708904981613
1761467126834660600,0.58566064453125,-0.2008344829082489,-0.13307888805866241,0.023652339354157448
1761467126844643600,0.5956435546875,-0.1950480192899704,-0.11936204880475998,0.048950955271720886
1761467126854625800,0.605625732421875,-0.18278469145298004,-0.11570978909730911,0.06801173090934753
1761467126864608500,0.6156083984375,-0.17291198670864105,-0.11553195863962173,0.08275753259658813
1761467126874591500,0.625591552734375,-0.1646718978881836,-0.12237947434186935,0.08354929089546204
1761467126884573700,0.63557373046875,-0.16230519115924835,-0.12851694226264954,0.06534895300865173
1761467126894556400,0.645556396484375,-0.1570044308900833,-0.12887567281723022,0.03766406327486038
1761467126904539600,0.65553955078125,-0.14168943464756012,-0.12780380249023438,-0.0004921937361359596
1761467126914521600,0.665521484375,-0.12029093503952026,-0.12385992705821991,-0.05363237485289574
1761467126924504600,0.675504638671875,-0.09464417397975922,-0.11519823223352432,-0.10612539947032928
1761467126934486500,0.685486572265625,-0.0706309825181961,-0.10688330978155136,-0.13865377008914948
1761467126944469800,0.6954697265625,-0.056003812700510025,-0.09882443398237228,-0.14990749955177307
1761467126954452500,0.705452392578125,-0.047818318009376526,-0.08393470197916031,-0.14107060432434082
1761467126964434700,0.7154345703125,-0.04664280638098717,-0.06922230869531631,-0.1134679764509201
1761467126974417700,0.725417724609375,-0.04412079229950905,-0.07056880742311478,-0.06608901172876358
1761467126984400400,0.735400390625,-0.05204840749502182,-0.07207462191581726,-0.009144693613052368
1761467126994382600,0.745382568359375,-0.06448324024677277,-0.07352498173713684,0.03662439435720444
1761467127004365600,0.755365478515625,-0.0842987522482872,-0.0770687684416771,0.0723576545715332
1761467127014348800,0.765348876953125,-0.10032778233289719,-0.07396139204502106,0.08621541410684586
1761467127024330500,0.77533056640625,-0.1072709709405899,-0.07579934597015381,0.08388718217611313
1761467127034313700,0.785313720703125,-0.11192937940359116,-0.07584647834300995,0.07247474044561386
1761467127044296700,0.795296630859375,-0.11125045269727707,-0.07191545516252518,0.06529174000024796
1761467127054278700,0.805278564453125,-0.11541750282049179,-0.052775055170059204,0.07105083018541336
1761467127064261600,0.81526171875,-0.11557864397764206,-0.04194255173206329,0.08694082498550415
1761467127074244900,0.825244873046875,-0.11429793387651443,-0.02796255797147751,0.09526586532592773
1761467127084226600,0.8352265625,-0.10236022621393204,-0.01614060439169407,0.09514741599559784
1761467127094209800,0.845209716796875,-0.093539297580719,-0.006827265024185181,0.08216822892427444
1761467127104192800,0.85519287109375,-0.08584246039390564,-0.0026376789901405573,0.060065675526857376
1761467127114174700,0.8651748046875,-0.06986989080905914,0.008746801875531673,0.027318382635712624
1761467127124157700,0.87515771484375,-0.05601881071925163,0.025680068880319595,-0.009289002045989037
1761467127134139600,0.8851396484375,-0.03976660221815109,0.043670255690813065,-0.0424693264067173
1761467127144122600,0.89512255859375,-0.030026746913790703,0.05959830805659294,-0.06366945803165436
1761467127154105600,0.905105712890625,-0.02507033757865429,0.07596610486507416,-0.07207652181386948
1761467127164087600,0.915087646484375,-0.02648935467004776,0.09524261951446533,-0.06333185732364655
1761467127174070500,0.925070556640625,-0.023795833811163902,0.11782809346914291,-0.04845171049237251
1761467127184053800,0.9350537109375,-0.012442469596862793,0.1376226842403412,-0.02329704351723194
1761467127194035500,0.945035400390625,-0.0039001144468784332,0.15524934232234955,-0.0019949511624872684
1761467127204018700,0.955018798828125,0.010913966223597527,0.1687394231557846,0.010317359119653702
1761467127214001700,0.965001708984375,0.02506973221898079,0.1665351241827011,0.00901853572577238
1761467127223983600,0.974983642578125,0.04080182686448097,0.14655442535877228,-0.008880071341991425
1761467127233966600,0.984966552734375,0.0520600751042366,0.11750973016023636,-0.022669918835163116
1761467127243949600,0.994949462890625,0.04768609255552292,0.08935508131980896,-0.0337718203663826
1761467127253931500,1.004931640625,0.0406593419611454,0.0636872723698616,-0.03607918322086334
1761467127263914500,1.01491455078125,0.023943666368722916,0.03251773864030838,-0.025132056325674057
1761467127273897700,1.024897705078125,0.011563429608941078,0.011924314312636852,-0.0038179801777005196
1761467127283879400,1.03487939453125,-0.0015944926999509335,0.007717466447502375,0.021630875766277313
1761467127293862700,1.044862548828125,-0.009164262562990189,0.010658130049705505,0.04339049756526947
1761467127303845600,1.054845703125,-0.008737562224268913,0.021166419610381126,0.05667386204004288
1761467127313827600,1.06482763671875,-0.0050307079218328,0.032710954546928406,0.0632137805223465
1761467127323810600,1.074810546875,0.008368270471692085,0.05617493763566017,0.06881502270698547
1761467127333792800,1.084792724609375,0.01917537860572338,0.07648366689682007,0.07711715996265411
1761467127343775500,1.094775390625,0.02863508090376854,0.08495606482028961,0.07594981044530869
1761467127353758500,1.104758544921875,0.03302104026079178,0.09460389614105225,0.07892110198736191
1761467127363740700,1.11474072265625,0.037031687796115875,0.11735942959785461,0.09308716654777527
1761467127373723600,1.1247236328125,0.042739372700452805,0.1441739946603775,0.1126752495765686
1761467127383706600,1.13470654296875,0.04091527312994003,0.16341997683048248,0.14617078006267548
1761467127393688600,1.1446884765625,0.04130116477608681,0.19039887189865112,0.1877158284187317
1761467127403671800,1.154671875,0.045258890837430954,0.224408820271492,0.21495571732521057
1761467127413654500,1.164654541015625,0.07254324108362198,0.25850391387939453,0.22606030106544495
1761467127423636700,1.17463671875,0.12512584030628204,0.3065539002418518,0.19838851690292358
1761467127433619700,1.18461962890625,0.18231402337551117,0.35399386286735535,0.13331790268421173
1761467127443602700,1.194602783203125,0.24466806650161743,0.3943975567817688,0.04668249562382698
1761467127453584600,1.204584716796875,0.3001132309436798,0.4110220968723297,-0.036460597068071365
1761467127463567600,1.214567626953125,0.3437497019767761,0.40322646498680115,-0.12882137298583984
1761467127473550600,1.224550537109375,0.3688920736312866,0.3469693064689636,-0.2169293910264969
1761467127483532500,1.234532470703125,0.38412564992904663,0.28602245450019836,-0.2658534646034241
1761467127493515800,1.244515869140625,0.38989514112472534,0.2289234697818756,-0.2811022102832794
1761467127503497700,1.254497802734375,0.37123656272888184,0.16887988150119781,-0.2802640497684479
1761467127513480700,1.264480712890625,0.34265366196632385,0.10176768898963928,-0.2731507420539856
1761467127523463700,1.274463623046875,0.30672258138656616,0.04951341450214386,-0.24687333405017853
1761467127533445600,1.284445556640625,0.2668915390968323,-0.0019689518958330154,-0.20782022178173065
1761467127543428600,1.2944287109375,0.21291933953762054,-0.05100132152438164,-0.13416388630867004
1761467127553411800,1.304411865234375,0.1534709334373474,-0.0834500715136528,-0.038891687989234924
1761467127563393500,1.3143935546875,0.10180103778839111,-0.08728405088186264,0.054547153413295746
1761467127573376800,1.324376708984375,0.05868446081876755,-0.08901030570268631,0.13322971761226654
1761467127583359700,1.33435986328125,0.026074295863509178,-0.06815630197525024,0.19023680686950684
1761467127593341700,1.344341796875,0.0024211641866713762,-0.035552553832530975,0.22272524237632751
1761467127603324700,1.35432470703125,-0.008162686601281166,0.012732584029436111,0.2440367192029953
1761467127613307600,1.3643076171875,-0.011594170704483986,0.060839660465717316,0.2667716145515442
1761467127623289600,1.37428955078125,-0.014156501740217209,0.10059868544340134,0.2895936965942383
1761467127633272600,1.3842724609375,-0.02307542786002159,0.13293850421905518,0.3075423538684845
1761467127643255800,1.394255859375,-0.04740133509039879,0.138737291097641,0.31925809383392334
1761467127653237500,1.404237548828125,-0.06560324132442474,0.12239773571491241,0.3116539716720581
1761467127663220700,1.414220703125,-0.0731339231133461,0.08209902048110962,0.29737192392349243
1761467127673203700,1.42420361328125,-0.07808980345726013,0.030925849452614784,0.2825620770454407
1761467127683185700,1.434185546875,-0.07985357195138931,-0.02342306077480316,0.2699861228466034
1761467127693168600,1.444168701171875,-0.07812917977571487,-0.07471368461847305,0.2647514343261719
1761467127703151600,1.454151611328125,-0.06929825246334076,-0.12813380360603333,0.26048117876052856
1761467127713133600,1.464133544921875,-0.07442670315504074,-0.17250153422355652,0.247244194149971
1761467127723116500,1.474116455078125,-0.08160775899887085,-0.20520631968975067,0.21251675486564636
1761467127733098800,1.4840986328125,-0.07974380254745483,-0.212799534201622,0.1470077931880951
1761467127743081500,1.49408154296875,-0.06716448813676834,-0.20732544362545013,0.06451331079006195
1761467127753064700,1.504064697265625,-0.056837283074855804,-0.19008706510066986,-0.015644637867808342
1761467127763046700,1.514046630859375,-0.038918543606996536,-0.17150698602199554,-0.08816369622945786
1761467127773030000,1.52402978515625,-0.019251897931098938,-0.13882973790168762,-0.1450834423303604
1761467127783012900,1.534012939453125,0.001953802304342389,-0.10382673144340515,-0.19567278027534485
1761467127792994800,1.543994873046875,0.02596326358616352,-0.058975908905267715,-0.24200992286205292
1761467127802977800,1.553977783203125,0.057127393782138824,-0.002140193246304989,-0.281488835811615
1761467127812960800,1.563960693359375,0.08395447582006454,0.0585298128426075,-0.29542437195777893
1761467127822942700,1.573942626953125,0.07308203727006912,0.0730137750506401,-0.304182767868042
1761467127832925700,1.58392578125,0.043267153203487396,0.11923879384994507,-0.2939958870410919
1761467127842909000,1.593908935546875,0.0762021616101265,0.22535258531570435,-0.2698296308517456
1761467127852890600,1.603890625,0.09438116103410721,0.20938295125961304,-0.2516769766807556
1761467127862873900,1.613873779296875,0.09664256870746613,0.18335729837417603,-0.2331492304801941
1761467127872856800,1.62385693359375,0.10613008588552475,0.1704857051372528,-0.2095874398946762
1761467127882838800,1.6338388671875,0.08348607271909714,0.12861746549606323,-0.177953839302063
1761467127892821800,1.64382177734375,0.06281940639019012,0.10737796127796173,-0.13841281831264496
1761467127902804700,1.6538046875,0.0400250218808651,0.09084314107894897,-0.09427638351917267
1761467127912786700,1.66378662109375,0.009156322106719017,0.04472065716981888,-0.06232590600848198
1761467127922769700,1.673769775390625,-0.025220951065421104,-0.004842414986342192,-0.043714530766010284
1761467127932753000,1.6837529296875,-0.05685903877019882,-0.049225058406591415,-0.04427246376872063
1761467127942734600,1.693734619140625,-0.07698891311883926,-0.09310504049062729,-0.05587755888700485
1761467127952717800,1.7037177734375,-0.087535560131073,-0.12761081755161285,-0.06736350804567337
1761467127962700800,1.71370068359375,-0.09619896113872528,-0.15209795534610748,-0.07715713977813721
1761467127972683000,1.72368310546875,-0.09616433829069138,-0.15984483063220978,-0.08409442007541656
1761467127982665700,1.733665771484375,-0.09393241256475449,-0.15089987218379974,-0.07964035123586655
1761467127992648000,1.74364794921875,-0.09043142199516296,-0.11817468702793121,-0.07027161866426468
1761467128002631000,1.753630859375,-0.08296144008636475,-0.0798070877790451,-0.04454778879880905
1761467128012614000,1.76361376953125,-0.07861781865358353,-0.02212461270391941,-0.011063863523304462
1761467128022595800,1.773595947265625,-0.07140352576971054,0.03914991021156311,0.023294692859053612
1761467128032579000,1.7835791015625,-0.06011491268873215,0.07892874628305435,0.04927835613489151
1761467128042561800,1.793561767578125,-0.043673623353242874,0.1004125103354454,0.058911290019750595
1761467128052544000,1.8035439453125,-0.02890213206410408,0.12175321578979492,0.03889630362391472
1761467128062527000,1.81352685546875,-0.011681804433465004,0.12771792709827423,-0.014092817902565002
1761467128072509700,1.823509765625,0.0016627633012831211,0.12189306318759918,-0.076631560921669
1761467128082492000,1.833491943359375,0.0067176418378949165,0.09925186634063721,-0.14121408760547638
1761467128092475000,1.843474853515625,0.006439874414354563,0.0768517479300499,-0.19559744000434875
1761467128102457900,1.853457763671875,0.003681392641738057,0.05879808962345123,-0.23218925297260284
1761467128112439800,1.863439697265625,-0.0038449671119451523,0.030720647424459457,-0.2494574636220932
1761467128122423000,1.873423095703125,-0.01173813920468092,0.009666703641414642,-0.2507646381855011
1761467128132405800,1.88340576171875,-0.014177595265209675,-0.011059880256652832,-0.23870369791984558
1761467128142388000,1.893387939453125,-0.017462994903326035,-0.016359886154532433,-0.22318612039089203
1761467128152371000,1.903370849609375,-0.028033878654241562,-0.010925971902906895,-0.2015916109085083
1761467128162353700,1.913353759765625,-0.04156075790524483,-0.00005840742960572243,-0.1684199571609497
1761467128172335900,1.9233359375,-0.05295855179429054,0.006964880973100662,-0.13350991904735565
1761467128182318800,1.93331884765625,-0.06748948991298676,-0.0044088768772780895,-0.08481153845787048
1761467128192301800,1.9433017578125,-0.0843382477760315,-0.017942529171705246,-0.031874023377895355
1761467128202283800,1.95328369140625,-0.10340035706758499,-0.050388168543577194,0.026744253933429718
1761467128212267000,1.96326708984375,-0.127375990152359,-0.08563324064016342,0.08120030909776688
1761467128222249700,1.973249755859375,-0.15295752882957458,-0.13262170553207397,0.13341906666755676
1761467128232232000,1.98323193359375,-0.17327797412872314,-0.17503094673156738,0.16819249093532562
1761467128242215000,1.99321484375,-0.19551905989646912,-0.2139473855495453,0.1900261789560318
1761467128252197600,2.00319775390625,-0.21241016685962677,-0.2430591881275177,0.199685201048851
1761467128262179800,2.013179931640625,-0.21377526223659515,-0.2638218402862549,0.2111876755952835
1761467128272162800,2.023162841796875,-0.2046257108449936,-0.2664165496826172,0.22007279098033905
1761467128282145800,2.033145751953125,-0.18990740180015564,-0.25187838077545166,0.23737463355064392
1761467128292127700,2.043127685546875,-0.1672566831111908,-0.23602831363677979,0.2528814375400543
1761467128302111000,2.053111083984375,-0.14163190126419067,-0.22023548185825348,0.2644343376159668
1761467128312093700,2.06309375,-0.12413706630468369,-0.20903237164020538,0.2601700723171234
1761467128322076000,2.073075927734375,-0.10782204568386078,-0.1933232992887497,0.24813467264175415
1761467128332059000,2.083058837890625,-0.09095598757266998,-0.17938324809074402,0.2463735044002533
1761467128342041900,2.093041748046875,-0.07432099431753159,-0.17227508127689362,0.2524714469909668
1761467128352023800,2.10302392578125,-0.06624922156333923,-0.1727086454629898,0.25404322147369385
1761467128362006800,2.1130068359375,-0.05129200592637062,-0.16002145409584045,0.22974225878715515
1761467128371988700,2.12298876953125,-0.030367819592356682,-0.1443524807691574,0.1705646961927414
1761467128381971700,2.1329716796875,-0.020167406648397446,-0.1286473125219345,0.08744741976261139
1761467128391955000,2.142954833984375,-0.020521074533462524,-0.11849775165319443,-0.010951858013868332
1761467128401937000,2.15293701171875,-0.03683900833129883,-0.11532249301671982,-0.08902662992477417
1761467128411920000,2.162919921875,-0.047296710312366486,-0.13681499660015106,-0.12130707502365112
1761467128421902800,2.17290283203125,-0.07258237898349762,-0.16558024287223816,-0.09686806052923203
1761467128431884800,2.182884765625,-0.09435079246759415,-0.19416262209415436,-0.0039138877764344215
1761467128441867800,2.19286767578125,-0.1133371964097023,-0.21236956119537354,0.13748644292354584
1761467128451851000,2.20285107421875,-0.11940255016088486,-0.2101127952337265,0.29937174916267395
1761467128461832700,2.212832763671875,-0.11490236222743988,-0.18636533617973328,0.4364590048789978
1761467128471816000,2.22281591796875,-0.09808077663183212,-0.16209834814071655,0.5214859843254089
1761467128481799000,2.232798828125,-0.08640323579311371,-0.13878808915615082,0.5434496998786926
1761467128491780900,2.24278076171875,-0.06416557729244232,-0.1265535205602646,0.5129027366638184
1761467128501763800,2.252763916015625,-0.03333492949604988,-0.11266213655471802,0.4418911933898926
1761467128511746800,2.262746826171875,0.008700674399733543,-0.08636235445737839,0.3668965697288513
1761467128521728800,2.272728759765625,0.039423249661922455,-0.0663740262389183,0.288472980260849
1761467128531711700,2.282711669921875,0.07986894249916077,-0.02729080617427826,0.20024298131465912
1761467128541695000,2.292695068359375,0.11863356828689575,0.028034040704369545,0.12878096103668213
1761467128551676700,2.3026767578125,0.1534235179424286,0.07190003246068954,0.07085561007261276
1761467128561660000,2.312659912109375,0.1823793351650238,0.10044318437576294,0.03295251727104187
1761467128571643000,2.322642822265625,0.198220357298851,0.12864498794078827,0.007929989136755466
1761467128581624800,2.332624755859375,0.1970537155866623,0.1513644903898239,-0.020840859040617943
1761467128591607800,2.34260791015625,0.1845903843641281,0.16666914522647858,-0.05473757162690163
1761467128601590800,2.3525908203125,0.16385164856910706,0.1676430106163025,-0.09829774498939514
1761467128611572700,2.36257275390625,0.12944680452346802,0.1509718894958496,-0.13546614348888397
1761467128621555700,2.3725556640625,0.07844821363687515,0.11608688533306122,-0.16268588602542877
1761467128631539000,2.3825390625,0.018699128180742264,0.06794705241918564,-0.1686100959777832
1761467128641520600,2.392520751953125,-0.042258791625499725,0.015713458880782127,-0.1506609469652176
1761467128651503900,2.40250390625,-0.10466064512729645,-0.03354942798614502,-0.11459456384181976
1761467128661486800,2.41248681640625,-0.16411831974983215,-0.0798063799738884,-0.074490487575531
1761467128671468800,2.42246875,-0.20929725468158722,-0.12797017395496368,-0.017197638750076294
1761467128681451800,2.43245166015625,-0.2510279715061188,-0.14836037158966064,0.05823155492544174
1761467128691434800,2.442434814453125,-0.27270105481147766,-0.13264107704162598,0.11315898597240448
1761467128701416700,2.452416748046875,-0.2865457236766815,-0.11886411160230637,0.11990931630134583
1761467128711399700,2.462399658203125,-0.2866096496582031,-0.10649186372756958,0.09393630921840668
1761467128721383000,2.4723828125,-0.2816917300224304,-0.09163589775562286,0.030062111094594002
1761467128731364600,2.482364501953125,-0.2712143063545227,-0.0861109048128128,-0.055789683014154434
1761467128741347800,2.492347900390625,-0.24659553170204163,-0.06742989271879196,-0.12121529132127762
1761467128751330800,2.502330810546875,-0.2230507880449295,-0.04391365125775337,-0.14639095962047577
1761467128761316400,2.51231640625,-0.21032366156578064,-0.02588846907019615,-0.1571238934993744
1761467128771299300,2.52229931640625,-0.20835641026496887,-0.01666594110429287,-0.16441349685192108
1761467128781282300,2.5322822265625,-0.21158938109874725,-0.00772295705974102,-0.17491371929645538
1761467128791264300,2.54226416015625,-0.2084396630525589,-0.002807028591632843,-0.20611344277858734
1761467128801247200,2.552247314453125,-0.19247117638587952,0.013408399187028408,-0.23133395612239838
1761467128811230200,2.562230224609375,-0.17649275064468384,0.04052550345659256,-0.27482548356056213
1761467128821212400,2.57221240234375,-0.1618707776069641,0.04193020984530449,-0.3322039544582367
1761467128831195400,2.5821953125,-0.15518544614315033,0.009128587320446968,-0.3868296444416046
1761467128841178000,2.59217822265625,-0.14588558673858643,-0.025773167610168457,-0.42007753252983093
1761467128851160300,2.602160400390625,-0.13074791431427002,-0.05412144958972931,-0.43702030181884766
1761467128861143300,2.612143310546875,-0.11583665758371353,-0.07987456023693085,-0.43547701835632324
1761467128871126300,2.622126220703125,-0.09867551177740097,-0.10000459104776382,-0.4199340343475342
1761467128881108200,2.632108154296875,-0.07831038534641266,-0.11094088852405548,-0.3872395157814026
1761467128891091500,2.642091552734375,-0.050902727991342545,-0.12769164144992828,-0.3438822031021118
1761467128901074200,2.65207421875,-0.02395666018128395,-0.14544056355953217,-0.29017454385757446
1761467128911056400,2.662056396484375,-0.0022838558070361614,-0.15886981785297394,-0.23891375958919525
1761467128921039400,2.672039306640625,0.020846759900450706,-0.20037317276000977,-0.18039558827877045
1761467128931022000,2.68202197265625,0.03783160448074341,-0.24359147250652313,-0.12040576338768005
1761467128941004300,2.69200439453125,0.04144708067178726,-0.26441627740859985,-0.07173731923103333
1761467128950987300,2.7019873046875,0.04319704324007034,-0.263776570558548,-0.04769909754395485
1761467128960970200,2.71197021484375,0.04471719264984131,-0.26732295751571655,-0.030285466462373734
1761467128970952200,2.7219521484375,0.05224461853504181,-0.2352912724018097,-0.02233007177710533
1761467128980935400,2.731935302734375,0.04557839408516884,-0.20487132668495178,-0.026945125311613083
1761467128990918100,2.741918212890625,0.049529463052749634,-0.19218508899211884,-0.02512592077255249
1761467129000900400,2.751900390625,0.06657934933900833,-0.17763686180114746,-0.017756637185811996
1761467129010883300,2.76188330078125,0.07659762352705002,-0.15098607540130615,-0.013755236752331257
1761467129020866000,2.771865966796875,0.07760696113109589,-0.13255727291107178,-0.01019512303173542
1761467129030848300,2.78184814453125,0.07521943747997284,-0.12315762788057327,-0.016981391236186028
1761467129040831200,2.791831298828125,0.076567642390728,-0.1186893954873085,-0.031066732481122017
1761467129050814200,2.801814208984375,0.08591507375240326,-0.10564842820167542,-0.0565854050219059
1761467129060796200,2.811796142578125,0.10045833140611649,-0.09210918843746185,-0.0790925845503807
1761467129070779400,2.821779296875,0.11817847192287445,-0.06662300229072571,-0.10335211455821991
1761467129080762000,2.83176220703125,0.1316254734992981,-0.03208108991384506,-0.1169138252735138
1761467129090744300,2.841744384765625,0.14803321659564972,-0.007578145246952772,-0.12275999784469604
1761467129100727300,2.851727294921875,0.15633335709571838,0.007372366264462471,-0.11918801814317703
1761467129110710300,2.861710205078125,0.17026914656162262,0.02294173836708069,-0.11718212068080902
1761467129120692200,2.871692138671875,0.17852136492729187,0.03067513182759285,-0.11416303366422653
1761467129130675200,2.88167529296875,0.19029226899147034,0.03230684995651245,-0.11300136148929596
1761467129140658200,2.891658203125,0.19298788905143738,0.03878972306847572,-0.11185356974601746
1761467129150640000,2.90164013671875,0.20170441269874573,0.06287988275289536,-0.10100918263196945
1761467129160623400,2.911623291015625,0.213049978017807,0.08448818325996399,-0.06674179434776306
1761467129170606000,2.921606201171875,0.22634421288967133,0.12166643887758255,-0.015377406030893326
1761467129180588300,2.93158837890625,0.24201470613479614,0.1627558171749115,0.05384661257266998
1761467129190571300,2.9415712890625,0.2614523470401764,0.20197273790836334,0.12623374164104462
1761467129200554500,2.951554443359375,0.2790274918079376,0.2423177808523178,0.18962588906288147
1761467129210536200,2.9615361328125,0.2955947518348694,0.27857163548469543,0.24083715677261353
1761467129220519400,2.97151953125,0.2991214096546173,0.3048572242259979,0.27179327607154846
1761467129230502400,2.98150244140625,0.2953689992427826,0.30228328704833984,0.27991431951522827
1761467129240484400,2.991484375,0.2884182929992676,0.2864472568035126,0.25924065709114075
1761467129250467300,3.00146728515625,0.28006741404533386,0.27763086557388306,0.22973787784576416
1761467129260450300,3.0114501953125,0.26568201184272766,0.2723197937011719,0.20108672976493835
1761467129270432300,3.021432373046875,0.2446315884590149,0.2651692032814026,0.17821337282657623
1761467129280415200,3.031415283203125,0.21916235983371735,0.2636381685733795,0.16781708598136902
1761467129290398500,3.0413984375,0.19171422719955444,0.2697317600250244,0.17979972064495087
1761467129300380200,3.051380126953125,0.15909531712532043,0.2716499865055084,0.19723008573055267
1761467129310363400,3.06136328125,0.1244896650314331,0.26668187975883484,0.21306630969047546
1761467129320346400,3.071346435546875,0.10422356426715851,0.2557286024093628,0.218580424785614
1761467129330328300,3.081328369140625,0.11101249605417252,0.2484792172908783,0.19890978932380676
1761467129340311300,3.091311279296875,0.13565286993980408,0.23065370321273804,0.14863918721675873
1761467129350294300,3.101294189453125,0.1614338457584381,0.2007512003183365,0.08976521342992783
1761467129360276200,3.111276123046875,0.1797165423631668,0.15513616800308228,0.02252415008842945
1761467129370259200,3.12125927734375,0.18819178640842438,0.12193082273006439,-0.0318077951669693
1761467129380242400,3.131242431640625,0.19193297624588013,0.10711865872144699,-0.07308757305145264
1761467129390224100,3.14122412109375,0.1805037558078766,0.08517926931381226,-0.09858042001724243
1761467129400207400,3.151207275390625,0.14295965433120728,0.05219923332333565,-0.09255571663379669
1761467129410190300,3.1611904296875,0.09231244772672653,0.039123110473155975,-0.05101733282208443
1761467129420172300,3.17117236328125,0.04276026040315628,0.025735223665833473,0.038006167858839035
1761467129430155300,3.1811552734375,-0.009728782810270786,0.05850408971309662,0.13712157309055328
1761467129440138200,3.19113818359375,-0.05733690410852432,0.09877289831638336,0.24742506444454193
1761467129450120200,3.2011201171875,-0.0868402048945427,0.14687252044677734,0.3562452495098114
1761467129460103200,3.211103271484375,-0.10698477923870087,0.21186161041259766,0.44251957535743713
1761467129470086400,3.22108642578125,-0.1223999634385109,0.2739372253417969,0.4967884123325348
1761467129480069000,3.231069091796875,-0.1464128941297531,0.3211582899093628,0.5315889716148376
1761467129490051300,3.24105126953125,-0.16260278224945068,0.337438702583313,0.5357642769813538
1761467129500034300,3.251034423828125,-0.1683899164199829,0.34914320707321167,0.5266527533531189
1761467129510017300,3.261017333984375,-0.15224689245224,0.35273608565330505,0.5148836970329285
1761467129519999200,3.270999267578125,-0.12468572705984116,0.3629947304725647,0.49330979585647583
1761467129529982200,3.280982177734375,-0.09535260498523712,0.35635122656822205,0.465950608253479
1761467129539965200,3.290965087890625,-0.0607420951128006,0.33868134021759033,0.4253925681114197
1761467129549947100,3.300947021484375,-0.027503976598381996,0.31297996640205383,0.38101926445961
1761467129559930400,3.310930419921875,0.005655156448483467,0.2624988555908203,0.3344433605670929
1761467129569913000,3.3209130859375,0.026572423055768013,0.21173180639743805,0.28453969955444336
1761467129579895300,3.330895263671875,0.05179108679294586,0.16587089002132416,0.23693236708641052
1761467129589878300,3.340878173828125,0.06714420765638351,0.13114139437675476,0.19771172106266022
1761467129599861200,3.350861328125,0.08914797753095627,0.10444913059473038,0.15085841715335846
1761467129609843200,3.36084326171875,0.11806564778089523,0.09159698337316513,0.11111579090356827
1761467129619826400,3.370826416015625,0.14305448532104492,0.08457241952419281,0.06947899609804153
1761467129629809200,3.38080908203125,0.16243882477283478,0.0806940570473671,0.009974655695259571
1761467129639791400,3.390791259765625,0.17939051985740662,0.08558303117752075,-0.056720342487096786
1761467129649774300,3.4007744140625,0.19834716618061066,0.0931357592344284,-0.128024622797966
1761467129659757000,3.410757080078125,0.2162942737340927,0.10297110676765442,-0.20009316504001617
1761467129669739300,3.4207392578125,0.2383364588022232,0.11219150573015213,-0.26543301343917847
1761467129679722200,3.43072216796875,0.25738975405693054,0.11691243201494217,-0.3206483721733093
1761467129689705500,3.44070556640625,0.27758291363716125,0.1086539700627327,-0.3702327013015747
1761467129699687200,3.450687255859375,0.27679261565208435,0.09055177867412567,-0.40654951333999634
1761467129709670400,3.46067041015625,0.27021169662475586,0.06396224349737167,-0.43585947155952454
1761467129719653400,3.4706533203125,0.2506440579891205,0.02998676896095276,-0.45437756180763245
1761467129729635300,3.48063525390625,0.2180410921573639,-0.02236192114651203,-0.4618290960788727
1761467129739618300,3.490618408203125,0.1715991348028183,-0.08654873818159103,-0.4559868574142456
1761467129749601300,3.500601318359375,0.11550869792699814,-0.1364355981349945,-0.41901978850364685
1761467129759580400,3.510580322265625,0.05811770260334015,-0.16991734504699707,-0.36896950006484985
1761467129769562400,3.520562255859375,-0.0008057989180088043,-0.18730619549751282,-0.30455482006073
1761467129779545300,3.53054541015625,-0.05774174630641937,-0.1786693036556244,-0.24001631140708923
1761467129789528300,3.5405283203125,-0.11387611925601959,-0.1626056432723999,-0.18994995951652527
1761467129799510500,3.550510498046875,-0.1574459671974182,-0.14138294756412506,-0.15713177621364594
1761467129809493200,3.5604931640625,-0.18563233315944672,-0.12061535567045212,-0.13809682428836823
1761467129819476500,3.5704765625,-0.20435857772827148,-0.09128253161907196,-0.1431693285703659
1761467129829458400,3.58045849609375,-0.19424176216125488,-0.04211924225091934,-0.1596769392490387
1761467129839441400,3.59044140625,-0.1678202897310257,0.0035194531083106995,-0.1781792789697647
1761467129849424400,3.60042431640625,-0.13671936094760895,0.04144100099802017,-0.19203969836235046
1761467129859406600,3.610406494140625,-0.10573035478591919,0.06332176923751831,-0.1931079477071762
1761467129869389300,3.620389404296875,-0.07924601435661316,0.07694970071315765,-0.17566025257110596
1761467129879372300,3.630372314453125,-0.056911639869213104,0.08414340764284134,-0.15401113033294678
1761467129889354500,3.6403544921875,-0.03395865112543106,0.07916595786809921,-0.13002963364124298
1761467129899337200,3.650337158203125,-0.019419709220528603,0.06491578370332718,-0.11562329530715942
1761467129909320400,3.660320556640625,-0.009558822959661484,0.051656968891620636,-0.11884252727031708
1761467129919302400,3.670302490234375,-0.008398421108722687,0.03981658071279526,-0.13636472821235657
1761467129929285400,3.680285400390625,-0.013492781668901443,0.019465504214167595,-0.17033547163009644
1761467129939268400,3.690268310546875,-0.0281420536339283,0.0032520992681384087,-0.20041775703430176
1761467129949250600,3.70025048828125,-0.047790855169296265,-0.020830601453781128,-0.21874962747097015
1761467129959233300,3.7102333984375,-0.07529963552951813,-0.037436552345752716,-0.23157745599746704
1761467129969216300,3.72021630859375,-0.1030508428812027,-0.04969961196184158,-0.2314395010471344
1761467129979198500,3.730198486328125,-0.13068920373916626,-0.06226981431245804,-0.22789812088012695
1761467129989181200,3.74018115234375,-0.15532611310482025,-0.06575189530849457,-0.21236443519592285
1761467129999164400,3.750164306640625,-0.17726071178913116,-0.07146810740232468,-0.1871562898159027
1761467130009147400,3.7601474609375,-0.19481360912322998,-0.06520035862922668,-0.15571394562721252
1761467130019129300,3.77012939453125,-0.21475829184055328,-0.05832210183143616,-0.10860265046358109
1761467130029112300,3.7801123046875,-0.23157721757888794,-0.05881239101290703,-0.0630817711353302
1761467130039095300,3.79009521484375,-0.2484322041273117,-0.07037249952554703,-0.017915233969688416
1761467130049077200,3.8000771484375,-0.2663976550102234,-0.09218218922615051,0.021624453365802765
1761467130059060200,3.810060302734375,-0.2791687548160553,-0.1130208969116211,0.04583748057484627
1761467130069043500,3.82004345703125,-0.29969772696495056,-0.13713210821151733,0.07512453198432922
1761467130079025200,3.830025146484375,-0.3229273855686188,-0.15742366015911102,0.09976226836442947
1761467130089008400,3.84000830078125,-0.33490148186683655,-0.17535711824893951,0.13096120953559875
1761467130098991400,3.849991455078125,-0.3319258391857147,-0.1949380487203598,0.16482412815093994
1761467130108973300,3.859973388671875,-0.3146224915981293,-0.20539548993110657,0.1974145621061325
1761467130118956300,3.869956298828125,-0.2955104112625122,-0.20331019163131714,0.23169340193271637
1761467130128939300,3.879939208984375,-0.2717401087284088,-0.19564375281333923,0.26649561524391174
1761467130138921200,3.889921142578125,-0.24259844422340393,-0.19263604283332825,0.3094222843647003
1761467130148904400,3.899904541015625,-0.2189604938030243,-0.20653001964092255,0.33596840500831604
1761467130158887400,3.909887451171875,-0.2076020985841751,-0.2252071350812912,0.3592449724674225
1761467130168869400,3.919869384765625,-0.2075996994972229,-0.239734947681427,0.3674059510231018
1761467130178852400,3.929852294921875,-0.2111377865076065,-0.23889946937561035,0.36432144045829773
1761467130188835300,3.93983544921875,-0.20536671578884125,-0.22886095941066742,0.34235408902168274
1761467130198817500,3.949817626953125,-0.18545833230018616,-0.20873881876468658,0.28992488980293274
1761467130208800300,3.95980029296875,-0.15150569379329681,-0.1803727000951767,0.19703170657157898
1761467130218783500,3.969783447265625,-0.1344613879919052,-0.16442444920539856,0.0799776092171669
1761467130228766500,3.979766357421875,-0.1358904391527176,-0.1457676738500595,-0.03265785798430443
1761467130238748400,3.98974853515625,-0.14269474148750305,-0.1421678364276886,-0.1130775436758995
1761467130248731400,3.9997314453125,-0.14484311640262604,-0.15754999220371246,-0.12428891658782959
1761467130258711300,4.009711181640625,-0.1585274189710617,-0.17853054404258728,-0.0739085003733635
1761467130268694500,4.019694580078125,-0.16462525725364685,-0.1911850869655609,0.03802921622991562
1761467130278676200,4.02967626953125,-0.1702290028333664,-0.1884322464466095,0.1856946498155594
1761467130288659500,4.039659423828125,-0.17808294296264648,-0.18720106780529022,0.33280500769615173
1761467130298642400,4.049642333984375,-0.18294617533683777,-0.1521218866109848,0.4470175802707672
1761467130308624400,4.059624267578125,-0.1718868613243103,-0.12835396826267242,0.49707886576652527
1761467130318607400,4.069607421875,-0.15413038432598114,-0.11626753956079483,0.4785950183868408
1761467130328590300,4.07959033203125,-0.127332866191864,-0.13471020758152008,0.4100649356842041
1761467130338573600,4.089573486328125,-0.0957954153418541,-0.15442819893360138,0.31596726179122925
1761467130348555300,4.09955517578125,-0.07045623660087585,-0.18194957077503204,0.2240021675825119
1761467130358538500,4.10953857421875,-0.04598885774612427,-0.21259918808937073,0.14291222393512726
1761467130368521500,4.119521484375,-0.02589983306825161,-0.23406054079532623,0.08107415586709976
1761467130378503400,4.12950341796875,-0.01482880674302578,-0.24140234291553497,0.04857959598302841
1761467130388486400,4.139486328125,-0.0038227615877985954,-0.23518039286136627,0.03405524790287018
1761467130398469400,4.149469482421875,0.004728693515062332,-0.21626068651676178,0.03005526401102543
1761467130408451300,4.159451416015625,0.004557452164590359,-0.19764065742492676,0.04180007055401802
1761467130418434300,4.169434326171875,-0.007966633886098862,-0.17305725812911987,0.055736370384693146
1761467130428417500,4.17941748046875,-0.028016241267323494,-0.16298145055770874,0.07197818905115128
1761467130438399200,4.189399169921875,-0.05431821197271347,-0.15849348902702332,0.08521106839179993
1761467130448382500,4.199382568359375,-0.08678826689720154,-0.14861129224300385,0.0840480700135231
1761467130458365400,4.209365478515625,-0.1258746087551117,-0.13638810813426971,0.06809236854314804
1761467130468347400,4.219347412109375,-0.16856054961681366,-0.1210578978061676,0.04994240030646324
1761467130478330400,4.229330322265625,-0.1998981088399887,-0.11012997478246689,0.02129673957824707
1761467130488313300,4.239313232421875,-0.22551105916500092,-0.1061626598238945,-0.01171047892421484
1761467130498296300,4.24929638671875,-0.25094619393348694,-0.10184590518474579,-0.04095841944217682
1761467130508278300,4.2592783203125,-0.26970016956329346,-0.09983521699905396,-0.0765792652964592
1761467130518261500,4.269261474609375,-0.28030720353126526,-0.09238795191049576,-0.11610767990350723
1761467130528244500,4.279244384765625,-0.2868417799472809,-0.08257713168859482,-0.15902958810329437
1761467130538226400,4.289226318359375,-0.286819189786911,-0.06846608221530914,-0.2082485556602478
1761467130548209400,4.29920947265625,-0.28882932662963867,-0.05905873328447342,-0.24750646948814392
1761467130558192400,4.3091923828125,-0.2724587917327881,-0.04801842197775841,-0.2767389118671417
1761467130568174300,4.31917431640625,-0.2508448362350464,-0.043319541960954666,-0.2906472682952881
1761467130578157300,4.3291572265625,-0.23032307624816895,-0.031719714403152466,-0.2816239297389984
1761467130588140500,4.339140625,-0.21371373534202576,-0.02777397818863392,-0.25047722458839417
1761467130598122200,4.349122314453125,-0.19335070252418518,-0.018939299508929253,-0.1984233409166336
1761467130608105500,4.35910546875,-0.1713026612997055,-0.013551991432905197,-0.14145006239414215
1761467130618088400,4.36908837890625,-0.14793404936790466,-0.020113827660679817,-0.09375268220901489
1761467130628070400,4.3790703125,-0.13492582738399506,-0.033943355083465576,-0.06454073637723923
1761467130638053400,4.389053466796875,-0.12049221992492676,-0.049498964101076126,-0.05327228456735611
1761467130648036400,4.399036376953125,-0.11787540465593338,-0.05253443494439125,-0.06257949769496918
1761467130658019300,4.409019287109375,-0.12328694760799408,-0.06535888463258743,-0.09148624539375305
1761467130668001500,4.41900146484375,-0.12954165041446686,-0.075262650847435,-0.12308038771152496
1761467130677984500,4.428984619140625,-0.14821915328502655,-0.09358692169189453,-0.1515684574842453
1761467130687967200,4.43896728515625,-0.16485990583896637,-0.10404275357723236,-0.1651383340358734
1761467130697949400,4.448949462890625,-0.17645111680030823,-0.1074313223361969,-0.1683456152677536
1761467130707932400,4.458932373046875,-0.18896344304084778,-0.11362743377685547,-0.1628885269165039
1761467130717915400,4.468915283203125,-0.19898968935012817,-0.11100504547357559,-0.14915938675403595
1761467130727897300,4.4788974609375,-0.19038793444633484,-0.09632384032011032,-0.1374201625585556
1761467130737880600,4.488880615234375,-0.17149172723293304,-0.07283204048871994,-0.1281035840511322
1761467130747863300,4.49886328125,-0.14893262088298798,-0.03992682322859764,-0.11306630820035934
1761467130757845500,4.508845458984375,-0.11890122294425964,-0.015520126558840275,-0.10401695221662521
1761467130767828700,4.518828857421875,-0.08632676303386688,0.0040583680383861065,-0.09501120448112488
1761467130777811700,4.528811767578125,-0.05681110918521881,0.012957701459527016,-0.09708540141582489
1761467130787795000,4.538794921875,-0.03744513541460037,0.004130120389163494,-0.10151024162769318
1761467130797776600,4.548776611328125,-0.023969478905200958,-0.006992544047534466,-0.11011990904808044
1761467130807760000,4.558759765625,-0.014602342620491982,-0.02521122805774212,-0.11253567039966583
1761467130817742800,4.568742919921875,-0.01230662316083908,-0.03462452068924904,-0.11616706848144531
1761467130827724800,4.578724853515625,-0.015298416838049889,-0.0263277068734169,-0.10932300984859467
1761467130837707800,4.588707763671875,-0.016619112342596054,-0.013505853712558746,-0.10310699045658112
1761467130847690800,4.598690673828125,-0.007832810282707214,0.0172179713845253,-0.09395849704742432
1761467130857672700,4.608672607421875,0.003927239216864109,0.05927809700369835,-0.0888156071305275
1761467130867655700,4.61865576171875,0.024400290101766586,0.10639768093824387,-0.08473511040210724
1761467130877639000,4.628638916015625,0.054891183972358704,0.1485978215932846,-0.0757867693901062
1761467130887620600,4.63862060546875,0.08201494812965393,0.18580323457717896,-0.0644984245300293
1761467130897603800,4.648603759765625,0.10229776799678802,0.20345182716846466,-0.0491376630961895
1761467130907586800,4.6585869140625,0.11511184275150299,0.2024986892938614,-0.04372851550579071
1761467130917568800,4.66856884765625,0.1220298707485199,0.18792948126792908,-0.04617848992347717
1761467130927551700,4.6785517578125,0.13070112466812134,0.15228015184402466,-0.04009343311190605
1761467130937534700,4.68853466796875,0.13692714273929596,0.11792633682489395,-0.04734380543231964
1761467130947517700,4.698517578125,0.1416742205619812,0.08865686506032944,-0.05195480212569237
1761467130957499600,4.708499755859375,0.1352916657924652,0.06655082106590271,-0.0528503954410553
1761467130967483000,4.71848291015625,0.13364103436470032,0.05151008069515228,-0.026967134326696396
1761467130977465600,4.728465576171875,0.1307096779346466,0.05206210911273956,0.007246718741953373
1761467130987447800,4.73844775390625,0.13243593275547028,0.04770438373088837,0.04431365802884102
1761467130997430800,4.7484306640625,0.13645702600479126,0.03659923002123833,0.07136067748069763
1761467131007413500,4.75841357421875,0.1426885575056076,0.00806186068803072,0.08653004467487335
1761467131017395700,4.768395751953125,0.13732829689979553,-0.030146418139338493,0.09377648681402206
1761467131027378700,4.778378662109375,0.11441314220428467,-0.06315790116786957,0.0867268368601799
1761467131037361700,4.788361572265625,0.07710851728916168,-0.09443274140357971,0.06854580342769623
1761467131047344600,4.7983447265625,0.027183836326003075,-0.11994822323322296,0.049647748470306396
1761467131057326800,4.808326904296875,-0.025207698345184326,-0.1300569474697113,0.04705648869276047
1761467131067309600,4.8183095703125,-0.07388575375080109,-0.11642502248287201,0.06905793398618698
1761467131077292800,4.828292724609375,-0.10407949984073639,-0.07174639403820038,0.12580791115760803
1761467131087274800,4.838274658203125,-0.11524666845798492,-0.03242428973317146,0.19454888999462128
1761467131097257700,4.8482578125,-0.08931425958871841,0.0019260609988123178,0.24508067965507507
1761467131107240700,4.85824072265625,-0.03285231068730354,0.05854539945721626,0.2585858106613159
1761467131117223000,4.868222900390625,0.03590528666973114,0.1161959245800972,0.2427896410226822
1761467131127205600,4.87820556640625,0.09231902658939362,0.14375804364681244,0.20420576632022858
1761467131137188600,4.888188720703125,0.13694122433662415,0.13933074474334717,0.16380733251571655
1761467131147170800,4.8981708984375,0.17016974091529846,0.11449943482875824,0.12037385255098343
1761467131157153500,4.908153564453125,0.18489356338977814,0.08975893259048462,0.08273113518953323
1761467131167136800,4.91813671875,0.18170203268527985,0.05925428494811058,0.05316232144832611
1761467131177118700,4.92811865234375,0.16813379526138306,0.04346540570259094,0.03807451203465462
1761467131187101700,4.938101806640625,0.1454295516014099,0.03981447592377663,0.035896312445402145
1761467131197084700,4.948084716796875,0.12197559326887131,0.04689881578087807,0.040315233170986176
1761467131207067600,4.958067626953125,0.09490189701318741,0.06281253695487976,0.05869077891111374
1761467131217049600,4.968049560546875,0.0726214125752449,0.08979635685682297,0.09090015292167664
1761467131227032600,4.978032470703125,0.05178537219762802,0.11555977165699005,0.1355256736278534
1761467131237015800,4.988015869140625,0.040479712188243866,0.13403236865997314,0.18066462874412537
1761467131246997500,4.99799755859375,0.03597284480929375,0.14862889051437378,0.22122670710086823
1761467131256980700,5.007980712890625,0.03549260273575783,0.15841369330883026,0.24952112138271332
1761467131266963700,5.017963623046875,0.0468595065176487,0.17088767886161804,0.2699805796146393
1761467131276946000,5.02794580078125,0.06259766221046448,0.18025913834571838,0.27943748235702515
1761467131286928600,5.0379287109375,0.08379322290420532,0.18015581369400024,0.2752824127674103
1761467131296911600,5.04791162109375,0.11639188230037689,0.18435409665107727,0.256152868270874
1761467131306893800,5.057893798828125,0.15382634103298187,0.1995604783296585,0.22629642486572266
1761467131316876500,5.06787646484375,0.18785081803798676,0.21027284860610962,0.19621407985687256
1761467131326859800,5.07785986328125,0.20271684229373932,0.20557424426078796,0.1649901270866394
1761467131336841700,5.087841796875,0.2024393379688263,0.1945296972990036,0.13707590103149414
1761467131346824700,5.09782470703125,0.19929440319538116,0.18464218080043793,0.11200837045907974
1761467131356807700,5.1078076171875,0.1965324580669403,0.17782843112945557,0.09624375402927399
1761467131366790700,5.117790771484375,0.19804194569587708,0.1753825843334198,0.08386698365211487
1761467131376772600,5.127772705078125,0.19904902577400208,0.1849963665008545,0.06582295149564743
1761467131386755600,5.137755615234375,0.2076909840106964,0.20136362314224243,0.040224649012088776
1761467131396738800,5.14773876953125,0.21530349552631378,0.21720603108406067,0.003982607740908861
1761467131406720500,5.157720458984375,0.2257087230682373,0.2318211793899536,-0.021747788414359093
1761467131416703700,5.167703857421875,0.2354966104030609,0.23574477434158325,-0.041671205312013626
1761467131426686700,5.177686767578125,0.24409089982509613,0.23970064520835876,-0.05368339270353317
1761467131436668700,5.187668701171875,0.24668841063976288,0.2431509643793106,-0.07269714772701263
1761467131446651600,5.197651611328125,0.2519545555114746,0.24195361137390137,-0.09403706341981888
1761467131456635000,5.207634765625,0.2505528926849365,0.23160624504089355,-0.12169698625802994
1761467131466616600,5.217616455078125,0.24393920600414276,0.20692673325538635,-0.1557508260011673
1761467131476599800,5.227599853515625,0.23287197947502136,0.1846284717321396,-0.1889912188053131
1761467131486582800,5.237582763671875,0.22352854907512665,0.1712130755186081,-0.21837973594665527
1761467131496565800,5.247565673828125,0.21271519362926483,0.1584995537996292,-0.24460694193840027
1761467131506547700,5.257547607421875,0.20424820482730865,0.15313620865345,-0.2606929838657379
1761467131516530700,5.26753076171875,0.19352056086063385,0.13706478476524353,-0.26654061675071716
1761467131526514000,5.277513916015625,0.1778997927904129,0.12004373222589493,-0.26323723793029785
1761467131536495600,5.28749560546875,0.15547068417072296,0.1031964048743248,-0.24724842607975006
1761467131546478800,5.297478759765625,0.132716104388237,0.07765562832355499,-0.21396850049495697
1761467131556461800,5.3074619140625,0.10476541519165039,0.0601465180516243,-0.16539297997951508
1761467131566443800,5.31744384765625,0.07976925373077393,0.04355901852250099,-0.10913317650556564
1761467131576426800,5.3274267578125,0.06143318489193916,0.048819590359926224,-0.056999873369932175
1761467131586409700,5.33740966796875,0.04921726509928703,0.06320864707231522,-0.02014332078397274
1761467131596391700,5.3473916015625,0.047078803181648254,0.09900176525115967,0.009978735819458961
1761467131606374700,5.357374755859375,0.0517241545021534,0.13144493103027344,0.022991472855210304
1761467131616358000,5.36735791015625,0.06135911867022514,0.15207716822624207,0.025403395295143127
1761467131626340600,5.377340576171875,0.06612617522478104,0.16149462759494781,0.019142303615808487
1761467131636322800,5.38732275390625,0.07496388256549835,0.15810805559158325,0.013527316972613335
1761467131646305800,5.397305908203125,0.0821046233177185,0.13399739563465118,0.010963491164147854
1761467131656288500,5.40728857421875,0.08709836006164551,0.10389086604118347,-0.0008912857156246901
1761467131666270700,5.417270751953125,0.08831196278333664,0.07552260905504227,-0.017156807705760002
1761467131676253700,5.427253662109375,0.09048636257648468,0.05334644019603729,-0.043815113604068756
1761467131686236700,5.437236572265625,0.08781760931015015,0.03222597762942314,-0.08483684808015823
1761467131696218600,5.447218505859375,0.08393292874097824,0.01699911430478096,-0.1324935257434845
1761467131706201900,5.457201904296875,0.07989424467086792,0.006638620048761368,-0.1833503097295761
1761467131716184600,5.4671845703125,0.07273876667022705,-0.01062207855284214,-0.2166633903980255
1761467131726166800,5.477166748046875,0.058746784925460815,-0.025630589574575424,-0.23120132088661194
1761467131736149800,5.487149658203125,0.04042975232005119,-0.04189380258321762,-0.22913764417171478
1761467131746132700,5.4971328125,0.016376879066228867,-0.057674895972013474,-0.2080392837524414
1761467131756115700,5.50711572265625,-0.009052356705069542,-0.06750204414129257,-0.179351806640625
1761467131766099200,5.51709912109375,-0.04136795550584793,-0.08019467443227768,-0.15309089422225952
1761467131776082200,5.527082275390625,-0.07883872091770172,-0.09385520964860916,-0.1294596642255783
1761467131786065200,5.537065185546875,-0.11751528084278107,-0.11637383699417114,-0.1275416612625122
1761467131796047000,5.547047119140625,-0.1562303900718689,-0.14239199459552765,-0.12962765991687775
1761467131806030300,5.5570302734375,-0.20599901676177979,-0.17606127262115479,-0.1295650750398636
1761467131816013000,5.567012939453125,-0.25580617785453796,-0.21526050567626953,-0.12802204489707947
1761467131825995300,5.576995361328125,-0.30736657977104187,-0.25034764409065247,-0.11174160987138748
1761467131835978200,5.586978271484375,-0.35290685296058655,-0.28145062923431396,-0.07611987739801407
1761467131845961200,5.596961181640625,-0.3967009484767914,-0.29876571893692017,-0.04107053950428963
1761467131855944200,5.606944091796875,-0.41773658990859985,-0.3004361093044281,-0.0006404160521924496
1761467131865926100,5.616926025390625,-0.42534685134887695,-0.27321115136146545,0.03833068534731865
1761467131875909400,5.626909423828125,-0.41848352551460266,-0.23765119910240173,0.07954400032758713
1761467131885892000,5.63689208984375,-0.40036895871162415,-0.20244207978248596,0.12164804339408875
1761467131895874300,5.646874267578125,-0.38754457235336304,-0.1751784235239029,0.16483671963214874
1761467131905857300,5.656857177734375,-0.36853837966918945,-0.15901491045951843,0.20615273714065552
1761467131915840300,5.66684033203125,-0.3528021574020386,-0.15136940777301788,0.241038978099823
1761467131925822200,5.676822265625,-0.3298073709011078,-0.150596022605896,0.258188933134079
1761467131935805400,5.686805419921875,-0.31295159459114075,-0.15106263756752014,0.2605911195278168
1761467131945788200,5.6967880859375,-0.2945012152194977,-0.1565018743276596,0.2568613588809967
1761467131955770400,5.706770263671875,-0.27896690368652344,-0.18097789585590363,0.24999183416366577
1761467131965753300,5.71675341796875,-0.27605631947517395,-0.21462534368038177,0.24210169911384583
1761467131975736000,5.726736083984375,-0.2860179841518402,-0.22815923392772675,0.2489827275276184
1761467131985719300,5.73671923828125,-0.2956450283527374,-0.23366132378578186,0.2648804783821106
1761467131995701200,5.746701171875,-0.28784504532814026,-0.22519204020500183,0.28045737743377686
1761467132005684200,5.756684326171875,-0.280651330947876,-0.21498414874076843,0.275774210691452
1761467132015667200,5.766667236328125,-0.2743842303752899,-0.2102540135383606,0.24807831645011902
1761467132025649400,5.7766494140625,-0.27761703729629517,-0.2134641855955124,0.20424428582191467
1761467132035632000,5.786632080078125,-0.27396559715270996,-0.22114510834217072,0.15155044198036194
1761467132045615000,5.796614990234375,-0.2691841423511505,-0.23133888840675354,0.09590982645750046
1761467132055597300,5.806597412109375,-0.25893548130989075,-0.25721022486686707,0.043434612452983856
1761467132065580000,5.816580078125,-0.2528562843799591,-0.2704072594642639,0.008200457319617271
1761467132075563300,5.826563232421875,-0.24028369784355164,-0.266241192817688,0.011529248207807541
1761467132085545200,5.836545166015625,-0.22448208928108215,-0.24758122861385345,0.049776237457990646
1761467132095528200,5.846528076171875,-0.20602716505527496,-0.2284250408411026,0.13261887431144714
1761467132105511200,5.85651123046875,-0.17468015849590302,-0.20480521023273468,0.23460036516189575
1761467132115494100,5.866494140625,-0.13854196667671204,-0.18352028727531433,0.33095693588256836
1761467132125476000,5.87647607421875,-0.10504286736249924,-0.1590290665626526,0.3968299627304077
1761467132135459000,5.886458984375,-0.07666106522083282,-0.13731107115745544,0.42711809277534485
1761467132145442300,5.8964423828125,-0.05789056792855263,-0.12208817899227142,0.428301602602005
1761467132155424000,5.906424072265625,-0.050760943442583084,-0.12327364087104797,0.4045465588569641
1761467132165407200,5.9164072265625,-0.053458455950021744,-0.1280452311038971,0.3665224611759186
1761467132175390200,5.92639013671875,-0.06600605696439743,-0.13762781023979187,0.321516215801239
1761467132185372200,5.9363720703125,-0.08320262283086777,-0.1511675864458084,0.2834329903125763
1761467132195355100,5.946355224609375,-0.10646553337574005,-0.1611725240945816,0.25251802802085876
1761467132205338000,5.956338134765625,-0.12944355607032776,-0.1625850647687912,0.22165732085704803
1761467132215321300,5.9663212890625,-0.1593344360589981,-0.17368429899215698,0.19601558148860931
1761467132225303300,5.97630322265625,-0.20155085623264313,-0.19650624692440033,0.1672651469707489
1761467132235286300,5.986286376953125,-0.2511238157749176,-0.2313499003648758,0.1335880607366562
1761467132245269200,5.996269287109375,-0.3037143349647522,-0.2601251006126404,0.09378472715616226
1761467132255251200,6.006251220703125,-0.33773478865623474,-0.2987074553966522,0.05155160278081894
1761467132265234200,6.016234130859375,-0.365841269493103,-0.31867823004722595,-0.0033044558949768543
1761467132275217400,6.026217529296875,-0.38059136271476746,-0.3181307017803192,-0.05594686046242714
1761467132285199000,6.03619921875,-0.394118070602417,-0.3067014813423157,-0.10700684040784836
1761467132295182300,6.046182373046875,-0.4132133722305298,-0.2927801311016083,-0.14814108610153198
1761467132305165300,6.056165283203125,-0.4389890432357788,-0.2816971242427826,-0.17206932604312897
1761467132315147300,6.066147216796875,-0.45726239681243896,-0.28068819642066956,-0.18973572552204132
1761467132325130200,6.076130126953125,-0.46587079763412476,-0.26571401953697205,-0.1997353732585907
1761467132335113200,6.08611328125,-0.4659624695777893,-0.23715421557426453,-0.2190028876066208
1761467132345095200,6.09609521484375,-0.466915100812912,-0.18865378201007843,-0.2443585842847824
1761467132355078100,6.106078125,-0.4625511169433594,-0.13759267330169678,-0.2844539284706116
1761467132365061400,6.116061279296875,-0.42960089445114136,-0.08363303542137146,-0.33699411153793335
1761467132375044000,6.126044189453125,-0.37906670570373535,-0.022397862747311592,-0.38834264874458313
1761467132385026300,6.1360263671875,-0.31423309445381165,0.02437257207930088,-0.4227272570133209
1761467132395009300,6.14600927734375,-0.24751070141792297,0.05415332317352295,-0.4425642192363739
1761467132404992000,6.155991943359375,-0.18195992708206177,0.06786593794822693,-0.4382176697254181
1761467132414974200,6.16597412109375,-0.1271902620792389,0.06002851575613022,-0.41444849967956543
1761467132424957200,6.175957275390625,-0.08284677565097809,0.036838505417108536,-0.3762366771697998
1761467132434940200,6.185940185546875,-0.06057470291852951,-0.011641275137662888,-0.3205872178077698
1761467132444922000,6.195922119140625,-0.04319091886281967,-0.07667966932058334,-0.26955118775367737
1761467132454905300,6.2059052734375,-0.04439331591129303,-0.12741853296756744,-0.2022629976272583
1761467132464888000,6.21588818359375,-0.056216418743133545,-0.1857241690158844,-0.1430007368326187
1761467132474871000,6.22587109375,-0.06916932761669159,-0.22310391068458557,-0.10547259449958801
1761467132484853200,6.235853271484375,-0.09147809445858002,-0.23624446988105774,-0.09156902879476547
1761467132494836200,6.245836181640625,-0.10774020105600357,-0.22699688374996185,-0.0864560455083847
1761467132504819200,6.255819091796875,-0.12456925213336945,-0.20353524386882782,-0.08812718093395233
1761467132514801200,6.26580126953125,-0.13425122201442719,-0.1708170771598816,-0.10145692527294159
1761467132524784400,6.275784423828125,-0.12722580134868622,-0.12366074323654175,-0.11565130203962326
1761467132534767000,6.28576708984375,-0.09552249312400818,-0.06576477736234665,-0.1251193732023239
1761467132544749300,6.295749267578125,-0.055839791893959045,-0.01722014881670475,-0.1264173984527588
1761467132554732300,6.305732177734375,-0.01594417542219162,0.014514845795929432,-0.1248796284198761
1761467132564715300,6.31571533203125,0.021379495039582253,0.02493233233690262,-0.12366603314876556
1761467132574697200,6.325697265625,0.05914907902479172,0.03199966251850128,-0.11848975718021393
1761467132584680200,6.33568017578125,0.09164523333311081,0.03474884480237961,-0.1177494004368782
1761467132594663200,6.3456630859375,0.11700986325740814,0.029784012585878372,-0.1198323592543602
1761467132604646100,6.355646240234375,0.13694867491722107,0.03643445670604706,-0.10814294964075089
1761467132614628400,6.36562841796875,0.14862243831157684,0.05197307839989662,-0.08650685101747513
1761467132624611000,6.375611083984375,0.16170282661914825,0.06481057405471802,-0.048462267965078354
1761467132634594300,6.38559423828125,0.17227019369602203,0.08538460731506348,-0.010518725961446762
1761467132644576300,6.395576171875,0.18201443552970886,0.11049049347639084,0.02391195297241211
1761467132654559200,6.405559326171875,0.18870656192302704,0.13377082347869873,0.03757951036095619
1761467132664542200,6.415542236328125,0.19466271996498108,0.1453198790550232,0.046685125678777695
1761467132674524400,6.4255244140625,0.19152244925498962,0.15247735381126404,0.04375436529517174
1761467132684507100,6.435507080078125,0.1786244958639145,0.15140169858932495,0.03773322328925133
1761467132694490000,6.445489990234375,0.16108573973178864,0.14837932586669922,0.04407266154885292
1761467132704472300,6.455472412109375,0.14936570823192596,0.13778553903102875,0.05382995307445526
1761467132714455000,6.465455078125,0.1343201845884323,0.12435897439718246,0.0705791488289833
1761467132724438300,6.475438232421875,0.12227657437324524,0.11839083582162857,0.08785294741392136
1761467132734421200,6.485421142578125,0.11367109417915344,0.11486119031906128,0.10248326510190964
1761467132744403200,6.4954033203125,0.11486072838306427,0.11185155063867569,0.11645900458097458
1761467132754386200,6.50538623046875,0.12533575296401978,0.10461178421974182,0.12468688189983368
1761467132764369200,6.515369140625,0.1360296756029129,0.10559102892875671,0.12649010121822357
1761467132774353200,6.525353271484375,0.14884734153747559,0.11322706192731857,0.12059587985277176
1761467132784336100,6.535336181640625,0.1664540320634842,0.11880958080291748,0.11748530715703964
1761467132794318800,6.54531884765625,0.17882129549980164,0.12092681974172592,0.11719348281621933
1761467132804301000,6.555301025390625,0.19210593402385712,0.12572051584720612,0.11659719794988632
1761467132814284000,6.565283935546875,0.2008041888475418,0.12728339433670044,0.11184270679950714
1761467132824267000,6.57526708984375,0.20476803183555603,0.12878169119358063,0.10477707535028458
1761467132834250000,6.58525,0.20588180422782898,0.13492938876152039,0.09766758978366852
1761467132844232200,6.595232177734375,0.1956978738307953,0.14891791343688965,0.1019803136587143
1761467132854215000,6.60521484375,0.18876953423023224,0.16479679942131042,0.12494488060474396
1761467132864198000,6.615197998046875,0.1940431296825409,0.17802339792251587,0.14971627295017242
1761467132874180000,6.62518017578125,0.2121289223432541,0.1816883236169815,0.15012960135936737
1761467132884162800,6.635162841796875,0.23285682499408722,0.18757709860801697,0.10848123580217361
1761467132894146000,6.64514599609375,0.2411637008190155,0.18397408723831177,0.03970104455947876
1761467132904128000,6.6551279296875,0.24639016389846802,0.1616104543209076,-0.028387192636728287
1761467132914111000,6.665111083984375,0.2447524219751358,0.12844319641590118,-0.07874482870101929
1761467132924094000,6.675093994140625,0.2361418902873993,0.08590240031480789,-0.09221615642309189
1761467132934077000,6.685076904296875,0.20625312626361847,0.05287279188632965,-0.07593127340078354
1761467132944059000,6.695058837890625,0.1626875400543213,0.02559989131987095,-0.03176141902804375
1761467132954041900,6.705041748046875,0.12255268543958664,0.004307260271161795,0.03726136311888695
1761467132964025000,6.715025146484375,0.08865118026733398,0.012942560017108917,0.11314760893583298
1761467132974006800,6.7250068359375,0.0521274209022522,0.050320278853178024,0.18619218468666077
1761467132983990000,6.734989990234375,0.023390047252178192,0.09514261037111282,0.24263441562652588
1761467132993973000,6.744972900390625,0.0023089221213012934,0.14142711460590363,0.2769683599472046
1761467133003955000,6.754954833984375,-0.006004667840898037,0.17812573909759521,0.2801271378993988
1761467133013938000,6.76493798828125,-0.0033135749399662018,0.2020585536956787,0.25727179646492004
1761467133023921000,6.7749208984375,0.008932172320783138,0.21255141496658325,0.22305309772491455
1761467133033903000,6.784903076171875,0.02551545575261116,0.2082943469285965,0.20134836435317993
1761467133043885800,6.7948857421875,0.027156230062246323,0.19550159573554993,0.19358710944652557
1761467133053869000,6.804869140625,0.03005576878786087,0.17100021243095398,0.20430944859981537
1761467133063852000,6.81485205078125,0.025071661919355392,0.13804279267787933,0.2149205505847931
1761467133073834000,6.824833984375,0.020932205021381378,0.0912955179810524,0.21985584497451782
1761467133083817000,6.83481689453125,0.01291156280785799,0.0468636080622673,0.2146672010421753
1761467133093800200,6.84480029296875,0.009307402186095715,0.009482305496931076,0.20629221200942993
1761467133103782000,6.854781982421875,-0.00006878888234496117,-0.010405116714537144,0.1882929801940918
1761467133113765000,6.86476513671875,-0.003314640372991562,-0.014764560386538506,0.16491949558258057
1761467133123748000,6.874748046875,0.0090315081179142,-0.009066727012395859,0.12935644388198853
1761467133133730000,6.88472998046875,0.033337805420160294,0.008067769929766655,0.07728756964206696
1761467133143713000,6.894713134765625,0.06270261853933334,0.034921225160360336,0.020585142076015472
1761467133153696000,6.904696044921875,0.09906227886676788,0.06370507925748825,-0.030927009880542755
1761467133163678000,6.914677978515625,0.14399008452892303,0.09378787875175476,-0.07664576172828674
1761467133173661000,6.924660888671875,0.17150446772575378,0.10713576525449753,-0.11701080203056335
1761467133183644200,6.93464404296875,0.18879716098308563,0.10232849419116974,-0.14260511100292206
1761467133193627100,6.944627197265625,0.19357003271579742,0.0898549035191536,-0.1658438891172409
1761467133203609000,6.954609130859375,0.1860274374485016,0.06911207735538483,-0.18731829524040222
1761467133213592000,6.964592041015625,0.18872851133346558,0.05803562328219414,-0.20876756310462952
1761467133223575000,6.974574951171875,0.20065522193908691,0.0642184168100357,-0.21893924474716187
1761467133233557000,6.984556884765625,0.2094450145959854,0.06820740550756454,-0.23145928978919983
1761467133243540000,6.9945400390625,0.2038864642381668,0.061649635434150696,-0.23991376161575317
1761467133253523200,7.004523193359375,0.18573452532291412,0.05072453245520592,-0.2318311482667923
1761467133263505000,7.0145048828125,0.15359655022621155,0.017146864905953407,-0.21651211380958557
1761467133273488100,7.024488037109375,0.11717157065868378,-0.0222910325974226,-0.18612399697303772
1761467133283471000,7.03447119140625,0.07948251813650131,-0.05197063088417053,-0.1473102867603302
1761467133293453800,7.044453857421875,0.04531317949295044,-0.07062916457653046,-0.11630335450172424
1761467133303436000,7.05443603515625,0.0008013700135052204,-0.07490433752536774,-0.0898541733622551
1761467133313419000,7.0644189453125,-0.04108526185154915,-0.06813688576221466,-0.07175837457180023
1761467133323402000,7.074402099609375,-0.07748561352491379,-0.059077877551317215,-0.06212252378463745
1761467133333384000,7.084384033203125,-0.10527429729700089,-0.05123548582196236,-0.05431831255555153
1761467133343367200,7.0943671875,-0.12793833017349243,-0.05741375312209129,-0.03742694482207298
1761467133353350000,7.104349853515625,-0.15670146048069,-0.06242644041776657,-0.00009067845530807972
1761467133363332000,7.11433203125,-0.18357621133327484,-0.059796035289764404,0.04617401957511902
1761467133373315000,7.124315185546875,-0.20132949948310852,-0.05464645102620125,0.08630695939064026
1761467133383298000,7.134298095703125,-0.20972564816474915,-0.04742422327399254,0.11988756060600281
1761467133393280000,7.144280029296875,-0.21433255076408386,-0.03441082313656807,0.14499883353710175
1761467133403263000,7.154262939453125,-0.19732213020324707,-0.021192489191889763,0.137288436293602
1761467133413246000,7.164245849609375,-0.18088765442371368,-0.02289099432528019,0.1160498559474945
1761467133423229000,7.17422900390625,-0.171993225812912,-0.027911853045225143,0.09169391542673111
1761467133433211100,7.184211181640625,-0.17286686599254608,-0.03243114426732063,0.07241039723157883
1761467133443193900,7.19419384765625,-0.17269748449325562,-0.04818986356258392,0.05408572033047676
1761467133453177000,7.204177001953125,-0.18101944029331207,-0.0726664662361145,0.03438730537891388
1761467133463159000,7.214158935546875,-0.19675925374031067,-0.09524421393871307,0.021058183163404465
1761467133473142000,7.22414208984375,-0.2184191793203354,-0.11254572123289108,0.013081250712275505
1761467133483125000,7.234125,-0.235463947057724,-0.12209875136613846,0.014145182445645332
1761467133493107200,7.244107177734375,-0.2614147365093231,-0.12845337390899658,0.024224843829870224
1761467133503090000,7.25408984375,-0.2760719954967499,-0.12760275602340698,0.035068437457084656
1761467133513073000,7.264072998046875,-0.2821677327156067,-0.1279306858778,0.047544676810503006
1761467133523056000,7.27405615234375,-0.2931700646877289,-0.1257447600364685,0.04659845307469368
1761467133533037800,7.284037841796875,-0.30368074774742126,-0.12564069032669067,0.03741971775889397
1761467133543021000,7.29402099609375,-0.31925728917121887,-0.13262082636356354,0.02234675921499729
1761467133553004000,7.304004150390625,-0.3422296941280365,-0.1473759263753891,0.008418714627623558
1761467133562986000,7.313986083984375,-0.3626124858856201,-0.158348947763443,0.005821600556373596
1761467133572969000,7.323968994140625,-0.39174163341522217,-0.18212050199508667,0.015707986429333687
1761467133582952000,7.333951904296875,-0.4233804941177368,-0.21377164125442505,0.043248798698186874
1761467133592934000,7.343933837890625,-0.4564336836338043,-0.23516429960727692,0.0815468281507492
1761467133602916900,7.353916748046875,-0.49114108085632324,-0.24536792933940887,0.12742695212364197
1761467133612900000,7.363900146484375,-0.51470947265625,-0.25188347697257996,0.1688828319311142
1761467133622883000,7.373883056640625,-0.5300687551498413,-0.26135581731796265,0.19515065848827362
1761467133632865000,7.383864990234375,-0.5415899157524109,-0.27287375926971436,0.19831576943397522
1761467133642848000,7.393847900390625,-0.5532007217407227,-0.2841106951236725,0.18751771748065948
1761467133652831000,7.4038310546875,-0.5548602342605591,-0.2947727143764496,0.16458460688591003
1761467133662813000,7.41381298828125,-0.5545294284820557,-0.31586068868637085,0.14603781700134277
1761467133672796000,7.4237958984375,-0.5555098056793213,-0.33445650339126587,0.13404926657676697
1761467133682779100,7.433779052734375,-0.556868314743042,-0.3459581732749939,0.13888955116271973
1761467133692760800,7.4437607421875,-0.5569522380828857,-0.35110265016555786,0.15334084630012512
1761467133702744000,7.453744140625,-0.5478466153144836,-0.3498397767543793,0.17509859800338745
1761467133712727000,7.46372705078125,-0.528559148311615,-0.3437514901161194,0.20322617888450623
1761467133722710000,7.4737099609375,-0.5119003057479858,-0.3367660343647003,0.22042353451251984
1761467133732692000,7.48369189453125,-0.4977685809135437,-0.3396785259246826,0.22468873858451843
1761467133742675000,7.493675048828125,-0.4672921895980835,-0.33024534583091736,0.22077441215515137
1761467133752658000,7.503657958984375,-0.44289883971214294,-0.32082274556159973,0.21055279672145844
1761467133762640000,7.513639892578125,-0.4239685535430908,-0.3051425814628601,0.21398773789405823
1761467133772620000,7.5236201171875,-0.4061957001686096,-0.2941437363624573,0.21736222505569458
1761467133782603000,7.53360302734375,-0.3914305865764618,-0.2929985821247101,0.20318728685379028
1761467133792585000,7.5435849609375,-0.39329761266708374,-0.31478023529052734,0.16190814971923828
1761467133802568000,7.55356787109375,-0.41035088896751404,-0.3401460647583008,0.11484822630882263
1761467133812551000,7.563551025390625,-0.4387845993041992,-0.36865824460983276,0.09029365330934525
1761467133822534000,7.573533935546875,-0.4565737247467041,-0.3923361301422119,0.0913139134645462
1761467133832515800,7.583515869140625,-0.46286141872406006,-0.4081391990184784,0.11198565363883972
1761467133842499000,7.5934990234375,-0.47757405042648315,-0.4137296974658966,0.13984525203704834
1761467133852482000,7.60348193359375,-0.4873008728027344,-0.4073478877544403,0.16587010025978088
1761467133862464000,7.613464111328125,-0.4920111894607544,-0.381143182516098,0.17157751321792603
1761467133872447000,7.623447021484375,-0.49108973145484924,-0.35313767194747925,0.16560958325862885
1761467133882430000,7.633429931640625,-0.4801795780658722,-0.3368106186389923,0.15456253290176392
1761467133892412000,7.643411865234375,-0.4658706784248352,-0.3193786144256592,0.1401282548904419
1761467133902395100,7.65339501953125,-0.45302650332450867,-0.3063879907131195,0.14310140907764435
1761467133912378000,7.663378173828125,-0.4456886351108551,-0.28836193680763245,0.157731294631958
1761467133922360800,7.67336083984375,-0.4315882623195648,-0.26256734132766724,0.18679648637771606
1761467133932343000,7.683343017578125,-0.4211139678955078,-0.23907782137393951,0.21826422214508057
1761467133942326000,7.693325927734375,-0.41337910294532776,-0.21780182421207428,0.2384115755558014
1761467133952309000,7.70330908203125,-0.40265795588493347,-0.2047795206308365,0.24093520641326904
1761467133962291000,7.713291015625,-0.38720229268074036,-0.20045800507068634,0.2225801646709442
1761467133972274200,7.723274169921875,-0.3798922300338745,-0.1954953372478485,0.20790691673755646
1761467133982257000,7.7332568359375,-0.3709293603897095,-0.1956988275051117,0.1879158914089203
1761467133992239900,7.743239990234375,-0.37515532970428467,-0.18641974031925201,0.1824083924293518
1761467134002222000,7.75322216796875,-0.38922375440597534,-0.17524778842926025,0.18521642684936523
1761467134012204800,7.763204833984375,-0.3955157697200775,-0.16419585049152374,0.18307724595069885
1761467134022188000,7.77318798828125,-0.4036581218242645,-0.15663807094097137,0.18774257600307465
1761467134032170000,7.783169921875,-0.41720065474510193,-0.15859858691692352,0.18508416414260864
1761467134042153000,7.793153076171875,-0.42584556341171265,-0.15876929461956024,0.17944544553756714
1761467134052136000,7.803135986328125,-0.4374490976333618,-0.1657448709011078,0.16896972060203552
1761467134062118100,7.8131181640625,-0.4489164352416992,-0.1759333312511444,0.15350288152694702
1761467134072100900,7.823100830078125,-0.46124812960624695,-0.18553686141967773,0.12851057946681976
1761467134082083800,7.833083740234375,-0.46677660942077637,-0.1991051435470581,0.10774724185466766
1761467134092067000,7.843067138671875,-0.48436206579208374,-0.2208854854106903,0.09490162134170532
1761467134102048800,7.853048828125,-0.5060732364654541,-0.2458704710006714,0.0818561241030693
1761467134112032000,7.863031982421875,-0.5226883292198181,-0.27699029445648193,0.06237831339240074
1761467134122015000,7.873014892578125,-0.537330150604248,-0.2945423722267151,0.03576721251010895
1761467134131997000,7.882996826171875,-0.5574690699577332,-0.31869634985923767,0.0017197239212691784
1761467134141980000,7.89297998046875,-0.5686442255973816,-0.338477224111557,-0.044144172221422195
1761467134151963000,7.902962890625,-0.5879117250442505,-0.3597598373889923,-0.09360694140195847
1761467134161946000,7.912946044921875,-0.6045392155647278,-0.3680547773838043,-0.14343123137950897
1761467134171927800,7.922927734375,-0.626377284526825,-0.3803686499595642,-0.17515680193901062
1761467134181911000,7.9329111328125,-0.6422885656356812,-0.394618958234787,-0.19807089865207672
1761467134191894000,7.94289404296875,-0.6489763259887695,-0.3970247805118561,-0.20544612407684326
1761467134201876000,7.9528759765625,-0.6510466933250427,-0.3869204819202423,-0.22254174947738647
1761467134211859000,7.96285888671875,-0.6441867351531982,-0.3629010319709778,-0.253517210483551
1761467134221842200,7.97284228515625,-0.6263691186904907,-0.3410481810569763,-0.2930784821510315
1761467134231825000,7.982824951171875,-0.6072678565979004,-0.31990528106689453,-0.31446412205696106
1761467134241807000,7.99280712890625,-0.5888954997062683,-0.3093828558921814,-0.3100145161151886
1761467134251790000,8.0027900390625,-0.5707166790962219,-0.3041473925113678,-0.29383954405784607
1761467134261772800,8.012772705078126,-0.5798193216323853,-0.30932751297950745,-0.27095872163772583
1761467134271755000,8.022755126953125,-0.5905927419662476,-0.3243650794029236,-0.23338721692562103
1761467134281738000,8.032738037109375,-0.6050747632980347,-0.3344496786594391,-0.1977466642856598
1761467134291721000,8.042720947265625,-0.6091675162315369,-0.3345710337162018,-0.1652737408876419
1761467134301703000,8.052702880859375,-0.6053866147994995,-0.3449437618255615,-0.13829432427883148
1761467134311686100,8.06268603515625,-0.6132462024688721,-0.3506317138671875,-0.12954767048358917
1761467134321668900,8.0726689453125,-0.6303882002830505,-0.3735647201538086,-0.1384868323802948
1761467134331651800,8.08265185546875,-0.639735221862793,-0.4045008420944214,-0.16602979600429535
1761467134341634000,8.092634033203124,-0.6494645476341248,-0.4312981069087982,-0.18948665261268616
1761467134351616800,8.10261669921875,-0.6593504548072815,-0.4429989457130432,-0.20893222093582153
1761467134361600000,8.11260009765625,-0.673060417175293,-0.43915945291519165,-0.20760808885097504
1761467134371582000,8.12258203125,-0.6880422830581665,-0.4471036493778229,-0.19235430657863617
1761467134381565000,8.13256494140625,-0.6964938640594482,-0.43875598907470703,-0.1648305356502533
1761467134391548000,8.1425478515625,-0.6952545046806335,-0.41550782322883606,-0.13878357410430908
1761467134401531000,8.15253076171875,-0.6858745813369751,-0.3848215639591217,-0.1199137419462204
1761467134411512800,8.162512939453125,-0.6620861887931824,-0.33875808119773865,-0.11014077812433243
1761467134421495800,8.172495849609374,-0.6287857294082642,-0.29368406534194946,-0.10469061881303787
1761467134431479000,8.18247900390625,-0.5848334431648254,-0.23910297453403473,-0.10380827635526657
1761467134441460700,8.192460693359376,-0.5434026718139648,-0.167579784989357,-0.07923821359872818
1761467134451444000,8.20244384765625,-0.5042063593864441,-0.10336918383836746,-0.053053390234708786
1761467134461427000,8.212427001953126,-0.506372332572937,-0.024989422410726547,0.11006681621074677
1761467134471410000,8.222409912109375,-0.5072855949401855,-0.07160475105047226,0.12807267904281616
1761467134481391900,8.232391845703125,-0.4818934202194214,-0.10645194351673126,0.021246105432510376
1761467134491374800,8.242374755859375,-0.4926905930042267,-0.1308821588754654,-0.08753757178783417
1761467134501358000,8.252358154296875,-0.4870547950267792,-0.1719835251569748,-0.13493838906288147
1761467134511339800,8.26233984375,-0.45572105050086975,-0.14640235900878906,-0.11684930324554443
1761467134521323000,8.272322998046874,-0.4199755787849426,-0.08842134475708008,-0.0736677423119545
1761467134531306000,8.282305908203124,-0.3640872836112976,-0.028405535966157913,-0.0158049538731575
1761467134541289000,8.2922890625,-0.31739142537117004,0.017388317734003067,0.04761743173003197
1761467134551271000,8.30227099609375,-0.2930094599723816,0.03025943972170353,0.10317424684762955
