time,seconds_elapsed,z,y,x
1761467144518577200,0.1195771484375,-0.07457076013088226,-0.20055852830410004,-0.31237494945526123
1761467144528559900,0.129559814453125,-0.09425376355648041,-0.22273297607898712,-0.29819774627685547
1761467144538543000,0.139543212890625,-0.11818625777959824,-0.2482718825340271,-0.2666190564632416
1761467144548526000,0.149526123046875,-0.14789508283138275,-0.26629841327667236,-0.23442953824996948
1761467144558509000,0.159509033203125,-0.177241250872612,-0.2732982635498047,-0.21390987932682037
1761467144568492000,0.169491943359375,-0.20260021090507507,-0.2663407325744629,-0.1931830197572708
1761467144578475000,0.17947509765625,-0.23435042798519135,-0.266413152217865,-0.17374087870121002
1761467144588458000,0.1894580078125,-0.2649785280227661,-0.25723573565483093,-0.14470981061458588
1761467144598440000,0.19943994140625,-0.3000110685825348,-0.2549970746040344,-0.11029485613107681
1761467144608423000,0.2094228515625,-0.34232234954833984,-0.25772303342819214,-0.06669884920120239
1761467144618406100,0.21940625,-0.3911072015762329,-0.2712348401546478,-0.022444572299718857
1761467144628389000,0.22938916015625,-0.44354841113090515,-0.2868134081363678,0.023726491257548332
1761467144638371800,0.239371826171875,-0.49055215716362,-0.3048448860645294,0.060261599719524384
1761467144648355000,0.24935498046875,-0.5077073574066162,-0.319522500038147,0.09101641923189163
1761467144658338000,0.259338134765625,-0.5268522500991821,-0.32439368963241577,0.11961211264133453
1761467144668321000,0.269321044921875,-0.5356689691543579,-0.31106412410736084,0.132496640086174
1761467144678304000,0.279303955078125,-0.5312725901603699,-0.30112388730049133,0.14064911007881165
1761467144688287000,0.289286865234375,-0.5299282073974609,-0.3031163811683655,0.1413150131702423
1761467144698270200,0.299270263671875,-0.5292163491249084,-0.3211132287979126,0.13745848834514618
1761467144708253000,0.3092529296875,-0.5286425948143005,-0.3508380055427551,0.1367640346288681
1761467144718236000,0.31923583984375,-0.5274649262428284,-0.37385037541389465,0.15110622346401215
1761467144728218000,0.329218017578125,-0.5280601382255554,-0.39848262071609497,0.18120431900024414
1761467144738200800,0.339200927734375,-0.5334064364433289,-0.41978955268859863,0.22287772595882416
1761467144748184000,0.34918408203125,-0.5264014601707458,-0.44095247983932495,0.25427010655403137
1761467144758167000,0.3591669921875,-0.5037757754325867,-0.4402310252189636,0.2705222964286804
1761467144768150000,0.36914990234375,-0.4749605357646942,-0.4293536841869354,0.2696508765220642
1761467144778127400,0.37912744140625,-0.44028085470199585,-0.41703230142593384,0.252819687128067
1761467144788110600,0.389110595703125,-0.4105348289012909,-0.40767747163772583,0.23180676996707916
1761467144798093600,0.399093505859375,-0.38971665501594543,-0.39950478076934814,0.2153306007385254
1761467144808076500,0.40907666015625,-0.372645765542984,-0.40005815029144287,0.21200989186763763
1761467144818059500,0.4190595703125,-0.3739161193370819,-0.39755797386169434,0.22482609748840332
1761467144828042500,0.42904248046875,-0.37940099835395813,-0.3901619613170624,0.242889404296875
1761467144838025500,0.439025390625,-0.36954304575920105,-0.3813745975494385,0.2552611231803894
1761467144848008700,0.4490087890625,-0.34390121698379517,-0.37527063488960266,0.239411860704422
1761467144857991400,0.458991455078125,-0.3134181499481201,-0.37501710653305054,0.186420276761055
1761467144867973600,0.4689736328125,-0.30233702063560486,-0.38163474202156067,0.10300906747579575
1761467144877956600,0.47895654296875,-0.318198025226593,-0.39084500074386597,0.040712133049964905
1761467144887939300,0.488939208984375,-0.32525524497032166,-0.396731972694397,0.01762087643146515
1761467144897922600,0.498922607421875,-0.31754937767982483,-0.39074307680130005,0.025535257533192635
1761467144907905500,0.508905517578125,-0.30620577931404114,-0.37843984365463257,0.06110331788659096
1761467144917888500,0.518888427734375,-0.29516616463661194,-0.3653472363948822,0.10429871827363968
1761467144927871500,0.52887158203125,-0.2916328012943268,-0.3330787718296051,0.13196443021297455
1761467144937854500,0.5388544921875,-0.27421972155570984,-0.312091201543808,0.13627156615257263
1761467144947837700,0.548837646484375,-0.23717793822288513,-0.29500630497932434,0.13339179754257202
1761467144957820400,0.5588203125,-0.19180673360824585,-0.28362342715263367,0.13373106718063354
1761467144967803400,0.568803466796875,-0.15183602273464203,-0.28091490268707275,0.1459958255290985
1761467144977786600,0.57878662109375,-0.11657896637916565,-0.2860034108161926,0.17083381116390228
1761467144987769600,0.58876953125,-0.09326132386922836,-0.3036850690841675,0.21118400990962982
1761467144997751600,0.59875146484375,-0.07970050722360611,-0.3135440945625305,0.2642858326435089
1761467145007734500,0.608734619140625,-0.07454601675271988,-0.30493465065956116,0.31527259945869446
1761467145017717500,0.618717529296875,-0.08283989876508713,-0.288212388753891,0.35756438970565796
1761467145027700500,0.628700439453125,-0.09083445370197296,-0.28069067001342773,0.3716164529323578
1761467145037683500,0.638683349609375,-0.09677942842245102,-0.2827277183532715,0.3751656413078308
1761467145047666400,0.64866650390625,-0.11711817234754562,-0.24569053947925568,0.3595084249973297
1761467145057649700,0.658649658203125,-0.1474292129278183,-0.2166474312543869,0.3218960762023926
1761467145067632400,0.66863232421875,-0.18001292645931244,-0.18055349588394165,0.263141006231308
1761467145077615600,0.67861572265625,-0.21259988844394684,-0.14883364737033844,0.19243034720420837
1761467145087598600,0.6885986328125,-0.23976391553878784,-0.12098978459835052,0.11947038024663925
1761467145097581600,0.69858154296875,-0.26786667108535767,-0.1139364019036293,0.06137245520949364
1761467145107564500,0.708564453125,-0.28814050555229187,-0.11823927611112595,0.03203587234020233
1761467145117547500,0.718547607421875,-0.31292468309402466,-0.1264684498310089,0.022911615669727325
1761467145127530500,0.728530517578125,-0.350313276052475,-0.15060900151729584,0.0025559046771377325
1761467145137513500,0.738513427734375,-0.385608434677124,-0.1858532875776291,-0.034571222960948944
1761467145147495400,0.748495361328125,-0.4182104766368866,-0.22465620934963226,-0.08703906834125519
1761467145157478700,0.758478759765625,-0.44524502754211426,-0.2600887417793274,-0.13892623782157898
1761467145167461600,0.768461669921875,-0.46400442719459534,-0.27621540427207947,-0.18074734508991241
1761467145177444400,0.7784443359375,-0.4700849652290344,-0.26723575592041016,-0.21043387055397034
1761467145187427600,0.788427490234375,-0.4682069718837738,-0.2399948686361313,-0.23221831023693085
1761467145197410600,0.79841064453125,-0.45155128836631775,-0.20316629111766815,-0.24442756175994873
1761467145207393300,0.808393310546875,-0.423565536737442,-0.16245520114898682,-0.2529450058937073
1761467145217376500,0.81837646484375,-0.38776493072509766,-0.12052638828754425,-0.2567567825317383
1761467145227359500,0.828359375,-0.35231077671051025,-0.08565174788236618,-0.27577441930770874
1761467145237342700,0.8383427734375,-0.3252197802066803,-0.07975631207227707,-0.3035770058631897
1761467145247325400,0.848325439453125,-0.2933168113231659,-0.08571529388427734,-0.337162047624588
1761467145257308400,0.858308349609375,-0.2576451003551483,-0.08855316042900085,-0.3583959639072418
1761467145267291600,0.868291748046875,-0.2191481739282608,-0.09527824819087982,-0.355902761220932
1761467145277274600,0.878274658203125,-0.1914057582616806,-0.12888067960739136,-0.3434769809246063
1761467145287256600,0.888256591796875,-0.18128666281700134,-0.17051993310451508,-0.33469462394714355
1761467145297239600,0.898239501953125,-0.18149493634700775,-0.19864025712013245,-0.32307499647140503
1761467145307222500,0.908222412109375,-0.18329757452011108,-0.20811307430267334,-0.2973029911518097
1761467145317205500,0.91820556640625,-0.17256316542625427,-0.20441368222236633,-0.26054176688194275
1761467145327188500,0.9281884765625,-0.17265483736991882,-0.191773921251297,-0.2246803343296051
1761467145337171500,0.93817138671875,-0.1703016608953476,-0.17004865407943726,-0.19307154417037964
1761467145347154700,0.94815478515625,-0.1609078198671341,-0.13662955164909363,-0.1740308552980423
1761467145357137400,0.958137451171875,-0.14150722324848175,-0.10428040474653244,-0.1645585149526596
1761467145367120400,0.968120361328125,-0.11515268683433533,-0.0681842491030693,-0.16350874304771423
1761467145377103600,0.978103515625,-0.0794636681675911,-0.03012607991695404,-0.16298143565654755
1761467145387086600,0.988086669921875,-0.04513700306415558,-0.005296901799738407,-0.16046956181526184
1761467145397069600,0.998069580078125,-0.008874336257576942,0.0037085774820297956,-0.16331034898757935
1761467145407052500,1.008052490234375,0.027173258364200592,0.01328759640455246,-0.15657798945903778
1761467145417035500,1.018035400390625,0.05924703925848007,0.014124894514679909,-0.14589284360408783
1761467145427017500,1.028017578125,0.07794765383005142,0.012347974814474583,-0.13701659440994263
1761467145437000400,1.03800048828125,0.10015735030174255,-0.003595305373892188,-0.11247821897268295
1761467145446983700,1.047983642578125,0.11786828190088272,-0.01428347546607256,-0.07522469758987427
1761467145456966400,1.05796630859375,0.12417730689048767,-0.009094572626054287,-0.03298882767558098
1761467145466949400,1.067949462890625,0.12625975906848907,0.004101389087736607,0.0032527996227145195
1761467145476932600,1.0779326171875,0.13357625901699066,0.025898829102516174,0.018592074513435364
1761467145486915600,1.08791552734375,0.13534052670001984,0.04838640242815018,0.013275181874632835
1761467145496898300,1.097898193359375,0.1346459686756134,0.07401613146066666,0.010764087550342083
1761467145506881500,1.107881591796875,0.13128946721553802,0.08668240159749985,0.020968787372112274
1761467145516864500,1.117864501953125,0.11659973114728928,0.10155455768108368,0.04427624121308327
1761467145526847500,1.127847412109375,0.10257422178983688,0.12297064810991287,0.0693829283118248
1761467145536830500,1.13783056640625,0.0959184542298317,0.1399240493774414,0.096986323595047
1761467145546813400,1.1478134765625,0.09699589759111404,0.15615297853946686,0.0951497033238411
1761467145556796700,1.157796630859375,0.10308841615915298,0.1638268679380417,0.07921814173460007
1761467145566778400,1.1677783203125,0.10927761346101761,0.18447484076023102,0.04784897714853287
1761467145576761600,1.17776171875,0.11856672167778015,0.20284558832645416,0.012920285575091839
1761467145586744600,1.18774462890625,0.12674352526664734,0.2077307403087616,-0.015116564929485321
1761467145596727600,1.1977275390625,0.12468090653419495,0.19106760621070862,-0.029078718274831772
1761467145606710500,1.20771044921875,0.11048372089862823,0.17712882161140442,-0.034357961267232895
1761467145616693500,1.217693603515625,0.09506162256002426,0.15916049480438232,-0.03470363840460777
1761467145626676500,1.227676513671875,0.07569026947021484,0.14908623695373535,-0.032067425549030304
1761467145636659700,1.23765966796875,0.05520576983690262,0.150906503200531,-0.015778999775648117
1761467145646642400,1.247642333984375,0.043639011681079865,0.16360978782176971,0.020536931231617928
1761467145656625400,1.25762548828125,0.03424284607172012,0.1797538697719574,0.060903266072273254
1761467145666608600,1.267608642578125,0.023391902446746826,0.1992388218641281,0.0993824154138565
1761467145676591600,1.277591552734375,0.02155245840549469,0.21207472681999207,0.11720029264688492
1761467145686574300,1.28757421875,0.024315014481544495,0.21696066856384277,0.10945593565702438
1761467145696557600,1.2975576171875,0.024991191923618317,0.21235552430152893,0.0832645446062088
1761467145706539500,1.30753955078125,0.025165390223264694,0.20561321079730988,0.058983176946640015
1761467145716522500,1.3175224609375,0.018014268949627876,0.20151406526565552,0.04146730154752731
1761467145726505500,1.32750537109375,0.009660550393164158,0.19765716791152954,0.028971107676625252
1761467145736488700,1.33748876953125,0.01060943491756916,0.20555050671100616,0.015106424689292908
1761467145746471400,1.347471435546875,0.017638148739933968,0.2039392590522766,0.0013088008854538202
1761467145756454400,1.357454345703125,0.015415474772453308,0.20336028933525085,-0.019949616864323616
1761467145766437600,1.367437744140625,0.00750836543738842,0.2025843858718872,-0.03600006550550461
1761467145776420600,1.377420654296875,0.035515498369932175,0.17907746136188507,-0.03233874589204788
1761467145786408000,1.387407958984375,0.04352008178830147,0.16634953022003174,-0.025607235729694366
1761467145796390700,1.397390625,0.03215397521853447,0.1354355663061142,-0.009135317988693714
1761467145806374000,1.407373779296875,0.012764351442456245,0.08215997368097305,0.024362878873944283
1761467145816356900,1.41735693359375,-0.035309966653585434,0.04776711016893387,0.04049338027834892
1761467145826339800,1.42733984375,-0.07340580970048904,0.014102257788181305,0.051140058785676956
1761467145836322800,1.43732275390625,-0.11238650232553482,-0.01012025773525238,0.05503733083605766
1761467145846305800,1.447305908203125,-0.14326387643814087,-0.01513344794511795,0.07673616707324982
1761467145856288000,1.4572880859375,-0.17222683131694794,0.011843308806419373,0.11776349693536758
1761467145866270700,1.467270751953125,-0.18773280084133148,0.04421398416161537,0.16738693416118622
1761467145876254000,1.47725390625,-0.18860659003257751,0.07587044686079025,0.2071782946586609
1761467145886237000,1.48723681640625,-0.18054291605949402,0.09897170960903168,0.23800697922706604
1761467145896220000,1.497219970703125,-0.1778419315814972,0.11776217073202133,0.25879642367362976
1761467145906203000,1.507202880859375,-0.17841534316539764,0.11396957188844681,0.26193150877952576
1761467145916185900,1.517185791015625,-0.17092172801494598,0.09923376888036728,0.25468823313713074
1761467145926168800,1.5271689453125,-0.15591828525066376,0.07106220722198486,0.2410881519317627
1761467145936152000,1.537152099609375,-0.13395360112190247,0.0402933768928051,0.21866513788700104
1761467145946134800,1.547134765625,-0.10800689458847046,0.009584414772689342,0.1919005811214447
1761467145956117800,1.55711767578125,-0.08327411115169525,-0.021489880979061127,0.15492498874664307
1761467145966101000,1.56710107421875,-0.06295165419578552,-0.044032834470272064,0.11635991185903549
1761467145976084000,1.577083984375,-0.04540461674332619,-0.058910585939884186,0.08981991559267044
1761467145986067000,1.58706689453125,-0.03202858567237854,-0.06931481510400772,0.0887407511472702
1761467145996050000,1.5970498046875,-0.026107314974069595,-0.07956691831350327,0.10373088717460632
1761467146006032000,1.607031982421875,-0.03891025111079216,-0.08926695585250854,0.1400955468416214
1761467146016014800,1.617014892578125,-0.06347285211086273,-0.10201497375965118,0.1791156530380249
1761467146025997800,1.626997802734375,-0.09909620881080627,-0.11022577434778214,0.2133047729730606
1761467146035981000,1.63698095703125,-0.12717019021511078,-0.13427358865737915,0.23393388092517853
1761467146045964000,1.646964111328125,-0.1552337110042572,-0.15952721238136292,0.2412153035402298
1761467146055946800,1.65694677734375,-0.16476409137248993,-0.18015259504318237,0.23424074053764343
1761467146065930000,1.666929931640625,-0.16593575477600098,-0.19157174229621887,0.21421106159687042
1761467146075913000,1.676912841796875,-0.1640198677778244,-0.1894579827785492,0.17812895774841309
1761467146085895700,1.686895751953125,-0.16414189338684082,-0.18417279422283173,0.1289152354001999
1761467146095879000,1.69687890625,-0.1607961654663086,-0.17420591413974762,0.07209136337041855
1761467146105862000,1.70686181640625,-0.16127373278141022,-0.16562730073928833,0.010530848056077957
1761467146115844900,1.716844970703125,-0.1734345257282257,-0.14945417642593384,-0.05733688175678253
1761467146125827800,1.726827880859375,-0.17796821892261505,-0.14185330271720886,-0.11361298710107803
1761467146135809800,1.736809814453125,-0.18030434846878052,-0.14384640753269196,-0.1500610113143921
1761467146145793000,1.74679296875,-0.18363438546657562,-0.1550554484128952,-0.172449991106987
1761467146155775700,1.756775634765625,-0.18409298360347748,-0.16424362361431122,-0.17242150008678436
1761467146165759000,1.766759033203125,-0.18961745500564575,-0.17848864197731018,-0.17324286699295044
1761467146175742000,1.776741943359375,-0.19939923286437988,-0.19589745998382568,-0.17018502950668335
1761467146185725000,1.786724853515625,-0.22303570806980133,-0.2210528552532196,-0.16835324466228485
1761467146195708000,1.7967080078125,-0.2504816949367523,-0.2405112385749817,-0.17672543227672577
1761467146205691000,1.80669091796875,-0.2845577299594879,-0.27194535732269287,-0.18691474199295044
1761467146215673900,1.816673828125,-0.30946627259254456,-0.28577250242233276,-0.19064423441886902
1761467146225657000,1.826656982421875,-0.3316851854324341,-0.2783183157444,-0.1726207584142685
1761467146235639800,1.836639892578125,-0.34498685598373413,-0.2571325898170471,-0.1326477825641632
1761467146245622800,1.846622802734375,-0.34942883253097534,-0.23930412530899048,-0.08094069361686707
1761467146255606000,1.85660595703125,-0.34984108805656433,-0.21427547931671143,-0.024936813861131668
1761467146265589000,1.866589111328125,-0.33888646960258484,-0.1876896172761917,0.005238986574113369
1761467146275571700,1.87657177734375,-0.32973772287368774,-0.1724025309085846,0.017147842794656754
1761467146285554000,1.886553955078125,-0.32178327441215515,-0.18198299407958984,0.011820720508694649
1761467146295537000,1.896536865234375,-0.3183014690876007,-0.19764956831932068,0.004597163293510675
1761467146305519900,1.906519775390625,-0.3109987676143646,-0.20929008722305298,-0.006816183216869831
1761467146315502800,1.9165029296875,-0.299159437417984,-0.2241811454296112,-0.017594262957572937
1761467146325485800,1.92648583984375,-0.2810475826263428,-0.23614950478076935,-0.03833400458097458
1761467146335469000,1.936468994140625,-0.2590285837650299,-0.23829682171344757,-0.06493765115737915
1761467146345451800,1.94645166015625,-0.2374630719423294,-0.23957812786102295,-0.08968672901391983
1761467146355435000,1.95643505859375,-0.22060419619083405,-0.2567427158355713,-0.11573909968137741
1761467146365418000,1.96641796875,-0.22099435329437256,-0.26444709300994873,-0.14109356701374054
1761467146375400700,1.976400634765625,-0.2129071205854416,-0.26337915658950806,-0.16017325222492218
1761467146385384000,1.986384033203125,-0.2041674703359604,-0.2627539336681366,-0.16837722063064575
1761467146395367000,1.996366943359375,-0.21341316401958466,-0.26394516229629517,-0.17176608741283417
1761467146405350000,2.006349853515625,-0.24612359702587128,-0.2901258170604706,-0.16804289817810059
1761467146415332900,2.016332763671875,-0.2747158110141754,-0.31364551186561584,-0.16104517877101898
1761467146425315800,2.02631591796875,-0.3120010495185852,-0.33486682176589966,-0.15578530728816986
1761467146435298000,2.036298095703125,-0.3455590009689331,-0.3605756461620331,-0.1398146003484726
1761467146445280800,2.04628076171875,-0.36922764778137207,-0.37095409631729126,-0.11662124842405319
1761467146455263700,2.056263671875,-0.3897542357444763,-0.36043938994407654,-0.08660635352134705
1761467146465247000,2.0662470703125,-0.4078289270401001,-0.34871044754981995,-0.06726717203855515
1761467146475230000,2.07622998046875,-0.43553057312965393,-0.34449493885040283,-0.052992627024650574
1761467146485213000,2.086212890625,-0.4629748463630676,-0.3432507812976837,-0.0389450378715992
1761467146495196000,2.09619580078125,-0.48627030849456787,-0.3474327325820923,-0.025948015972971916
1761467146505179000,2.106178955078125,-0.5036234259605408,-0.3633137047290802,-0.007491776719689369
1761467146515162000,2.116162109375,-0.5244578719139099,-0.38347887992858887,0.01836858130991459
1761467146525144800,2.126144775390625,-0.5408346652984619,-0.38367050886154175,0.046601925045251846
1761467146535127800,2.1361279296875,-0.536344051361084,-0.37221091985702515,0.07773720473051071
1761467146545111000,2.146111083984375,-0.5226195454597473,-0.3526928424835205,0.10642456263303757
1761467146555092700,2.1560927734375,-0.5021507143974304,-0.3374108374118805,0.1182846873998642
1761467146565076000,2.166075927734375,-0.47886717319488525,-0.3240894675254822,0.1254245638847351
1761467146575059000,2.176058837890625,-0.46286076307296753,-0.3249909579753876,0.1239427924156189
1761467146585042000,2.1860419921875,-0.4430736005306244,-0.3236980438232422,0.12145453691482544
1761467146595025000,2.19602490234375,-0.4244906008243561,-0.3269018232822418,0.11711704730987549
1761467146605008000,2.2060078125,-0.4120030403137207,-0.33576256036758423,0.11745835840702057
1761467146614990800,2.215990966796875,-0.40224015712738037,-0.33791542053222656,0.12981675565242767
1761467146624973800,2.225973876953125,-0.389171838760376,-0.3302851617336273,0.15511232614517212
1761467146634956800,2.235956787109375,-0.3746786415576935,-0.315064936876297,0.16182827949523926
1761467146644939800,2.245939697265625,-0.34708502888679504,-0.30429327487945557,0.12848864495754242
1761467146654923000,2.255923095703125,-0.3281148076057434,-0.3069114685058594,0.05755428224802017
1761467146664905700,2.26590576171875,-0.34624868631362915,-0.31211698055267334,-0.019048454239964485
1761467146674889000,2.275888916015625,-0.3775120675563812,-0.3434043228626251,-0.07048847526311874
1761467146684872000,2.285871826171875,-0.4281211793422699,-0.38351142406463623,-0.06304057687520981
1761467146694855000,2.29585498046875,-0.4609270691871643,-0.4145902395248413,0.01752031035721302
1761467146704836900,2.3058369140625,-0.486067533493042,-0.40439268946647644,0.1369631290435791
1761467146714819800,2.31581982421875,-0.5008075833320618,-0.34655308723449707,0.2665714621543884
1761467146724803000,2.325802978515625,-0.513483464717865,-0.25982314348220825,0.36841484904289246
1761467146734785800,2.335785888671875,-0.5091113448143005,-0.16408729553222656,0.4239305555820465
1761467146744768800,2.345768798828125,-0.496808797121048,-0.09598308056592941,0.43353286385536194
1761467146754752000,2.355751953125,-0.4818444848060608,-0.06680628657341003,0.41269388794898987
1761467146764735000,2.36573486328125,-0.46599888801574707,-0.08280671387910843,0.38808825612068176
1761467146774717700,2.3757177734375,-0.45597076416015625,-0.13779033720493317,0.3478447198867798
1761467146784696600,2.385696533203125,-0.4656163156032562,-0.19784903526306152,0.28572016954421997
1761467146794679600,2.395679443359375,-0.4649435877799988,-0.24607914686203003,0.2018958479166031
1761467146804662800,2.405662841796875,-0.4503355324268341,-0.28500956296920776,0.10788542032241821
1761467146814645500,2.4156455078125,-0.4171978235244751,-0.31410887837409973,0.016479339450597763
1761467146824628500,2.42562841796875,-0.3666883707046509,-0.3347844183444977,-0.056400034576654434
1761467146834610700,2.435610595703125,-0.32483094930648804,-0.3442961573600769,-0.10467062890529633
1761467146844593400,2.445593505859375,-0.2946417033672333,-0.3474537134170532,-0.12578321993350983
1761467146854576600,2.45557666015625,-0.28320661187171936,-0.32792261242866516,-0.11562804877758026
1761467146864559600,2.4655595703125,-0.2907092571258545,-0.3132568895816803,-0.08679192513227463
1761467146874542600,2.47554248046875,-0.3071470856666565,-0.29871684312820435,-0.04547830671072006
1761467146884525600,2.485525634765625,-0.33412936329841614,-0.2941066026687622,0.0034546698443591595
1761467146894508500,2.495508544921875,-0.3793535828590393,-0.29857298731803894,0.04282018542289734
1761467146904491800,2.50549169921875,-0.43124639987945557,-0.3081114888191223,0.07623577117919922
1761467146914474800,2.515474853515625,-0.4886881113052368,-0.31778115034103394,0.07559022307395935
1761467146924457500,2.52545751953125,-0.5451183915138245,-0.33576008677482605,0.044526685029268265
1761467146934440700,2.535440673828125,-0.5879271030426025,-0.34730809926986694,0.0198916457593441
1761467146944423700,2.545423583984375,-0.6105066537857056,-0.33418068289756775,0.003091253340244293
1761467146954406700,2.55540673828125,-0.6282925605773926,-0.3165343105792999,-0.0416242890059948
1761467146964389600,2.5653896484375,-0.6365606784820557,-0.3132838308811188,-0.09439817070960999
1761467146974371600,2.57537158203125,-0.6442175507545471,-0.29871153831481934,-0.15131844580173492
1761467146984354800,2.585354736328125,-0.6475914716720581,-0.26232296228408813,-0.21237041056156158
1761467146994337500,2.595337646484375,-0.6368128657341003,-0.228864848613739,-0.2628420889377594
1761467147004320500,2.605320556640625,-0.6244720220565796,-0.20541203022003174,-0.29993918538093567
1761467147014303700,2.6153037109375,-0.5969951748847961,-0.1864822804927826,-0.3208223581314087
1761467147024286700,2.62528662109375,-0.5572258830070496,-0.17235682904720306,-0.3254612684249878
1761467147034269700,2.635269775390625,-0.5182971358299255,-0.17164230346679688,-0.3059709072113037
1761467147044252700,2.645252685546875,-0.48196691274642944,-0.1729041039943695,-0.2644711434841156
1761467147054235600,2.655235595703125,-0.45137837529182434,-0.17802269756793976,-0.19859039783477783
1761467147064219000,2.665218994140625,-0.4265091121196747,-0.1827189028263092,-0.11548887193202972
1761467147074201600,2.67520166015625,-0.4106920659542084,-0.18224379420280457,-0.023183438926935196
1761467147084184600,2.6851845703125,-0.3936600685119629,-0.18339063227176666,0.041978735476732254
1761467147094167800,2.695167724609375,-0.3733023405075073,-0.18147316575050354,0.07497689127922058
1761467147104149500,2.7051494140625,-0.3387434780597687,-0.18483294546604156,0.05351453274488449
1761467147114132700,2.7151328125,-0.31285780668258667,-0.19815540313720703,0.0019232456106692553
1761467147124115700,2.72511572265625,-0.2981705963611603,-0.22239959239959717,-0.06480928510427475
1761467147134098400,2.735098388671875,-0.28630489110946655,-0.25986894965171814,-0.12450271099805832
1761467147144081700,2.74508154296875,-0.2875043749809265,-0.309024840593338,-0.16820576786994934
1761467147154064600,2.755064697265625,-0.2929295003414154,-0.3522857427597046,-0.18878348171710968
1761467147164047600,2.765047607421875,-0.2967434525489807,-0.3740476369857788,-0.19536298513412476
1761467147174030600,2.775030517578125,-0.288882851600647,-0.37428411841392517,-0.18716976046562195
1761467147184013600,2.785013671875,-0.2842026352882385,-0.3565099239349365,-0.1814546287059784
1761467147193996500,2.79499658203125,-0.2725619375705719,-0.33015793561935425,-0.1879040002822876
1761467147203979800,2.804979736328125,-0.25205522775650024,-0.2995448410511017,-0.19611181318759918
1761467147213962500,2.81496240234375,-0.22414131462574005,-0.2671158015727997,-0.20905396342277527
1761467147223945700,2.82494580078125,-0.2001291811466217,-0.23731164634227753,-0.21559500694274902
1761467147233927700,2.834927734375,-0.17809711396694183,-0.2225761115550995,-0.22349953651428223
1761467147243910700,2.84491064453125,-0.16619281470775604,-0.22437721490859985,-0.22444069385528564
1761467147253893600,2.8548935546875,-0.16560585796833038,-0.22739218175411224,-0.2158096581697464
1761467147263876600,2.864876708984375,-0.17431290447711945,-0.2251283824443817,-0.19209836423397064
1761467147273859800,2.87485986328125,-0.18464384973049164,-0.21157234907150269,-0.15454380214214325
1761467147283842600,2.884842529296875,-0.19239988923072815,-0.19308772683143616,-0.1179874986410141
1761467147293825500,2.894825439453125,-0.19870571792125702,-0.16774030029773712,-0.07959723472595215
1761467147303808800,2.904808837890625,-0.205793559551239,-0.12525200843811035,-0.046729620546102524
1761467147313791700,2.914791748046875,-0.20679251849651337,-0.08557170629501343,-0.018211957067251205
1761467147323774500,2.9247744140625,-0.20897388458251953,-0.05132903903722763,0.013706027530133724
1761467147333757700,2.9347578125,-0.22371181845664978,-0.01660754531621933,0.032444827258586884
1761467147343740700,2.94474072265625,-0.23365449905395508,0.00512293865904212,0.04781382530927658
1761467147353723600,2.9547236328125,-0.2547035813331604,0.014334013685584068,0.05443257838487625
1761467147363705600,2.96470556640625,-0.2699951231479645,0.011264074593782425,0.052504345774650574
1761467147373688600,2.9746884765625,-0.28884124755859375,0.0002854587510228157,0.04952054098248482
1761467147383671600,2.984671630859375,-0.29406648874282837,-0.0013436900917440653,0.04504046216607094
1761467147393654500,2.994654541015625,-0.2933381199836731,0.0008009537123143673,0.032396040856838226
1761467147403637800,3.0046376953125,-0.28370267152786255,0.007547799032181501,0.015301208943128586
1761467147413620700,3.014620849609375,-0.2777092456817627,0.02728288806974888,0.0005126758478581905
1761467147423603500,3.024603515625,-0.2656532824039459,0.05174780264496803,-0.001866805600002408
1761467147433586700,3.034586669921875,-0.2618979513645172,0.08072645962238312,0.008631374686956406
1761467147443569700,3.044569580078125,-0.2613520324230194,0.10903175920248032,0.04658397659659386
1761467147453552600,3.054552734375,-0.25898635387420654,0.12369751930236816,0.09710201621055603
1761467147463535600,3.06453564453125,-0.25297653675079346,0.1275385022163391,0.14793738722801208
1761467147473518600,3.0745185546875,-0.26070156693458557,0.12519225478172302,0.1862695962190628
1761467147483500800,3.084500732421875,-0.27333399653434753,0.11437316238880157,0.1958543211221695
1761467147493483500,3.0944833984375,-0.2859616279602051,0.09260528534650803,0.1852264404296875
1761467147503466500,3.104466552734375,-0.29645952582359314,0.06568021327257156,0.15476307272911072
1761467147513449700,3.11444970703125,-0.3053622245788574,0.045167483389377594,0.11508196592330933
1761467147523432700,3.1244326171875,-0.3213132619857788,0.03967621549963951,0.08549205958843231
1761467147533415700,3.134415771484375,-0.3137509524822235,0.033078767359256744,0.06410128623247147
1761467147543398700,3.144398681640625,-0.28934329748153687,0.030830543488264084,0.052371930330991745
1761467147553381600,3.154381591796875,-0.256570428609848,0.03328624367713928,0.025358689948916435
1761467147563364900,3.16436474609375,-0.2369079291820526,0.03950631991028786,-0.008383294567465782
1761467147573347600,3.17434765625,-0.2270265370607376,0.0450049452483654,-0.02918684296309948
1761467147583330600,3.18433056640625,-0.2161644995212555,0.047738902270793915,-0.015143250115215778
1761467147593313800,3.194313720703125,-0.19893383979797363,0.03569022938609123,0.0324849896132946
1761467147603295500,3.20429541015625,-0.18936096131801605,0.015387095510959625,0.09342317283153534
1761467147613278700,3.21427880859375,-0.19984795153141022,-0.0005415384657680988,0.15952736139297485
1761467147623261700,3.22426171875,-0.22938410937786102,-0.01032242737710476,0.2105693370103836
1761467147633244700,3.23424462890625,-0.2558732330799103,-0.002623228123411536,0.2454785853624344
1761467147643227600,3.2442275390625,-0.2774149477481842,-0.006126201245933771,0.2671174705028534
1761467147653210600,3.254210693359375,-0.2889256775379181,-0.013288240879774094,0.2744675278663635
1761467147663193600,3.264193603515625,-0.3022007346153259,-0.014884903095662594,0.2744261622428894
1761467147673176600,3.274176513671875,-0.3246975243091583,-0.011136769317090511,0.2782994508743286
1761467147683159600,3.28415966796875,-0.33266112208366394,-0.007161984220147133,0.2853009104728699
1761467147693142500,3.294142578125,-0.33703961968421936,-0.009171339683234692,0.2934296727180481
1761467147703125800,3.304125732421875,-0.32986772060394287,-0.024925706908106804,0.30399051308631897
1761467147713108500,3.3141083984375,-0.32601654529571533,-0.04983292147517204,0.30770668387413025
1761467147723091700,3.324091796875,-0.3210771679878235,-0.0768258273601532,0.3122480511665344
1761467147733073700,3.33407373046875,-0.3143334984779358,-0.11772532016038895,0.3095689117908478
1761467147743056600,3.344056640625,-0.30093032121658325,-0.1607263833284378,0.29839369654655457
1761467147753039600,3.35403955078125,-0.27947643399238586,-0.19865299761295319,0.2730129659175873
1761467147763022600,3.364022705078125,-0.2550266683101654,-0.22371621429920197,0.24464023113250732
1761467147773005800,3.374005859375,-0.2362404614686966,-0.24166510999202728,0.2136700600385666
1761467147782992400,3.383992431640625,-0.21673783659934998,-0.2561618685722351,0.2036692500114441
1761467147792975000,3.39397509765625,-0.1994003802537918,-0.2673735022544861,0.2098962515592575
1761467147802958300,3.403958251953125,-0.19388003647327423,-0.2761682868003845,0.24437598884105682
1761467147812941300,3.41394140625,-0.18974760174751282,-0.27537068724632263,0.2905307114124298
1761467147822924300,3.42392431640625,-0.18221090734004974,-0.26411759853363037,0.342563658952713
1761467147832907300,3.4339072265625,-0.16671797633171082,-0.2505304515361786,0.3778095245361328
1761467147842890200,3.44389013671875,-0.15496239066123962,-0.2333863377571106,0.381940096616745
1761467147852872400,3.45387255859375,-0.138045996427536,-0.22502295672893524,0.3577870726585388
1761467147862855200,3.463855224609375,-0.12479943037033081,-0.21411384642124176,0.30299627780914307
1761467147872838100,3.473838134765625,-0.11931678652763367,-0.21229277551174164,0.22491584718227386
1761467147882821400,3.4838212890625,-0.11511446535587311,-0.22320501506328583,0.13771654665470123
1761467147892804400,3.493804443359375,-0.1155799850821495,-0.23893417418003082,0.047881998121738434
1761467147902787300,3.503787353515625,-0.11267142742872238,-0.257373183965683,-0.038757070899009705
1761467147912770300,3.513770263671875,-0.113746277987957,-0.2706993818283081,-0.12426211684942245
1761467147922753300,3.523753173828125,-0.12239614874124527,-0.2753833830356598,-0.18325012922286987
1761467147932736300,3.533736328125,-0.13732795417308807,-0.2776806056499481,-0.2101680338382721
1761467147942719200,3.54371923828125,-0.15100033581256866,-0.2672290503978729,-0.2139853984117508
1761467147952702200,3.5537021484375,-0.1792016178369522,-0.26195359230041504,-0.20717623829841614
1761467147962685400,3.563685546875,-0.21429598331451416,-0.2550252377986908,-0.19787977635860443
1761467147972667100,3.573667236328125,-0.2510278820991516,-0.2504078149795532,-0.1895345002412796
1761467147982650400,3.583650390625,-0.30364465713500977,-0.25777849555015564,-0.19218817353248596
1761467147992633300,3.59363330078125,-0.3571709990501404,-0.2826755940914154,-0.21618299186229706
1761467148002616000,3.603615966796875,-0.41772907972335815,-0.3128896951675415,-0.21282373368740082
1761467148012599300,3.613599365234375,-0.4709816575050354,-0.3210959732532501,-0.17766894400119781
1761467148022582300,3.623582275390625,-0.5162045955657959,-0.3148115873336792,-0.11875566095113754
1761467148032565200,3.633565185546875,-0.5573821663856506,-0.30843570828437805,-0.050531867891550064
1761467148042548200,3.64354833984375,-0.5974359512329102,-0.29315921664237976,0.024988505989313126
1761467148052531200,3.65353125,-0.6289775967597961,-0.27397966384887695,0.09722568839788437
1761467148062514400,3.663514404296875,-0.6531215906143188,-0.2593699097633362,0.16539929807186127
1761467148072497400,3.673497314453125,-0.6674336791038513,-0.24505171179771423,0.21574155986309052
1761467148082479400,3.683479248046875,-0.676284909248352,-0.23009507358074188,0.24529419839382172
1761467148092462300,3.69346240234375,-0.6762308478355408,-0.21310250461101532,0.2475498765707016
1761467148102445300,3.7034453125,-0.672990083694458,-0.21247901022434235,0.2263234257698059
1761467148112428300,3.71342822265625,-0.6749134063720703,-0.22046449780464172,0.18950176239013672
1761467148122411300,3.723411376953125,-0.6812498569488525,-0.25068703293800354,0.13640142977237701
1761467148132394200,3.733394287109375,-0.6822144389152527,-0.2958763539791107,0.0830649584531784
1761467148142377500,3.74337744140625,-0.6897767186164856,-0.34174126386642456,0.035810425877571106
1761467148152360200,3.753360107421875,-0.6993175148963928,-0.39208221435546875,-0.008690997958183289
1761467148162343200,3.76334326171875,-0.7075400948524475,-0.4373549520969391,-0.039388567209243774
1761467148172326400,3.773326416015625,-0.7199301719665527,-0.4731595516204834,-0.056724946945905685
1761467148182309000,3.78330908203125,-0.7379704117774963,-0.48546501994132996,-0.05710369348526001
1761467148192292000,3.7932919921875,-0.750684380531311,-0.4856911301612854,-0.05859346687793732
1761467148202274300,3.8032744140625,-0.7598711848258972,-0.47255709767341614,-0.06397135555744171
1761467148212257000,3.813257080078125,-0.757805585861206,-0.44610926508903503,-0.06601666659116745
1761467148222240300,3.823240234375,-0.7618975043296814,-0.42607077956199646,-0.07315121591091156
1761467148232223200,3.83322314453125,-0.7682797908782959,-0.41741710901260376,-0.08072417974472046
1761467148242206200,3.843206298828125,-0.7822318077087402,-0.4219689667224884,-0.07872600853443146
1761467148252189200,3.853189208984375,-0.796367883682251,-0.4261344075202942,-0.06850452721118927
1761467148262172200,3.863172119140625,-0.8103393912315369,-0.42960837483406067,-0.041665032505989075
1761467148272155400,3.8731552734375,-0.821089506149292,-0.4371483027935028,-0.006655382923781872
1761467148282138400,3.883138427734375,-0.8231489062309265,-0.4359257221221924,0.02872086502611637
1761467148292121000,3.89312109375,-0.8180963397026062,-0.4241689145565033,0.0542970672249794
1761467148302104300,3.903104248046875,-0.7997397184371948,-0.40835073590278625,0.05987303704023361
1761467148312086300,3.913086181640625,-0.7736734747886658,-0.42230063676834106,0.04781877249479294
1761467148322069200,3.9230693359375,-0.7471779584884644,-0.42183440923690796,0.0308854877948761
1761467148332052200,3.93305224609375,-0.7183215618133545,-0.420744925737381,0.022844873368740082
1761467148342035200,3.94303515625,-0.6842214465141296,-0.4318476617336273,0.023399822413921356
1761467148352018400,3.953018310546875,-0.657303512096405,-0.4426502585411072,0.028568752110004425
1761467148362001200,3.963001220703125,-0.625190258026123,-0.44964712858200073,0.03748805448412895
1761467148371984100,3.972984130859375,-0.5893784761428833,-0.46002280712127686,0.0510302297770977
1761467148381967400,3.98296728515625,-0.5587984323501587,-0.46448880434036255,0.05629220977425575
1761467148391950300,3.992950439453125,-0.530470609664917,-0.46473246812820435,0.04790591448545456
1761467148401931300,4.00293115234375,-0.5075023174285889,-0.45294275879859924,0.02844289503991604
1761467148411914200,4.012914306640625,-0.48190033435821533,-0.4433692395687103,-0.005411207675933838
1761467148421897200,4.022897216796875,-0.46313297748565674,-0.43358492851257324,-0.03019714169204235
1761467148431880200,4.032880126953125,-0.4485223889350891,-0.42364442348480225,-0.03115854412317276
1761467148441863400,4.042863525390625,-0.4389049708843231,-0.4174453616142273,-0.0185287743806839
1761467148451846400,4.052846435546875,-0.4413401782512665,-0.42085739970207214,0.014105867594480515
1761467148461828400,4.062828369140625,-0.4508914053440094,-0.43919801712036133,0.05404774844646454
1761467148471811300,4.072811279296875,-0.4792884290218353,-0.4499063193798065,0.10857038199901581
1761467148481794300,4.082794189453125,-0.5051898956298828,-0.46797090768814087,0.15708139538764954
1761467148491777300,4.09277734375,-0.5162550806999207,-0.47684961557388306,0.2153569757938385
1761467148501760300,4.10276025390625,-0.5271836519241333,-0.4702581465244293,0.2644819915294647
1761467148511743200,4.1127431640625,-0.5452265739440918,-0.4805123805999756,0.28330308198928833
1761467148521726500,4.1227265625,-0.572973906993866,-0.48457473516464233,0.286803275346756
1761467148531709200,4.132709228515625,-0.5829317569732666,-0.4544437527656555,0.270033597946167
1761467148541692200,4.142692138671875,-0.5769729614257812,-0.42144709825515747,0.22510114312171936
1761467148551675400,4.15267529296875,-0.5384460687637329,-0.37805649638175964,0.15838390588760376
1761467148561658400,4.162658447265625,-0.49927181005477905,-0.3782316744327545,0.08271156251430511
1761467148571640300,4.172640380859375,-0.46919751167297363,-0.34848496317863464,-0.0007833305280655622
1761467148581623300,4.182623291015625,-0.440159410238266,-0.3423231542110443,-0.06902278959751129
1761467148591606300,4.192606201171875,-0.4102742075920105,-0.3449591398239136,-0.1038723737001419
1761467148601589200,4.20258935546875,-0.3806999921798706,-0.3541730046272278,-0.09865434467792511
1761467148611572200,4.212572265625,-0.34393107891082764,-0.36121493577957153,-0.04443451762199402
1761467148621555500,4.222555419921875,-0.32624343037605286,-0.37712982296943665,0.0638447105884552
1761467148631538200,4.2325380859375,-0.3123164474964142,-0.41106224060058594,0.2076577991247177
1761467148641521200,4.242521240234375,-0.29742392897605896,-0.4301660656929016,0.34781980514526367
1761467148651504400,4.25250439453125,-0.283002108335495,-0.43338581919670105,0.45200881361961365
1761467148661487400,4.2624873046875,-0.2712949514389038,-0.4165164828300476,0.49207058548927307
1761467148671470000,4.272469970703125,-0.26597529649734497,-0.40514957904815674,0.4676203727722168
1761467148681452300,4.282452392578125,-0.2557133436203003,-0.3910677433013916,0.4034891128540039
1761467148691435300,4.292435302734375,-0.23691436648368835,-0.3851321041584015,0.32776397466659546
1761467148701418200,4.302418212890625,-0.23327504098415375,-0.24529512226581573,0.2177163064479828
1761467148711401200,4.312401123046875,-0.24285204708576202,-0.12152151018381119,0.0708022192120552
1761467148721384200,4.32238427734375,-0.22652585804462433,-0.17863357067108154,-0.019993452355265617
1761467148731367400,4.332367431640625,-0.2176751047372818,-0.26594477891921997,-0.02342972904443741
1761467148741350100,4.34235009765625,-0.2071041613817215,-0.2920231819152832,0.05312682315707207
1761467148751333000,4.3523330078125,-0.21414050459861755,-0.30213096737861633,0.1497654765844345
1761467148761316400,4.36231640625,-0.24765397608280182,-0.31070438027381897,0.212180495262146
1761467148771299300,4.37229931640625,-0.28715983033180237,-0.3170224726200104,0.22422277927398682
1761467148781282300,4.3822822265625,-0.325736403465271,-0.33974823355674744,0.19332164525985718
1761467148791260700,4.3922607421875,-0.35526686906814575,-0.37015432119369507,0.13778194785118103
1761467148801243600,4.40224365234375,-0.3841246962547302,-0.3907685875892639,0.07615741342306137
1761467148811226600,4.4122265625,-0.4000876843929291,-0.38524332642555237,0.02061106450855732
1761467148821209600,4.422209716796875,-0.40753644704818726,-0.3728030025959015,-0.01563812792301178
1761467148831192800,4.43219287109375,-0.4236608147621155,-0.3725462555885315,-0.0332845002412796
1761467148841175600,4.442175537109375,-0.4299720823764801,-0.36649006605148315,-0.03391624987125397
1761467148851158500,4.452158447265625,-0.4349215626716614,-0.35837727785110474,-0.03614211827516556
1761467148861141800,4.462141845703125,-0.4352084994316101,-0.3667868673801422,-0.035806190222501755
1761467148871124700,4.472124755859375,-0.44195616245269775,-0.38186436891555786,-0.04028615728020668
1761467148881107500,4.482107421875,-0.45176276564598083,-0.37944743037223816,-0.054812267422676086
1761467148891089700,4.492089599609375,-0.45990273356437683,-0.3645142912864685,-0.08492729067802429
1761467148901072600,4.50207275390625,-0.450520783662796,-0.344553679227829,-0.12579675018787384
1761467148911055600,4.5120556640625,-0.4200185239315033,-0.31375131011009216,-0.16794952750205994
1761467148921038600,4.52203857421875,-0.3880162239074707,-0.2817782461643219,-0.20555028319358826
1761467148931021600,4.532021484375,-0.36121442914009094,-0.264660507440567,-0.22056785225868225
1761467148941004800,4.5420048828125,-0.34842151403427124,-0.2585242986679077,-0.21668095886707306
1761467148950987500,4.551987548828125,-0.34240224957466125,-0.2553412914276123,-0.20242905616760254
1761467148960970800,4.561970703125,-0.3313295841217041,-0.2677517235279083,-0.18156591057777405
1761467148970953700,4.57195361328125,-0.32154032588005066,-0.2784211337566376,-0.17159956693649292
1761467148980936400,4.5819365234375,-0.30409497022628784,-0.28170377016067505,-0.16214372217655182
1761467148990920400,4.59192041015625,-0.29133257269859314,-0.28599411249160767,-0.16250059008598328
1761467149000903700,4.601903564453125,-0.28792378306388855,-0.28853198885917664,-0.16634343564510345
1761467149010886700,4.61188671875,-0.28624093532562256,-0.27470967173576355,-0.17501655220985413
1761467149020869600,4.62186962890625,-0.2860218286514282,-0.27232393622398376,-0.16803136467933655
1761467149030852600,4.6318525390625,-0.29623425006866455,-0.27117985486984253,-0.1629314124584198
1761467149040835600,4.641835693359375,-0.2938748002052307,-0.25542962551116943,-0.15683583915233612
1761467149050818600,4.651818603515625,-0.27324381470680237,-0.25223276019096375,-0.16662055253982544
1761467149060801800,4.6618017578125,-0.26385605335235596,-0.27376115322113037,-0.18360134959220886
1761467149070784500,4.671784423828125,-0.25838804244995117,-0.27669835090637207,-0.19280603528022766
1761467149080766700,4.6817666015625,-0.2436719834804535,-0.2680444121360779,-0.1948511302471161
1761467149090749700,4.691749755859375,-0.22519735991954803,-0.25767993927001953,-0.18987448513507843
1761467149100732700,4.701732666015625,-0.2082640826702118,-0.24942220747470856,-0.1764933317899704
1761467149110715600,4.711715576171875,-0.1915050745010376,-0.2414921075105667,-0.16526463627815247
1761467149120698600,4.72169873046875,-0.17209835350513458,-0.2298389971256256,-0.15224474668502808
1761467149130681900,4.731681884765625,-0.15302878618240356,-0.2036135196685791,-0.14226987957954407
1761467149140664600,4.74166455078125,-0.12731142342090607,-0.1802869737148285,-0.1397741585969925
1761467149150647600,4.7516474609375,-0.10596033185720444,-0.16664093732833862,-0.13895151019096375
1761467149160630800,4.761630859375,-0.08822920173406601,-0.1456891894340515,-0.139877587556839
1761467149170613500,4.771613525390625,-0.07046405225992203,-0.13288390636444092,-0.13670575618743896
1761467149180595700,4.781595703125,-0.052467286586761475,-0.11862379312515259,-0.13130784034729004
1761467149190578700,4.79157861328125,-0.03286189213395119,-0.10134733468294144,-0.11788631230592728
1761467149200561400,4.8015615234375,-0.014664284884929657,-0.08279436081647873,-0.10441945493221283
1761467149210544600,4.811544677734375,-0.007904917001724243,-0.07803529500961304,-0.09140085428953171
1761467149220527600,4.821527587890625,-0.012135693803429604,-0.07905977964401245,-0.08689393848180771
1761467149230510600,4.831510498046875,-0.019117968156933784,-0.07765921950340271,-0.08077318966388702
1761467149240493600,4.84149365234375,-0.023996463045477867,-0.07742547243833542,-0.07842300087213516
1761467149250476500,4.8514765625,-0.031813908368349075,-0.07852855324745178,-0.08073516190052032
1761467149260459800,4.861459716796875,-0.040099989622831345,-0.06382625550031662,-0.08281263709068298
1761467149270442800,4.87144287109375,-0.038303155452013016,-0.04082932695746422,-0.07396641373634338
1761467149280425500,4.881425537109375,-0.034879621118307114,-0.012801040895283222,-0.06326919049024582
1761467149290407700,4.89140771484375,-0.025335919111967087,0.017592817544937134,-0.04559218883514404
1761467149300390700,4.901390625,-0.005151515826582909,0.0553608164191246,-0.024092920124530792
1761467149310373600,4.91137353515625,0.011766746640205383,0.07141168415546417,-0.0008214192930608988
1761467149320356600,4.921356689453125,0.02212207391858101,0.0732414722442627,0.01619286835193634
1761467149330339600,4.931339599609375,0.026891794055700302,0.07513604313135147,0.03026288002729416
1761467149340322800,4.94132275390625,0.031227152794599533,0.07255873084068298,0.03397757187485695
1761467149350305500,4.951305419921875,0.035854924470186234,0.07427593320608139,0.0370095819234848
1761467149360288500,4.96128857421875,0.0451226681470871,0.0792621448636055,0.033342279493808746
1761467149370271700,4.971271728515625,0.05992664769291878,0.10133841633796692,0.026532575488090515
1761467149380254700,4.981254638671875,0.08140023797750473,0.12767617404460907,0.028900088742375374
1761467149390236700,4.991236572265625,0.1037505492568016,0.15464654564857483,0.041477933526039124
1761467149400219600,5.0012197265625,0.13064804673194885,0.17493775486946106,0.05979420244693756
1761467149410202600,5.01120263671875,0.15987198054790497,0.17953969538211823,0.08216209709644318
1761467149420185600,5.021185546875,0.18437117338180542,0.1784035712480545,0.08463317900896072
1761467149430168600,5.03116845703125,0.19972668588161469,0.15082122385501862,0.06969764083623886
1761467149440151800,5.04115185546875,0.19698607921600342,0.11635135859251022,0.052912674844264984
1761467149450134800,5.051134765625,0.18617631494998932,0.09881310909986496,0.04023309797048569
1761467149460117500,5.061117431640625,0.17470122873783112,0.09521868079900742,0.03326879069209099
1761467149470100700,5.071100830078125,0.17401918768882751,0.09396246075630188,0.042149100452661514
1761467149480083700,5.081083740234375,0.18365953862667084,0.11034364253282547,0.0491226390004158
1761467149490065700,5.091065673828125,0.19587412476539612,0.12937724590301514,0.03782045096158981
1761467149500048600,5.101048583984375,0.21094012260437012,0.14593134820461273,0.008554868400096893
1761467149510031600,5.111031494140625,0.23402972519397736,0.17234963178634644,-0.03146525099873543
1761467149520014600,5.1210146484375,0.25065889954566956,0.1889294981956482,-0.06772627681493759
1761467149529997600,5.13099755859375,0.2603807747364044,0.1988455057144165,-0.10311942547559738
1761467149539980500,5.14098046875,0.27126383781433105,0.18390122056007385,-0.12849369645118713
1761467149549963800,5.1509638671875,0.2651079297065735,0.17117850482463837,-0.13962091505527496
1761467149559946500,5.160946533203125,0.22916318476200104,0.14668837189674377,-0.1275807023048401
1761467149569929500,5.170929443359375,0.18762345612049103,0.12105065584182739,-0.08821891993284225
1761467149579912700,5.18091259765625,0.14677470922470093,0.10566487908363342,-0.022605713456869125
1761467149589894700,5.190894775390625,0.09421669691801071,0.1277608573436737,0.06106708198785782
1761467149599877600,5.200877685546875,0.05146306753158569,0.15129722654819489,0.15829125046730042
1761467149609860600,5.210860595703125,0.01745343767106533,0.17171941697597504,0.25608548521995544
1761467149619843800,5.22084375,-0.0028167199343442917,0.19007007777690887,0.3428295850753784
1761467149629826600,5.23082666015625,-0.007269259542226791,0.19082827866077423,0.3757545053958893
1761467149639809500,5.2408095703125,-0.003252855036407709,0.1883753091096878,0.3932301700115204
1761467149649792800,5.250792724609375,0.014723747968673706,0.16666282713413239,0.40150752663612366
1761467149659775700,5.260775634765625,0.045931003987789154,0.11812365055084229,0.3926776945590973
1761467149669758500,5.270758544921875,0.07775258272886276,0.0853598415851593,0.36548417806625366
1761467149679740700,5.28074072265625,0.10543432086706161,0.0560513436794281,0.3372417390346527
1761467149689723600,5.2907236328125,0.13350322842597961,0.029054610058665276,0.3135973811149597
1761467149699706600,5.30070654296875,0.16404098272323608,0.010200278833508492,0.2957124412059784
1761467149709689600,5.310689697265625,0.19468490779399872,-0.0019330834038555622,0.28233885765075684
1761467149719672600,5.320672607421875,0.21485492587089539,-0.011291597969830036,0.2649509608745575
1761467149729655800,5.33065576171875,0.22764715552330017,-0.017226984724402428,0.24162355065345764
1761467149739638500,5.340638427734375,0.23394350707530975,-0.018952898681163788,0.2194727510213852
1761467149749621500,5.35062158203125,0.23403087258338928,-0.012911517173051834,0.19843484461307526
1761467149759604700,5.360604736328125,0.22779123485088348,-0.0033164776396006346,0.184439018368721
1761467149769587700,5.370587646484375,0.21800491213798523,0.010801471769809723,0.18226933479309082
1761467149779569700,5.380569580078125,0.21898184716701508,0.04043824225664139,0.18683351576328278
1761467149789553400,5.390553466796875,0.22256138920783997,0.055825721472501755,0.1826464980840683
1761467149799536400,5.400536376953125,0.22763818502426147,0.05255197733640671,0.16930285096168518
1761467149809519600,5.41051953125,0.22981823980808258,0.0504656545817852,0.13677790760993958
1761467149819502600,5.420502685546875,0.2335951328277588,0.04338013380765915,0.08857934921979904
1761467149829485300,5.4304853515625,0.23801225423812866,0.025303129106760025,0.0362895131111145
1761467149839468500,5.440468505859375,0.2347782999277115,0.011426763609051704,-0.014395446516573429
1761467149849451500,5.450451416015625,0.22955690324306488,0.0075207059271633625,-0.05064133554697037
1761467149859434500,5.4604345703125,0.2209063172340393,0.006319551728665829,-0.08277222514152527
1761467149869417500,5.47041748046875,0.21397623419761658,0.03519221395254135,-0.11307527124881744
1761467149879399400,5.4803994140625,0.21877817809581757,0.05267949402332306,-0.14525268971920013
1761467149889382700,5.490382568359375,0.23335978388786316,0.06272733956575394,-0.17898774147033691
1761467149899365400,5.500365478515625,0.25393757224082947,0.06347228586673737,-0.2041277438402176
1761467149909348600,5.5103486328125,0.2769009470939636,0.04829386994242668,-0.2143276482820511
1761467149919331600,5.52033154296875,0.2750212550163269,0.030844639986753464,-0.22687481343746185
1761467149929314600,5.530314453125,0.25913017988204956,0.0222703255712986,-0.23589786887168884
1761467149939297500,5.540297607421875,0.22854167222976685,0.01045229472219944,-0.24527132511138916
1761467149949280500,5.550280517578125,0.19219964742660522,-0.005635594949126244,-0.24731796979904175
1761467149959263500,5.560263427734375,0.15803389251232147,0.012968773022294044,-0.2380552440881729
1761467149969245400,5.570245361328125,0.11949874460697174,0.03594439476728439,-0.2106851488351822
1761467149979228400,5.580228515625,0.09530951827764511,0.05756135284900665,-0.1738644242286682
1761467149989211600,5.590211669921875,0.06956739723682404,0.08988387137651443,-0.12799839675426483
1761467149999194600,5.600194580078125,0.06408707052469254,0.12455844134092331,-0.0877586305141449
1761467150009177300,5.61017724609375,0.06769485771656036,0.15217410027980804,-0.04936862736940384
1761467150019160600,5.62016064453125,0.06185123324394226,0.19127285480499268,-0.001878232229501009
1761467150029143600,5.6301435546875,0.06058463454246521,0.19397063553333282,0.03376151993870735
1761467150039126500,5.64012646484375,0.05859370157122612,0.1629999876022339,0.05040200427174568
1761467150049109500,5.650109619140625,0.07243041694164276,0.1314079612493515,0.009380802512168884
1761467150059092500,5.660092529296875,0.07296425104141235,0.12029200792312622,0.0012040156871080399
1761467150069074700,5.67007470703125,0.072708860039711,0.0668141320347786,0.01327053178101778
1761467150079057400,5.680057373046875,0.07761634141206741,-0.0066672200337052345,0.02185208909213543
1761467150089040600,5.69004052734375,0.0749925896525383,-0.0581652969121933,0.006722405552864075
1761467150099023600,5.700023681640625,0.06615284830331802,-0.10475901514291763,-0.03771527111530304
1761467150109006300,5.71000634765625,0.04205629602074623,-0.13401277363300323,-0.10675878822803497
1761467150118989600,5.719989501953125,0.02847851812839508,-0.13918572664260864,-0.17414401471614838
1761467150128972500,5.72997265625,-0.01388784684240818,-0.0461343452334404,-0.19077199697494507
1761467150138955500,5.73995556640625,-0.02658872678875923,0.000013440847396850586,-0.20847375690937042
1761467150148938500,5.7499384765625,0.012119518592953682,-0.004955751355737448,-0.24526984989643097
1761467150158920400,5.75992041015625,0.0726834386587143,-0.015584820881485939,-0.3126605749130249
1761467150168903700,5.769903564453125,0.11124228686094284,-0.014337129890918732,-0.36305317282676697
1761467150178886400,5.779886474609375,0.13014626502990723,-0.01078836154192686,-0.390934556722641
1761467150188869400,5.789869384765625,0.13793015480041504,-0.009056507609784603,-0.4009493887424469
1761467150198852600,5.7998525390625,0.14776408672332764,-0.01319332979619503,-0.3919784426689148
1761467150208835600,5.809835693359375,0.12223262339830399,-0.03372017666697502,-0.374184250831604
1761467150218818300,5.819818359375,0.10012461990118027,-0.07199931889772415,-0.32974910736083984
1761467150228801500,5.829801513671875,0.05886825919151306,-0.11068333685398102,-0.2754104733467102
1761467150238784500,5.839784423828125,-0.004896283615380526,-0.1547858566045761,-0.21005477011203766
1761467150248766500,5.849766357421875,-0.06994558870792389,-0.19013185799121857,-0.15053685009479523
1761467150258749400,5.85974951171875,-0.13917359709739685,-0.2354014664888382,-0.10489117354154587
1761467150268732700,5.869732666015625,-0.1983969807624817,-0.27982619404792786,-0.07281233370304108
1761467150278715600,5.879715576171875,-0.2444590926170349,-0.32455500960350037,-0.04606854170560837
1761467150288698400,5.889698486328125,-0.2805377244949341,-0.3670377731323242,-0.04806777462363243
1761467150298681600,5.899681640625,-0.3343445658683777,-0.4576098620891571,-0.05638286843895912
1761467150308664600,5.90966455078125,-0.35416379570961,-0.5268720388412476,-0.07851346582174301
1761467150318647600,5.9196474609375,-0.32730621099472046,-0.5234127640724182,-0.11438720673322678
1761467150328630500,5.929630615234375,-0.27258065342903137,-0.5122544169425964,-0.14321379363536835
1761467150338613500,5.939613525390625,-0.24201473593711853,-0.5101959109306335,-0.18426531553268433
1761467150348595700,5.949595703125,-0.23041214048862457,-0.5165091753005981,-0.20809341967105865
1761467150358578400,5.959578369140625,-0.20710910856723785,-0.4904918074607849,-0.2067081481218338
1761467150368561400,5.9695615234375,-0.20686835050582886,-0.43963688611984253,-0.20991486310958862
1761467150378544600,5.979544677734375,-0.20698246359825134,-0.39049607515335083,-0.21644604206085205
1761467150388527600,5.989527587890625,-0.21226191520690918,-0.33688345551490784,-0.23089581727981567
1761467150398510300,5.99951025390625,-0.18591032922267914,-0.27614498138427734,-0.25781896710395813
1761467150408493600,6.00949365234375,-0.12242350727319717,-0.21538710594177246,-0.3251889646053314
1761467150418476500,6.0194765625,-0.040861740708351135,-0.18141427636146545,-0.42382749915122986
1761467150428459500,6.02945947265625,0.03665941581130028,-0.17135578393936157,-0.5156394839286804
1761467150438441500,6.03944140625,0.08136078715324402,-0.19125749170780182,-0.5823367834091187
1761467150448424700,6.0494248046875,0.09397725015878677,-0.23029623925685883,-0.60092693567276
1761467150458407400,6.059407470703125,0.08653721213340759,-0.28406190872192383,-0.5778235197067261
1761467150468390400,6.069390380859375,0.07991392910480499,-0.374680757522583,-0.5378228425979614
1761467150478373600,6.07937353515625,0.05932926386594772,-0.39797917008399963,-0.4845184087753296
1761467150488356600,6.089356689453125,0.07065355777740479,-0.3539118468761444,-0.3605125844478607
1761467150498339300,6.09933935546875,0.10472684353590012,-0.3028028607368469,-0.21153347194194794
1761467150508322600,6.109322509765625,0.14619038999080658,-0.2113850712776184,-0.07676659524440765
1761467150518305500,6.119305419921875,0.17481938004493713,-0.1328231543302536,0.019208135083317757
1761467150528287500,6.12928759765625,0.1915711909532547,-0.07984701544046402,0.06961751729249954
1761467150538270500,6.1392705078125,0.1971430480480194,-0.07568243891000748,0.09024830907583237
1761467150548253400,6.14925341796875,0.1873364895582199,-0.058701325207948685,0.09129119664430618
1761467150558236700,6.159236572265625,0.14913929998874664,0.05687681958079338,0.10074971616268158
1761467150568219400,6.169219482421875,0.12761084735393524,0.14185403287410736,0.10541637241840363
1761467150578202400,6.179202392578125,0.1559543013572693,0.1717451512813568,0.1374630331993103
1761467150588185600,6.189185546875,0.19465401768684387,0.183405801653862,0.15530142188072205
1761467150598168600,6.19916845703125,0.20443201065063477,0.1818576604127884,0.13664911687374115
1761467150608151600,6.209151611328125,0.20159681141376495,0.18107709288597107,0.1117544174194336
1761467150618133500,6.219133544921875,0.21810518205165863,0.16719570755958557,0.11430923640727997
1761467150628116500,6.229116455078125,0.19769099354743958,0.14574633538722992,0.1373106837272644
1761467150638099500,6.239099365234375,0.1930978149175644,0.11364752054214478,0.1512051373720169
1761467150648082400,6.24908251953125,0.20301489531993866,0.15390412509441376,0.15469680726528168
1761467150658065700,6.259065673828125,0.21151785552501678,0.3051908314228058,0.14847466349601746
1761467150668048600,6.269048583984375,0.23212246596813202,0.4865904450416565,0.1253373920917511
1761467150678031400,6.27903125,0.2743711471557617,0.5865576267242432,0.11862792074680328
1761467150688014600,6.2890146484375,0.32058417797088623,0.7250420451164246,0.1259865164756775
1761467150697997600,6.29899755859375,0.3426087200641632,0.7572206258773804,0.14050161838531494
1761467150707979500,6.3089794921875,0.3202373683452606,0.7604177594184875,0.19483676552772522
1761467150717962500,6.31896240234375,0.2327534407377243,0.8889064788818359,0.38848066329956055
1761467150727945500,6.328945556640625,0.19562338292598724,1.0864152908325195,0.7170351147651672
1761467150737928700,6.3389287109375,0.2647268772125244,1.014909029006958,0.9941019415855408
1761467150747911400,6.348911376953125,0.42584705352783203,1.064072608947754,1.1642731428146362
1761467150757894400,6.358894287109375,0.6135366559028625,1.271386981010437,1.2489761114120483
1761467150767877600,6.368877685546875,0.8018192052841187,1.6202887296676636,1.2607523202896118
1761467150777860400,6.3788603515625,0.9858564138412476,1.974530577659607,1.2241116762161255
1761467150787843600,6.388843505859375,1.1473067998886108,2.2602193355560303,1.1435062885284424
1761467150797825500,6.398825439453125,1.2697542905807495,2.4857256412506104,1.05757737159729
1761467150807808500,6.40880859375,1.327487587928772,2.4484639167785645,0.9226595163345337
1761467150817791700,6.418791748046875,1.3207112550735474,1.735410213470459,0.5594149827957153
1761467150827774500,6.4287744140625,1.233254075050354,0.9466355443000793,0.060765527188777924
1761467150837757700,6.4387578125,1.0383027791976929,0.638805091381073,-0.3511856198310852
1761467150847740700,6.44874072265625,0.8263788819313049,0.6622041463851929,-0.7049282789230347
1761467150857723600,6.4587236328125,0.6860858201980591,0.8740421533584595,-1.0167559385299683
1761467150867706600,6.46870654296875,0.6345251798629761,1.1200183629989624,-1.2950557470321655
1761467150877688600,6.4786884765625,0.6184923648834229,1.317230224609375,-1.526210069656372
1761467150887671800,6.488671875,0.6332127451896667,1.3700060844421387,-1.6665250062942505
1761467150897654500,6.498654541015625,0.7288930416107178,1.159432291984558,-1.6708691120147705
1761467150907637500,6.508637451171875,0.7211846113204956,0.9237848520278931,-1.505684733390808
1761467150917620700,6.518620849609375,0.6150764226913452,0.768892228603363,-1.2658252716064453
1761467150927603700,6.528603759765625,0.490041583776474,0.6518966555595398,-1.0522855520248413
1761467150937586400,6.53858642578125,0.3647748827934265,0.45593029260635376,-0.9180077314376831
1761467150947569700,6.548569580078125,0.2802637219429016,0.3071650266647339,-0.8417124152183533
1761467150957552600,6.558552734375,0.2632572054862976,0.35164177417755127,-0.7957111597061157
1761467150967534600,6.56853466796875,0.26644235849380493,0.4693055748939514,-0.7128868699073792
1761467150977517600,6.578517578125,0.26596060395240784,0.5654513239860535,-0.6304617524147034
1761467150987500500,6.58850048828125,0.2713484466075897,0.632522463798523,-0.5903313755989075
1761467150997483800,6.59848388671875,0.3051786720752716,0.8471828103065491,-0.6139459609985352
1761467151007466500,6.608466552734375,0.327712744474411,1.140692949295044,-0.7113350629806519
1761467151017449700,6.61844970703125,0.3539596498012543,1.4807616472244263,-0.8146638870239258
1761467151027432700,6.6284326171875,0.4397920072078705,1.593852162361145,-0.8865892291069031
1761467151037415700,6.638415771484375,0.5034315586090088,1.6874685287475586,-1.0096420049667358
1761467151047398700,6.648398681640625,0.5132051110267639,1.6772888898849487,-1.1413183212280273
1761467151057380600,6.658380615234375,0.3627587556838989,1.5527712106704712,-1.2157200574874878
1761467151067363800,6.66836376953125,0.19435831904411316,1.5623998641967773,-1.321569561958313
1761467151077346600,6.6783466796875,0.1623120903968811,1.5495965480804443,-1.3805789947509766
1761467151087329500,6.68832958984375,0.225321426987648,1.5354915857315063,-1.3542249202728271
1761467151097312800,6.698312744140625,0.3208897113800049,1.4173095226287842,-1.250848412513733
1761467151107295700,6.708295654296875,0.4406169354915619,1.2313963174819946,-1.094740867614746
1761467151117278500,6.718278564453125,0.5783005952835083,0.9860456585884094,-0.9527038335800171
1761467151127261700,6.72826171875,0.704384446144104,0.7190132141113281,-0.8647952675819397
1761467151137244700,6.73824462890625,0.8139910697937012,0.5240429639816284,-0.8140328526496887
1761467151147226600,6.7482265625,0.8693893551826477,0.4111451506614685,-0.7814376354217529
1761467151157209600,6.758209716796875,0.8831421732902527,0.43970584869384766,-0.7498070597648621
1761467151167192600,6.768192626953125,0.8635045289993286,0.5599151253700256,-0.7535647749900818
1761467151177175600,6.778175537109375,0.8317884802818298,0.6384409070014954,-0.8312815427780151
1761467151187158500,6.788158447265625,0.7910729646682739,0.720884382724762,-0.9300054907798767
1761467151197141800,6.798141845703125,0.8046796321868896,0.7880169153213501,-1.0403558015823364
1761467151207124700,6.808124755859375,0.8346103429794312,0.7901453375816345,-1.115303874015808
1761467151217107500,6.818107421875,0.7516704201698303,0.6456856727600098,-1.155924916267395
1761467151227090700,6.828090576171875,0.617659330368042,0.41338932514190674,-1.1526196002960205
1761467151237072600,6.83807275390625,0.513463020324707,0.12117642164230347,-1.130068063735962
1761467151247055600,6.8480556640625,0.4448120594024658,-0.06703290343284607,-1.0722111463546753
1761467151257038600,6.85803857421875,0.3654918670654297,-0.26179778575897217,-0.8531845211982727
1761467151267021600,6.868021484375,0.31490859389305115,-0.5039821863174438,-0.49840834736824036
1761467151277004800,6.8780048828125,0.29142385721206665,-0.5045667886734009,-0.3165575861930847
1761467151286987500,6.887987548828125,0.29680317640304565,-0.49701645970344543,-0.2254825234413147
1761467151296970500,6.897970458984375,0.33637306094169617,-0.4382551610469818,-0.24731332063674927
1761467151306953700,6.90795361328125,0.43395206332206726,-0.2250845730304718,-0.24182800948619843
1761467151316936700,6.917936767578125,0.45225989818573,-0.11574393510818481,-0.23019951581954956
1761467151326918700,6.927918701171875,0.23771724104881287,-0.2186785638332367,-0.24660059809684753
1761467151336901600,6.937901611328125,-0.0703868567943573,-0.3365930914878845,-0.30620819330215454
1761467151346884600,6.947884521484375,-0.3703711926937103,-0.3564149737358093,-0.4132091999053955
1761467151356867600,6.95786767578125,-0.6086185574531555,-0.37397193908691406,-0.5752917528152466
1761467151366850600,6.9678505859375,-0.7266134023666382,-0.48950761556625366,-0.7049086093902588
1761467151376833800,6.977833740234375,-0.7287625074386597,-0.5968892574310303,-0.6944472789764404
1761467151386816800,6.987816650390625,-0.6565764546394348,-0.6538814306259155,-0.6053624153137207
1761467151396799500,6.997799560546875,-0.48620903491973877,-0.5746740698814392,-0.4324721693992615
1761467151406781700,7.00778173828125,-0.33880600333213806,-0.5985924601554871,-0.26672980189323425
1761467151416764700,7.0177646484375,-0.23406203091144562,-0.5586647987365723,-0.09523854404687881
1761467151426747600,7.02774755859375,-0.19095291197299957,-0.48034197092056274,0.05252721160650253
1761467151436730600,7.037730712890625,-0.18155993521213531,-0.4582623243331909,0.1071501299738884
1761467151446713600,7.047713623046875,-0.21326778829097748,-0.3549809455871582,0.08510953933000565
1761467151456696800,7.05769677734375,-0.28052473068237305,-0.19372184574604034,0.010665293782949448
1761467151466679600,7.067679443359375,-0.3735683858394623,-0.06772343814373016,-0.13658034801483154
1761467151476662500,7.07766259765625,-0.4487634599208832,-0.07993066310882568,-0.35128724575042725
1761467151486645800,7.087645751953125,-0.464764803647995,0.03296073153614998,-0.6129878163337708
1761467151496627500,7.09762744140625,-0.4142823815345764,0.22831809520721436,-0.8649040460586548
1761467151506610700,7.107610595703125,-0.31516194343566895,0.4470733404159546,-0.9938229322433472
1761467151516593700,7.11759375,-0.18752363324165344,0.6196146011352539,-0.9724889397621155
1761467151526576600,7.12757666015625,-0.052968211472034454,0.6784718036651611,-0.8985816836357117
1761467151536559600,7.1375595703125,-0.027336135506629944,0.6876466274261475,-0.8916568160057068
1761467151546542600,7.14754248046875,-0.12345600128173828,0.6446983814239502,-0.9257564544677734
1761467151556525800,7.15752587890625,-0.28683218359947205,0.6302322149276733,-0.998707115650177
1761467151566508500,7.167508544921875,-0.41457149386405945,0.7404682040214539,-1.082297921180725
1761467151576491500,7.177491455078125,-0.4357903301715851,0.9623317718505859,-1.1793317794799805
1761467151586473700,7.1874736328125,-0.3881996273994446,1.0472521781921387,-1.223443865776062
1761467151596456400,7.19745654296875,-0.30044397711753845,0.9695224165916443,-1.1598237752914429
1761467151606439700,7.207439697265625,-0.17864695191383362,0.8009563088417053,-1.0453853607177734
1761467151616422700,7.217422607421875,-0.04027964919805527,0.5575819611549377,-0.9333981275558472
1761467151626405600,7.227405517578125,0.09866651892662048,0.3008343577384949,-0.8455031514167786
1761467151636388600,7.237388671875,0.23871545493602753,0.055076055228710175,-0.7729243636131287
1761467151646371600,7.24737158203125,0.3444354832172394,-0.13054440915584564,-0.728300154209137
1761467151656354600,7.2573544921875,0.36927539110183716,-0.26215192675590515,-0.7422369718551636
1761467151666336500,7.26733642578125,0.3205379545688629,-0.32172098755836487,-0.7500905990600586
1761467151676319500,7.277319580078125,0.21537020802497864,-0.28536149859428406,-0.750039279460907
1761467151686302700,7.287302734375,0.1310769021511078,-0.21107660233974457,-0.7565011978149414
1761467151696285700,7.29728564453125,0.10654743015766144,-0.12865391373634338,-0.7680507898330688
1761467151706268700,7.3072685546875,0.0927107110619545,-0.06305228173732758,-0.7997053861618042
1761467151716251600,7.317251708984375,0.06539199501276016,0.01969127170741558,-0.8260642290115356
1761467151726234600,7.327234619140625,0.0006505493074655533,0.09435965120792389,-0.8240588307380676
1761467151736217900,7.3372177734375,-0.08238691091537476,0.23404599726200104,-0.8492907881736755
1761467151746200600,7.34720068359375,-0.16115203499794006,0.48823991417884827,-0.890574038028717
1761467151756182800,7.357182861328125,-0.18572285771369934,0.7179993391036987,-0.9155579209327698
1761467151766165800,7.367165771484375,-0.11734593659639359,0.8713457584381104,-0.9657089710235596
1761467151776148500,7.3771484375,-0.03230198100209236,0.9384927749633789,-0.9745289087295532
1761467151786131000,7.387130859375,-0.038943108171224594,0.994068443775177,-0.9106413125991821
1761467151796114000,7.397114013671875,-0.06471291184425354,1.0058867931365967,-0.7870490550994873
1761467151806097200,7.40709716796875,-0.07821647077798843,1.0137203931808472,-0.6654509902000427
1761467151816080000,7.417079833984375,-0.02832578495144844,1.1100190877914429,-0.5424535274505615
1761467151826062800,7.427062744140625,0.11966181546449661,1.3783400058746338,-0.41936758160591125
1761467151836045000,7.437045166015625,0.1494309902191162,1.3925063610076904,-0.377855122089386
1761467151846027800,7.44702783203125,0.10751789063215256,1.231622338294983,-0.4140714406967163
1761467151856011000,7.457010986328125,0.15807601809501648,1.2278122901916504,-0.4297003149986267
1761467151865994000,7.466993896484375,0.17999596893787384,1.2797929048538208,-0.46348756551742554
1761467151875977000,7.47697705078125,0.22338154911994934,1.3636201620101929,-0.49270084500312805
1761467151885960000,7.4869599609375,0.24281516671180725,1.401890516281128,-0.5267059206962585
1761467151895943000,7.49694287109375,0.24001649022102356,1.3777880668640137,-0.5181277990341187
1761467151905926000,7.50692578125,0.1790255755186081,1.228318691253662,-0.5121063590049744
1761467151915907800,7.516907958984375,0.09651333093643188,1.2035996913909912,-0.47880327701568604
1761467151925890800,7.526890869140625,0.061914604157209396,1.3872123956680298,-0.41732606291770935
1761467151935874000,7.5368740234375,0.05865682661533356,1.5992683172225952,-0.3492565453052521
1761467151945857000,7.54685693359375,0.0554831400513649,1.9239158630371094,-0.34391850233078003
1761467151955840000,7.556840087890625,0.03103814274072647,2.092726230621338,-0.2904222905635834
1761467151965823000,7.566822998046875,0.04829888418316841,2.2523133754730225,-0.24774831533432007
1761467151975806000,7.576805908203125,0.11109121888875961,2.415888547897339,-0.22556713223457336
1761467151985789000,7.586788818359375,0.18917590379714966,2.4214086532592773,-0.18802934885025024
1761467151995772000,7.59677197265625,0.2468051165342331,2.238417625427246,-0.2111450582742691
1761467152005754000,7.606754150390625,0.3620888292789459,2.1675069332122803,-0.2755346894264221
1761467152015736800,7.61673681640625,0.3957812786102295,1.6409876346588135,-0.3604259788990021
1761467152025719800,7.6267197265625,0.41970980167388916,1.2336840629577637,-0.40044716000556946
1761467152035703000,7.636703125,0.5154072642326355,1.1156795024871826,-0.3633427917957306
1761467152045686000,7.64668603515625,0.6728837490081787,1.278896450996399,-0.26873958110809326
1761467152055668700,7.656668701171875,0.8016747236251831,1.513624906539917,-0.18493030965328217
1761467152065652000,7.66665185546875,0.8217294216156006,1.8006558418273926,-0.0772981196641922
1761467152075635000,7.676635009765625,0.7547129392623901,2.168398141860962,0.06739811599254608
1761467152085617000,7.686616943359375,0.7134430408477783,2.419539213180542,0.10525655001401901
1761467152095599900,7.696599853515625,0.6258179545402527,2.458160400390625,0.007637578994035721
1761467152105582800,7.706582763671875,0.42182809114456177,2.2456552982330322,-0.09787233173847198
1761467152115566000,7.716566162109375,0.27041035890579224,1.7694443464279175,-0.13417279720306396
1761467152125548800,7.726548828125,0.1667923480272293,1.3290380239486694,-0.11949744075536728
1761467152135531800,7.73653173828125,0.10127515345811844,1.0037378072738647,-0.11047191172838211
1761467152145515000,7.746514892578125,0.05097229406237602,0.7975607514381409,-0.13686597347259521
1761467152155498000,7.756498046875,-0.11077076196670532,0.7015838027000427,-0.17539024353027344
1761467152165480000,7.76647998046875,-0.23086334764957428,0.6369861364364624,-0.27377673983573914
1761467152175463000,7.776462890625,-0.3015817105770111,0.625592827796936,-0.342307984828949
1761467152185446100,7.786446044921875,-0.3683319687843323,0.6504936814308167,-0.35505253076553345
1761467152195428900,7.796428955078125,-0.39692389965057373,0.6322305202484131,-0.3542853891849518
1761467152205411800,7.806411865234375,-0.3837577700614929,0.5517542958259583,-0.3513391315937042
1761467152215395000,7.81639501953125,-0.35786694288253784,0.4448578357696533,-0.2929382622241974
1761467152225378000,7.8263779296875,-0.2998475730419159,0.3969864547252655,-0.211745947599411
1761467152235360800,7.83636083984375,-0.1697797179222107,0.39233073592185974,-0.12501245737075806
1761467152245344000,7.846343994140625,-0.15373602509498596,0.371391624212265,-0.09596322476863861
1761467152255326000,7.856325927734375,-0.15678837895393372,0.3129621148109436,-0.09471353143453598
1761467152265309000,7.866308837890625,-0.09623980522155762,0.25366654992103577,-0.12884993851184845
1761467152275292000,7.8762919921875,-0.03861407935619354,-0.21134206652641296,-0.15656745433807373
1761467152285275000,7.88627490234375,0.06847535818815231,-0.3527364730834961,-0.08813726902008057
1761467152295258000,7.896258056640625,0.12080315500497818,-0.24441543221473694,-0.1384875625371933
1761467152305240800,7.90624072265625,0.1039368212223053,-0.3352542519569397,-0.16847555339336395
1761467152315223800,7.916223876953125,0.1789492517709732,-0.28734585642814636,-0.13382762670516968
1761467152325207000,7.92620703125,0.2076171189546585,-0.3137763738632202,-0.1847246289253235
1761467152335189000,7.93618896484375,0.22246769070625305,-0.3433868885040283,-0.26198747754096985
1761467152345172000,7.946171875,0.22232946753501892,-0.4723280966281891,-0.4091050326824188
1761467152355155000,7.956155029296875,0.2900600731372833,-0.5809355974197388,-0.519540548324585
1761467152365138000,7.966137939453125,0.4390751123428345,-0.8066946864128113,-0.6049023270606995
1761467152375121000,7.976120849609375,0.45010095834732056,-0.8912112712860107,-0.580615758895874
1761467152385104000,7.986103759765625,0.4014876186847687,-0.8046401739120483,-0.5469446182250977
1761467152395087000,7.996087158203125,0.3191826641559601,-0.8116254210472107,-0.6100229620933533
1761467152405068000,8.006068115234376,0.23852378129959106,-0.8449918627738953,-0.7350677251815796
1761467152415051000,8.016051025390626,0.1742141842842102,-0.9229127764701843,-0.8961687088012695
1761467152425034000,8.026033935546875,0.1534537822008133,-0.9530381560325623,-1.0084513425827026
1761467152435016000,8.036015869140625,0.10252326726913452,-0.7649685740470886,-0.942039966583252
1761467152444999000,8.0459990234375,0.008656425401568413,-0.47164908051490784,-0.6663756370544434
1761467152454982100,8.055982177734375,-0.08327463269233704,-0.2987423241138458,-0.35512804985046387
1761467152464964900,8.06596484375,-0.15236981213092804,-0.07014989107847214,-0.06443071365356445
1761467152474947800,8.07594775390625,-0.2716461718082428,0.14565911889076233,0.1694064736366272
1761467152484931000,8.08593115234375,-0.34318292140960693,0.24873198568820953,0.2981599271297455
1761467152494913800,8.095913818359374,-0.351609468460083,0.3308189809322357,0.3579537868499756
1761467152504896800,8.105896728515624,-0.36396172642707825,0.41465315222740173,0.38383039832115173
1761467152514879000,8.11587890625,-0.3253198564052582,0.4634832441806793,0.3682042360305786
1761467152524862000,8.125862060546876,-0.25533756613731384,0.5067178010940552,0.3235433101654053
1761467152534845000,8.135844970703126,-0.1999654918909073,0.4958730638027191,0.28804245591163635
1761467152544828000,8.145827880859375,-0.1431267112493515,0.31999844312667847,0.26018550992012024
1761467152554811000,8.155810791015625,-0.09122655540704727,0.040445536375045776,0.277214914560318
1761467152564793900,8.1657939453125,-0.0283940639346838,-0.3328404128551483,0.30621621012687683
1761467152574776800,8.17577685546875,0.00943686906248331,-0.616298496723175,0.37893393635749817
1761467152584760000,8.185760009765625,0.01370884571224451,-0.706186056137085,0.44945311546325684
1761467152594743000,8.195742919921875,-0.01755647361278534,-0.6367039084434509,0.49718356132507324
1761467152604725000,8.20572509765625,-0.07693963497877121,-0.4950789213180542,0.5128735899925232
1761467152614708000,8.2157080078125,-0.12683165073394775,-0.34078556299209595,0.48881906270980835
1761467152624691000,8.22569091796875,-0.15786093473434448,-0.22924411296844482,0.43611830472946167
1761467152634674000,8.235673828125,-0.17041313648223877,-0.15611980855464935,0.3651774227619171
1761467152644657000,8.245656982421876,-0.19371473789215088,-0.1548958271741867,0.28801417350769043
1761467152654639900,8.255639892578126,-0.21068604290485382,-0.24782896041870117,0.2324981391429901
1761467152664623000,8.265623046875,-0.2136128544807434,-0.3460010886192322,0.23823831975460052
1761467152674605800,8.275605712890625,-0.19581438601016998,-0.3859792947769165,0.2865588963031769
1761467152684588000,8.285588134765625,-0.17065683007240295,-0.41993194818496704,0.3318736255168915
1761467152694571000,8.295571044921875,-0.1281956285238266,-0.5005573034286499,0.36057406663894653
1761467152704553700,8.3055537109375,-0.08878511190414429,-0.5902669429779053,0.37157344818115234
1761467152714537000,8.315536865234375,-0.054040051996707916,-0.6539004445075989,0.3566723167896271
1761467152724520000,8.32552001953125,-0.03528394177556038,-0.6687321066856384,0.30059707164764404
1761467152734503000,8.3355029296875,-0.024598605930805206,-0.6104557514190674,0.21557630598545074
1761467152744486000,8.34548583984375,-0.022650770843029022,-0.5289906859397888,0.13071946799755096
1761467152754467800,8.3554677734375,-0.041070353239774704,-0.4527502954006195,0.07756371051073074
1761467152764451000,8.365451171875,-0.06839864701032639,-0.3647834062576294,0.06469052284955978
1761467152774433800,8.375433837890625,-0.10067790001630783,-0.2779684364795685,0.07581789791584015
1761467152784417000,8.3854169921875,-0.11925558745861053,-0.19283226132392883,0.08997979015111923
1761467152794400300,8.395400146484375,-0.11381113529205322,-0.12258782237768173,0.09853184223175049
1761467152804383200,8.40538330078125,-0.08822907507419586,-0.047628890722990036,0.08495292067527771
1761467152814366500,8.415366455078125,-0.06883497536182404,-0.0001865134108811617,0.058979105204343796
1761467152824349200,8.42534912109375,-0.06100182235240936,0.02407941222190857,0.04673175886273384
1761467152834331400,8.435331298828125,-0.06460339576005936,0.036887869238853455,0.05071338638663292
1761467152844314400,8.445314453125,-0.08586101233959198,0.042839765548706055,0.06595705449581146
1761467152854297000,8.455297119140624,-0.11409808695316315,0.03900124132633209,0.07178541272878647
1761467152864280300,8.4652802734375,-0.15999393165111542,0.00023467070423066616,0.05928000807762146
1761467152874263300,8.47526318359375,-0.20146608352661133,-0.05827594920992851,0.048481859266757965
1761467152884246300,8.485246337890626,-0.2219655066728592,-0.09040246158838272,0.05448329076170921
1761467152894229200,8.495229248046876,-0.24396036565303802,-0.11943569779396057,0.06610778719186783
1761467152904212200,8.505212158203125,-0.24542857706546783,-0.12265945225954056,0.08601970970630646
1761467152914194400,8.5151943359375,-0.25578346848487854,-0.11504022032022476,0.09162881970405579
1761467152924177200,8.52517724609375,-0.25857338309288025,-0.0923900380730629,0.08790998160839081
1761467152934160100,8.53516015625,-0.25702038407325745,-0.07536900043487549,0.07562162727117538
1761467152944143400,8.545143310546875,-0.2562139630317688,-0.09355173259973526,0.054018329828977585
1761467152954126300,8.555126220703125,-0.2515527009963989,-0.1339448094367981,0.037337981164455414
1761467152964109000,8.565109130859375,-0.24975401163101196,-0.1679496467113495,0.0210061464458704
1761467152974092300,8.57509228515625,-0.24469591677188873,-0.1735745072364807,0.02224092185497284
1761467152984075300,8.5850751953125,-0.24232465028762817,-0.15414674580097198,0.0179633516818285
1761467152994058500,8.59505859375,-0.23660333454608917,-0.1194767951965332,0.020344054326415062
1761467153004041200,8.605041259765626,-0.2236260175704956,-0.07478974759578705,0.010899951681494713
1761467153014024200,8.615024169921876,-0.21841345727443695,-0.013816386461257935,0.010028154589235783
1761467153024007400,8.62500732421875,-0.21208444237709045,0.047561220824718475,0.006970579735934734
1761467153033990400,8.634990478515626,-0.1979307383298874,0.09366990625858307,0.008689437992870808
1761467153043973000,8.64497314453125,-0.18380479514598846,0.12276200205087662,0.016650959849357605
1761467153053956400,8.654956298828125,-0.17178739607334137,0.13813281059265137,0.029214799404144287
1761467153063938300,8.664938232421875,-0.1702190637588501,0.16318462789058685,0.052792828530073166
1761467153073921300,8.67492138671875,-0.17591790854930878,0.1930452436208725,0.06296879053115845
1761467153083904300,8.684904296875,-0.19048860669136047,0.2173234075307846,0.05614310875535011
1761467153093887200,8.69488720703125,-0.19658823311328888,0.2607100307941437,0.06120723858475685
1761467153103870200,8.7048701171875,-0.20515082776546478,0.3126065135002136,0.06078885868191719
1761467153113853200,8.714853271484374,-0.21963506937026978,0.3245106339454651,0.023555120453238487
1761467153123836200,8.724836181640624,-0.20965300500392914,0.2808457314968109,-0.03804326429963112
1761467153133819400,8.7348193359375,-0.18624962866306305,0.20690378546714783,-0.08036699146032333
1761467153143801000,8.744801025390625,-0.16288065910339355,0.1277059018611908,-0.09344790875911713
1761467153153784300,8.754784423828125,-0.14639541506767273,0.046539876610040665,-0.0939878448843956
1761467153163767300,8.764767333984375,-0.12982575595378876,-0.018732869997620583,-0.09974533319473267
1761467153173750300,8.774750244140625,-0.11610635370016098,-0.05445832014083862,-0.10069437325000763
1761467153183733200,8.784733154296875,-0.09921658784151077,-0.06256498396396637,-0.1029234454035759
1761467153193716200,8.79471630859375,-0.07461925595998764,-0.0450216569006443,-0.11091139167547226
1761467153203699500,8.804699462890625,-0.03567691892385483,-0.0047538625076413155,-0.10695420205593109
1761467153213682200,8.81468212890625,0.011507135815918446,0.01763792149722576,-0.10557525604963303
