time,seconds_elapsed,z,y,x
1761467291457719300,0.12171923828125,-0.41024816036224365,0.2912406921386719,0.6110654473304749
1761467291467702300,0.131702392578125,-0.4012639820575714,0.312635213136673,0.6079365015029907
1761467291477685200,0.141685302734375,-0.39476925134658813,0.33236902952194214,0.6027346253395081
1761467291487668200,0.151668212890625,-0.39879754185676575,0.3222370147705078,0.6052598357200623
1761467291497651500,0.1616513671875,-0.40439218282699585,0.28842905163764954,0.6124280095100403
1761467291507634200,0.17163427734375,-0.4008139371871948,0.24577797949314117,0.6263347864151001
1761467291517617200,0.1816171875,-0.40784043073654175,0.2246769517660141,0.6563946008682251
1761467291527601200,0.19160107421875,-0.41207990050315857,0.20705722272396088,0.6712167263031006
1761467291537584400,0.20158447265625,-0.41990649700164795,0.2049119770526886,0.7010122537612915
1761467291547567400,0.2115673828125,-0.41532081365585327,0.2113001048564911,0.7296390533447266
1761467291557550000,0.221550048828125,-0.40501469373703003,0.2215716540813446,0.751383900642395
1761467291567533300,0.231533203125,-0.3967636823654175,0.2202906757593155,0.7679676413536072
1761467291577516300,0.241516357421875,-0.3843707740306854,0.2304142862558365,0.7694500684738159
1761467291587499300,0.251499267578125,-0.35422271490097046,0.2659909129142761,0.7496169805526733
1761467291597482200,0.261482177734375,-0.3205361068248749,0.27992677688598633,0.7231736183166504
1761467291607465200,0.27146533203125,-0.29102909564971924,0.26319387555122375,0.704070508480072
1761467291617448400,0.281448486328125,-0.2619193196296692,0.2485247254371643,0.68885737657547
1761467291627431200,0.29143115234375,-0.215084969997406,0.25336259603500366,0.6584358215332031
1761467291637414100,0.3014140625,-0.16943733394145966,0.2744736671447754,0.6136438250541687
1761467291647397400,0.3113974609375,-0.11974648386240005,0.30095988512039185,0.5640360713005066
1761467291657380400,0.32138037109375,-0.07073837518692017,0.3180672824382782,0.5171216130256653
1761467291667363000,0.331363037109375,-0.03148364648222923,0.3190760910511017,0.48963356018066406
1761467291677346300,0.34134619140625,-0.024335747584700584,0.30824920535087585,0.4775811731815338
1761467291687329300,0.351329345703125,-0.03946836292743683,0.28393134474754333,0.46513888239860535
1761467291697312300,0.361312255859375,-0.0726110115647316,0.24828942120075226,0.43426650762557983
1761467291707295200,0.371295166015625,-0.1261110007762909,0.2240504026412964,0.4014422297477722
1761467291717279200,0.381279296875,-0.19242429733276367,0.208669513463974,0.3777490556240082
1761467291727262200,0.39126220703125,-0.2652095556259155,0.2234726995229721,0.3549606502056122
1761467291737245400,0.401245361328125,-0.31902435421943665,0.2514517903327942,0.3367520570755005
1761467291747228200,0.411228271484375,-0.36282801628112793,0.27679443359375,0.31262436509132385
1761467291757211100,0.421211181640625,-0.39314568042755127,0.29840347170829773,0.2808293104171753
1761467291767194400,0.4311943359375,-0.40060386061668396,0.34704291820526123,0.258543998003006
1761467291777177300,0.44117724609375,-0.39922934770584106,0.38380563259124756,0.245820552110672
1761467291787160000,0.45116015625,-0.387835294008255,0.4267594814300537,0.248827263712883
1761467291797143300,0.461143310546875,-0.3855448365211487,0.4422098398208618,0.2541535794734955
1761467291807126300,0.471126220703125,-0.36174121499061584,0.42506760358810425,0.2519977390766144
1761467291817109200,0.481109130859375,-0.35969579219818115,0.40310847759246826,0.23489733040332794
1761467291827092200,0.49109228515625,-0.3635440766811371,0.37227627635002136,0.22297409176826477
1761467291837075200,0.5010751953125,-0.3727358877658844,0.27509254217147827,0.22826239466667175
1761467291847058200,0.51105810546875,-0.39328455924987793,0.18665559589862823,0.23024192452430725
1761467291857041400,0.52104150390625,-0.40523040294647217,0.12815169990062714,0.21512632071971893
1761467291867024100,0.531024169921875,-0.430417537689209,0.10092993825674057,0.18195956945419312
1761467291877007400,0.54100732421875,-0.4467482566833496,0.07213220745325089,0.12098880857229233
1761467291886990300,0.550990234375,-0.45714202523231506,0.031895577907562256,0.05573949217796326
1761467291896973300,0.560973388671875,-0.4557618200778961,-0.012450125068426132,0.014480317942798138
1761467291906957000,0.57095703125,-0.4280838370323181,-0.018423063680529594,-0.016028057783842087
1761467291916940300,0.580940185546875,-0.3858085870742798,0.013754408806562424,-0.05883270502090454
1761467291926923300,0.59092333984375,-0.33105215430259705,0.07718265056610107,-0.10673577338457108
1761467291936906800,0.60090673828125,-0.2802054286003113,0.12855732440948486,-0.1359332650899887
1761467291946889700,0.6108896484375,-0.2391381710767746,0.15273962914943695,-0.14624421298503876
1761467291956872700,0.620872802734375,-0.2011946439743042,0.14675785601139069,-0.14065609872341156
1761467291966855700,0.630855712890625,-0.16739541292190552,0.1237793117761612,-0.13006018102169037
1761467291976839000,0.6408388671875,-0.14558541774749756,0.09201062470674515,-0.12305252254009247
1761467291986821600,0.650821533203125,-0.13751257956027985,0.08309222757816315,-0.1256757378578186
1761467291996804600,0.6608046875,-0.13283616304397583,0.08109711110591888,-0.12821853160858154
1761467292006787800,0.670787841796875,-0.1282816231250763,0.07064793258905411,-0.12703609466552734
1761467292016770800,0.680770751953125,-0.14138168096542358,0.06991945952177048,-0.12954311072826385
1761467292026753800,0.69075390625,-0.15270863473415375,0.059527795761823654,-0.14409515261650085
1761467292036736800,0.70073681640625,-0.17730987071990967,0.050012242048978806,-0.17456646263599396
1761467292046719700,0.7107197265625,-0.19346566498279572,0.04349388927221298,-0.21117694675922394
1761467292056703000,0.720702880859375,-0.20461498200893402,0.03577471897006035,-0.24348364770412445
1761467292066685700,0.730685791015625,-0.19535304605960846,0.02507387101650238,-0.267675518989563
1761467292076668700,0.740668701171875,-0.15820738673210144,0.016491688787937164,-0.2792469561100006
1761467292086652000,0.75065185546875,-0.10764594376087189,-0.016674254089593887,-0.2821713984012604
1761467292096635000,0.760634765625,-0.03832973912358284,-0.018735352903604507,-0.28034788370132446
1761467292106618600,0.77061865234375,0.014377682469785213,-0.02338629774749279,-0.27846023440361023
1761467292116601600,0.7806015625,0.0703984946012497,-0.05169405788183212,-0.2811868488788605
1761467292126584800,0.790584716796875,0.11767838895320892,-0.07395781576633453,-0.29273802042007446
1761467292136567800,0.80056787109375,0.15943865478038788,-0.08718051761388779,-0.3083268702030182
1761467292146550500,0.810550537109375,0.19907741248607635,-0.10168648511171341,-0.3264302611351013
1761467292156533800,0.82053369140625,0.23082676529884338,-0.11645476520061493,-0.33315759897232056
1761467292166516700,0.830516845703125,0.2597638666629791,-0.12691113352775574,-0.3191632330417633
1761467292176500000,0.8405,0.281406432390213,-0.13701173663139343,-0.2961951494216919
1761467292186482700,0.850482666015625,0.29956385493278503,-0.14850860834121704,-0.2622246742248535
1761467292196465700,0.860465576171875,0.3141668140888214,-0.14855638146400452,-0.22171325981616974
1761467292206449000,0.870448974609375,0.31866806745529175,-0.14593876898288727,-0.1867813766002655
1761467292216431900,0.880431884765625,0.32463306188583374,-0.14017081260681152,-0.15741416811943054
1761467292226414600,0.89041455078125,0.32765841484069824,-0.1391177922487259,-0.14436069130897522
1761467292236397800,0.900397705078125,0.33208519220352173,-0.14192257821559906,-0.13979490101337433
1761467292246380800,0.910380859375,0.3267868459224701,-0.1424000859260559,-0.14942196011543274
1761467292256363800,0.92036376953125,0.3195658326148987,-0.13144353032112122,-0.1648310422897339
1761467292266346800,0.9303466796875,0.305531769990921,-0.11228102445602417,-0.1938198208808899
1761467292276329700,0.940329833984375,0.2900766432285309,-0.09610125422477722,-0.22039124369621277
1761467292286312700,0.950312744140625,0.27523672580718994,-0.09703841805458069,-0.2475232630968094
1761467292296295700,0.960295654296875,0.25868719816207886,-0.0985381081700325,-0.2549407482147217
1761467292306279700,0.97027978515625,0.2355416715145111,-0.13217435777187347,-0.2532152831554413
1761467292316262700,0.9802626953125,0.2097775638103485,-0.19037200510501862,-0.2567117512226105
1761467292326246000,0.990245849609375,0.1955496221780777,-0.2638552784919739,-0.2530807852745056
1761467292336228900,1.000228759765625,0.1926184892654419,-0.33162975311279297,-0.2502981424331665
1761467292346211600,1.010211669921875,0.20777453482151031,-0.38716280460357666,-0.2534518539905548
1761467292356194800,1.02019482421875,0.2264748364686966,-0.4229205846786499,-0.2795453369617462
1761467292366177800,1.030177734375,0.24361947178840637,-0.4743707478046417,-0.34636110067367554
1761467292376160800,1.040160888671875,0.26448559761047363,-0.5119468569755554,-0.43089038133621216
1761467292386143700,1.050143798828125,0.28358685970306396,-0.48769161105155945,-0.4971146583557129
1761467292396126700,1.060126708984375,0.3148449957370758,-0.3610662817955017,-0.5316205024719238
1761467292406109700,1.070109619140625,0.30959030985832214,-0.09748844802379608,-0.4969134032726288
1761467292416093000,1.080093017578125,0.3314622938632965,0.09961681067943573,-0.49603813886642456
1761467292426075600,1.09007568359375,0.32991844415664673,-0.026341117918491364,-0.6616111397743225
1761467292436059000,1.100058837890625,0.26445209980010986,-0.07489294558763504,-0.6830238103866577
1761467292446041900,1.110041748046875,0.21567416191101074,-0.15135043859481812,-0.606412947177887
1761467292456024600,1.120024658203125,0.16572631895542145,-0.2504706084728241,-0.5374706387519836
1761467292466007800,1.1300078125,0.13034647703170776,-0.3356078863143921,-0.44882574677467346
1761467292475990800,1.13999072265625,0.10601382702589035,-0.390131413936615,-0.33293282985687256
1761467292485973800,1.149973876953125,0.08820393681526184,-0.40464380383491516,-0.22317597270011902
1761467292495957800,1.159957763671875,0.0596669465303421,-0.41882118582725525,-0.13650454580783844
1761467292505940700,1.169940673828125,0.05242288485169411,-0.43324193358421326,-0.08866405487060547
1761467292515923700,1.179923828125,0.0540381520986557,-0.4308059513568878,-0.053539421409368515
1761467292525906700,1.18990673828125,0.06258583813905716,-0.39036107063293457,-0.03328421711921692
1761467292535890000,1.199889892578125,0.08083163946866989,-0.3384000062942505,-0.0367414616048336
1761467292545872600,1.20987255859375,0.11155493557453156,-0.2785651683807373,-0.05154437571763992
1761467292555856000,1.21985595703125,0.14436852931976318,-0.2201833873987198,-0.06477298587560654
1761467292565838800,1.2298388671875,0.16015496850013733,-0.17061875760555267,-0.0666225478053093
1761467292575821600,1.239821533203125,0.17278560996055603,-0.12468217313289642,-0.07383658736944199
1761467292585804800,1.2498046875,0.1701972782611847,-0.0896296426653862,-0.0962153971195221
1761467292595787800,1.259787841796875,0.16094140708446503,-0.03791600838303566,-0.11386322230100632
1761467292605770800,1.269770751953125,0.14325402677059174,0.024470137432217598,-0.11996159702539444
1761467292615753700,1.279753662109375,0.11167582124471664,0.07122495770454407,-0.12477023154497147
1761467292625736700,1.28973681640625,0.07709573954343796,0.1030297577381134,-0.13272003829479218
1761467292635719700,1.2997197265625,0.044245339930057526,0.14336290955543518,-0.13791172206401825
1761467292645703000,1.309702880859375,0.018297363072633743,0.1565554141998291,-0.14967277646064758
1761467292655685600,1.319685546875,-0.007260600104928017,0.16785356402397156,-0.16621434688568115
1761467292665668600,1.329668701171875,-0.012901708483695984,0.16173522174358368,-0.17954133450984955
1761467292675651800,1.33965185546875,-0.001244264654815197,0.1279952973127365,-0.17524459958076477
1761467292685634800,1.349634765625,0.011929593980312347,0.08152605593204498,-0.14983990788459778
1761467292695617800,1.35961767578125,0.03964737057685852,0.02952306717634201,-0.09785694628953934
1761467292705601800,1.369601806640625,0.07204791903495789,-0.019982166588306427,-0.030101602897047997
1761467292715584800,1.379584716796875,0.10155502706766129,-0.03903595358133316,0.044925399124622345
1761467292725567700,1.389567626953125,0.1286740005016327,-0.031113849952816963,0.11921747028827667
1761467292735550700,1.39955078125,0.15243984758853912,-0.007304679602384567,0.18314141035079956
1761467292745533700,1.40953369140625,0.16844332218170166,-0.0031727852765470743,0.2204541712999344
1761467292755516700,1.4195166015625,0.16194669902324677,-0.00366880907677114,0.23219960927963257
1761467292765500000,1.4295,0.1544530987739563,0.017032207921147346,0.22995643317699432
1761467292775482600,1.439482666015625,0.1337713748216629,0.045263808220624924,0.2166718989610672
1761467292785465600,1.449465576171875,0.10352478921413422,0.0865076556801796,0.20231613516807556
1761467292795448800,1.45944873046875,0.0742797777056694,0.11494684964418411,0.18764710426330566
1761467292805431800,1.469431884765625,0.05483417212963104,0.15799976885318756,0.17166733741760254
1761467292815414800,1.479414794921875,0.03900161758065224,0.19694747030735016,0.15643411874771118
1761467292825397800,1.489397705078125,0.023105740547180176,0.21893052756786346,0.13592937588691711
1761467292835380700,1.499380615234375,0.020136447623372078,0.22312843799591064,0.12487111240625381
1761467292845364000,1.509364013671875,0.018868248909711838,0.23081058263778687,0.13667556643486023
1761467292855346700,1.5193466796875,0.022435592487454414,0.23853391408920288,0.17232434451580048
1761467292865329700,1.52932958984375,0.02018522098660469,0.24774311482906342,0.2080186903476715
1761467292875313000,1.53931298828125,0.01551172137260437,0.27392712235450745,0.22567977011203766
1761467292885295900,1.5492958984375,-0.0046816980466246605,0.29925087094306946,0.22585873305797577
1761467292895278600,1.559278564453125,-0.024567095562815666,0.2996520400047302,0.20875763893127441
1761467292905262600,1.5692626953125,-0.04750463366508484,0.296599805355072,0.19431959092617035
1761467292915245800,1.579245849609375,-0.07620693743228912,0.30282407999038696,0.19221708178520203
1761467292925228800,1.589228759765625,-0.10471207648515701,0.30099794268608093,0.20114533603191376
1761467292935207000,1.59920703125,-0.1295885294675827,0.2824133038520813,0.21246425807476044
1761467292945190000,1.60918994140625,-0.14809218049049377,0.25703924894332886,0.22918465733528137
1761467292955173000,1.619173095703125,-0.16426347196102142,0.2203473597764969,0.2504865825176239
1761467292965156000,1.629156005859375,-0.17416270077228546,0.18555715680122375,0.2752574384212494
1761467292975138800,1.639138916015625,-0.18013928830623627,0.16003909707069397,0.305398166179657
1761467292985122000,1.6491220703125,-0.18957220017910004,0.12762309610843658,0.3280571401119232
1761467292995105000,1.65910498046875,-0.19420365989208221,0.0962265282869339,0.34304097294807434
1761467293005088000,1.669087890625,-0.19823674857616425,0.07751782238483429,0.3561474680900574
1761467293015071000,1.679071044921875,-0.19976893067359924,0.05624975636601448,0.37528541684150696
1761467293025054000,1.689053955078125,-0.2028944194316864,0.04617634788155556,0.3945810794830322
1761467293035037000,1.699036865234375,-0.21232271194458008,0.05070227384567261,0.4066678285598755
1761467293045020200,1.709020263671875,-0.2125845104455948,0.048883069306612015,0.4135153591632843
1761467293055003000,1.7190029296875,-0.22316308319568634,0.05518738180398941,0.41264891624450684
1761467293064986000,1.728986083984375,-0.23872153460979462,0.06659956276416779,0.4037187993526459
1761467293074969000,1.738968994140625,-0.25172141194343567,0.07186700403690338,0.40038275718688965
1761467293084952000,1.7489521484375,-0.2667035758495331,0.06529539078474045,0.40708139538764954
1761467293094935800,1.758935791015625,-0.2827052175998688,0.05720534175634384,0.4229128658771515
1761467293104919000,1.7689189453125,-0.29360660910606384,0.0432804711163044,0.44230812788009644
1761467293114902000,1.778902099609375,-0.30194899439811707,0.0362914577126503,0.45562246441841125
1761467293124885000,1.788885009765625,-0.3042086958885193,0.02017427235841751,0.4616774320602417
1761467293134868000,1.798867919921875,-0.30633360147476196,0.009392459876835346,0.4594362676143646
1761467293144851000,1.808850830078125,-0.30483025312423706,0.004646174609661102,0.4566812217235565
1761467293154834000,1.818833984375,-0.30161309242248535,0.009642784483730793,0.4565715491771698
1761467293164817200,1.828817138671875,-0.2995382249355316,0.02710140123963356,0.44943347573280334
1761467293174800000,1.8387998046875,-0.2876836061477661,0.03808388113975525,0.45533323287963867
1761467293184783000,1.848783203125,-0.27282583713531494,0.02821633778512478,0.4628412127494812
1761467293194766000,1.85876611328125,-0.25280991196632385,0.019115475937724113,0.47162407636642456
1761467293204749000,1.8687490234375,-0.22772052884101868,-0.0014734221622347832,0.48289191722869873
1761467293214732000,1.87873193359375,-0.20351020991802216,-0.06576187908649445,0.4861671030521393
1761467293224715000,1.888715087890625,-0.1815444678068161,-0.10658307373523712,0.49822667241096497
1761467293234698000,1.898697998046875,-0.18333330750465393,-0.1359391063451767,0.5129345655441284
1761467293244681200,1.90868115234375,-0.18167948722839355,-0.17638373374938965,0.5244812369346619
1761467293254664000,1.918663818359375,-0.1829458475112915,-0.19852009415626526,0.5450211763381958
1761467293264647000,1.92864697265625,-0.18585720658302307,-0.20842519402503967,0.581246554851532
1761467293274630100,1.938630126953125,-0.19197013974189758,-0.19843126833438873,0.6307522058486938
1761467293284612900,1.94861279296875,-0.19239838421344757,-0.12001422047615051,0.6546149253845215
1761467293294596900,1.958596923828125,-0.17281682789325714,0.009526954032480717,0.6406407952308655
1761467293304580000,1.968580078125,-0.13081291317939758,0.11087542027235031,0.592411994934082
1761467293314563000,1.97856298828125,-0.09799659252166748,0.15798218548297882,0.5398674011230469
1761467293324546000,1.988546142578125,-0.06074109673500061,0.17211824655532837,0.48637914657592773
1761467293334529000,1.998529052734375,-0.0139511339366436,0.2010655403137207,0.4423375427722931
1761467293344512000,2.008511962890625,0.028187265619635582,0.23602032661437988,0.4153069853782654
1761467293354495000,2.018494873046875,0.07317031919956207,0.24604663252830505,0.40229320526123047
1761467293364478200,2.028478271484375,0.10639618337154388,0.19339966773986816,0.3916626572608948
1761467293374461000,2.0384609375,0.10755038261413574,0.10816431045532227,0.377964049577713
1761467293384444000,2.04844384765625,0.10968437045812607,0.029514770954847336,0.3532443046569824
1761467293394427100,2.05842724609375,0.1016387790441513,-0.04027356579899788,0.33872881531715393
1761467293404410000,2.06841015625,0.08953364193439484,-0.09615707397460938,0.30096572637557983
1761467293414392800,2.078392822265625,0.07661642879247665,-0.11915965378284454,0.24818792939186096
1761467293424376000,2.0883759765625,0.05825553461909294,-0.1295715570449829,0.19009827077388763
1761467293434359000,2.098359130859375,0.04021737724542618,-0.11329419910907745,0.14325128495693207
1761467293444342000,2.108342041015625,0.02032223343849182,-0.09631361812353134,0.1010497584939003
1761467293454325000,2.118324951171875,-0.0016182046383619308,-0.09387675672769547,0.0778653547167778
1761467293464308000,2.128307861328125,-0.01924833096563816,-0.06670638918876648,0.055375225841999054
1761467293474292000,2.1382919921875,-0.031492769718170166,-0.02495662309229374,0.03602340444922447
1761467293484275200,2.148275146484375,-0.04323304817080498,0.009894568473100662,0.012120467610657215
1761467293494258000,2.1582578125,-0.048964180052280426,0.03369942680001259,-0.0012157440651208162
1761467293504241000,2.168240966796875,-0.0510835237801075,0.042885735630989075,-0.007767653092741966
1761467293514224000,2.17822412109375,-0.05308622121810913,0.03215532749891281,-0.01650708168745041
1761467293524207000,2.18820703125,-0.06915733218193054,0.008067302405834198,-0.021716225892305374
1761467293534189800,2.19818994140625,-0.08048423379659653,-0.03962860628962517,-0.02278432995080948
1761467293544173000,2.208173095703125,-0.10463111102581024,-0.0934676006436348,-0.024553468450903893
1761467293554156000,2.218156005859375,-0.11918081343173981,-0.14187845587730408,-0.035830169916152954
1761467293564139000,2.228138916015625,-0.1299666166305542,-0.18439021706581116,-0.06341945379972458
1761467293574122000,2.2381220703125,-0.14453911781311035,-0.21914750337600708,-0.10457852482795715
1761467293584105000,2.24810498046875,-0.15170860290527344,-0.2496851682662964,-0.14749324321746826
1761467293594088200,2.258088134765625,-0.15231440961360931,-0.2820045053958893,-0.18515866994857788
1761467293604071000,2.26807080078125,-0.13679245114326477,-0.30973467230796814,-0.22046712040901184
1761467293614054000,2.278053955078125,-0.12165240198373795,-0.31591302156448364,-0.25107041001319885
1761467293624037000,2.288037109375,-0.10076975077390671,-0.2938127815723419,-0.2811550796031952
1761467293634020000,2.29802001953125,-0.076857790350914,-0.2593640983104706,-0.3200102746486664
1761467293644002800,2.3080029296875,-0.053042471408843994,-0.22843678295612335,-0.35452672839164734
1761467293653986800,2.31798681640625,-0.02870037779211998,-0.20404861867427826,-0.3769553303718567
1761467293663970000,2.327969970703125,-0.009190061129629612,-0.1916167289018631,-0.38829585909843445
1761467293673953000,2.337953125,0.007217141799628735,-0.17291733622550964,-0.3850302994251251
1761467293683936000,2.34793603515625,0.013052394613623619,-0.14733341336250305,-0.3650888204574585
1761467293693919000,2.3579189453125,0.016446618363261223,-0.1326148509979248,-0.3406306505203247
1761467293703902000,2.36790185546875,0.013138439506292343,-0.12535373866558075,-0.32073551416397095
1761467293713885200,2.37788525390625,0.004205165430903435,-0.1061716228723526,-0.3083766996860504
1761467293723868000,2.387867919921875,-0.00767945684492588,-0.07004131376743317,-0.3006242513656616
1761467293733851000,2.397850830078125,-0.026812437921762466,-0.04848451539874077,-0.3082021474838257
1761467293743834000,2.407834228515625,-0.0394696444272995,-0.039137352257966995,-0.3163823187351227
1761467293753817000,2.417817138671875,-0.04399466887116432,-0.0223391056060791,-0.31863126158714294
1761467293763799800,2.4277998046875,-0.04360957816243172,0.004470138810575008,-0.31031662225723267
1761467293773783000,2.437782958984375,-0.03649616986513138,0.019882798194885254,-0.3149454593658447
1761467293783766000,2.44776611328125,-0.020532380789518356,0.05188573896884918,-0.3247722387313843
1761467293793749000,2.4577490234375,-0.004523733165115118,0.08217328786849976,-0.3414457440376282
1761467293803732000,2.46773193359375,0.012592403218150139,0.08880376070737839,-0.3747160732746124
1761467293813715000,2.47771484375,0.027002159506082535,0.06900230795145035,-0.4043857753276825
1761467293823699000,2.487698974609375,0.048599328845739365,0.03525659441947937,-0.4183921217918396
1761467293833682200,2.49768212890625,0.07450193166732788,0.0013831770047545433,-0.42503342032432556
1761467293843665200,2.5076650390625,0.08514179289340973,-0.03548748791217804,-0.42356523871421814
1761467293853648000,2.51764794921875,0.107415109872818,-0.07648693770170212,-0.4159645140171051
1761467293863631000,2.527631103515625,0.13657964766025543,-0.13899798691272736,-0.40600907802581787
1761467293873614000,2.537614013671875,0.16311392188072205,-0.21227464079856873,-0.389744371175766
1761467293883596800,2.5475966796875,0.1921098828315735,-0.25728073716163635,-0.37112727761268616
1761467293893580000,2.557580078125,0.22436128556728363,-0.27558472752571106,-0.36613941192626953
1761467293903563000,2.56756298828125,0.2450180947780609,-0.3000005781650543,-0.37575849890708923
1761467293913546000,2.5775458984375,0.27243006229400635,-0.30847564339637756,-0.37566372752189636
1761467293923529000,2.587529052734375,0.3014795482158661,-0.29601579904556274,-0.3734719455242157
1761467293933512000,2.597511962890625,0.31923380494117737,-0.2950131893157959,-0.3713018000125885
1761467293943495000,2.607494873046875,0.34393808245658875,-0.26449522376060486,-0.374289870262146
1761467293953478100,2.61747802734375,0.36960718035697937,-0.21778978407382965,-0.3962516784667969
1761467293963460900,2.6274609375,0.3802989721298218,-0.19084765017032623,-0.43099552392959595
1761467293973444000,2.637444091796875,0.39878204464912415,-0.19217155873775482,-0.4625621736049652
1761467293983427000,2.647427001953125,0.40843626856803894,-0.20018181204795837,-0.4685322046279907
1761467293993410000,2.65741015625,0.4080396294593811,-0.19449302554130554,-0.46474602818489075
1761467294003393800,2.667393798828125,0.40234658122062683,-0.17382663488388062,-0.4438002407550812
1761467294013377000,2.677376953125,0.3868252635002136,-0.16187943518161774,-0.4249711334705353
1761467294023360000,2.687360107421875,0.3726598918437958,-0.15752755105495453,-0.42528805136680603
1761467294033343000,2.697343017578125,0.3503129184246063,-0.17451439797878265,-0.4240727722644806
1761467294043326000,2.707325927734375,0.32357853651046753,-0.19202814996242523,-0.41402918100357056
1761467294053309000,2.717308837890625,0.2900345027446747,-0.2117602676153183,-0.40372228622436523
1761467294063292000,2.7272919921875,0.27320465445518494,-0.22897973656654358,-0.39336949586868286
1761467294073275100,2.737275146484375,0.2546866536140442,-0.24599429965019226,-0.39130932092666626
1761467294083257900,2.7472578125,0.25388771295547485,-0.24945828318595886,-0.3985690772533417
1761467294093241000,2.757240966796875,0.247425839304924,-0.24886642396450043,-0.42697814106941223
1761467294103224000,2.76722412109375,0.24361325800418854,-0.2619209885597229,-0.44486314058303833
1761467294113207000,2.77720703125,0.24107788503170013,-0.28306710720062256,-0.4583190977573395
1761467294123190000,2.78718994140625,0.25456517934799194,-0.3118550777435303,-0.4658377170562744
1761467294133173000,2.797173095703125,0.26982563734054565,-0.3282005488872528,-0.4685155749320984
1761467294143156000,2.807156005859375,0.2783362865447998,-0.2596590518951416,-0.474304735660553
1761467294153139200,2.81713916015625,0.28797855973243713,-0.1342511922121048,-0.49922966957092285
1761467294163123000,2.827123046875,0.29152536392211914,-0.04725956544280052,-0.5345103740692139
1761467294173106000,2.83710595703125,0.28815099596977234,-0.048701170831918716,-0.5538922548294067
1761467294183089000,2.8470888671875,0.25989192724227905,-0.08050943166017532,-0.5263948440551758
1761467294193072000,2.857072021484375,0.23273178935050964,-0.11569862812757492,-0.4861398935317993
1761467294203054800,2.867054931640625,0.2105785608291626,-0.10376740247011185,-0.45526453852653503
1761467294213038000,2.8770380859375,0.1858142614364624,-0.07956419885158539,-0.44600534439086914
1761467294223021000,2.88702099609375,0.1542067974805832,-0.06918638944625854,-0.4364534020423889
1761467294233004000,2.897004150390625,0.11245553940534592,-0.09141559898853302,-0.4214307963848114
1761467294242987000,2.906987060546875,0.06858235597610474,-0.13611862063407898,-0.3983185589313507
1761467294252970000,2.916969970703125,0.04354718700051308,-0.22347132861614227,-0.3634411096572876
1761467294262953000,2.926952880859375,0.013511789962649345,-0.24913008511066437,-0.3196214735507965
1761467294272936200,2.936936279296875,-0.0011829109862446785,-0.2313302457332611,-0.27214354276657104
1761467294282919000,2.9469189453125,0.003210239578038454,-0.2131453901529312,-0.23333171010017395
1761467294292902000,2.95690185546875,0.01319538801908493,-0.21211573481559753,-0.21364954113960266
1761467294302885000,2.966885009765625,0.03755052760243416,-0.20257364213466644,-0.18713776767253876
1761467294312868000,2.9768681640625,0.07022099941968918,-0.19405008852481842,-0.16121412813663483
1761467294322851800,2.986851806640625,0.10132405906915665,-0.18378306925296783,-0.1356629580259323
1761467294332835000,2.9968349609375,0.1380639225244522,-0.15147249400615692,-0.12099665403366089
1761467294342818000,3.006818115234375,0.17017632722854614,-0.12108742445707321,-0.11179783195257187
1761467294352801000,3.016801025390625,0.18858174979686737,-0.0916552022099495,-0.10334192961454391
1761467294362784000,3.026783935546875,0.18832449615001678,-0.055862847715616226,-0.10617366433143616
1761467294372767000,3.03676708984375,0.17968928813934326,0.002997881267219782,-0.11155682057142258
1761467294382750000,3.04675,0.15465477108955383,0.04767613857984543,-0.1286953240633011
1761467294392733200,3.056733154296875,0.12570364773273468,0.0902562290430069,-0.15236027538776398
1761467294402716000,3.0667158203125,0.09697692841291428,0.1318044662475586,-0.1746959388256073
1761467294412699000,3.076698974609375,0.0753006637096405,0.16019617021083832,-0.20460830628871918
1761467294422682000,3.08668212890625,0.06736790388822556,0.16795289516448975,-0.23427166044712067
1761467294432665000,3.0966650390625,0.07140068709850311,0.165329247713089,-0.26141804456710815
1761467294442647800,3.106647705078125,0.0894385427236557,0.14526472985744476,-0.2641981244087219
1761467294452631000,3.116631103515625,0.11560662090778351,0.1151650995016098,-0.24930593371391296
1761467294462614000,3.126614013671875,0.1437743455171585,0.09092900902032852,-0.21662576496601105
1761467294472597200,3.13659716796875,0.1619856357574463,0.07527685165405273,-0.1778334230184555
1761467294482581000,3.1465810546875,0.19761526584625244,0.059596966952085495,-0.13911691308021545
1761467294492564000,3.15656396484375,0.21668249368667603,0.05894865468144417,-0.1135915070772171
1761467294502547000,3.166546875,0.24626673758029938,0.05978915095329285,-0.10611574351787567
1761467294512530200,3.1765302734375,0.25748729705810547,0.07290218025445938,-0.09467586874961853
1761467294522513000,3.186512939453125,0.26319631934165955,0.10347127914428711,-0.07932061702013016
1761467294532496000,3.196495849609375,0.2663077414035797,0.1251436024904251,-0.0700484961271286
1761467294542479000,3.20647900390625,0.26294365525245667,0.13639545440673828,-0.07767925411462784
1761467294552462000,3.216462158203125,0.2554573118686676,0.13864926993846893,-0.07865884155035019
1761467294562444800,3.22644482421875,0.24757622182369232,0.14747180044651031,-0.08910295367240906
1761467294572428000,3.236427978515625,0.23890270292758942,0.13701041042804718,-0.09620919078588486
1761467294582411000,3.246410888671875,0.2336363047361374,0.12055686116218567,-0.09873839467763901
1761467294592394200,3.256394287109375,0.2289804369211197,0.10289587080478668,-0.10420732200145721
1761467294602377000,3.266376953125,0.22340457141399384,0.09964601695537567,-0.10858316719532013
1761467294612360000,3.27635986328125,0.21964600682258606,0.10669151693582535,-0.10965585708618164
1761467294622343200,3.28634326171875,0.2162204086780548,0.11385808140039444,-0.1195223331451416
1761467294632326000,3.296325927734375,0.2162535935640335,0.13021355867385864,-0.1221022978425026
1761467294642310000,3.306309814453125,0.20971260964870453,0.1427575796842575,-0.11186084896326065
1761467294652292900,3.31629296875,0.1976625919342041,0.15237018465995789,-0.10653240233659744
1761467294662276000,3.326276123046875,0.18182158470153809,0.13315734267234802,-0.10113657265901566
1761467294672259000,3.336259033203125,0.16899649798870087,0.1337292492389679,-0.09664638340473175
1761467294682241800,3.34624169921875,0.13413704931735992,0.13963933289051056,-0.09522372484207153
1761467294692225000,3.35622509765625,0.11283612996339798,0.1414821892976761,-0.10026277601718903
1761467294702208000,3.3662080078125,0.08117247372865677,0.13420936465263367,-0.10192805528640747
1761467294712191200,3.376191162109375,0.05922580137848854,0.13269440829753876,-0.10111185908317566
1761467294722174000,3.386174072265625,0.03926114737987518,0.12052936851978302,-0.09971742331981659
1761467294732157000,3.396156982421875,0.022688094526529312,0.09805680066347122,-0.08840705454349518
1761467294742140200,3.40614013671875,0.015061866492033005,0.074648417532444,-0.07070635259151459
1761467294752123100,3.416123046875,0.010161705315113068,0.05766194313764572,-0.05479440093040466
1761467294762105900,3.42610595703125,0.003231627168133855,0.04524175822734833,-0.04905955120921135
1761467294772089000,3.436089111328125,-0.0013703149743378162,0.04723726585507393,-0.024140354245901108
1761467294782072000,3.446072021484375,-0.00581326661631465,0.05242936313152313,-0.003417497966438532
1761467294792056000,3.45605615234375,-0.008083464577794075,0.07543965429067612,0.011579538695514202
1761467294802038800,3.466038818359375,-0.01719467155635357,0.10769613087177277,0.022120865061879158
1761467294812022000,3.47602197265625,-0.02667306363582611,0.12911857664585114,0.027941398322582245
1761467294822005000,3.4860048828125,-0.04936745762825012,0.14486132562160492,0.039912041276693344
1761467294831988200,3.49598828125,-0.06268180906772614,0.15645986795425415,0.04667702317237854
1761467294841971000,3.505970947265625,-0.08103232085704803,0.180265873670578,0.05171092972159386
1761467294851954000,3.515953857421875,-0.10845790803432465,0.22075757384300232,0.06373787671327591
1761467294861937200,3.525937255859375,-0.12603265047073364,0.23440787196159363,0.08313074707984924
1761467294871920000,3.535920166015625,-0.15098847448825836,0.22365957498550415,0.12001645565032959
1761467294881902800,3.54590283203125,-0.17740648984909058,0.19518132507801056,0.17151214182376862
1761467294891886000,3.555885986328125,-0.18848967552185059,0.15640924870967865,0.22387643158435822
1761467294901869000,3.565869140625,-0.20014047622680664,0.1288260817527771,0.26992088556289673
1761467294911852000,3.57585205078125,-0.21120446920394897,0.10895773768424988,0.30582109093666077
1761467294921835000,3.5858349609375,-0.21101431548595428,0.08577465265989304,0.3224639892578125
1761467294931817500,3.5958173828125,-0.1989535391330719,0.07021994143724442,0.33407676219940186
1761467294941800700,3.60580078125,-0.19181174039840698,0.04362161457538605,0.33689358830451965
1761467294951784700,3.61578466796875,-0.18104040622711182,0.04014764726161957,0.35143452882766724
1761467294961767400,3.625767333984375,-0.16549047827720642,0.03901047632098198,0.37934285402297974
1761467294971750400,3.63575048828125,-0.14229713380336761,0.005380924791097641,0.395540714263916
1761467294981733600,3.645733642578125,-0.13420458137989044,-0.013672927394509315,0.42094141244888306
1761467294991716600,3.655716552734375,-0.13565374910831451,-0.045209262520074844,0.43160101771354675
1761467295001699300,3.66569921875,-0.14187489449977875,-0.07056441903114319,0.4504564702510834
1761467295011682600,3.6756826171875,-0.15534207224845886,-0.0927831158041954,0.4827159345149994
1761467295021665500,3.68566552734375,-0.1642111986875534,-0.0931282639503479,0.5066535472869873
1761467295031648500,3.6956484375,-0.149187371134758,-0.041314564645290375,0.4951477348804474
1761467295041631500,3.705631591796875,-0.1267249435186386,0.014954034239053726,0.4414607882499695
1761467295051614500,3.715614501953125,-0.09533814340829849,0.03401656448841095,0.3824358284473419
1761467295061597700,3.72559765625,-0.05719555541872978,0.05561293661594391,0.36017873883247375
1761467295071580700,3.73558056640625,0.01052756980061531,0.0011222644243389368,0.2872216999530792
1761467295081563400,3.7455634765625,0.061506595462560654,0.01368279755115509,0.23021300137043
1761467295091546600,3.755546630859375,0.12278427183628082,0.042399145662784576,0.17890328168869019
1761467295101530600,3.765530517578125,0.18524791300296783,0.006905334070324898,0.13771164417266846
1761467295111513600,3.775513671875,0.22778503596782684,-0.056166134774684906,0.12731367349624634
1761467295121496300,3.785496337890625,0.24218422174453735,-0.12064366042613983,0.11968903988599777
1761467295131479600,3.7954794921875,0.23939931392669678,-0.181946262717247,0.11202370375394821
1761467295141462500,3.805462646484375,0.228252112865448,-0.23161448538303375,0.09484285116195679
1761467295151445500,3.815445556640625,0.21189209818840027,-0.2730371057987213,0.05613655224442482
1761467295161428500,3.825428466796875,0.19397249817848206,-0.2944191098213196,0.012391466647386551
1761467295171411500,3.835411376953125,0.1772020310163498,-0.2939130961894989,-0.035417601466178894
1761467295181394700,3.845394775390625,0.15413346886634827,-0.29713311791419983,-0.07727770507335663
1761467295191377700,3.855377685546875,0.13394422829151154,-0.2997066378593445,-0.10144390910863876
1761467295201360400,3.8653603515625,0.1218329593539238,-0.31166982650756836,-0.11332693696022034
1761467295211343600,3.875343505859375,0.11249103397130966,-0.3179965317249298,-0.11633983254432678
1761467295221326600,3.88532666015625,0.10870828479528427,-0.2908487915992737,-0.11241539567708969
1761467295231309600,3.8953095703125,0.10461549460887909,-0.2371279001235962,-0.11685814708471298
1761467295241293300,3.905293212890625,0.09333141148090363,-0.1839650720357895,-0.13393326103687286
1761467295251276500,3.915276611328125,0.0820181742310524,-0.13692781329154968,-0.15624074637889862
1761467295261259500,3.925259521484375,0.06917082518339157,-0.1273588091135025,-0.19104212522506714
1761467295271242500,3.935242431640625,0.05524129793047905,-0.13031914830207825,-0.22060626745224
1761467295281225500,3.9452255859375,0.04739775508642197,-0.14547599852085114,-0.23197796940803528
1761467295291208400,3.95520849609375,0.04253269359469414,-0.17758600413799286,-0.23461848497390747
1761467295301191700,3.965191650390625,0.023425843566656113,-0.2140582650899887,-0.22576561570167542
1761467295311174700,3.975174560546875,0.0069641238078475,-0.2525494396686554,-0.20631413161754608
1761467295321157400,3.985157470703125,-0.02201160229742527,-0.2882480323314667,-0.19974704086780548
1761467295331140600,3.995140625,-0.04751800745725632,-0.31034979224205017,-0.18973352015018463
1761467295341123600,4.00512353515625,-0.05756637826561928,-0.3218381106853485,-0.1942923218011856
1761467295351106600,4.0151064453125,-0.06949032098054886,-0.33261582255363464,-0.21692946553230286
1761467295361089500,4.025089599609375,-0.07452236115932465,-0.32839125394821167,-0.24462127685546875
1761467295371072500,4.035072509765625,-0.05979311838746071,-0.32200324535369873,-0.26760658621788025
1761467295381055500,4.045055419921875,-0.035340506583452225,-0.2905079126358032,-0.288063645362854
1761467295391039500,4.05503955078125,-0.011383883655071259,-0.24194081127643585,-0.30669087171554565
1761467295401022500,4.0650224609375,0.01918201521039009,-0.20319928228855133,-0.3292614221572876
1761467295411005400,4.07500537109375,0.03857266902923584,-0.18505389988422394,-0.3437792658805847
1761467295420988700,4.08498876953125,0.05901296064257622,-0.16464155912399292,-0.34215980768203735
1761467295430971600,4.0949716796875,0.06357655674219131,-0.16443949937820435,-0.3409293591976166
1761467295440954400,4.104954345703125,0.06713453680276871,-0.18602387607097626,-0.34618082642555237
1761467295450937600,4.1149375,0.07304488122463226,-0.21160195767879486,-0.3512878119945526
1761467295460920600,4.124920654296875,0.07897547632455826,-0.22337844967842102,-0.3460935652256012
1761467295470903600,4.134903564453125,0.07186319679021835,-0.22452083230018616,-0.3425089418888092
1761467295480886500,4.144886474609375,0.06865089386701584,-0.2277030497789383,-0.33948758244514465
1761467295490869500,4.154869384765625,0.06464152038097382,-0.22103926539421082,-0.34136685729026794
1761467295500852500,4.1648525390625,0.04978533834218979,-0.21140049397945404,-0.3480958938598633
1761467295510835700,4.174835693359375,0.04977087676525116,-0.18435801565647125,-0.3624327778816223
1761467295520818400,4.184818359375,0.04616202786564827,-0.17908015847206116,-0.39225006103515625
1761467295530801400,4.194801513671875,0.04900643229484558,-0.15896259248256683,-0.42587196826934814
1761467295540785700,4.20478564453125,0.04997289180755615,-0.14018331468105316,-0.4533235430717468
1761467295550768600,4.2147685546875,0.05843058228492737,-0.12903758883476257,-0.4820418655872345
1761467295560751400,4.22475146484375,0.07135383784770966,-0.14917722344398499,-0.5159990191459656
1761467295570734600,4.234734619140625,0.08741000294685364,-0.1799381524324417,-0.5529362559318542
1761467295580717600,4.244717529296875,0.11370819061994553,-0.20092013478279114,-0.5793968439102173
1761467295590700500,4.254700439453125,0.14790339767932892,-0.23338142037391663,-0.5918654203414917
1761467295600683500,4.26468359375,0.1680307686328888,-0.266377717256546,-0.586610734462738
1761467295610666500,4.27466650390625,0.1920061707496643,-0.2815147042274475,-0.5715295076370239
1761467295620649500,4.2846494140625,0.2096264362335205,-0.27626723051071167,-0.5577905774116516
1761467295630632700,4.2946328125,0.22950901091098785,-0.2640552222728729,-0.5532010197639465
1761467295640615400,4.304615478515625,0.2406356930732727,-0.2518664598464966,-0.547707736492157
1761467295650598400,4.314598388671875,0.2448558509349823,-0.2311895787715912,-0.534476637840271
1761467295660581600,4.32458154296875,0.2494806945323944,-0.20536091923713684,-0.5164794921875
1761467295670564600,4.334564697265625,0.24398016929626465,-0.1790015697479248,-0.5030720233917236
1761467295680547600,4.344547607421875,0.23705807328224182,-0.15995517373085022,-0.4987500309944153
1761467295690531600,4.354531494140625,0.23808901011943817,-0.14638657867908478,-0.49484339356422424
1761467295700514600,4.3645146484375,0.2373310625553131,-0.13640771806240082,-0.4899064302444458
1761467295710497500,4.37449755859375,0.22925813496112823,-0.14033441245555878,-0.4916974604129791
1761467295720480500,4.38448046875,0.22704051434993744,-0.1655297726392746,-0.48967453837394714
1761467295730463500,4.39446337890625,0.21989791095256805,-0.1713479906320572,-0.46942025423049927
1761467295740446500,4.404446533203125,0.2199421226978302,-0.176703080534935,-0.4520990550518036
1761467295750429700,4.4144296875,0.21477842330932617,-0.18492627143859863,-0.4327436089515686
1761467295760412400,4.424412353515625,0.21405643224716187,-0.19000038504600525,-0.4219322204589844
1761467295770395400,4.4343955078125,0.22326445579528809,-0.2135256975889206,-0.43213191628456116
1761467295780378600,4.444378662109375,0.23708918690681458,-0.2443895936012268,-0.46091777086257935
1761467295790361600,4.454361572265625,0.2541332244873047,-0.27728357911109924,-0.4975205957889557
1761467295800344600,4.464344482421875,0.27438709139823914,-0.297547847032547,-0.5406560897827148
1761467295810327600,4.47432763671875,0.2963046729564667,-0.2995584309101105,-0.5721991658210754
1761467295820310500,4.484310546875,0.3179495334625244,-0.2989530861377716,-0.6001410484313965
1761467295830293800,4.494293701171875,0.34159842133522034,-0.2870711088180542,-0.6251369118690491
1761467295840276500,4.5042763671875,0.3604578673839569,-0.28141430020332336,-0.6433409452438354
1761467295850260500,4.514260498046875,0.37878307700157166,-0.29597046971321106,-0.6590493321418762
1761467295860243500,4.524243408203125,0.39816397428512573,-0.3388870358467102,-0.6787580251693726
1761467295870226700,4.534226806640625,0.4300514757633209,-0.3819764256477356,-0.6936085224151611
1761467295880209400,4.54420947265625,0.46309196949005127,-0.4198697507381439,-0.7097017168998718
1761467295890192400,4.5541923828125,0.4902172088623047,-0.45432358980178833,-0.7309499382972717
1761467295900175600,4.564175537109375,0.5195556282997131,-0.48381996154785156,-0.7535982131958008
1761467295910158600,4.57415869140625,0.5333550572395325,-0.5140008330345154,-0.7729696035385132
1761467295920141600,4.5841416015625,0.5439389944076538,-0.5500536561012268,-0.7824153304100037
1761467295930128600,4.594128662109375,0.565528929233551,-0.5890547633171082,-0.7939351797103882
1761467295940111600,4.604111572265625,0.5830495953559875,-0.6147279143333435,-0.8178786039352417
1761467295950094600,4.614094482421875,0.5917889475822449,-0.6182557344436646,-0.8545807003974915
1761467295960077600,4.62407763671875,0.5997864007949829,-0.6134607195854187,-0.9029495716094971
1761467295970060500,4.634060546875,0.6117923855781555,-0.6088879108428955,-0.957882821559906
1761467295980043800,4.644043701171875,0.6160414814949036,-0.5756874084472656,-0.9941127300262451
1761467295990026800,4.65402685546875,0.6152582168579102,-0.49096763134002686,-1.0371429920196533
1761467296000009500,4.664009521484375,0.6159176230430603,-0.3936786353588104,-1.0999706983566284
1761467296009992700,4.67399267578125,0.6198599338531494,-0.3688986897468567,-1.1496812105178833
1761467296019975700,4.6839755859375,0.618695855140686,-0.4154587388038635,-1.1645948886871338
1761467296029958700,4.693958740234375,0.6128588914871216,-0.47169721126556396,-1.139019250869751
1761467296039941600,4.703941650390625,0.6093073487281799,-0.4684249758720398,-1.1033973693847656
1761467296049925600,4.713925537109375,0.5998542308807373,-0.4284838140010834,-1.0925287008285522
1761467296059908600,4.72390869140625,0.5817375779151917,-0.3815288245677948,-1.0923231840133667
1761467296069891600,4.7338916015625,0.5453354120254517,-0.3891335725784302,-1.0950547456741333
1761467296079874600,4.74387451171875,0.5068788528442383,-0.47043320536613464,-1.070406436920166
1761467296089857500,4.753857421875,0.4821154475212097,-0.5873048305511475,-1.007582426071167
1761467296099840800,4.7638408203125,0.4731038510799408,-0.6813612580299377,-0.9273399114608765
1761467296109823700,4.77382373046875,0.47364670038223267,-0.695717990398407,-0.837799608707428
1761467296119806500,4.783806396484375,0.4798012673854828,-0.6362354755401611,-0.7689598202705383
1761467296129789700,4.793789794921875,0.4960498809814453,-0.5758649110794067,-0.7212644815444946
1761467296139772700,4.803772705078125,0.5252389311790466,-0.5436595678329468,-0.6980448961257935
1761467296149755600,4.813755615234375,0.5587881207466125,-0.4958506226539612,-0.6808897256851196
1761467296159738600,4.823738525390625,0.58961421251297,-0.43937644362449646,-0.6644452214241028
1761467296169721600,4.8337216796875,0.6183810234069824,-0.37551066279411316,-0.6475763320922852
1761467296179704600,4.84370458984375,0.6289867758750916,-0.3123234212398529,-0.640046238899231
1761467296189687800,4.853687744140625,0.6239402294158936,-0.26008763909339905,-0.6436786651611328
1761467296199671800,4.863671875,0.6024456024169922,-0.21157655119895935,-0.6474222540855408
1761467296209654500,4.873654541015625,0.5708560347557068,-0.1667470484972,-0.6582452058792114
1761467296219637800,4.8836376953125,0.5351781845092773,-0.13250252604484558,-0.6772327423095703
1761467296229620700,4.893620849609375,0.49835535883903503,-0.11027799546718597,-0.7003247141838074
1761467296239603500,4.903603515625,0.46519365906715393,-0.09021240472793579,-0.709546685218811
1761467296249586700,4.913586669921875,0.45001253485679626,-0.06982409954071045,-0.6926648616790771
1761467296259569700,4.923569580078125,0.43894362449645996,-0.0692182257771492,-0.6724067330360413
1761467296269552600,4.933552734375,0.4359292984008789,-0.04348822683095932,-0.6523407697677612
1761467296279535600,4.94353564453125,0.4379918873310089,-0.0021868604235351086,-0.6372110843658447
1761467296289518600,4.9535185546875,0.44014161825180054,0.035860396921634674,-0.6423212885856628
1761467296299501600,4.96350146484375,0.44837796688079834,0.05834786221385002,-0.6579692363739014
1761467296309484800,4.97348486328125,0.45514219999313354,0.0694577693939209,-0.6651709079742432
1761467296319467500,4.983467529296875,0.46271196007728577,0.06718689203262329,-0.6598496437072754
1761467296329450500,4.993450439453125,0.4741389751434326,0.03595796599984169,-0.6514027714729309
1761467296339433700,5.003433837890625,0.4927302300930023,-0.010574913583695889,-0.6491734385490417
1761467296349416700,5.013416748046875,0.5057085752487183,-0.04950259253382683,-0.6441263556480408
1761467296359400700,5.023400634765625,0.5312920212745667,-0.06297126412391663,-0.6254136562347412
1761467296369383700,5.0333837890625,0.5547104477882385,-0.08324715495109558,-0.6426607966423035
1761467296379366700,5.04336669921875,0.5813362002372742,-0.13343815505504608,-0.6715696454048157
1761467296389349600,5.053349609375,0.6032927632331848,-0.13321661949157715,-0.6822311878204346
1761467296399332600,5.06333251953125,0.6219455003738403,-0.12038523703813553,-0.669040322303772
1761467296409315600,5.073315673828125,0.6197838187217712,-0.09877525269985199,-0.6505122780799866
1761467296419298600,5.083298583984375,0.6050522923469543,-0.06933880597352982,-0.6266780495643616
1761467296429281800,5.09328173828125,0.5734072327613831,-0.025194937363266945,-0.6030603051185608
1761467296439264500,5.103264404296875,0.5352105498313904,0.017895009368658066,-0.589081346988678
1761467296449247500,5.11324755859375,0.4892266094684601,0.05330170691013336,-0.5792323350906372
1761467296459230700,5.123230712890625,0.4562353491783142,0.0698641762137413,-0.5619319081306458
1761467296469213700,5.133213623046875,0.4272076189517975,0.051205649971961975,-0.5325090289115906
1761467296479196700,5.14319677734375,0.4027611315250397,0.043685413897037506,-0.4992230236530304
1761467296489179600,5.1531796875,0.38969749212265015,0.051482271403074265,-0.47990405559539795
1761467296499162600,5.16316259765625,0.39159178733825684,0.06393148005008698,-0.46985992789268494
1761467296509145900,5.173145751953125,0.38587668538093567,0.07663121074438095,-0.47335168719291687
1761467296519129600,5.183129638671875,0.3826473355293274,0.0864311158657074,-0.47518208622932434
1761467296529112600,5.193112548828125,0.3815755248069763,0.08888554573059082,-0.4657043516635895
1761467296539095600,5.203095458984375,0.3789491057395935,0.09663641452789307,-0.44644811749458313
1761467296549078800,5.213078857421875,0.3697609305381775,0.09846677631139755,-0.42239946126937866
1761467296559061500,5.2230615234375,0.34989747405052185,0.10454970598220825,-0.4041309654712677
1761467296569044500,5.23304443359375,0.32622483372688293,0.11845143139362335,-0.39455220103263855
1761467296579027700,5.24302783203125,0.2912045419216156,0.10496971011161804,-0.3902170956134796
1761467296589010700,5.2530107421875,0.25305917859077454,0.09106060862541199,-0.3850446343421936
1761467296598993700,5.26299365234375,0.2177933305501938,0.08510205894708633,-0.37858888506889343
1761467296608976600,5.2729765625,0.18676680326461792,0.07996414601802826,-0.3844272494316101
1761467296618959600,5.282959716796875,0.16270166635513306,0.07431504875421524,-0.39376986026763916
1761467296628942800,5.29294287109375,0.13989496231079102,0.0807596817612648,-0.3967612087726593
1761467296638925600,5.302925537109375,0.12327896803617477,0.08212082833051682,-0.39028626680374146
1761467296648908500,5.312908447265625,0.11130993068218231,0.06977815181016922,-0.38257816433906555
1761467296658891800,5.322891845703125,0.10435428470373154,0.055355533957481384,-0.3666394054889679
1761467296668874800,5.332874755859375,0.09739115089178085,0.0468636229634285,-0.34758180379867554
1761467296678858500,5.3428583984375,0.0879792720079422,0.029080631211400032,-0.31178492307662964
1761467296688841500,5.352841552734375,0.07796184718608856,0.019515059888362885,-0.27877044677734375
1761467296698824700,5.36282470703125,0.07169117033481598,0.008347094058990479,-0.24846763908863068
1761467296708807700,5.3728076171875,0.058643240481615067,-0.0029057194478809834,-0.2136361300945282
1761467296718790700,5.382790771484375,0.044722896069288254,-0.0070783598348498344,-0.1754668951034546
1761467296728773600,5.392773681640625,0.026495911180973053,-0.019392985850572586,-0.15300241112709045
1761467296738756600,5.402756591796875,0.011626949533820152,-0.04841798171401024,-0.13780881464481354
1761467296748739800,5.41273974609375,-0.007568170316517353,-0.07266175746917725,-0.1207885816693306
1761467296758722600,5.42272265625,-0.02370186522603035,-0.08958481252193451,-0.09829605370759964
1761467296768705500,5.43270556640625,-0.04139227792620659,-0.10535778850317001,-0.07151255011558533
1761467296778688800,5.442688720703125,-0.06086212024092674,-0.11749940365552902,-0.044763222336769104
1761467296788671700,5.452671630859375,-0.08045671880245209,-0.12715759873390198,-0.022554714232683182
1761467296798654500,5.462654541015625,-0.09954412281513214,-0.1336788833141327,0.0010600662790238857
1761467296808637700,5.4726376953125,-0.11722447723150253,-0.1460951864719391,0.027266111224889755
1761467296818620700,5.48262060546875,-0.1336367428302765,-0.15066863596439362,0.055007997900247574
1761467296828603600,5.492603759765625,-0.14431968331336975,-0.14808718860149384,0.07881755381822586
1761467296838587600,5.502587646484375,-0.15548045933246613,-0.15602020919322968,0.09089232236146927
1761467296848570600,5.512570556640625,-0.16280008852481842,-0.16600733995437622,0.10540196299552917
1761467296858553600,5.5225537109375,-0.17241144180297852,-0.19144877791404724,0.12080195546150208
1761467296868536800,5.532536865234375,-0.18303105235099792,-0.22797755897045135,0.14808772504329681
1761467296878519600,5.54251953125,-0.18991665542125702,-0.27785536646842957,0.17500536143779755
1761467296888502500,5.55250244140625,-0.1962445080280304,-0.3134225606918335,0.20435816049575806
1761467296898485800,5.56248583984375,-0.20600073039531708,-0.33709007501602173,0.234474778175354
1761467296908468700,5.57246875,-0.21347899734973907,-0.36989450454711914,0.2593831717967987
1761467296918451500,5.582451416015625,-0.222771555185318,-0.3596959412097931,0.28476282954216003
1761467296928434700,5.5924345703125,-0.2183079570531845,-0.3064776659011841,0.2927451729774475
1761467296938417200,5.602417236328125,-0.20081818103790283,-0.2429141402244568,0.2823042571544647
1761467296948400400,5.612400390625,-0.1711750328540802,-0.2035120576620102,0.2573486864566803
1761467296958383000,5.622383056640625,-0.13241885602474213,-0.17960645258426666,0.23360368609428406
1761467296968366000,5.632365966796875,-0.0878104642033577,-0.16475538909435272,0.22719180583953857
1761467296978349300,5.642349365234375,-0.030624935403466225,-0.14875778555870056,0.21185599267482758
1761467296988332300,5.652332275390625,0.027300965040922165,-0.12248589843511581,0.17492766678333282
1761467296998315000,5.66231494140625,0.09008445590734482,-0.08579099923372269,0.13086114823818207
1761467297008299000,5.672299072265625,0.13934502005577087,-0.09244272112846375,0.09428416192531586
1761467297018282200,5.6822822265625,0.18859511613845825,-0.0969514548778534,0.07055140286684036
1761467297028265200,5.69226513671875,0.2153291255235672,-0.10572846978902817,0.0823725014925003
1761467297038248000,5.702248046875,0.23548206686973572,-0.1356818526983261,0.12104106694459915
1761467297048231200,5.712231201171875,0.23017281293869019,-0.172049880027771,0.1548984795808792
1761467297058214100,5.722214111328125,0.2061455100774765,-0.21310171484947205,0.15742582082748413
1761467297068197400,5.732197265625,0.17235806584358215,-0.23100848495960236,0.12417774647474289
1761467297078180000,5.74218017578125,0.1330450177192688,-0.24300388991832733,0.07068575173616409
1761467297088163000,5.7521630859375,0.09432972222566605,-0.23225745558738708,0.015082661993801594
1761467297098146300,5.762146240234375,0.07050854712724686,-0.21606837213039398,-0.03637600317597389
1761467297108129300,5.77212939453125,0.060298364609479904,-0.19640657305717468,-0.07613399624824524
1761467297118112000,5.782112060546875,0.06744123250246048,-0.19135642051696777,-0.10891617834568024
1761467297128095200,5.79209521484375,0.08668669313192368,-0.1907162368297577,-0.12694527208805084
1761467297138078200,5.802078125,0.113888218998909,-0.18691296875476837,-0.1333451122045517
1761467297148061200,5.812061279296875,0.14588572084903717,-0.18009036779403687,-0.11964673548936844
1761467297158044200,5.822044189453125,0.17003633081912994,-0.18007518351078033,-0.10986148566007614
1761467297168028200,5.832028076171875,0.1890181452035904,-0.1901305764913559,-0.08161444216966629
1761467297178011100,5.84201123046875,0.1949242353439331,-0.20264238119125366,-0.0470157153904438
1761467297187994400,5.851994384765625,0.18232865631580353,-0.20744968950748444,-0.021058663725852966
1761467297197977000,5.86197705078125,0.15375161170959473,-0.209740549325943,0.0018048416823148727
1761467297207960000,5.8719599609375,0.10834787040948868,-0.20595788955688477,0.012555156834423542
1761467297217943300,5.881943359375,0.06021469831466675,-0.18840579688549042,0.006450659595429897
1761467297227926300,5.89192626953125,0.007427355274558067,-0.17748352885246277,-0.01127547025680542
1761467297237909000,5.901908935546875,-0.038431745022535324,-0.17358413338661194,-0.03794383257627487
1761467297247892200,5.911892333984375,-0.0806630328297615,-0.16252005100250244,-0.054824721068143845
1761467297257875200,5.921875244140625,-0.11863118410110474,-0.1618662327528,-0.061200860887765884
1761467297267858200,5.931858154296875,-0.14777229726314545,-0.15620702505111694,-0.05838723108172417
1761467297277841200,5.941841064453125,-0.16308733820915222,-0.16401433944702148,-0.05352163687348366
1761467297287824100,5.95182421875,-0.1886872798204422,-0.16574954986572266,-0.06009934842586517
1761467297297807000,5.96180712890625,-0.18875251710414886,-0.1728692501783371,-0.06946515291929245
1761467297307790300,5.971790283203125,-0.18103933334350586,-0.1832856833934784,-0.08832915872335434
1761467297317773000,5.98177294921875,-0.16773417592048645,-0.19327600300312042,-0.11292664706707001
1761467297327756300,5.99175634765625,-0.14495013654232025,-0.19218020141124725,-0.1365443468093872
1761467297337740300,6.001740234375,-0.11135409772396088,-0.1873428374528885,-0.16476479172706604
1761467297347723300,6.01172314453125,-0.08481330424547195,-0.17443077266216278,-0.19407181441783905
1761467297357706000,6.0217060546875,-0.06033272296190262,-0.1610390543937683,-0.2349603921175003
1761467297367689200,6.031689208984375,-0.041806962341070175,-0.14812399446964264,-0.2714565098285675
1761467297377672200,6.041672119140625,-0.031329020857810974,-0.14535030722618103,-0.29744550585746765
1761467297387655200,6.0516552734375,-0.026269255205988884,-0.15635919570922852,-0.31004977226257324
1761467297397638100,6.06163818359375,-0.0318555012345314,-0.16393615305423737,-0.3093413710594177
1761467297407621000,6.07162109375,-0.0440855547785759,-0.17794924974441528,-0.29579290747642517
1761467297417604000,6.08160400390625,-0.05926770344376564,-0.20086602866649628,-0.2704028785228729
1761467297427587300,6.09158740234375,-0.06848640739917755,-0.2133539766073227,-0.2395617961883545
1761467297437570000,6.101570068359375,-0.08413514494895935,-0.1997058093547821,-0.21178902685642242
1761467297447553300,6.11155322265625,-0.09013865888118744,-0.18754538893699646,-0.19726113975048065
1761467297457536300,6.121536376953125,-0.10275804996490479,-0.15460553765296936,-0.1866532266139984
1761467297467519200,6.131519287109375,-0.10733254253864288,-0.12243394553661346,-0.19563356041908264
1761467297477502200,6.141502197265625,-0.11212410032749176,-0.0761769711971283,-0.2143920660018921
1761467297487485200,6.151485107421875,-0.10966155678033829,-0.02610853686928749,-0.23047254979610443
1761467297497468200,6.16146826171875,-0.11261659860610962,0.008387654088437557,-0.24399101734161377
1761467297507451100,6.171451171875,-0.1042117029428482,0.029531393200159073,-0.26701536774635315
1761467297517435100,6.18143505859375,-0.09509117901325226,0.03127976134419441,-0.2852329909801483
1761467297527418000,6.191418212890625,-0.08716657757759094,0.019291143864393234,-0.2991625666618347
1761467297537401000,6.201401123046875,-0.07291094213724136,-0.0051084719598293304,-0.30608171224594116
1761467297547384300,6.21138427734375,-0.059318870306015015,-0.03424464166164398,-0.2949748635292053
1761467297557367000,6.221366943359375,-0.04177156463265419,-0.04574257507920265,-0.2737254798412323
1761467297567350300,6.231350341796875,-0.02670155093073845,-0.054125480353832245,-0.2595297694206238
1761467297577333200,6.241333251953125,-0.008243179880082607,-0.05893488600850105,-0.23969535529613495
1761467297587316200,6.251316162109375,0.006261618807911873,-0.05885540321469307,-0.21952085196971893
1761467297597299200,6.26129931640625,0.01304282620549202,-0.05201640725135803,-0.1907816231250763
1761467297607282200,6.2712822265625,0.025411231443285942,-0.051099423319101334,-0.15307196974754333
1761467297617265200,6.28126513671875,0.036313146352767944,-0.058944299817085266,-0.11087844520807266
1761467297627248400,6.291248291015625,0.056834347546100616,-0.05839693173766136,-0.059849269688129425
1761467297637231000,6.301231201171875,0.07401812821626663,-0.04768436774611473,-0.02250802144408226
1761467297647214000,6.311214111328125,0.0904059186577797,-0.0616656094789505,0.0030231319833546877
1761467297657197300,6.321197265625,0.10398644208908081,-0.091767318546772,0.032658789306879044
1761467297667180000,6.331179931640625,0.11058354377746582,-0.10686697065830231,0.049391113221645355
1761467297677163000,6.3411630859375,0.12824642658233643,-0.11715689301490784,0.04925262928009033
1761467297687147300,6.351147216796875,0.14242732524871826,-0.1513727754354477,0.04346734657883644
1761467297697130200,6.361130126953125,0.16115359961986542,-0.19042617082595825,0.03087938204407692
1761467297707113200,6.37111328125,0.17505910992622375,-0.21821600198745728,0.0188848078250885
1761467297717096200,6.38109619140625,0.18725824356079102,-0.22821056842803955,0.011882558465003967
1761467297727079200,6.3910791015625,0.2014325112104416,-0.22092580795288086,-0.006215997040271759
1761467297737062100,6.401062255859375,0.21403992176055908,-0.20164425671100616,-0.03849164769053459
1761467297747045400,6.41104541015625,0.2215377539396286,-0.1793302595615387,-0.08232133090496063
1761467297757028000,6.421028076171875,0.22836849093437195,-0.15285150706768036,-0.1290172040462494
1761467297767011000,6.431010986328125,0.2272225171327591,-0.12443752586841583,-0.1716299206018448
1761467297776994300,6.440994384765625,0.22656551003456116,-0.11462670564651489,-0.20415589213371277
1761467297786977300,6.450977294921875,0.22631140053272247,-0.12082643806934357,-0.22607208788394928
1761467297796960000,6.4609599609375,0.22865764796733856,-0.14514189958572388,-0.2511204481124878
1761467297806943200,6.470943115234375,0.2416958212852478,-0.17995531857013702,-0.2827605903148651
1761467297816926200,6.48092626953125,0.2569115161895752,-0.2130059450864792,-0.32332026958465576
1761467297826909200,6.4909091796875,0.27490532398223877,-0.23909874260425568,-0.37112957239151
1761467297836892200,6.50089208984375,0.29978111386299133,-0.2771819233894348,-0.4106769859790802
1761467297846875100,6.510875244140625,0.3049851655960083,-0.30704373121261597,-0.45592764019966125
1761467297856858400,6.5208583984375,0.32716476917266846,-0.33137384057044983,-0.4826734960079193
1761467297866842400,6.53084228515625,0.3320949971675873,-0.3309883177280426,-0.5212759375572205
1761467297876825000,6.5408251953125,0.3356727063655853,-0.2901167869567871,-0.5730056762695312
1761467297886808000,6.55080810546875,0.3293571174144745,-0.24032185971736908,-0.6379541754722595
1761467297896791300,6.560791259765625,0.3205162286758423,-0.20457026362419128,-0.685438334941864
1761467297906774300,6.570774169921875,0.31588298082351685,-0.20772400498390198,-0.7068840265274048
1761467297916757000,6.580757080078125,0.29826509952545166,-0.21115495264530182,-0.6943362951278687
1761467297926740200,6.590740234375,0.26137179136276245,-0.22101211547851562,-0.6799787282943726
1761467297936723200,6.60072314453125,0.2217644602060318,-0.28240063786506653,-0.6903120279312134
1761467297946706200,6.6107060546875,0.19989517331123352,-0.37830600142478943,-0.6987265348434448
1761467297956689400,6.620689453125,0.1795446276664734,-0.45190057158470154,-0.685706615447998
1761467297966672100,6.630672119140625,0.1588204801082611,-0.5071375966072083,-0.6651904582977295
1761467297976655400,6.6406552734375,0.17865703999996185,-0.5056459307670593,-0.6196807622909546
1761467297986638300,6.650638427734375,0.20073111355304718,-0.47698894143104553,-0.5617026090621948
1761467297996621300,6.660621337890625,0.2294573038816452,-0.39210572838783264,-0.505727231502533
1761467298006604300,6.670604248046875,0.25331008434295654,-0.32185298204421997,-0.45664799213409424
1761467298016587300,6.680587158203125,0.2894926071166992,-0.27486762404441833,-0.4199797213077545
1761467298026570200,6.6905703125,0.3287918269634247,-0.21574847400188446,-0.3863307237625122
1761467298036553200,6.70055322265625,0.36736157536506653,-0.16048654913902283,-0.33175164461135864
1761467298046537200,6.710537109375,0.3966260552406311,-0.12566794455051422,-0.2899536192417145
1761467298056520200,6.720520263671875,0.4122673273086548,-0.0971100777387619,-0.2705706059932709
1761467298066503200,6.730503173828125,0.41023266315460205,-0.07196895033121109,-0.27138060331344604
1761467298076486400,6.740486328125,0.3958156406879425,-0.06842881441116333,-0.28204071521759033
1761467298086469000,6.75046923828125,0.37800490856170654,-0.06750209629535675,-0.30101460218429565
1761467298096452400,6.760452392578125,0.35588762164115906,-0.062287356704473495,-0.3103391230106354
1761467298106435300,6.770435302734375,0.33436280488967896,-0.0641055554151535,-0.31887316703796387
1761467298116418300,6.780418212890625,0.31873297691345215,-0.04895669221878052,-0.3180585205554962
1761467298126401300,6.7904013671875,0.3087311089038849,-0.027709534391760826,-0.32573401927948
1761467298136384300,6.80038427734375,0.2947162389755249,-0.0046489546075463295,-0.34434792399406433
1761467298146367200,6.8103671875,0.28885290026664734,0.01934405229985714,-0.36952123045921326
1761467298156350500,6.8203505859375,0.2878406345844269,0.026792114600539207,-0.3926132321357727
1761467298166333200,6.830333251953125,0.28742679953575134,0.0029830795247107744,-0.4304101765155792
1761467298176316200,6.840316162109375,0.28830617666244507,-0.013309607282280922,-0.4574979841709137
1761467298186299400,6.85029931640625,0.2837054431438446,-0.0023254489060491323,-0.47257477045059204
1761467298196282000,6.8602822265625,0.277881383895874,0.01974150538444519,-0.48001402616500854
1761467298206265000,6.87026513671875,0.284494549036026,0.01942574791610241,-0.4902266561985016
1761467298216248300,6.880248291015625,0.29019320011138916,0.004528823774307966,-0.48560741543769836
1761467298226231300,6.890231201171875,0.30105412006378174,-0.01830638013780117,-0.474548876285553
1761467298236215300,6.90021533203125,0.3232302665710449,-0.02792278677225113,-0.4781912863254547
1761467298246198300,6.9101982421875,0.3483213782310486,-0.03156115487217903,-0.48208165168762207
1761467298256181200,6.92018115234375,0.37257903814315796,-0.029528897255659103,-0.48668280243873596
1761467298266164200,6.930164306640625,0.39264392852783203,-0.03895155340433121,-0.4848612844944
1761467298276147500,6.9401474609375,0.4043138921260834,-0.05214352160692215,-0.47104188799858093
1761467298286130200,6.950130126953125,0.4146743714809418,-0.06526865065097809,-0.43876582384109497
1761467298296113200,6.960113037109375,0.4251600503921509,-0.08287613093852997,-0.39706578850746155
1761467298306096400,6.970096435546875,0.42918503284454346,-0.10670765489339828,-0.3631521761417389
1761467298316079000,6.9800791015625,0.4304806590080261,-0.12251538038253784,-0.3212753236293793
1761467298326062000,6.99006201171875,0.42987069487571716,-0.12152847647666931,-0.2824290096759796
1761467298336045300,7.00004541015625,0.4142020046710968,-0.11504687368869781,-0.24204324185848236
1761467298346028300,7.0100283203125,0.4065001904964447,-0.10814078897237778,-0.20031076669692993
1761467298356011300,7.02001123046875,0.39149540662765503,-0.08121809363365173,-0.1693882793188095
1761467298365994200,7.029994140625,0.3585631549358368,-0.054034266620874405,-0.16798660159111023
1761467298375977200,7.039977294921875,0.32911416888237,-0.02421458251774311,-0.1862042099237442
1761467298385960400,7.04996044921875,0.31375887989997864,-0.014856211841106415,-0.19414307177066803
1761467298395943200,7.059943115234375,0.2871030271053314,-0.015650099143385887,-0.1970728188753128
1761467298405926100,7.069926025390625,0.264791876077652,-0.002620423212647438,-0.20627886056900024
1761467298415910100,7.07991015625,0.2507897913455963,0.005481179337948561,-0.20838622748851776
1761467298425893400,7.089893310546875,0.2350531369447708,0.013312305323779583,-0.2030317485332489
1761467298435876400,7.09987646484375,0.2139342725276947,0.01245556678622961,-0.19293278455734253
1761467298445859000,7.109859130859375,0.19568300247192383,0.0005567669868469238,-0.1843622475862503
1761467298455842300,7.11984228515625,0.1742328405380249,0.01815626583993435,-0.1777200698852539
1761467298465825300,7.1298251953125,0.15416009724140167,0.041225530207157135,-0.18048791587352753
1761467298475808300,7.139808349609375,0.12965288758277893,0.07007236033678055,-0.20670434832572937
1761467298485791200,7.149791259765625,0.11915673315525055,0.0920775756239891,-0.23992584645748138
1761467298495774200,7.159774169921875,0.10452371835708618,0.0945708230137825,-0.2630990743637085
1761467298505757400,7.16975732421875,0.10352062433958054,0.09887764602899551,-0.2802700698375702
1761467298515740200,7.179740234375,0.10889781266450882,0.09365811198949814,-0.2923211455345154
1761467298525723100,7.18972314453125,0.11270812898874283,0.06425012648105621,-0.30117306113243103
1761467298535706400,7.199706298828125,0.11635160446166992,0.03225330635905266,-0.2951037287712097
1761467298545689300,7.209689453125,0.11660553514957428,0.004277899861335754,-0.28908202052116394
1761467298555672000,7.219672119140625,0.12025593221187592,0.008747217245399952,-0.2879962623119354
1761467298565655300,7.2296552734375,0.12337271124124527,0.02680351212620735,-0.29357409477233887
1761467298575638300,7.23963818359375,0.1233426183462143,0.039949942380189896,-0.29898589849472046
1761467298585621200,7.249621337890625,0.11939454823732376,0.04950561746954918,-0.302505761384964
1761467298595604200,7.259604248046875,0.11573909223079681,0.03864045441150665,-0.303326815366745
1761467298605588200,7.269588134765625,0.1115814819931984,0.015780892223119736,-0.29249584674835205
1761467298615571200,7.2795712890625,0.10529056191444397,-0.01541830599308014,-0.2727506160736084
1761467298625554400,7.289554443359375,0.09760608524084091,-0.03779606148600578,-0.24113672971725464
1761467298635537200,7.299537109375,0.08499974012374878,-0.059890177100896835,-0.2055656760931015
1761467298645520100,7.30952001953125,0.07376537472009659,-0.0760311409831047,-0.17098534107208252
1761467298655503400,7.31950341796875,0.06343843042850494,-0.08343419432640076,-0.13886097073554993
1761467298665486300,7.329486328125,0.049847427755594254,-0.0717739462852478,-0.11572693288326263
1761467298675469000,7.339468994140625,0.03810395300388336,-0.05540855601429939,-0.08401215076446533
1761467298685452300,7.349452392578125,0.026445141062140465,-0.04866604879498482,-0.06333719193935394
1761467298695435300,7.359435302734375,0.017367223277688026,-0.04385052248835564,-0.04088620841503143
1761467298705418200,7.369418212890625,0.011793904937803745,-0.04838770627975464,-0.02947964519262314
1761467298715401200,7.379401123046875,0.009766707196831703,-0.052755292505025864,-0.018812354654073715
1761467298725384200,7.38938427734375,0.002113669877871871,-0.05809832364320755,-0.021717704832553864
1761467298735367400,7.399367431640625,-0.0030267639085650444,-0.06852459162473679,-0.02831195667386055
1761467298745350400,7.409350341796875,-0.006894460879266262,-0.08005814254283905,-0.046524617820978165
1761467298755333000,7.4193330078125,-0.013014137744903564,-0.1042172759771347,-0.05823640152812004
1761467298765316400,7.42931640625,-0.02750498801469803,-0.11888141185045242,-0.07953021675348282
1761467298775299300,7.43929931640625,-0.04442112147808075,-0.12256190180778503,-0.09386015683412552
1761467298785282300,7.4492822265625,-0.05990849435329437,-0.13783520460128784,-0.1082310676574707
1761467298795265300,7.459265380859375,-0.07304533571004868,-0.178522989153862,-0.13697269558906555
1761467298805249300,7.469249267578125,-0.07083423435688019,-0.22185924649238586,-0.15691979229450226
1761467298815232300,7.479232177734375,-0.0657273530960083,-0.2489451915025711,-0.16995011270046234
1761467298825215200,7.48921533203125,-0.04964057356119156,-0.26898083090782166,-0.16852699220180511
1761467298835198200,7.4991982421875,-0.031677018851041794,-0.2726096510887146,-0.17744459211826324
1761467298845181200,7.50918115234375,-0.019207831472158432,-0.2820228636264801,-0.1814853996038437
1761467298855164400,7.519164306640625,-0.005254464689642191,-0.2916576564311981,-0.18809403479099274
1761467298865147400,7.5291474609375,0.007852928712964058,-0.3056521415710449,-0.21097180247306824
1761467298875130000,7.539130126953125,0.020286694169044495,-0.31054916977882385,-0.2432732880115509
1761467298885113300,7.54911328125,0.03068454936146736,-0.3045988082885742,-0.2746025025844574
1761467298895096300,7.559096435546875,0.04786353558301926,-0.296700656414032,-0.3056347072124481
1761467298905079300,7.569079345703125,0.06138938292860985,-0.3037551939487457,-0.3331151306629181
1761467298915062300,7.579062255859375,0.07114267349243164,-0.3122541606426239,-0.34528976678848267
1761467298925045200,7.589045166015625,0.0837879627943039,-0.3236894905567169,-0.35149499773979187
1761467298935028200,7.5990283203125,0.100675068795681,-0.33040571212768555,-0.36253008246421814
1761467298945011500,7.609011474609375,0.1169775202870369,-0.33047422766685486,-0.38311967253685
1761467298954994400,7.618994384765625,0.13100598752498627,-0.3342069089412689,-0.3985404372215271
1761467298964977200,7.62897705078125,0.14936649799346924,-0.32951733469963074,-0.4145500361919403
1761467298974960400,7.63896044921875,0.1796141415834427,-0.3102397620677948,-0.4340537190437317
1761467298984943400,7.648943359375,0.20667335391044617,-0.3000701069831848,-0.4516628086566925
1761467298994927400,7.65892724609375,0.2440180778503418,-0.2859340310096741,-0.45912498235702515
1761467299004910600,7.66891064453125,0.28652653098106384,-0.27696412801742554,-0.4604491591453552
1761467299014893300,7.678893310546875,0.33044925332069397,-0.2873067855834961,-0.4584038555622101
1761467299024876300,7.688876220703125,0.36495018005371094,-0.29755938053131104,-0.45141512155532837
1761467299034859500,7.698859619140625,0.3928971290588379,-0.29973065853118896,-0.44271165132522583
1761467299044842500,7.708842529296875,0.4190353751182556,-0.3175874650478363,-0.45308250188827515
1761467299054825200,7.7188251953125,0.4256938099861145,-0.33862191438674927,-0.45854249596595764
1761467299064808400,7.728808349609375,0.43439626693725586,-0.36356934905052185,-0.46494412422180176
1761467299074791400,7.73879150390625,0.44594109058380127,-0.3932787775993347,-0.46357738971710205
1761467299084774400,7.7487744140625,0.44585558772087097,-0.4078788459300995,-0.45552757382392883
1761467299094757400,7.75875732421875,0.4555092751979828,-0.4112277925014496,-0.4423108398914337
1761467299104740400,7.768740234375,0.46844345331192017,-0.4147172272205353,-0.4276648461818695
1761467299114723300,7.778723388671875,0.4778159260749817,-0.42375174164772034,-0.4157048463821411
1761467299124706300,7.788706298828125,0.4920181930065155,-0.42656180262565613,-0.40056106448173523
1761467299134689300,7.798689208984375,0.49921804666519165,-0.42190712690353394,-0.36964574456214905
1761467299144672500,7.808672607421875,0.5025524497032166,-0.4282896816730499,-0.32830068469047546
1761467299154655500,7.818655517578125,0.5023271441459656,-0.4476111829280853,-0.28466346859931946
1761467299164638200,7.82863818359375,0.5038058757781982,-0.4516046345233917,-0.25049087405204773
1761467299174621400,7.838621337890625,0.5020623207092285,-0.4568287134170532,-0.22960823774337769
1761467299184604400,7.8486044921875,0.5086053609848022,-0.4776453673839569,-0.2352474331855774
1761467299194588400,7.85858837890625,0.5195054411888123,-0.5158860087394714,-0.2533095180988312
1761467299204571400,7.8685712890625,0.5381132960319519,-0.5174022912979126,-0.276093453168869
1761467299214554400,7.878554443359375,0.5445770621299744,-0.5503738522529602,-0.3048896789550781
1761467299224537300,7.888537353515625,0.55865478515625,-0.6089065074920654,-0.328321635723114
1761467299234520300,7.898520263671875,0.5634756088256836,-0.6657458543777466,-0.3559037148952484
1761467299244503600,7.908503662109375,0.5732591152191162,-0.6981459259986877,-0.40077391266822815
1761467299254486300,7.918486328125,0.5842422246932983,-0.6845480799674988,-0.46577927470207214
1761467299264469500,7.928469482421875,0.5831130743026733,-0.6625750660896301,-0.5324252247810364
1761467299274452500,7.938452392578125,0.5839650630950928,-0.6255195736885071,-0.5985333919525146
1761467299284435200,7.948435302734375,0.5707796216011047,-0.5750645995140076,-0.6618431806564331
1761467299294418400,7.95841845703125,0.5566712617874146,-0.5412432551383972,-0.71108478307724
1761467299304401400,7.9684013671875,0.5316439867019653,-0.5305442214012146,-0.746785581111908
1761467299314384400,7.97838427734375,0.5188578367233276,-0.5245515704154968,-0.7659521102905273
1761467299324367400,7.988367431640625,0.5204252600669861,-0.5190562009811401,-0.7781527042388916
1761467299334350300,7.998350341796875,0.5133854746818542,-0.5231635570526123,-0.7891353368759155
1761467299344331300,8.008331298828125,0.5080856680870056,-0.5314668416976929,-0.7878443002700806
1761467299354314200,8.018314208984375,0.5025385618209839,-0.524049699306488,-0.7769431471824646
1761467299364297500,8.02829736328125,0.4953201413154602,-0.5041441321372986,-0.7691230177879333
1761467299374280400,8.038280517578125,0.48428747057914734,-0.490967333316803,-0.7540426254272461
1761467299384263200,8.04826318359375,0.476085364818573,-0.4821355640888214,-0.7422450184822083
1761467299394246400,8.058246337890624,0.46477943658828735,-0.4837430715560913,-0.7324885725975037
1761467299404229400,8.0682294921875,0.45138946175575256,-0.5039133429527283,-0.7251578569412231
1761467299414212400,8.07821240234375,0.44829675555229187,-0.5223197937011719,-0.7286396622657776
1761467299424195300,8.0881953125,0.43540555238723755,-0.5303046107292175,-0.7411677241325378
1761467299434178300,8.09817822265625,0.43018096685409546,-0.5240496397018433,-0.7513145804405212
1761467299444161500,8.10816162109375,0.42115095257759094,-0.5106953382492065,-0.762249767780304
1761467299454144500,8.11814453125,0.4110455811023712,-0.5137084126472473,-0.7819368839263916
1761467299464127200,8.128127197265625,0.39442333579063416,-0.5251007676124573,-0.7906895279884338
1761467299474110500,8.1381103515625,0.37915492057800293,-0.5420233011245728,-0.8038804531097412
1761467299484093400,8.148093505859375,0.37313273549079895,-0.5636110305786133,-0.8193023204803467
1761467299494076400,8.158076416015625,0.3675883114337921,-0.580299437046051,-0.8290236592292786
1761467299504059400,8.168059326171875,0.3736634850502014,-0.5898342728614807,-0.8415930867195129
1761467299514043400,8.17804345703125,0.380527526140213,-0.5790303945541382,-0.857062578201294
1761467299524026400,8.1880263671875,0.4002571702003479,-0.5576511025428772,-0.8803413510322571
1761467299534009300,8.19800927734375,0.4146270751953125,-0.519784152507782,-0.9143869280815125
1761467299543992300,8.207992431640625,0.4327245056629181,-0.4860473573207855,-0.931486964225769
1761467299553975300,8.217975341796874,0.4425044059753418,-0.4575003981590271,-0.9503900408744812
1761467299563958500,8.22795849609375,0.4505528211593628,-0.4447675049304962,-0.9719191193580627
1761467299573941500,8.23794140625,0.4570445418357849,-0.433307409286499,-0.9871057868003845
1761467299583924200,8.24792431640625,0.46262913942337036,-0.4370081126689911,-0.9897722005844116
1761467299593907500,8.257907470703126,0.47510871291160583,-0.45028209686279297,-0.9850120544433594
1761467299603890400,8.267890380859376,0.46011340618133545,-0.44227251410484314,-0.9806569814682007
1761467299613873400,8.277873291015625,0.4654722213745117,-0.4248141646385193,-0.982513964176178
1761467299623856400,8.2878564453125,0.47283226251602173,-0.3950909376144409,-0.9747707843780518
1761467299633839400,8.29783935546875,0.47752952575683594,-0.37329137325286865,-0.9530130624771118
1761467299643822300,8.307822265625,0.48147425055503845,-0.38030675053596497,-0.929422914981842
1761467299653805600,8.3178056640625,0.48769858479499817,-0.38036322593688965,-0.8967975974082947
1761467299663788300,8.327788330078125,0.4942281246185303,-0.37234213948249817,-0.8630696535110474
1761467299673771300,8.337771240234375,0.5059407353401184,-0.3695569932460785,-0.8388713598251343
1761467299683754500,8.34775439453125,0.5102410316467285,-0.37152910232543945,-0.8152021169662476
1761467299693737200,8.3577373046875,0.5133289694786072,-0.37597978115081787,-0.7888732552528381
1761467299703721200,8.36772119140625,0.5116848945617676,-0.3768857419490814,-0.7669572234153748
1761467299713704400,8.377704345703124,0.5081599354743958,-0.37985649704933167,-0.754457414150238
1761467299723687400,8.3876875,0.5048547983169556,-0.38474294543266296,-0.7487093806266785
1761467299733670400,8.39767041015625,0.5015420913696289,-0.38762474060058594,-0.745683491230011
1761467299743653400,8.4076533203125,0.49231868982315063,-0.3913716971874237,-0.7496400475502014
1761467299753636400,8.41763623046875,0.48873913288116455,-0.3709676265716553,-0.7516257166862488
1761467299763619300,8.427619384765626,0.47848984599113464,-0.3501574397087097,-0.7613919377326965
1761467299773602600,8.4376025390625,0.48232266306877136,-0.3333022892475128,-0.7697233557701111
1761467299783585300,8.447585205078125,0.4815744161605835,-0.3217027485370636,-0.7734578251838684
1761467299793568300,8.457568359375,0.48654305934906006,-0.3192470669746399,-0.7773681282997131
1761467299803551500,8.467551513671875,0.4942052960395813,-0.3160441815853119,-0.7905983328819275
1761467299813534500,8.477534423828125,0.5024046301841736,-0.29162460565567017,-0.7954015731811523
1761467299823517400,8.487517333984375,0.5020418763160706,-0.2653403580188751,-0.8024541139602661
1761467299833500400,8.49750048828125,0.4930950105190277,-0.24848972260951996,-0.8116049766540527
1761467299843483400,8.5074833984375,0.47463804483413696,-0.23202048242092133,-0.8154208660125732
1761467299853466400,8.51746630859375,0.46826058626174927,-0.23286044597625732,-0.8031514286994934
1761467299863449300,8.527449462890624,0.45730432868003845,-0.2481222301721573,-0.7853088974952698
1761467299873432300,8.537432373046874,0.44443780183792114,-0.25750240683555603,-0.7532966732978821
1761467299883415600,8.54741552734375,0.4376866817474365,-0.24493107199668884,-0.7234408855438232
1761467299893399600,8.557399658203124,0.42603376507759094,-0.2270442098379135,-0.680276095867157
1761467299903382300,8.56738232421875,0.414700984954834,-0.19598233699798584,-0.6353476047515869
1761467299913365200,8.577365234375,0.4069349467754364,-0.15661363303661346,-0.6001525521278381
1761467299923348500,8.587348388671876,0.4039727449417114,-0.12068963795900345,-0.5905354619026184
1761467299933331500,8.59733154296875,0.398294597864151,-0.0997348204255104,-0.5862515568733215
1761467299943314400,8.607314453125,0.39545634388923645,-0.06263729929924011,-0.5897764563560486
1761467299953297700,8.617297607421875,0.389813631772995,-0.017052505165338516,-0.6003308296203613
1761467299963280400,8.6272802734375,0.3792620301246643,0.021861033514142036,-0.6312963962554932
1761467299973263600,8.637263671875,0.38281601667404175,0.04756613075733185,-0.6738329529762268
1761467299983246600,8.64724658203125,0.3836876451969147,0.07584775239229202,-0.7080815434455872
1761467299993229300,8.657229248046875,0.39194637537002563,0.10900650173425674,-0.7232253551483154
1761467300003212500,8.667212646484375,0.4022563695907593,0.13055740296840668,-0.7137898206710815
1761467300013195500,8.677195556640624,0.4143769443035126,0.1336091160774231,-0.689915120601654
1761467300023178500,8.687178466796874,0.42263656854629517,0.12548643350601196,-0.6759606599807739
1761467300033161500,8.697161376953124,0.43691352009773254,0.10616999119520187,-0.6849256753921509
1761467300043144400,8.70714453125,0.4285338222980499,0.1348317563533783,-0.6723314523696899
1761467300053127400,8.71712744140625,0.4301423728466034,0.1694544553756714,-0.624871551990509
1761467300063110700,8.727110595703126,0.4115835726261139,0.1343480348587036,-0.6938333511352539
1761467300073093400,8.73709326171875,0.4407910108566284,0.10120366513729095,-0.7499464154243469
1761467300083077400,8.747077392578126,0.44765058159828186,0.024362316355109215,-0.7554090023040771
1761467300093060600,8.757060546875,0.4400291442871094,-0.05972033739089966,-0.7716034054756165
1761467300103043600,8.767043701171875,0.45259881019592285,-0.13722005486488342,-0.7904749512672424
1761467300113026600,8.777026611328125,0.4650309681892395,-0.22202014923095703,-0.7973248362541199
1761467300123009500,8.787009521484375,0.4797992408275604,-0.27861326932907104,-0.7940278053283691
1761467300132992500,8.796992431640625,0.4787638187408447,-0.31909385323524475,-0.7831485271453857
1761467300142975500,8.8069755859375,0.4742700457572937,-0.3437478542327881,-0.7697267532348633
1761467300152958500,8.81695849609375,0.4566657543182373,-0.31783875823020935,-0.7822031378746033
