time,seconds_elapsed,z,y,x
1761467135763885000,0.116885009765625,-0.6205980777740479,-0.5484065413475037,0.05141385644674301
1761467135773868300,0.126868408203125,-0.6245092153549194,-0.5670086741447449,0.1332261562347412
1761467135783851300,0.136851318359375,-0.6388044953346252,-0.5737763047218323,0.23262959718704224
1761467135793834500,0.14683447265625,-0.6416021585464478,-0.570287823677063,0.32538723945617676
1761467135803816200,0.156816162109375,-0.6304013729095459,-0.5617302656173706,0.39359480142593384
1761467135813799400,0.16679931640625,-0.6084401607513428,-0.5453289151191711,0.4318564236164093
1761467135823782400,0.176782470703125,-0.5935413837432861,-0.5275838971138,0.4358099699020386
1761467135833765400,0.186765380859375,-0.56732577085495,-0.5088744163513184,0.41714146733283997
1761467135843747300,0.196747314453125,-0.5411575436592102,-0.48548758029937744,0.3929365277290344
1761467135853730600,0.20673046875,-0.5186972618103027,-0.4507511854171753,0.37048768997192383
1761467135863713300,0.21671337890625,-0.49528640508651733,-0.4184897243976593,0.34594082832336426
1761467135873696300,0.2266962890625,-0.46299663186073303,-0.3820592761039734,0.313603937625885
1761467135883678500,0.236678466796875,-0.4435252547264099,-0.3522401750087738,0.27774056792259216
1761467135893661200,0.2466611328125,-0.4274304509162903,-0.3335959017276764,0.2404153048992157
1761467135903644400,0.25664453125,-0.4094081521034241,-0.3188936114311218,0.1990204155445099
1761467135913627400,0.26662744140625,-0.3884855806827545,-0.3111928105354309,0.16315509378910065
1761467135923609300,0.276609375,-0.3731292486190796,-0.30646446347236633,0.1327887922525406
1761467135933592300,0.28659228515625,-0.3666156828403473,-0.31380602717399597,0.1114392951130867
1761467135943575300,0.2965751953125,-0.38413482904434204,-0.32767897844314575,0.09365570545196533
1761467135953558500,0.30655859375,-0.4018448293209076,-0.3484724164009094,0.07866477221250534
1761467135963540200,0.316540283203125,-0.4239193797111511,-0.3709653913974762,0.06010079383850098
1761467135973523500,0.3265234375,-0.4522450268268585,-0.38798031210899353,0.04718020558357239
1761467135983506400,0.33650634765625,-0.48069047927856445,-0.3955000042915344,0.04049099609255791
1761467135993489200,0.3464892578125,-0.5006290078163147,-0.40170010924339294,0.031109478324651718
1761467136003471400,0.356471435546875,-0.5219135880470276,-0.406692236661911,0.021172957494854927
1761467136013454300,0.366454345703125,-0.540492594242096,-0.4125298857688904,0.006140479352325201
1761467136023437300,0.376437255859375,-0.5579173564910889,-0.4205651879310608,-0.019732989370822906
1761467136033420300,0.386420166015625,-0.5785579681396484,-0.44155463576316833,-0.045173633843660355
1761467136043402500,0.396402587890625,-0.5941082835197449,-0.46522846817970276,-0.07100372016429901
1761467136053385200,0.40638525390625,-0.6011041402816772,-0.4846802055835724,-0.0882791131734848
1761467136063368400,0.416368408203125,-0.6012979745864868,-0.4761587083339691,-0.11216917634010315
1761467136073351400,0.426351318359375,-0.6002205014228821,-0.4441869258880615,-0.14208020269870758
1761467136083333400,0.43633349609375,-0.5797868967056274,-0.4237622618675232,-0.196398064494133
1761467136093316400,0.44631640625,-0.5497925281524658,-0.3767356276512146,-0.24890096485614777
1761467136103299300,0.45629931640625,-0.5158921480178833,-0.3449769616127014,-0.2910585105419159
1761467136113282600,0.466282470703125,-0.4854133725166321,-0.33844155073165894,-0.32440420985221863
1761467136123264300,0.47626416015625,-0.4554770588874817,-0.32882899045944214,-0.33151280879974365
1761467136133247500,0.48624755859375,-0.4373001754283905,-0.3143121004104614,-0.29765069484710693
1761467136143230500,0.49623046875,-0.42214125394821167,-0.3024056553840637,-0.2390146255493164
1761467136153213200,0.506213134765625,-0.4206799864768982,-0.2919122874736786,-0.15989238023757935
1761467136163195400,0.5161953125,-0.41482916474342346,-0.2819887697696686,-0.0869167298078537
1761467136173178400,0.526178466796875,-0.4091566503047943,-0.27846381068229675,-0.04120250418782234
1761467136183161300,0.536161376953125,-0.4005264639854431,-0.27088767290115356,-0.017610745504498482
1761467136193144300,0.546144287109375,-0.38737550377845764,-0.2622299790382385,-0.026304900646209717
1761467136203126500,0.55612646484375,-0.3789266347885132,-0.2606278359889984,-0.0641430914402008
1761467136213109200,0.566109130859375,-0.38024088740348816,-0.2620672881603241,-0.11116732656955719
1761467136223092200,0.57609228515625,-0.375009685754776,-0.2718943655490875,-0.15866225957870483
1761467136233075500,0.586075439453125,-0.3746168911457062,-0.2852858006954193,-0.20261986553668976
1761467136243057200,0.59605712890625,-0.37266817688941956,-0.30639731884002686,-0.2356903851032257
1761467136253040400,0.606040283203125,-0.3753049969673157,-0.3276762366294861,-0.26093339920043945
1761467136263023400,0.6160234375,-0.3830375373363495,-0.3441236615180969,-0.2698090374469757
1761467136273006300,0.62600634765625,-0.3878277540206909,-0.35725703835487366,-0.2862812280654907
1761467136282989300,0.6359892578125,-0.3948211669921875,-0.3606816232204437,-0.304313063621521
1761467136292971300,0.64597119140625,-0.3964632749557495,-0.3498673141002655,-0.31660914421081543
1761467136302954500,0.65595458984375,-0.39776474237442017,-0.34302231669425964,-0.3235403597354889
1761467136312937200,0.665937255859375,-0.39728033542633057,-0.3212600350379944,-0.3290480375289917
1761467136322920400,0.67592041015625,-0.3984253406524658,-0.29108643531799316,-0.3277209401130676
1761467136332902400,0.68590234375,-0.3981313109397888,-0.2616017758846283,-0.3159279227256775
1761467136342885400,0.695885498046875,-0.4042639434337616,-0.23555710911750793,-0.2869498133659363
1761467136352868400,0.705868408203125,-0.422654926776886,-0.20706580579280853,-0.2394736260175705
1761467136362851300,0.715851318359375,-0.43241119384765625,-0.19063213467597961,-0.18921133875846863
1761467136372833300,0.725833251953125,-0.4387702941894531,-0.1828857958316803,-0.1448127180337906
1761467136382816300,0.735816162109375,-0.4376220703125,-0.17363816499710083,-0.11413299292325974
1761467136392799500,0.745799560546875,-0.4306240677833557,-0.1618044078350067,-0.09905923902988434
1761467136402782500,0.755782470703125,-0.4214155077934265,-0.14559070765972137,-0.09485650807619095
1761467136412764400,0.765764404296875,-0.4071119427680969,-0.12849560379981995,-0.09335795044898987
1761467136422747400,0.775747314453125,-0.38215336203575134,-0.11173504590988159,-0.08827970921993256
1761467136432730400,0.78573046875,-0.36015352606773376,-0.09311768412590027,-0.08312781900167465
1761467136442713300,0.79571337890625,-0.33101221919059753,-0.07308489829301834,-0.06407882273197174
1761467136452695300,0.8056953125,-0.30273476243019104,-0.05138572305440903,-0.04951746016740799
1761467136462678500,0.815678466796875,-0.2709788680076599,-0.036421723663806915,-0.03527257591485977
1761467136472661200,0.8256611328125,-0.24304470419883728,-0.03320009633898735,-0.014404844492673874
1761467136482644200,0.835644287109375,-0.21432621777057648,-0.042203232645988464,0.011348763480782509
1761467136492626400,0.84562646484375,-0.1863987147808075,-0.05717658996582031,0.039783600717782974
1761467136502609200,0.855609130859375,-0.16388912498950958,-0.07244965434074402,0.059478383511304855
1761467136512592400,0.86559228515625,-0.14214281737804413,-0.07286004722118378,0.06440923362970352
1761467136522575400,0.875575439453125,-0.12069224566221237,-0.06608102470636368,0.053449876606464386
1761467136532558300,0.885558349609375,-0.09169574826955795,-0.05483555793762207,0.03912819176912308
1761467136542540300,0.895540283203125,-0.07398717850446701,-0.054869819432497025,0.03152571991086006
1761467136552523300,0.905523193359375,-0.06447436660528183,-0.06138896942138672,0.040508560836315155
1761467136562506500,0.915506591796875,-0.05204417183995247,-0.0656028613448143,0.05978201702237129
1761467136572489200,0.9254892578125,-0.03437596186995506,-0.05801178887486458,0.08589138835668564
1761467136582471400,0.935471435546875,-0.010445909574627876,-0.04991231858730316,0.11124289780855179
1761467136592454400,0.945454345703125,0.009946713224053383,-0.03562659025192261,0.13538046181201935
1761467136602437400,0.955437255859375,0.027462678030133247,-0.012194296345114708,0.15300628542900085
1761467136612420400,0.96542041015625,0.04598922282457352,0.01716412417590618,0.1721874326467514
1761467136622402300,0.97540234375,0.06179467588663101,0.04723285883665085,0.1907424032688141
1761467136632385300,0.98538525390625,0.08016569167375565,0.07683442533016205,0.19692333042621613
1761467136642368300,0.9953681640625,0.10665116459131241,0.10192902386188507,0.18797573447227478
1761467136652351500,1.0053515625,0.1414695829153061,0.12416055053472519,0.15198683738708496
1761467136662333200,1.015333251953125,0.17285311222076416,0.1329510509967804,0.10658004134893417
1761467136672316400,1.02531640625,0.1905421018600464,0.13476254045963287,0.06162402033805847
1761467136682299400,1.03529931640625,0.1904430389404297,0.12687760591506958,0.028722498565912247
1761467136692282400,1.045282470703125,0.1881846785545349,0.11721804738044739,0.010480375029146671
1761467136702265300,1.055265380859375,0.17165227234363556,0.0980612188577652,-0.007955525070428848
1761467136712247300,1.065247314453125,0.15449433028697968,0.07318516075611115,-0.03628809377551079
1761467136722230500,1.07523046875,0.12905064225196838,0.048455651849508286,-0.07202227413654327
1761467136732213200,1.085213134765625,0.0999569296836853,0.030822329223155975,-0.10498608648777008
1761467136742196200,1.0951962890625,0.06323996186256409,0.011211146600544453,-0.12661801278591156
1761467136752178400,1.105178466796875,0.02222195640206337,-0.0035286513157188892,-0.12706834077835083
1761467136762161200,1.1151611328125,-0.02583252266049385,-0.012786486186087132,-0.09994705021381378
1761467136772144600,1.12514453125,-0.07636307179927826,-0.015575881116092205,-0.05338567495346069
1761467136782127400,1.13512744140625,-0.11932029575109482,-0.029537148773670197,0.0060658687725663185
1761467136792109600,1.145109619140625,-0.14417079091072083,-0.011444964446127415,0.0976189523935318
1761467136802092500,1.155092529296875,-0.16152293980121613,0.046690355986356735,0.18797007203102112
1761467136812075300,1.1650751953125,-0.17054706811904907,0.09451086819171906,0.24739158153533936
1761467136822058500,1.17505859375,-0.16477859020233154,0.0988268256187439,0.274490624666214
1761467136832041500,1.18504150390625,-0.1364462822675705,0.11049919575452805,0.2693467438220978
1761467136842023400,1.1950234375,-0.09276736527681351,0.13081295788288116,0.2437884658575058
1761467136852006400,1.20500634765625,-0.03920187056064606,0.1440342217683792,0.20159946382045746
1761467136861989400,1.2149892578125,0.006343775428831577,0.1429274082183838,0.15565593540668488
1761467136871972600,1.22497265625,0.04123544692993164,0.14101499319076538,0.11458893120288849
1761467136881954300,1.234954345703125,0.06220850348472595,0.12717659771442413,0.08306125551462173
1761467136891937500,1.2449375,0.07331867516040802,0.11020506918430328,0.06103184446692467
1761467136901920500,1.25492041015625,0.07672931998968124,0.08737774193286896,0.04681903496384621
1761467136911903500,1.264903564453125,0.08232782036066055,0.060525890439748764,0.04118058830499649
1761467136921885400,1.274885498046875,0.08101724833250046,0.03196997195482254,0.04059638828039169
1761467136931868700,1.28486865234375,0.07591357082128525,0.014194967225193977,0.039229653775691986
1761467136941851400,1.294851318359375,0.05374456197023392,0.0017249733209609985,0.023762691766023636
1761467136951834400,1.30483447265625,0.03398150950670242,-0.015978123992681503,-0.004881736822426319
1761467136961817600,1.314817626953125,0.015435325913131237,-0.028426233679056168,-0.04003860056400299
1761467136971799300,1.32479931640625,0.0015967423096299171,-0.036357659846544266,-0.06988437473773956
1761467136981782500,1.334782470703125,-0.01312260888516903,-0.03015477955341339,-0.08076401799917221
1761467136991765500,1.344765625,-0.02046174928545952,-0.007835625670850277,-0.06662902235984802
1761467137001748500,1.35474853515625,-0.017049668356776237,0.017963288351893425,-0.031888753175735474
1761467137011730400,1.36473046875,-0.01808324083685875,0.047570712864398956,0.007180884014815092
1761467137021713400,1.37471337890625,-0.03925987705588341,0.06782785803079605,0.03896993026137352
1761467137031696600,1.384696533203125,-0.0454581193625927,0.07680857181549072,0.05163033306598663
1761467137041679400,1.394679443359375,-0.0460662879049778,0.08746277540922165,0.048300810158252716
1761467137051662300,1.404662353515625,-0.04847937822341919,0.10614991188049316,0.022487586364150047
1761467137061644500,1.41464453125,-0.04458374157547951,0.12429049611091614,-0.0116127273067832
1761467137071627300,1.424627197265625,-0.03769707307219505,0.1306498646736145,-0.05155748128890991
1761467137081610500,1.434610595703125,-0.025866694748401642,0.13751769065856934,-0.09397950768470764
1761467137091593500,1.444593505859375,-0.01580793410539627,0.13749131560325623,-0.1360097974538803
1761467137101575400,1.454575439453125,-0.012510329484939575,0.12722289562225342,-0.1727006584405899
1761467137111558400,1.464558349609375,-0.014696253463625908,0.11834977567195892,-0.2048487514257431
1761467137121541400,1.474541259765625,-0.02277250401675701,0.10124775022268295,-0.2250031679868698
1761467137131524600,1.484524658203125,-0.031238429248332977,0.08014459908008575,-0.23150713741779327
1761467137141507300,1.49450732421875,-0.04468950256705284,0.06298722326755524,-0.23150107264518738
1761467137151489500,1.504489501953125,-0.05610993504524231,0.04200443997979164,-0.22675052285194397
1761467137161472500,1.514472412109375,-0.07738543301820755,0.04687076807022095,-0.19369444251060486
1761467137171455500,1.52445556640625,-0.09984946250915527,0.049389053136110306,-0.15662004053592682
1761467137181438500,1.5344384765625,-0.11101540923118591,0.050203289836645126,-0.12321995198726654
1761467137191420700,1.544420654296875,-0.12210054695606232,0.07011761516332626,-0.08797860890626907
1761467137201403400,1.5544033203125,-0.12499264627695084,0.07674431800842285,-0.061503373086452484
1761467137211386400,1.564386474609375,-0.13180367648601532,0.07206274569034576,-0.05233117938041687
1761467137221369600,1.57436962890625,-0.14037401974201202,0.05864596366882324,-0.05587684363126755
1761467137231352600,1.5843525390625,-0.15171562135219574,0.03244898095726967,-0.06748928874731064
1761467137241334500,1.59433447265625,-0.16332663595676422,-0.008124579675495625,-0.08058197051286697
1761467137251317500,1.6043173828125,-0.1715126484632492,-0.04692763462662697,-0.09618382900953293
1761467137261300500,1.614300537109375,-0.17150215804576874,-0.07808098942041397,-0.10541762411594391
1761467137271283500,1.624283447265625,-0.16261917352676392,-0.10024487972259521,-0.11110107600688934
1761467137281265400,1.634265380859375,-0.15031930804252625,-0.1110830008983612,-0.10997925698757172
1761467137291248600,1.64424853515625,-0.12814024090766907,-0.10562937706708908,-0.11230180412530899
1761467137301231400,1.6542314453125,-0.1048896461725235,-0.08267498761415482,-0.11543889343738556
1761467137311214300,1.66421435546875,-0.08567413687705994,-0.06897222250699997,-0.11826157569885254
1761467137321197600,1.674197509765625,-0.07136725634336472,-0.06362428516149521,-0.12359623610973358
1761467137331179300,1.68417919921875,-0.06975870579481125,-0.0583789236843586,-0.12083160877227783
1761467137341162500,1.69416259765625,-0.07208003103733063,-0.062318045645952225,-0.11637979000806808
1761467137351145500,1.7041455078125,-0.08160962164402008,-0.07259678840637207,-0.10070095956325531
1761467137361128400,1.71412841796875,-0.09540023654699326,-0.08279356360435486,-0.08584967255592346
1761467137371111400,1.724111328125,-0.09962214529514313,-0.08986692130565643,-0.06906217336654663
1761467137381093400,1.73409326171875,-0.11696605384349823,-0.10040055960416794,-0.054982367902994156
1761467137391076600,1.74407666015625,-0.1310509741306305,-0.12164273113012314,-0.038426827639341354
1761467137401059300,1.754059326171875,-0.14585146307945251,-0.14343692362308502,-0.023030361160635948
1761467137411042600,1.76404248046875,-0.16489359736442566,-0.16151419281959534,-0.004331242758780718
1761467137421024500,1.7740244140625,-0.18511617183685303,-0.18127311766147614,0.02360859327018261
1761467137431007500,1.784007568359375,-0.20945294201374054,-0.19896849989891052,0.0595540776848793
1761467137440990500,1.793990478515625,-0.2312256395816803,-0.2177666425704956,0.09100262075662613
1761467137450973400,1.803973388671875,-0.26273590326309204,-0.23244677484035492,0.12356588989496231
1761467137460956400,1.813956298828125,-0.28559452295303345,-0.25881195068359375,0.1484544724225998
1761467137470938400,1.8239384765625,-0.30102646350860596,-0.27324149012565613,0.16293755173683167
1761467137480921600,1.833921630859375,-0.29830506443977356,-0.2755555212497711,0.16435329616069794
1761467137490904600,1.843904541015625,-0.2842390537261963,-0.27145904302597046,0.15691135823726654
1761467137500887300,1.85388720703125,-0.2682543098926544,-0.26666533946990967,0.14688509702682495
1761467137510870500,1.86387060546875,-0.258158802986145,-0.2668190002441406,0.13903889060020447
1761467137520852500,1.8738525390625,-0.2358025163412094,-0.2662532329559326,0.14569588005542755
1761467137530835500,1.88383544921875,-0.2193194180727005,-0.27655330300331116,0.1568974107503891
1761467137540818400,1.893818359375,-0.19942204654216766,-0.2997276782989502,0.16970404982566833
1761467137550801400,1.903801513671875,-0.17532949149608612,-0.32073310017585754,0.18501350283622742
1761467137560783400,1.913783447265625,-0.15245118737220764,-0.3312879800796509,0.19859565794467926
1761467137570766300,1.923766357421875,-0.1327291578054428,-0.3270338475704193,0.20880940556526184
1761467137580749600,1.93374951171875,-0.11689727008342743,-0.31305739283561707,0.2196202278137207
1761467137590732300,1.943732177734375,-0.11003110557794571,-0.2949739992618561,0.23223082721233368
1761467137600715500,1.953715576171875,-0.10054517537355423,-0.26580631732940674,0.24619877338409424
1761467137610697500,1.963697509765625,-0.09251627326011658,-0.24330578744411469,0.23151835799217224
1761467137620680400,1.973680419921875,-0.08138202875852585,-0.23415572941303253,0.17704574763774872
1761467137630663400,1.983663330078125,-0.08158842474222183,-0.23125502467155457,0.10121410340070724
1761467137640646400,1.993646484375,-0.10126753151416779,-0.23731622099876404,0.032605841755867004
1761467137650629600,2.003629638671875,-0.12199544161558151,-0.25751471519470215,-0.006126641295850277
1761467137660611300,2.013611328125,-0.15580272674560547,-0.28722113370895386,-0.011649033054709435
1761467137670594600,2.023594482421875,-0.1737779974937439,-0.31122341752052307,0.02844884991645813
1761467137680577500,2.03357763671875,-0.1909920573234558,-0.32323479652404785,0.08084120601415634
1761467137690560300,2.043560302734375,-0.20452837646007538,-0.31008490920066833,0.1428060531616211
1761467137700543500,2.05354345703125,-0.20825262367725372,-0.2826407253742218,0.1973494291305542
1761467137710525400,2.063525390625,-0.20736925303936005,-0.24851922690868378,0.23394417762756348
1761467137720508400,2.07350830078125,-0.1962241381406784,-0.22160133719444275,0.24568615853786469
1761467137730491400,2.083491455078125,-0.191176638007164,-0.19527998566627502,0.25698381662368774
1761467137740474400,2.093474365234375,-0.18837782740592957,-0.17603041231632233,0.26867908239364624
1761467137750457600,2.10345751953125,-0.184158056974411,-0.16458973288536072,0.26856935024261475
1761467137760439300,2.113439208984375,-0.1764087826013565,-0.14465510845184326,0.25926849246025085
1761467137770422800,2.1234228515625,-0.1635877937078476,-0.11974363774061203,0.24430367350578308
1761467137780405500,2.133405517578125,-0.145852193236351,-0.09716424345970154,0.22468498349189758
1761467137790388500,2.143388427734375,-0.1294252872467041,-0.08147449791431427,0.19906564056873322
1761467137800370700,2.15337060546875,-0.12637712061405182,-0.07681043446063995,0.16280001401901245
1761467137810353400,2.163353515625,-0.1366763710975647,-0.07621495425701141,0.13140560686588287
1761467137820336600,2.173336669921875,-0.1528165638446808,-0.07674863189458847,0.09224175661802292
1761467137830319600,2.183319580078125,-0.17136681079864502,-0.0787968710064888,0.062280651181936264
1761467137840302600,2.193302490234375,-0.1902289092540741,-0.08833631128072739,0.030026579275727272
1761467137850284500,2.203284423828125,-0.20607098937034607,-0.0940471962094307,0.0090163704007864
1761467137860267500,2.213267578125,-0.21886853873729706,-0.10064931213855743,0.0018284881953150034
1761467137870250800,2.223250732421875,-0.2321113795042038,-0.10145651549100876,0.005126280710101128
1761467137880233500,2.2332333984375,-0.24169255793094635,-0.10674282163381577,0.004387284629046917
1761467137890216700,2.243216796875,-0.2526637315750122,-0.10744217038154602,-0.0017483721021562815
1761467137900198700,2.25319873046875,-0.2646492123603821,-0.11778057366609573,-0.00975024327635765
1761467137910181600,2.263181640625,-0.28156137466430664,-0.13821233808994293,-0.026849601417779922
1761467137920164600,2.27316455078125,-0.30094921588897705,-0.15134038031101227,-0.04009442776441574
1761467137930147600,2.283147705078125,-0.3187601864337921,-0.1647491306066513,-0.05685662850737572
1761467137940130800,2.293130859375,-0.3376644551753998,-0.17340423166751862,-0.07370936870574951
1761467137950112500,2.303112548828125,-0.3532194495201111,-0.17392434179782867,-0.09823601692914963
1761467137960095700,2.313095703125,-0.3634880781173706,-0.17263095080852509,-0.12296056747436523
1761467137970078700,2.32307861328125,-0.3638180196285248,-0.17158299684524536,-0.1512523889541626
1761467137980061400,2.3330615234375,-0.37462660670280457,-0.1710233837366104,-0.1787082701921463
1761467137990044700,2.343044677734375,-0.37411049008369446,-0.16579772531986237,-0.2044072300195694
1761467138000026600,2.353026611328125,-0.37735769152641296,-0.1631850004196167,-0.22212183475494385
1761467138010009600,2.363009521484375,-0.37162575125694275,-0.17080989480018616,-0.23384186625480652
1761467138019992600,2.37299267578125,-0.36859387159347534,-0.16506510972976685,-0.25311213731765747
1761467138029975600,2.3829755859375,-0.36893367767333984,-0.1637985110282898,-0.25637370347976685
1761467138039958800,2.392958740234375,-0.3717764914035797,-0.16641424596309662,-0.2467360496520996
1761467138049940500,2.4029404296875,-0.37840536236763,-0.1734393984079361,-0.22397774457931519
1761467138059923700,2.412923828125,-0.38314250111579895,-0.18330605328083038,-0.18845999240875244
1761467138069906700,2.42290673828125,-0.3971637785434723,-0.1869298219680786,-0.16280575096607208
1761467138079889400,2.432889404296875,-0.3978022336959839,-0.19627462327480316,-0.13855986297130585
1761467138089872600,2.44287255859375,-0.39667385816574097,-0.19936735928058624,-0.13585436344146729
1761467138099854600,2.4528544921875,-0.3938613533973694,-0.2050827145576477,-0.14796534180641174
1761467138109837600,2.462837646484375,-0.3954682946205139,-0.2174759954214096,-0.16917556524276733
1761467138119820500,2.472820556640625,-0.39197516441345215,-0.22563718259334564,-0.1870894581079483
1761467138129803800,2.4828037109375,-0.38772210478782654,-0.2333102822303772,-0.19905690848827362
1761467138139786800,2.492786865234375,-0.3835521936416626,-0.24335600435733795,-0.2010706067085266
1761467138149768700,2.502768798828125,-0.3752055764198303,-0.25035160779953003,-0.1985936015844345
1761467138159751700,2.512751708984375,-0.36970269680023193,-0.24690771102905273,-0.19353869557380676
1761467138169734700,2.522734619140625,-0.36220481991767883,-0.2406279742717743,-0.1856709122657776
1761467138179717600,2.532717529296875,-0.36348605155944824,-0.2285042703151703,-0.1765001118183136
1761467138189700600,2.54270068359375,-0.3609946668148041,-0.2185448408126831,-0.17475759983062744
1761467138199683600,2.55268359375,-0.35355013608932495,-0.20471733808517456,-0.18140825629234314
1761467138209665500,2.56266552734375,-0.3500851094722748,-0.19518375396728516,-0.18745549023151398
1761467138219648500,2.5726484375,-0.3367291986942291,-0.18235796689987183,-0.19857174158096313
1761467138229631700,2.5826318359375,-0.31935393810272217,-0.17569473385810852,-0.19451574981212616
1761467138239614700,2.59261474609375,-0.3053329586982727,-0.17244690656661987,-0.18362018465995789
1761467138249597400,2.602597412109375,-0.308448851108551,-0.1780850887298584,-0.16475781798362732
1761467138259579600,2.61257958984375,-0.30922266840934753,-0.17314118146896362,-0.14004066586494446
1761467138269562600,2.622562744140625,-0.3077707290649414,-0.15589986741542816,-0.11450468748807907
1761467138279545600,2.632545654296875,-0.2976585328578949,-0.13283321261405945,-0.09077171236276627
1761467138289528600,2.642528564453125,-0.2875047028064728,-0.10221457481384277,-0.06902486830949783
1761467138299511600,2.652511474609375,-0.270684152841568,-0.07477469742298126,-0.05840258672833443
1761467138309493500,2.662493408203125,-0.2587883472442627,-0.052649158984422684,-0.04909510537981987
1761467138319476500,2.6724765625,-0.24489596486091614,-0.036856509745121,-0.03382690250873566
1761467138329459700,2.682459716796875,-0.23798081278800964,-0.024787863716483116,-0.006029624491930008
1761467138339442700,2.692442626953125,-0.22306326031684875,-0.014716935344040394,0.02846645377576351
1761467138349425700,2.70242578125,-0.20187409222126007,-0.0004455873277038336,0.06860295683145523
1761467138359407600,2.71240771484375,-0.18465125560760498,0.017500022426247597,0.10578709095716476
1761467138369390800,2.722390869140625,-0.16448500752449036,0.03243609890341759,0.14165587723255157
1761467138379373600,2.73237353515625,-0.14238528907299042,0.04567837715148926,0.16217395663261414
1761467138389356500,2.7423564453125,-0.11300582438707352,0.04436837136745453,0.1717461496591568
1761467138399339800,2.75233984375,-0.08787007629871368,0.027805082499980927,0.17414020001888275
1761467138409321500,2.762321533203125,-0.06214819848537445,0.011878048069775105,0.1649264544248581
1761467138419304700,2.7723046875,-0.0513206422328949,0.0014377809129655361,0.1472376585006714
1761467138429287700,2.78228759765625,-0.043896812945604324,-0.011545661836862564,0.13393649458885193
1761467138439270700,2.792270751953125,-0.04493720084428787,-0.016996512189507484,0.13109727203845978
1761467138449253600,2.802253662109375,-0.049280017614364624,-0.015679312869906425,0.14673003554344177
1761467138459236600,2.812236572265625,-0.06052319332957268,-0.00995415635406971,0.1741046905517578
1761467138469218800,2.82221875,-0.07706568390130997,-0.005241959821432829,0.20893776416778564
1761467138479201500,2.832201416015625,-0.10351593047380447,0.008425567299127579,0.25664424896240234
1761467138489184500,2.8421845703125,-0.11925148218870163,0.014177462086081505,0.2817256450653076
1761467138499167700,2.852167724609375,-0.12909632921218872,0.040832553058862686,0.3034277856349945
1761467138509150500,2.862150390625,-0.10725253820419312,0.042261604219675064,0.2796178162097931
1761467138519132700,2.872132568359375,-0.08642035722732544,0.0454145148396492,0.2083936482667923
1761467138529115600,2.88211572265625,-0.0751274898648262,0.038702018558979034,0.12339033931493759
1761467138539098600,2.8920986328125,-0.06866481155157089,0.02194656990468502,0.046311572194099426
1761467138549081600,2.90208154296875,-0.06053604930639267,-0.011647342704236507,-0.0024069661740213633
1761467138559064600,2.912064697265625,-0.056944724172353745,-0.045926082879304886,-0.03267396241426468
1761467138569047800,2.9220478515625,-0.07301636040210724,-0.07914368808269501,-0.038594167679548264
1761467138579029500,2.932029541015625,-0.10891956090927124,-0.10296926647424698,-0.02893817611038685
1761467138589012700,2.9420126953125,-0.15908046066761017,-0.11110522598028183,0.008081628009676933
1761467138598995700,2.95199560546875,-0.22136050462722778,-0.11073370277881622,0.06543778628110886
1761467138608978400,2.961978515625,-0.27327725291252136,-0.11344080418348312,0.13755007088184357
1761467138618961700,2.971961669921875,-0.3203868269920349,-0.0943269431591034,0.2120949774980545
1761467138628943600,2.981943603515625,-0.36160269379615784,-0.05806773900985718,0.27618104219436646
1761467138638926600,2.991926513671875,-0.3878374695777893,-0.020504483953118324,0.32907164096832275
1761467138648909600,3.00190966796875,-0.3973899483680725,0.003220286453142762,0.35966309905052185
1761467138658892500,3.011892578125,-0.383888840675354,0.015917638316750526,0.3607441484928131
1761467138668875800,3.021875732421875,-0.341677725315094,0.013337300159037113,0.3404830992221832
1761467138678857500,3.031857421875,-0.30314919352531433,-0.000876834848895669,0.3131476044654846
1761467138688840700,3.0418408203125,-0.2663152813911438,-0.01570238545536995,0.2913815975189209
1761467138698823700,3.05182373046875,-0.23405054211616516,-0.025878937914967537,0.2940291464328766
1761467138708806400,3.061806396484375,-0.2068820297718048,-0.023931100964546204,0.30110010504722595
1761467138718789600,3.07178955078125,-0.18218638002872467,-0.029818132519721985,0.3090757429599762
1761467138728772600,3.081772705078125,-0.15547195076942444,-0.04388654604554176,0.30107828974723816
1761467138738754600,3.091754638671875,-0.1247420459985733,-0.05969643592834473,0.27299603819847107
1761467138748737500,3.101737548828125,-0.10523306578397751,-0.10228703916072845,0.24268284440040588
1761467138758720500,3.111720458984375,-0.09638233482837677,-0.1343403160572052,0.2084234058856964
1761467138768703700,3.121703857421875,-0.09145814925432205,-0.1467519849538803,0.1743365377187729
1761467138778686700,3.131686767578125,-0.08623369038105011,-0.15804272890090942,0.1415618658065796
1761467138788669700,3.141669677734375,-0.07579968869686127,-0.17030152678489685,0.11290013045072556
1761467138798651600,3.151651611328125,-0.06739243865013123,-0.17214152216911316,0.0871565043926239
1761467138808635000,3.161634765625,-0.05772782862186432,-0.1584874987602234,0.05952328443527222
1761467138818617900,3.171617919921875,-0.04715295881032944,-0.14396560192108154,0.02510148100554943
1761467138828600600,3.1816005859375,-0.042436230927705765,-0.12056147307157516,-0.012650958262383938
1761467138838583800,3.191583740234375,-0.04088139906525612,-0.10408280044794083,-0.048117104917764664
1761467138848565800,3.201565673828125,-0.04480210691690445,-0.09647494554519653,-0.08298800140619278
1761467138858548700,3.211548828125,-0.053075484931468964,-0.09632004797458649,-0.1140543669462204
1761467138868531700,3.22153173828125,-0.06575985252857208,-0.10256409645080566,-0.1374121457338333
1761467138878514700,3.2315146484375,-0.08486583083868027,-0.10898609459400177,-0.16065648198127747
1761467138888497700,3.24149755859375,-0.10248024761676788,-0.11826614290475845,-0.18501321971416473
1761467138898480600,3.251480712890625,-0.12361177057027817,-0.13959316909313202,-0.20255228877067566
1761467138908462800,3.261462890625,-0.14847025275230408,-0.15938737988471985,-0.21799010038375854
1761467138918445600,3.271445556640625,-0.17511577904224396,-0.16443127393722534,-0.22537167370319366
1761467138928428500,3.281428466796875,-0.20704655349254608,-0.1660347580909729,-0.2180173546075821
1761467138938411800,3.291411865234375,-0.24092791974544525,-0.15375037491321564,-0.206125870347023
1761467138948394800,3.301394775390625,-0.2675486207008362,-0.13754504919052124,-0.1937517523765564
1761467138958376700,3.311376708984375,-0.28564202785491943,-0.12324225902557373,-0.17732731997966766
1761467138968359700,3.321359619140625,-0.29942309856414795,-0.10551652312278748,-0.16084927320480347
1761467138978342700,3.3313427734375,-0.312626451253891,-0.09604068845510483,-0.14068855345249176
1761467138988325600,3.34132568359375,-0.3256860673427582,-0.09180732071399689,-0.11843758076429367
1761467138998308600,3.35130859375,-0.33434227108955383,-0.08833012729883194,-0.0979425311088562
1761467139008291800,3.361291748046875,-0.3337942063808441,-0.08926568925380707,-0.07098628580570221
1761467139018273500,3.3712734375,-0.3304367959499359,-0.0954190120100975,-0.0446225181221962
1761467139028256800,3.3812568359375,-0.32393601536750793,-0.09807657450437546,-0.019445527344942093
1761467139038239700,3.39123974609375,-0.3161163330078125,-0.08895626664161682,0.0005109407939016819
1761467139048222700,3.40122265625,-0.3027203679084778,-0.08460226655006409,0.014912516809999943
1761467139058205700,3.411205810546875,-0.2886373698711395,-0.09005270898342133,0.02497202530503273
1761467139068188700,3.421188720703125,-0.27943694591522217,-0.0991964116692543,0.01637694053351879
1761467139078171000,3.4311708984375,-0.2587122619152069,-0.10668104141950607,0.0011173747479915619
1761467139088153600,3.441153564453125,-0.2506575286388397,-0.1245492547750473,-0.020774075761437416
1761467139098136600,3.451136474609375,-0.2553337812423706,-0.15227793157100677,-0.049824684858322144
1761467139108119800,3.461119873046875,-0.24759544432163239,-0.17022179067134857,-0.07104422152042389
1761467139118102800,3.471102783203125,-0.2463160753250122,-0.1874719262123108,-0.0917411521077156
1761467139128085500,3.48108544921875,-0.25549012422561646,-0.2094384878873825,-0.10225584357976913
1761467139138067700,3.491067626953125,-0.2786806523799896,-0.23095664381980896,-0.11031673848628998
1761467139148050700,3.50105078125,-0.29236823320388794,-0.23495592176914215,-0.09917700290679932
1761467139158033700,3.51103369140625,-0.29998913407325745,-0.2337658703327179,-0.0869707241654396
1761467139168016600,3.5210166015625,-0.3107384443283081,-0.23192456364631653,-0.0559542179107666
1761467139177999600,3.53099951171875,-0.33384349942207336,-0.21049301326274872,-0.02914629504084587
1761467139187982800,3.54098291015625,-0.34275123476982117,-0.1903424710035324,-0.011133738793432713
1761467139197964500,3.550964599609375,-0.3557957708835602,-0.18003323674201965,-0.007456421852111816
1761467139207947800,3.56094775390625,-0.37027058005332947,-0.18079489469528198,-0.012416824698448181
1761467139217930800,3.5709306640625,-0.39222684502601624,-0.18392810225486755,-0.02570592798292637
1761467139227913700,3.580913818359375,-0.40911394357681274,-0.19505345821380615,-0.04374484717845917
1761467139237896700,3.590896728515625,-0.4235292375087738,-0.20780660212039948,-0.05143510177731514
1761467139247879700,3.600879638671875,-0.44229599833488464,-0.21863368153572083,-0.0468057282269001
1761467139257861600,3.610861572265625,-0.4632115066051483,-0.23984362185001373,-0.028762565925717354
1761467139267844600,3.6208447265625,-0.47822561860084534,-0.253256618976593,-0.0011285410728305578
1761467139277827800,3.630827880859375,-0.4908706545829773,-0.25941547751426697,0.02366849035024643
1761467139287810800,3.640810791015625,-0.5089823007583618,-0.2696340084075928,0.04564729332923889
1761467139297793500,3.65079345703125,-0.5211179852485657,-0.27769237756729126,0.05953790992498398
1761467139307776800,3.66077685546875,-0.5099502801895142,-0.2891266644001007,0.06439018994569778
1761467139317758700,3.6707587890625,-0.49648091197013855,-0.3166390061378479,0.06584963202476501
1761467139327741700,3.68074169921875,-0.4767857491970062,-0.34473830461502075,0.06927738338708878
1761467139337724700,3.690724609375,-0.46423467993736267,-0.358972430229187,0.07753604650497437
1761467139347707600,3.700707763671875,-0.4584161937236786,-0.3718346953392029,0.09145106375217438
1761467139357691000,3.71069091796875,-0.4502827823162079,-0.3775196075439453,0.10976453870534897
1761467139367672600,3.720672607421875,-0.4359440505504608,-0.37488308548927307,0.12934276461601257
1761467139377655800,3.73065576171875,-0.41613879799842834,-0.365816593170166,0.14494483172893524
1761467139387638800,3.740638671875,-0.3984583616256714,-0.3683964014053345,0.1426161527633667
1761467139397621500,3.75062158203125,-0.37901195883750916,-0.37588006258010864,0.13698947429656982
1761467139407604700,3.760604736328125,-0.37628087401390076,-0.38781261444091797,0.13600756227970123
1761467139417587700,3.770587646484375,-0.3790733814239502,-0.40101221203804016,0.14230723679065704
1761467139427571000,3.780571044921875,-0.39109328389167786,-0.409579873085022,0.16873538494110107
1761467139437552600,3.790552734375,-0.4180993437767029,-0.3996507525444031,0.20807786285877228
1761467139447535900,3.800535888671875,-0.4426105320453644,-0.3751946687698364,0.25649282336235046
1761467139457518800,3.810518798828125,-0.45003780722618103,-0.346691370010376,0.2911054491996765
1761467139467501600,3.82050146484375,-0.44432106614112854,-0.3156642019748688,0.29437020421028137
1761467139477484800,3.83048486328125,-0.4439299404621124,-0.298729807138443,0.26399022340774536
1761467139487467800,3.8404677734375,-0.4619632661342621,-0.2985289990901947,0.215510293841362
1761467139497449700,3.85044970703125,-0.48387065529823303,-0.314450740814209,0.18170294165611267
1761467139507432700,3.8604326171875,-0.4911908805370331,-0.3369179666042328,0.16066929697990417
1761467139517415700,3.870415771484375,-0.49538344144821167,-0.35026535391807556,0.15412934124469757
1761467139527398700,3.880398681640625,-0.49491339921951294,-0.3502903878688812,0.15961945056915283
1761467139537381600,3.890381591796875,-0.49486425518989563,-0.3389122784137726,0.16879555583000183
1761467139547364600,3.900364501953125,-0.49533721804618835,-0.31560268998146057,0.17526037991046906
1761467139557346800,3.910346923828125,-0.49626997113227844,-0.27901360392570496,0.18079005181789398
1761467139567329500,3.92032958984375,-0.4836846888065338,-0.25386831164360046,0.18651504814624786
1761467139577312800,3.930312744140625,-0.4657064378261566,-0.25101518630981445,0.18387073278427124
1761467139587295700,3.940295654296875,-0.43953874707221985,-0.26426950097084045,0.17489400506019592
1761467139597278700,3.95027880859375,-0.413594514131546,-0.27897408604621887,0.17345421016216278
1761467139607261700,3.96026171875,-0.4021487832069397,-0.2847776412963867,0.1716155707836151
1761467139617243600,3.97024365234375,-0.3930359482765198,-0.2855737507343292,0.17578497529029846
1761467139627226600,3.9802265625,-0.39736276865005493,-0.27506598830223083,0.17374418675899506
1761467139637209600,3.990209716796875,-0.40018850564956665,-0.2624390125274658,0.1645340770483017
1761467139647192800,4.00019287109375,-0.4036146402359009,-0.24114890396595,0.14323119819164276
1761467139657175800,4.01017578125,-0.40091708302497864,-0.20968182384967804,0.11765512824058533
1761467139667157800,4.02015771484375,-0.4014696776866913,-0.17485299706459045,0.09165575355291367
1761467139677140700,4.030140625,-0.40736788511276245,-0.14367395639419556,0.07652059197425842
1761467139687122700,4.040122802734375,-0.4242962896823883,-0.12405923753976822,0.06489216536283493
1761467139697105700,4.050105712890625,-0.4441637098789215,-0.11745735257863998,0.055238641798496246
1761467139707088600,4.060088623046875,-0.46306416392326355,-0.13129912316799164,0.04117022827267647
1761467139717072000,4.07007177734375,-0.4900669455528259,-0.16160057485103607,0.018646471202373505
1761467139727054600,4.0800546875,-0.5296785831451416,-0.20334188640117645,-0.014530389569699764
1761467139737037600,4.09003759765625,-0.5694745779037476,-0.23845775425434113,-0.05242365226149559
1761467139747020800,4.100020751953125,-0.601710319519043,-0.30142396688461304,-0.08878698945045471
1761467139757002500,4.11000244140625,-0.626248300075531,-0.34021493792533875,-0.11715847253799438
1761467139766985700,4.11998583984375,-0.6442150473594666,-0.3582269549369812,-0.12884707748889923
1761467139776968700,4.12996875,-0.6611451506614685,-0.37475085258483887,-0.1326887607574463
1761467139786951700,4.13995166015625,-0.6705093383789062,-0.377657413482666,-0.12388113886117935
1761467139796934700,4.1499345703125,-0.676147997379303,-0.3758029341697693,-0.11940033733844757
1761467139806917600,4.159917724609375,-0.6802151799201965,-0.36586135625839233,-0.13179734349250793
1761467139816899800,4.16989990234375,-0.6764619946479797,-0.3479072153568268,-0.1568412184715271
1761467139826882600,4.179882568359375,-0.6610289812088013,-0.3303769528865814,-0.19168628752231598
1761467139836865500,4.189865478515625,-0.641954243183136,-0.32226845622062683,-0.22846746444702148
1761467139846848800,4.199848876953125,-0.6298927664756775,-0.3136909306049347,-0.26420947909355164
1761467139856831700,4.209831787109375,-0.616897463798523,-0.3189583122730255,-0.28429272770881653
1761467139866814700,4.219814697265625,-0.6095548868179321,-0.33221766352653503,-0.29087287187576294
1761467139876796700,4.229796630859375,-0.599295437335968,-0.3431660234928131,-0.2897198498249054
1761467139886780000,4.23977978515625,-0.5804996490478516,-0.34657859802246094,-0.2846672832965851
1761467139896762600,4.2497626953125,-0.5569543242454529,-0.34899964928627014,-0.2697641849517822
1761467139906745600,4.25974560546875,-0.5354098677635193,-0.342177152633667,-0.24610918760299683
1761467139916728800,4.269728759765625,-0.5161949396133423,-0.3281363844871521,-0.2221287041902542
1761467139926711800,4.2797119140625,-0.5032663941383362,-0.3255850672721863,-0.1931830644607544
1761467139936694500,4.289694580078125,-0.49657031893730164,-0.33813467621803284,-0.1760767102241516
1761467139946676700,4.2996767578125,-0.49789950251579285,-0.35414960980415344,-0.1544092446565628
1761467139956659700,4.30965966796875,-0.5114766359329224,-0.37852293252944946,-0.1349465698003769
1761467139966642700,4.319642578125,-0.5299997329711914,-0.40715643763542175,-0.12394850701093674
1761467139976625700,4.329625732421875,-0.5452429056167603,-0.425153911113739,-0.11181532591581345
1761467139986608600,4.339608642578125,-0.5575259327888489,-0.43630295991897583,-0.09410024434328079
1761467139996591900,4.349591796875,-0.564315140247345,-0.4360937476158142,-0.08200740814208984
1761467140006573600,4.359573486328125,-0.5603981614112854,-0.41092073917388916,-0.0672585517168045
1761467140016556800,4.369556884765625,-0.549046516418457,-0.38237494230270386,-0.04994259774684906
1761467140026539800,4.379539794921875,-0.535160481929779,-0.35156482458114624,-0.031148135662078857
1761467140036522800,4.389522705078125,-0.5264782309532166,-0.3095986247062683,-0.016242986544966698
1761467140046505700,4.399505615234375,-0.49463188648223877,-0.2724051773548126,-0.01009188313037157
1761467140056488700,4.40948876953125,-0.45706668496131897,-0.25137996673583984,-0.005690167658030987
1761467140066472000,4.419471923828125,-0.42389699816703796,-0.24215981364250183,-0.0121238324791193
1761467140076453600,4.42945361328125,-0.39274418354034424,-0.24398604035377502,-0.028116296976804733
1761467140086436900,4.439436767578125,-0.36711445450782776,-0.24834004044532776,-0.04975234717130661
1761467140096419800,4.449419921875,-0.35418379306793213,-0.2628116011619568,-0.059447258710861206
1761467140106402600,4.459402587890625,-0.3350798487663269,-0.2677003741264343,-0.053184568881988525
1761467140116385800,4.4693857421875,-0.3226073384284973,-0.25880110263824463,-0.033592503517866135
1761467140126368800,4.47936865234375,-0.31238240003585815,-0.23459243774414062,-0.006080716848373413
1761467140136351500,4.4893515625,-0.2966412901878357,-0.19642113149166107,0.018699999898672104
1761467140146333700,4.499333740234375,-0.2741066813468933,-0.15468807518482208,0.0483337938785553
1761467140156316700,4.509316650390625,-0.2500539720058441,-0.11598683148622513,0.06905487924814224
1761467140166300000,4.5192998046875,-0.21408985555171967,-0.08439881354570389,0.07237957417964935
1761467140176282600,4.52928271484375,-0.1897214651107788,-0.07460268586874008,0.06068424507975578
1761467140186265600,4.539265625,-0.1752021759748459,-0.0803961232304573,0.040901217609643936
1761467140196248800,4.549248779296875,-0.15837594866752625,-0.09191678464412689,0.023720519617199898
1761467140206230500,4.55923046875,-0.14500686526298523,-0.097298763692379,0.01301540993154049
1761467140216215600,4.569215576171875,-0.1338421255350113,-0.10075230896472931,0.01839112676680088
1761467140226198800,4.57919873046875,-0.12011592090129852,-0.0963226705789566,0.0440344363451004
1761467140236181800,4.589181640625,-0.10038035362958908,-0.08651034533977509,0.08563869446516037
1761467140246164700,4.599164794921875,-0.08974049240350723,-0.0869380459189415,0.14178265631198883
1761467140256146700,4.609146728515625,-0.08869323879480362,-0.0904628112912178,0.19880501925945282
1761467140266129700,4.619129638671875,-0.0870460718870163,-0.10263745486736298,0.2325906902551651
1761467140276113000,4.62911279296875,-0.09366260468959808,-0.11120644956827164,0.23002572357654572
1761467140286095600,4.639095703125,-0.09906908124685287,-0.12076427042484283,0.20284336805343628
1761467140296078600,4.64907861328125,-0.10490705072879791,-0.11767216771841049,0.16028614342212677
1761467140306061800,4.659061767578125,-0.10506550967693329,-0.10287351906299591,0.11865215003490448
1761467140316044800,4.669044921875,-0.0929049402475357,-0.07009519636631012,0.09319642186164856
1761467140326026800,4.67902685546875,-0.08148103952407837,-0.036210205405950546,0.09127947688102722
1761467140336009700,4.689009765625,-0.0611245296895504,0.0032971883192658424,0.10925643891096115
1761467140345992700,4.69899267578125,-0.03247211128473282,0.05152543634176254,0.1507152020931244
1761467140355975700,4.7089755859375,-0.009473105892539024,0.10567378997802734,0.19275328516960144
1761467140365958700,4.718958740234375,0.01407642848789692,0.15335768461227417,0.21809406578540802
1761467140375941600,4.728941650390625,0.04781457409262657,0.1842712014913559,0.19439852237701416
1761467140385924900,4.7389248046875,0.07744889706373215,0.20276391506195068,0.1321045160293579
1761467140395906600,4.748906494140625,0.0876004546880722,0.19727371633052826,0.03581434488296509
1761467140405889800,4.758889892578125,0.07876355201005936,0.17643076181411743,-0.052836429327726364
1761467140415872800,4.768872802734375,0.05967799574136734,0.1320178210735321,-0.11804967373609543
1761467140425855700,4.778855712890625,0.0392339751124382,0.07818999886512756,-0.15822239220142365
1761467140435838700,4.788838623046875,-0.0005453652702271938,0.03511592000722885,-0.17452889680862427
1761467140445821700,4.79882177734375,-0.05961187928915024,0.010330146178603172,-0.17569908499717712
1761467140455804700,4.8088046875,-0.1326322853565216,0.007461389526724815,-0.14746025204658508
1761467140465786600,4.81878662109375,-0.22089263796806335,0.008018256165087223,-0.09377386420965195
1761467140475769900,4.828769775390625,-0.29011186957359314,0.003974881023168564,-0.02203211933374405
1761467140485752600,4.838752685546875,-0.333758682012558,0.004802059382200241,0.04789450019598007
1761467140495735600,4.848735595703125,-0.3454399108886719,0.015824515372514725,0.10539036989212036
1761467140505718800,4.85871875,-0.333513468503952,0.047420259565114975,0.15067902207374573
1761467140515701800,4.86870166015625,-0.3045342266559601,0.08145797997713089,0.1822035014629364
1761467140525684500,4.8786845703125,-0.27401068806648254,0.08472807705402374,0.19884373247623444
1761467140535666700,4.888666748046875,-0.25418463349342346,0.08761852979660034,0.19634570181369781
1761467140545649700,4.898649658203125,-0.22102294862270355,0.09352169185876846,0.1602018177509308
1761467140555632600,4.908632568359375,-0.1924828439950943,0.07520235329866409,0.10184543579816818
1761467140565615600,4.91861572265625,-0.16457903385162354,0.07267048954963684,0.043682266026735306
1761467140575598600,4.9285986328125,-0.12702058255672455,0.09392865002155304,0.02114213816821575
1761467140585581800,4.938581787109375,-0.08940955251455307,0.1346409171819687,0.05054343491792679
1761467140595564500,4.948564453125,-0.03777579590678215,0.18090394139289856,0.11365598440170288
1761467140605546800,4.958546630859375,0.007822846993803978,0.2094828486442566,0.17016613483428955
1761467140615529700,4.96852978515625,0.054190803319215775,0.20919571816921234,0.21435244381427765
1761467140625512700,4.9785126953125,0.08931896835565567,0.19033335149288177,0.22121460735797882
1761467140635495700,4.98849560546875,0.10402709245681763,0.15589408576488495,0.19834831357002258
1761467140645478700,4.998478759765625,0.11113027483224869,0.10055918991565704,0.13442818820476532
1761467140655462000,5.0084619140625,0.11120709776878357,0.03843524679541588,0.054961033165454865
1761467140665444600,5.018444580078125,0.10641473531723022,-0.013979223556816578,-0.01733393594622612
1761467140675426800,5.0284267578125,0.09834346920251846,-0.0517323799431324,-0.07212071120738983
1761467140685409800,5.038409912109375,0.07543975114822388,-0.0793062150478363,-0.09191358834505081
1761467140695392500,5.048392578125,0.0500568225979805,-0.09181136637926102,-0.08648886531591415
1761467140705375700,5.058375732421875,0.017009122297167778,-0.08436277508735657,-0.07540079206228256
1761467140715358700,5.068358642578125,-0.01159096509218216,-0.06151140481233597,-0.05698605254292488
1761467140725341700,5.078341796875,-0.037967707961797714,-0.02951379120349884,-0.04716671258211136
1761467140735324700,5.08832470703125,-0.05255795642733574,0.0017062732949852943,-0.04435297101736069
1761467140745306600,5.098306640625,-0.05715031549334526,0.02271248959004879,-0.05789381265640259
1761467140755289900,5.108289794921875,-0.06000962853431702,0.030698150396347046,-0.09273020178079605
1761467140765272600,5.1182724609375,-0.05876938998699188,0.014026496559381485,-0.14938655495643616
1761467140775255800,5.128255859375,-0.07188483327627182,-0.01810191199183464,-0.20942431688308716
1761467140785238500,5.138238525390625,-0.09265722334384918,-0.0601700022816658,-0.2561478614807129
1761467140795221500,5.148221435546875,-0.10577204078435898,-0.08281484991312027,-0.2900490462779999
1761467140805204700,5.158204833984375,-0.12066762894392014,-0.08930923789739609,-0.2969343960285187
1761467140815187700,5.168187744140625,-0.12933136522769928,-0.08270561695098877,-0.27769485116004944
1761467140825169700,5.178169677734375,-0.14342454075813293,-0.06583183258771896,-0.24061115086078644
1761467140835152600,5.188152587890625,-0.16889795660972595,-0.06156914681196213,-0.1914314329624176
1761467140845135600,5.198135498046875,-0.20495130121707916,-0.0680004134774208,-0.14690710604190826
1761467140855118600,5.20811865234375,-0.248106449842453,-0.07868216931819916,-0.12080869823694229
1761467140865101600,5.2181015625,-0.291216641664505,-0.08314482867717743,-0.11023727804422379
1761467140875084500,5.22808447265625,-0.32818812131881714,-0.10209411382675171,-0.1010683923959732
1761467140885067800,5.23806787109375,-0.3347315192222595,-0.1141451820731163,-0.08972465991973877
1761467140895049500,5.248049560546875,-0.339076429605484,-0.09793514758348465,-0.08190479129552841
1761467140905032700,5.25803271484375,-0.33392614126205444,-0.08852966129779816,-0.0723126232624054
1761467140915015700,5.268015625,-0.3200363218784332,-0.08590865135192871,-0.07889454066753387
1761467140924998400,5.277998291015625,-0.308438241481781,-0.10503228008747101,-0.08961402624845505
1761467140934981600,5.287981689453125,-0.30553528666496277,-0.1552143096923828,-0.10622081160545349
1761467140944964600,5.297964599609375,-0.32637104392051697,-0.20289021730422974,-0.1033770889043808
1761467140954947600,5.307947509765625,-0.3559640645980835,-0.24036318063735962,-0.08899565041065216
1761467140964929500,5.317929443359375,-0.3882825970649719,-0.2829236686229706,-0.07727987319231033
1761467140974912800,5.327912841796875,-0.4143461585044861,-0.3182555139064789,-0.05931787192821503
1761467140984895700,5.337895751953125,-0.43312543630599976,-0.32721784710884094,-0.03779952973127365
1761467140994878500,5.34787841796875,-0.43378058075904846,-0.31252118945121765,-0.023495160043239594
1761467141004861700,5.35786181640625,-0.41604018211364746,-0.2896007001399994,-0.015685439109802246
1761467141014844700,5.3678447265625,-0.3949284553527832,-0.27508509159088135,-0.01460646279156208
1761467141024827600,5.37782763671875,-0.38959813117980957,-0.2700354754924774,-0.028767820447683334
1761467141034810600,5.387810546875,-0.39615577459335327,-0.27606311440467834,-0.05246953293681145
1761467141044792600,5.39779248046875,-0.4128921627998352,-0.2943539619445801,-0.07845692336559296
1761467141054775800,5.40777587890625,-0.4394005835056305,-0.31397703289985657,-0.08530581742525101
1761467141064758500,5.417758544921875,-0.4635208249092102,-0.33127427101135254,-0.06940541416406631
1761467141074741500,5.427741455078125,-0.49217548966407776,-0.35610634088516235,-0.03942415863275528
1761467141084724700,5.437724853515625,-0.5197128653526306,-0.3622704744338989,-0.0120476633310318
1761467141094707700,5.447707763671875,-0.5448647737503052,-0.3573085367679596,0.014049406163394451
1761467141104690400,5.4576904296875,-0.5773966312408447,-0.34144702553749084,0.02953302673995495
1761467141114672600,5.467672607421875,-0.6065646409988403,-0.32023364305496216,0.0437418632209301
1761467141124655600,5.477655517578125,-0.6288172006607056,-0.322489857673645,0.06940008699893951
1761467141134638600,5.487638671875,-0.6606801152229309,-0.32554101943969727,0.09478692710399628
1761467141144621600,5.49762158203125,-0.6923568248748779,-0.34786418080329895,0.11365356296300888
1761467141154604800,5.507604736328125,-0.7051993012428284,-0.3667026162147522,0.11291621625423431
1761467141164587800,5.517587890625,-0.7144691944122314,-0.38377588987350464,0.09427887946367264
1761467141174570500,5.527570556640625,-0.7194876074790955,-0.4010013937950134,0.07256337255239487
1761467141184553700,5.5375537109375,-0.7295429110527039,-0.419863224029541,0.052515365183353424
1761467141194535700,5.54753564453125,-0.7280001640319824,-0.4451123774051666,0.03553371503949165
1761467141204518700,5.5575185546875,-0.7142278552055359,-0.4674818515777588,0.04741114750504494
1761467141214501600,5.567501708984375,-0.6920881867408752,-0.46736007928848267,0.06846734136343002
1761467141224484600,5.577484619140625,-0.6506674885749817,-0.47136229276657104,0.09638232737779617
1761467141234467600,5.587467529296875,-0.6057224869728088,-0.4714980721473694,0.11649564653635025
1761467141244450600,5.597450439453125,-0.5460831522941589,-0.4577447175979614,0.12488487362861633
1761467141254433500,5.60743359375,-0.4929383397102356,-0.45827019214630127,0.13009928166866302
1761467141264415500,5.61741552734375,-0.4597689211368561,-0.47628673911094666,0.12172923237085342
1761467141274398500,5.6273984375,-0.43592819571495056,-0.49466949701309204,0.11410654336214066
1761467141284381700,5.637381591796875,-0.4272766411304474,-0.5039381384849548,0.10707073658704758
1761467141294364700,5.64736474609375,-0.4344693124294281,-0.4936348497867584,0.12412801384925842
1761467141304347400,5.657347412109375,-0.440383642911911,-0.4639904201030731,0.15243396162986755
1761467141314330600,5.66733056640625,-0.4224410951137543,-0.4326731562614441,0.16565939784049988
1761467141324313600,5.677313720703125,-0.3837067484855652,-0.41420093178749084,0.15701130032539368
1761467141334296600,5.687296630859375,-0.3549598157405853,-0.40181344747543335,0.11619395762681961
1761467141344278500,5.697278564453125,-0.35784482955932617,-0.3952311873435974,0.06242687255144119
1761467141354261800,5.70726171875,-0.37304744124412537,-0.3869139552116394,-0.0016392457764595747
1761467141364244700,5.71724462890625,-0.37168335914611816,-0.39811334013938904,-0.0425557866692543
1761467141374227500,5.7272275390625,-0.3734716475009918,-0.40163230895996094,-0.047262899577617645
1761467141384210700,5.737210693359375,-0.3738594055175781,-0.3869590759277344,-0.00595833407714963
1761467141394193700,5.747193603515625,-0.3853352963924408,-0.3699769377708435,0.07266584783792496
1761467141404176600,5.7571767578125,-0.40370070934295654,-0.33666104078292847,0.15600521862506866
1761467141414159600,5.76715966796875,-0.4115705192089081,-0.2774949371814728,0.2278825342655182
1761467141424141600,5.7771416015625,-0.41164830327033997,-0.23677948117256165,0.2747621536254883
1761467141434124800,5.787124755859375,-0.4088331460952759,-0.2182391881942749,0.2968111038208008
1761467141444107500,5.797107421875,-0.40896549820899963,-0.2032594382762909,0.29386457800865173
1761467141454090500,5.807090576171875,-0.40551072359085083,-0.19574753940105438,0.2735660672187805
1761467141464073700,5.81707373046875,-0.3924902677536011,-0.17988735437393188,0.2464662492275238
1761467141474056700,5.827056640625,-0.35767021775245667,-0.16825707256793976,0.21972346305847168
1761467141484039400,5.837039306640625,-0.3224336802959442,-0.1683654636144638,0.1913522630929947
1761467141494022700,5.847022705078125,-0.2872783839702606,-0.18050967156887054,0.16288499534130096
1761467141504004600,5.857004638671875,-0.2662239670753479,-0.2008892446756363,0.13577722012996674
1761467141513987600,5.866987548828125,-0.2592490613460541,-0.22183044254779816,0.10260307043790817
1761467141523970600,5.876970458984375,-0.2761097848415375,-0.24008508026599884,0.08148419857025146
1761467141533953800,5.886953857421875,-0.29412829875946045,-0.2584289312362671,0.07535972446203232
1761467141543936800,5.896936767578125,-0.32165420055389404,-0.26493874192237854,0.08945903182029724
1761467141553919500,5.90691943359375,-0.3487741947174072,-0.2591361701488495,0.11455397307872772
1761467141563902700,5.91690283203125,-0.3796796202659607,-0.25676754117012024,0.14771565794944763
1761467141573885700,5.9268857421875,-0.40401867032051086,-0.2454836070537567,0.1839759647846222
1761467141583867600,5.93686767578125,-0.43026864528656006,-0.2359209954738617,0.22061121463775635
1761467141593850600,5.9468505859375,-0.4457024335861206,-0.22689081728458405,0.24439983069896698
1761467141603833600,5.95683349609375,-0.4506724178791046,-0.22727297246456146,0.24383604526519775
1761467141613816600,5.966816650390625,-0.44794824719429016,-0.23436479270458221,0.2111070156097412
1761467141623799600,5.976799560546875,-0.4394775331020355,-0.25016719102859497,0.1539425402879715
1761467141633782500,5.986782470703125,-0.43186527490615845,-0.2705986499786377,0.08377222716808319
1761467141643765800,5.996765869140625,-0.42729848623275757,-0.29339131712913513,0.019381249323487282
1761467141653748500,6.00674853515625,-0.4228227138519287,-0.3093416094779968,-0.03236021846532822
1761467141663730700,6.016730712890625,-0.42700520157814026,-0.3162519633769989,-0.06469631940126419
1761467141673713700,6.026713623046875,-0.4221157431602478,-0.3119526207447052,-0.0895509272813797
1761467141683696400,6.0366962890625,-0.417878657579422,-0.29141858220100403,-0.10926949977874756
1761467141693679600,6.0466796875,-0.41427674889564514,-0.2626747190952301,-0.13005509972572327
1761467141703662600,6.05666259765625,-0.40985429286956787,-0.23366254568099976,-0.14977873861789703
1761467141713645800,6.066645751953125,-0.39955317974090576,-0.20434890687465668,-0.17210392653942108
1761467141723628500,6.076628662109375,-0.38594549894332886,-0.17499208450317383,-0.1946217566728592
1761467141733611500,6.086611572265625,-0.3732264041900635,-0.15337124466896057,-0.20666536688804626
1761467141743593700,6.09659375,-0.3613322079181671,-0.14918820559978485,-0.2029995322227478
1761467141753576400,6.106576416015625,-0.3511975407600403,-0.16456012427806854,-0.18982084095478058
1761467141763559700,6.1165595703125,-0.3398894965648651,-0.18810085952281952,-0.1720554232597351
1761467141773543200,6.126543212890625,-0.3382616937160492,-0.2167719453573227,-0.16416452825069427
1761467141783526100,6.136526123046875,-0.3328075408935547,-0.23545853793621063,-0.1678234487771988
1761467141793509000,6.146509033203125,-0.32564154267311096,-0.26325520873069763,-0.17174197733402252
1761467141803492000,6.1564921875,-0.3169359266757965,-0.2865312397480011,-0.17970456182956696
1761467141813475000,6.16647509765625,-0.30879104137420654,-0.3044654130935669,-0.18259592354297638
1761467141823457000,6.17645703125,-0.3090064823627472,-0.32045289874076843,-0.17937137186527252
1761467141833440000,6.18643994140625,-0.31280383467674255,-0.3177669942378998,-0.16699041426181793
1761467141843423200,6.19642333984375,-0.30910763144493103,-0.29922500252723694,-0.14294074475765228
1761467141853406200,6.20640625,-0.30468130111694336,-0.27546975016593933,-0.11466958373785019
1761467141863389000,6.216388916015625,-0.3012610077857971,-0.23632661998271942,-0.08792851865291595
1761467141873372200,6.2263720703125,-0.2804037630558014,-0.18321377038955688,-0.07165694981813431
1761467141883355100,6.236355224609375,-0.24970443546772003,-0.12775184214115143,-0.06740947812795639
1761467141893337900,6.246337890625,-0.2095969319343567,-0.08951770514249802,-0.07045804709196091
1761467141903321000,6.256321044921875,-0.17154914140701294,-0.06118113547563553,-0.07889227569103241
1761467141913303000,6.266302978515625,-0.14738571643829346,-0.0457235686480999,-0.08999960869550705
1761467141923286000,6.2762861328125,-0.1302674561738968,-0.04123614355921745,-0.10105864703655243
1761467141933269000,6.28626904296875,-0.11083593219518661,-0.04459952563047409,-0.10538607090711594
1761467141943252000,6.296251953125,-0.10571227967739105,-0.04747360944747925,-0.10737358778715134
1761467141953235200,6.306235107421875,-0.08727440237998962,-0.046844106167554855,-0.1076330915093422
1761467141963218000,6.316218017578125,-0.07575596868991852,-0.042806223034858704,-0.10737689584493637
1761467141973201200,6.326201171875,-0.05714505538344383,-0.028493646532297134,-0.09915384650230408
1761467141983184100,6.33618408203125,-0.03667972981929779,-0.0069169821217656136,-0.0902831181883812
1761467141993166000,6.346166015625,-0.016579901799559593,0.008381110616028309,-0.08005727082490921
1761467142003149000,6.356149169921875,-0.0047882250510156155,0.01810511015355587,-0.07473600655794144
1761467142013132000,6.366132080078125,-0.0007230904884636402,0.024150198325514793,-0.05728597193956375
1761467142023115300,6.376115234375,-0.002083432860672474,0.028869053348898888,-0.02748067118227482
1761467142033098000,6.386097900390625,-0.015565897338092327,0.049089424312114716,0.014066222123801708
1761467142043081000,6.3960810546875,-0.032126497477293015,0.07243256270885468,0.04924258589744568
1761467142053064200,6.406064208984375,-0.045337557792663574,0.09327590465545654,0.07127649337053299
1761467142063047200,6.416047119140625,-0.050690777599811554,0.1195695623755455,0.07609867304563522
1761467142073029000,6.426029052734375,-0.03687606751918793,0.14647218585014343,0.08462807536125183
1761467142083012000,6.43601220703125,-0.017253095284104347,0.1890454888343811,0.08698896318674088
1761467142092995000,6.4459951171875,0.017734993249177933,0.2028050422668457,0.10544245690107346
1761467142102978000,6.45597802734375,0.05244077742099762,0.21432188153266907,0.12823112308979034
1761467142112961000,6.4659609375,0.07402601838111877,0.21057246625423431,0.14805594086647034
1761467142122944000,6.475944091796875,0.07833767682313919,0.18304070830345154,0.15414127707481384
1761467142132927200,6.48592724609375,0.07527035474777222,0.1406215876340866,0.1313595473766327
1761467142142910000,6.495909912109375,0.06622758507728577,0.07652942091226578,0.09707613289356232
1761467142152893200,6.50589306640625,0.060298334807157516,0.026380157098174095,0.06919218599796295
1761467142162875100,6.515875244140625,0.06440120190382004,-0.004998804070055485,0.05918801948428154
1761467142172858000,6.525858154296875,0.06412497907876968,-0.015602760016918182,0.07085507363080978
1761467142182841000,6.535841064453125,0.06261123716831207,-0.0007958509959280491,0.09553378820419312
1761467142192824000,6.545823974609375,0.06634064763784409,0.031505923718214035,0.12419026345014572
1761467142202807300,6.555807373046875,0.07755335420370102,0.07479666918516159,0.14945539832115173
1761467142212790000,6.5657900390625,0.09513736516237259,0.11223047971725464,0.16860608756542206
1761467142222773000,6.57577294921875,0.10938793420791626,0.14883242547512054,0.18845409154891968
1761467142232756200,6.585756103515625,0.12071459740400314,0.18559876084327698,0.1990703046321869
1761467142242739000,6.595739013671875,0.13545839488506317,0.21335023641586304,0.2094329446554184
1761467142252721200,6.60572119140625,0.1662767082452774,0.23797409236431122,0.21839086711406708
1761467142262704000,6.6157041015625,0.20446644723415375,0.25351282954216003,0.20284414291381836
1761467142272686800,6.625686767578125,0.22802519798278809,0.2661493718624115,0.16447988152503967
1761467142282670000,6.635670166015625,0.23722882568836212,0.2671845555305481,0.11508410423994064
1761467142292653000,6.645653076171875,0.24486380815505981,0.23320934176445007,0.07393378019332886
1761467142302636000,6.655635986328125,0.25077787041664124,0.187899649143219,0.03559065982699394
1761467142312619000,6.665618896484375,0.2612808644771576,0.15388457477092743,0.007921775802969933
1761467142322602000,6.67560205078125,0.26279139518737793,0.12651872634887695,0.005036241374909878
1761467142332584200,6.685584228515625,0.23937483131885529,0.11874458938837051,0.02547522820532322
1761467142342567000,6.69556689453125,0.21217890083789825,0.1252637356519699,0.051803767681121826
1761467142352550100,6.705550048828125,0.195408895611763,0.14481209218502045,0.07263895124197006
1761467142362533000,6.715533203125,0.17560777068138123,0.17917326092720032,0.0818265900015831
1761467142372516000,6.72551611328125,0.16361042857170105,0.2159305065870285,0.0697663351893425
1761467142382499000,6.7354990234375,0.1604979932308197,0.23792341351509094,0.05444703251123428
1761467142392482000,6.74548193359375,0.16960157454013824,0.2661592364311218,0.03326034173369408
1761467142402465000,6.755465087890625,0.1914093941450119,0.28224390745162964,0.024658599868416786
1761467142412448300,6.7654482421875,0.22177459299564362,0.28262588381767273,0.04413175582885742
1761467142422430000,6.775429931640625,0.24743227660655975,0.2733207941055298,0.08739108592271805
1761467142432413200,6.7854130859375,0.26448366045951843,0.2593262791633606,0.15170791745185852
1761467142442396200,6.795396240234375,0.28195133805274963,0.2507026791572571,0.21839399635791779
1761467142452379000,6.80537890625,0.30026140809059143,0.24869418144226074,0.2698118984699249
1761467142462362000,6.815362060546875,0.3267257809638977,0.2525064945220947,0.3029903471469879
1761467142472345000,6.825344970703125,0.35264572501182556,0.26500746607780457,0.3132632374763489
1761467142482328000,6.835328125,0.3795548379421234,0.267665296792984,0.30832546949386597
1761467142492311000,6.84531103515625,0.4128011465072632,0.2731001079082489,0.29693421721458435
1761467142502294000,6.8552939453125,0.4384090304374695,0.2768189311027527,0.2803823947906494
1761467142512277200,6.86527734375,0.4469892382621765,0.28134018182754517,0.24848978221416473
1761467142522259000,6.875259033203125,0.4467830955982208,0.28502148389816284,0.19304011762142181
1761467142532242200,6.8852421875,0.44219762086868286,0.2667803168296814,0.12490561604499817
1761467142542225200,6.89522509765625,0.42677366733551025,0.24631768465042114,0.06268645823001862
1761467142552208100,6.9052080078125,0.4089559316635132,0.23394346237182617,0.013545769266784191
1761467142562191000,6.915191162109375,0.3890376389026642,0.2230311632156372,-0.028169188648462296
1761467142572174000,6.925174072265625,0.37545716762542725,0.22503337264060974,-0.061120424419641495
1761467142582157000,6.935156982421875,0.36275815963745117,0.2275652438402176,-0.0954831913113594
1761467142592140000,6.94514013671875,0.34814542531967163,0.22777067124843597,-0.132161945104599
1761467142602122000,6.9551220703125,0.3329688608646393,0.21454541385173798,-0.1645238697528839
1761467142612105200,6.965105224609375,0.31277018785476685,0.18862999975681305,-0.19855694472789764
1761467142622088200,6.975088134765625,0.29085132479667664,0.15131644904613495,-0.21740972995758057
1761467142632071000,6.98507080078125,0.2647957503795624,0.12330992519855499,-0.21592570841312408
1761467142642054100,6.99505419921875,0.23134006559848785,0.10959544777870178,-0.18965895473957062
1761467142652037000,7.005037109375,0.19126340746879578,0.10521876066923141,-0.14535386860370636
1761467142662020000,7.01502001953125,0.1605728715658188,0.1162027046084404,-0.0936022475361824
1761467142672003000,7.025003173828125,0.14230547845363617,0.14015457034111023,-0.03804716095328331
1761467142681986000,7.034986083984375,0.13709740340709686,0.16673798859119415,0.012408556416630745
1761467142691968000,7.044968017578125,0.13887153565883636,0.18203823268413544,0.06131893768906593
1761467142701951000,7.054950927734375,0.14676061272621155,0.20606447756290436,0.10513006895780563
1761467142711934200,7.064934326171875,0.15001386404037476,0.22015894949436188,0.13947919011116028
1761467142721917200,7.074917236328125,0.16126811504364014,0.22819183766841888,0.15281657874584198
1761467142731900000,7.08489990234375,0.1775532215833664,0.24023544788360596,0.14906266331672668
1761467142741883100,7.094883056640625,0.1906149536371231,0.24278195202350616,0.1208677664399147
1761467142751866000,7.1048662109375,0.20642080903053284,0.2336132973432541,0.08266457170248032
1761467142761849000,7.11484912109375,0.22924703359603882,0.2175896018743515,0.051483746618032455
1761467142771832000,7.12483203125,0.24684147536754608,0.19740428030490875,0.03018542006611824
1761467142781815000,7.13481494140625,0.26013147830963135,0.1538858264684677,0.008845246396958828
1761467142791797000,7.144796875,0.2680944502353668,0.11030736565589905,-0.016061212867498398
1761467142801780000,7.154780029296875,0.2707485556602478,0.06242373585700989,-0.05144476890563965
1761467142811763000,7.164762939453125,0.2756406366825104,0.008325699716806412,-0.09709077328443527
1761467142821746000,7.174745849609375,0.27225443720817566,-0.050922177731990814,-0.13049213588237762
1761467142831729000,7.18472900390625,0.25611767172813416,-0.10536447167396545,-0.14789193868637085
1761467142841711900,7.1947119140625,0.2320195436477661,-0.1447984129190445,-0.14336536824703217
1761467142851695000,7.204695068359375,0.21015286445617676,-0.16025424003601074,-0.1276194006204605
1761467142861677800,7.214677734375,0.18754716217517853,-0.15611062943935394,-0.1007923036813736
1761467142871661000,7.2246611328125,0.1719847321510315,-0.13627681136131287,-0.06526019424200058
1761467142881643000,7.23464306640625,0.15709739923477173,-0.10353776812553406,-0.01766977272927761
1761467142891626000,7.2446259765625,0.14542220532894135,-0.07520372420549393,0.03263464197516441
1761467142901609000,7.25460888671875,0.13608968257904053,-0.04666581749916077,0.07183530926704407
1761467142911592000,7.264592041015625,0.1217467412352562,-0.03164991736412048,0.09451260417699814
1761467142921575200,7.2745751953125,0.11089062690734863,-0.030694907531142235,0.0925288200378418
1761467142931558000,7.284557861328125,0.08861740678548813,-0.04532410204410553,0.07700290530920029
1761467142941540900,7.294540771484375,0.06636296212673187,-0.060099318623542786,0.0670594573020935
1761467142951524000,7.304524169921875,0.0531289167702198,-0.0686882808804512,0.06665998697280884
1761467142961506800,7.3145068359375,0.04427417367696762,-0.07734382152557373,0.07075512409210205
1761467142971489800,7.32448974609375,0.04053928703069687,-0.0852932259440422,0.08680769801139832
1761467142981472000,7.334471923828125,0.028724435716867447,-0.08965681493282318,0.10589590668678284
1761467142991454700,7.344454833984375,0.02080555446445942,-0.09576280415058136,0.12170220166444778
1761467143001438000,7.35443798828125,0.009151029400527477,-0.09465733170509338,0.1442626416683197
1761467143011421000,7.3644208984375,-0.0037045441567897797,-0.09430638700723648,0.16399873793125153
1761467143021404000,7.37440380859375,-0.02439996972680092,-0.09924469143152237,0.1793569177389145
1761467143031387000,7.384386962890625,-0.04607851430773735,-0.09936445206403732,0.1800938844680786
1761467143041369900,7.394369873046875,-0.07576744258403778,-0.09643177688121796,0.17102181911468506
1761467143051353000,7.40435302734375,-0.09251528978347778,-0.10159984230995178,0.14456282556056976
1761467143061336000,7.414336181640625,-0.10546278208494186,-0.10943379998207092,0.09383653104305267
1761467143071318800,7.42431884765625,-0.11911383271217346,-0.11410114169120789,0.022608261555433273
1761467143081301000,7.434301025390625,-0.1434953361749649,-0.11859042942523956,-0.05214427039027214
1761467143091284000,7.444283935546875,-0.17165715992450714,-0.12207479029893875,-0.10274156928062439
1761467143101267000,7.454266845703125,-0.19536888599395752,-0.11240752041339874,-0.10722500085830688
1761467143111250000,7.46425,-0.212803453207016,-0.10952432453632355,-0.07236922532320023
1761467143121233000,7.47423291015625,-0.23029856383800507,-0.10219131410121918,-0.00951303169131279
1761467143131216100,7.484216064453125,-0.24929779767990112,-0.08528412878513336,0.061833497136831284
1761467143141198800,7.49419873046875,-0.2716262638568878,-0.06272821873426437,0.13137342035770416
1761467143151181800,7.504181884765625,-0.2777979373931885,-0.033759988844394684,0.1877036839723587
1761467143161165000,7.5141650390625,-0.27271637320518494,-0.023303085938096046,0.22162994742393494
1761467143171148000,7.52414794921875,-0.263830304145813,-0.014623579569160938,0.2336627095937729
1761467143181130000,7.5341298828125,-0.26251310110092163,-0.01575462333858013,0.207818865776062
1761467143191113000,7.544113037109375,-0.254986435174942,-0.025324909016489983,0.16486427187919617
1761467143201096000,7.554095947265625,-0.23920665681362152,-0.04450499266386032,0.10418280959129333
1761467143211079000,7.564078857421875,-0.19746698439121246,-0.07486160099506378,0.046195946633815765
1761467143221062000,7.574061767578125,-0.15289418399333954,-0.09525475651025772,-0.0003044428303837776
1761467143231045000,7.584045166015625,-0.12814776599407196,-0.11449117213487625,-0.028811682015657425
1761467143241028000,7.594028076171875,-0.12495065480470657,-0.1339695304632187,-0.029173871502280235
1761467143251010800,7.6040107421875,-0.13353273272514343,-0.14059196412563324,0.0024656662717461586
1761467143260994000,7.613994140625,-0.14929890632629395,-0.13555459678173065,0.060546278953552246
1761467143270977000,7.62397705078125,-0.16682931780815125,-0.12353433668613434,0.12344752997159958
1761467143280959000,7.633958984375,-0.18493987619876862,-0.10778626054525375,0.168536975979805
1761467143290942000,7.64394189453125,-0.20310255885124207,-0.09829683601856232,0.18196281790733337
1761467143300925000,7.653925048828125,-0.22848860919475555,-0.09388238191604614,0.16679958999156952
1761467143310908000,7.663907958984375,-0.26102152466773987,-0.10347037762403488,0.13032574951648712
1761467143320891000,7.673890869140625,-0.2931554913520813,-0.12110555917024612,0.10431305319070816
1761467143330873900,7.683873779296875,-0.3321852684020996,-0.13806268572807312,0.09033384919166565
1761467143340857000,7.693857177734375,-0.3701656758785248,-0.15184268355369568,0.09011600911617279
1761467143350839800,7.70383984375,-0.4126985967159271,-0.17330490052700043,0.09013187140226364
1761467143360823000,7.713822998046875,-0.43930357694625854,-0.18814431130886078,0.08279459178447723
1761467143370806000,7.723805908203125,-0.4500761330127716,-0.19221968948841095,0.0678122341632843
1761467143380788000,7.7337880859375,-0.44598260521888733,-0.19225245714187622,0.042567867785692215
1761467143390771000,7.74377099609375,-0.4464878737926483,-0.18905316293239594,0.009033934213221073
1761467143400754000,7.75375390625,-0.4463869631290436,-0.18392178416252136,-0.029690025374293327
1761467143410737200,7.763737060546875,-0.4413434863090515,-0.16793139278888702,-0.0469907782971859
1761467143420719900,7.773719970703125,-0.442688912153244,-0.12533119320869446,-0.002437958028167486
1761467143430702800,7.783702880859375,-0.4632161557674408,-0.09904587268829346,0.025519326329231262
1761467143440686000,7.79368603515625,-0.42602670192718506,-0.09142204374074936,-0.052084121853113174
1761467143450669000,7.8036689453125,-0.41648465394973755,-0.06601385027170181,-0.1506487876176834
1761467143460651800,7.81365185546875,-0.4077968895435333,-0.08310521394014359,-0.19450172781944275
1761467143470635000,7.823635009765625,-0.40445032715797424,-0.0911521166563034,-0.18652752041816711
1761467143480618000,7.833617919921875,-0.39805102348327637,-0.10002923011779785,-0.18072955310344696
1761467143490600000,7.843599853515625,-0.38586241006851196,-0.13254617154598236,-0.18623650074005127
1761467143500583000,7.8535830078125,-0.3671601116657257,-0.17149703204631805,-0.19272848963737488
1761467143510566000,7.86356591796875,-0.380509614944458,-0.2120979130268097,-0.1744825392961502
