time,seconds_elapsed,z,y,x
1761466879910259700,0.111259765625,0.11347732609808445,0.0007457403333857656,0.05657202407813165
1761466879920242700,0.12124267578125,0.13592355118393898,-0.0005346594325499608,0.04616761664010118
1761466879930226700,0.131226806640625,0.12580781536102295,-0.0003510464939521625,0.04337406779828015
1761466879940209700,0.141209716796875,0.1238315468519926,0.004668318321311381,0.034118729930673726
1761466879950192600,0.151192626953125,0.11396014117896557,-0.0015123430749983526,0.0032656461658654734
1761466879960175900,0.16117578125,0.1368675540357828,0.004236993682361208,-0.02015041489941068
1761466879970159900,0.171159912109375,0.1125076042830944,-0.0003805032005882822,-0.027239943902101365
1761466879980142800,0.181142822265625,0.14531038821041584,-0.006385164142597932,-0.03424950757033657
1761466879990125600,0.19112548828125,0.14009820652008056,0.005003995999484322,-0.018800922819483094
1761466880000108800,0.20110888671875,0.10809095688462257,0.004701836998423095,0.006083107889525126
1761466880010092800,0.2110927734375,0.1208165829449892,0.01028403931123903,0.010466542571561877
1761466880020075800,0.22107568359375,0.14356500584781168,0.015808552053489255,-0.007651010226795915
1761466880030058500,0.23105859375,0.12949264135360716,0.017970931418880353,-0.00008157505294075236
1761466880040041700,0.241041748046875,0.10075111551582813,0.013021453502052463,0.001257717576669529
1761466880050025700,0.251025634765625,0.1258797115534544,0.01477593020327622,0.0076355911786668
1761466880060008700,0.2610087890625,0.13693886570632458,0.003662426931108348,0.01749492282141
1761466880069992000,0.270991943359375,0.09652852938473223,-0.004980334279395174,0.023531380840903147
1761466880079974700,0.280974609375,0.12826163825392722,0.004877456143521704,0.011011008728784508
1761466880089958700,0.290958740234375,0.15461539217233658,0.004056093290657736,-0.01195681994522456
1761466880099941600,0.300941650390625,0.11257073264718055,-0.015371553442289587,-0.004669224786898121
1761466880109924900,0.3109248046875,0.11751578783392906,-0.019609248094260692,0.0006584456424228847
1761466880119907600,0.320907470703125,0.1324836398631334,-0.01114300107799936,0.00443000007038936
1761466880129891600,0.3308916015625,0.11707739641666412,-0.015769906251755308,0.017535305064148268
1761466880139874800,0.340874755859375,0.1269604925274849,0.003811880730133271,0.023287002741952893
1761466880149857800,0.35085791015625,0.13295184189677237,0.014664770579535979,0.014803169836651068
1761466880159840800,0.3608408203125,0.12187807469666004,-0.0001186271192098502,0.00008403643808560445
1761466880169824500,0.370824462890625,0.13204291035830973,0.005202892130537657,-0.0016168217962025664
1761466880179807700,0.380807861328125,0.08669687120020389,0.012208239706314634,0.01194852247433737
1761466880189790700,0.390790771484375,0.1697451567649841,0.010821230910881422,-0.02022377696314361
1761466880199773700,0.400773681640625,0.10330489165186882,0.0018646807686716782,-0.02132999833910726
1761466880209757700,0.4107578125,0.12186112356185913,0.009267458705307216,-0.010666834933613426
1761466880219740700,0.42074072265625,0.14490940619409085,0.0010264227215782738,0.003057067749369889
1761466880229723600,0.4307236328125,0.10870002869367598,-0.016948697390296728,0.03593187344999751
1761466880239707000,0.440706787109375,0.12830255478620528,-0.011472038952831644,0.031038489084981847
1761466880249691000,0.45069091796875,0.13803016807436944,-0.010391485166019992,0.03768150044616777
1761466880259673600,0.460673583984375,0.10316577544212341,-0.017613363852596375,0.024322179592144673
1761466880269656600,0.470656494140625,0.12890168972313404,-0.010627876321336951,-0.009763689248543232
1761466880279639800,0.480639892578125,0.11199088693261146,-0.006363857634732266,-0.02372020652744686
1761466880289623800,0.490623779296875,0.12306290056705474,-0.0009245035669300705,-0.021168099475395864
1761466880299606800,0.500606689453125,0.13503449338972567,0.0008294034537801053,-0.020029918908455874
1761466880309589500,0.510589599609375,0.1377308928668499,-0.003469828110100934,-0.0043846448250114915
1761466880319572700,0.52057275390625,0.11438859572410583,-0.016969017517473546,0.0122671188702574
1761466880329556700,0.530556640625,0.11588672532737254,-0.020253414049581624,0.008931827834551221
1761466880339539700,0.540539794921875,0.116036947453022,-0.02084132890617475,0.02295446230235975
1761466880349523000,0.55052294921875,0.14237199667096137,-0.01337014820871409,0.032738817596307486
1761466880359505700,0.560505615234375,0.12561083148419858,-0.013842333439370849,0.03709049401676748
1761466880369489700,0.57048974609375,0.13383797708153725,-0.01356589682638878,0.02898823517442215
1761466880379472600,0.58047265625,0.13563187476098537,-0.00007056275187060236,0.01316399007816799
1761466880389456000,0.590455810546875,0.11976795067489146,0.004676499344478361,0.003764325536158867
1761466880399438600,0.6004384765625,0.11752163305282592,0.015159809246106305,-0.019126707008015362
1761466880409422600,0.610422607421875,0.13577742071151733,0.012599391023436327,-0.05231739884095732
1761466880419405800,0.62040576171875,0.10584931543767452,0.019045190178934718,-0.033079618974169715
1761466880429388800,0.630388916015625,0.1031570076137781,0.019427548551536163,-0.024539671967457977
1761466880439371800,0.640371826171875,0.14804945778548717,0.018301171445177167,-0.005466709007252939
1761466880449355500,0.65035546875,0.11168693554997443,-0.004821227877680212,0.03898692962208297
1761466880459338800,0.6603388671875,0.13308452836573123,0.0030401714134961366,0.03709663606318645
1761466880469321700,0.67032177734375,0.1324848089069128,0.0016026140326925087,0.015801275212620383
1761466880479304700,0.6803046875,0.1244026247382164,-0.010879039212455973,0.010198861228837631
1761466880489288700,0.690288818359375,0.11437515172064304,-0.008698128676530905,0.006693341892492026
1761466880499271700,0.700271728515625,0.1329290455430746,-0.010612072539073415,-0.003263924566237256
1761466880509254700,0.710254638671875,0.10225099868476391,-0.0094127534940897,-0.021590809266339054
1761466880519237600,0.720237548828125,0.1315793844997883,-0.006182873902993742,-0.0342225190987112
1761466880529222000,0.730221923828125,0.13891454969346523,-0.019736913611518685,-0.01636339804083109
1761466880539204600,0.74020458984375,0.13412556185126304,-0.0783741014749743,0.09471753444001078
1761466880549187600,0.7501875,0.06693535515367985,-0.05605878189294599,0.005865005876147188
1761466880559170800,0.7601708984375,0.1471411107689142,-0.012089494997740256,-0.0888129683050327
1761466880569154800,0.77015478515625,0.12753858467638493,-0.009404361266724299,-0.102197314002458
1761466880579142400,0.780142333984375,0.0997065748989582,0.011999464926996732,-0.06476262792421039
1761466880589125400,0.79012548828125,0.1460959856301546,0.013015677923458861,-0.002507233580574393
1761466880599108000,0.800108154296875,0.12035714873969554,-0.02854184768036939,0.06671602701430675
1761466880609092400,0.81009228515625,0.11227496457099914,-0.0405632846938679,0.07280687753558159
1761466880619075300,0.820075439453125,0.1429500888198614,-0.025341900861589238,0.019039389484166166
1761466880629058300,0.830058349609375,0.13352291978299616,-0.01342690048929653,-0.027913664745469576
1761466880639042300,0.840042236328125,0.12020400400459766,0.0029750577299448196,-0.030151127774221822
1761466880649025300,0.850025390625,0.1161632041811943,0.01300098496111459,-0.02447512339784298
1761466880659008300,0.86000830078125,0.13247370299100875,0.02408089534929022,0.008716824243846349
1761466880668991200,0.8699912109375,0.12110124510526657,0.02879613753526937,0.03488829409764148
1761466880678974500,0.879974365234375,0.1026958198428154,0.02617219822286861,0.038609917569812385
1761466880688958500,0.88995849609375,0.11646131034493445,0.026415900468383914,0.005647673331038095
1761466880698941200,0.899941162109375,0.1347165134817362,0.02508658124351641,-0.036039030468766574
1761466880708924400,0.90992431640625,0.11391688655912875,0.019763803901732897,-0.056530299261678005
1761466880718908400,0.919908447265625,0.14519173026680945,0.03295918463200796,-0.06494826842311303
1761466880728891400,0.929891357421875,0.12469313211739062,0.042111477683670816,-0.054934056745911945
1761466880738874000,0.9398740234375,0.10239771367907524,0.033492558573058336,-0.022820812285598367
1761466880748857300,0.949857421875,0.12409575074613094,0.02356822855283972,-0.0034993727233493697
1761466880758840300,0.95984033203125,0.12649053692817688,0.01781676833705278,-0.0034195443862117827
1761466880768824300,0.96982421875,0.11706453693509102,0.012260608072724425,-0.016673925294727086
1761466880778807300,0.979807373046875,0.12005787353217601,0.014806460055569185,-0.021793382633733562
1761466880788790300,0.989790283203125,0.09686346042752265,0.01766798468324123,-0.007225800234801135
1761466880798774300,0.999774169921875,0.146244454190135,0.024564479898440184,-0.0044344661829527465
1761466880808757200,1.00975732421875,0.168840901401639,0.03831782558832783,0.01386248460318893
1761466880818740500,1.019740478515625,0.10928571962714195,0.0265457122769556,0.05725895602952223
1761466880828723200,1.02972314453125,0.1190127483934164,0.02305979954008944,0.03642750462996773
1761466880838706200,1.0397060546875,0.1170692131102085,0.028592130262614226,-0.007366117454366758
1761466880848690200,1.049690185546875,0.10479834508001803,0.02081229004135821,-0.035153288009646344
1761466880858673400,1.05967333984375,0.1396656603217125,0.024297782653116155,-0.05853450609040446
1761466880868656400,1.069656494140625,0.14011691122055053,0.015256500811432488,-0.04371108120030258
1761466880878640400,1.079640380859375,0.11542787564396857,0.015211550849786726,-0.010988924761139787
1761466880888623400,1.089623291015625,0.1327887602895498,0.0109648988565139,0.024000395725294946
1761466880898606300,1.0996064453125,0.1390764622569084,0.0005041387134115212,0.03778727607531473
1761466880908589300,1.10958935546875,0.12127134097516536,-0.006922319209622219,0.03058549832020653
1761466880918573300,1.1195732421875,0.11962649637758731,-0.02675777727519162,0.018682723816891664
1761466880928556300,1.129556396484375,0.11708324163556098,-0.024472652879543602,0.004626593504857737
1761466880938539300,1.139539306640625,0.11483809305727481,-0.03329285529947374,0.006519115553458687
1761466880948522200,1.149522216796875,0.1145382333278656,-0.03389659334628377,0.011187413325172382
1761466880958506200,1.15950634765625,0.12950257822573183,-0.04501558336103335,0.01586425287965685
1761466880968489500,1.169489501953125,0.13429331963360308,-0.040635623844293874,-0.00016538544545182957
1761466880978472200,1.17947216796875,0.10302022949159145,-0.02477619327022694,0.015928534304501953
1761466880988455200,1.189455078125,0.12606558951437472,-0.009695223697280743,-0.015624521273071876
1761466880998439400,1.199439453125,0.13743921644389628,-0.007212546885939082,-0.021761053549998903
1761466881008422400,1.20942236328125,0.12831366070210934,-0.005010667768865823,-0.008643350298970471
1761466881018405000,1.219405029296875,0.11903671379089355,-0.0000477995058579836,0.00495784388637403
1761466881028388400,1.229388427734375,0.12068272743225097,0.00263782399056945,0.015761956982384435
1761466881038372400,1.239372314453125,0.1344493869781494,0.00669259982368676,0.010459968983591533
1761466881048355300,1.249355224609375,0.14088088133037088,-0.00033689467101357876,-0.0011069360453053376
1761466881058338300,1.25933837890625,0.11364742196798323,-0.01663426685448503,0.0025157822132110593
1761466881068321300,1.2693212890625,0.10840659870505333,-0.010421173626452219,-0.012045251713925972
1761466881078305300,1.27930517578125,0.13084990118145942,-0.0071184582696529105,-0.02564836614500964
1761466881088288300,1.289288330078125,0.11992635610699653,-0.01323462132869754,-0.012342675174365285
1761466881098271500,1.299271484375,0.11050152515769004,-0.018366184664028697,0.010322864351130556
1761466881108254200,1.309254150390625,0.13833762658834456,0.0042787321985466404,0.024018550153204705
1761466881118238200,1.31923828125,0.11574410198628901,0.018318966255127453,0.05025832001983654
1761466881128221200,1.32922119140625,0.11604454623758792,0.022889998214424122,0.07631259323474951
1761466881138204400,1.339204345703125,0.1253220776706934,0.0061534034966258325,0.07925448277238756
1761466881148187400,1.3491875,0.1184375788539648,-0.007934985117195174,0.06160976251701358
1761466881158171400,1.35917138671875,0.12861293590962886,-0.012652343911735807,0.018544493523135315
1761466881168154000,1.369154052734375,0.13579495636820793,-0.0284523404827225,-0.004816284557792824
1761466881178137300,1.379137451171875,0.1202326455771923,-0.031747030079981774,-0.002397329765581526
1761466881188120300,1.389120361328125,0.1286123513877392,-0.04474578540974762,-0.017041845291666687
1761466881198104300,1.399104248046875,0.11783844391703605,-0.056160662231687454,-0.04478814041386358
1761466881208087300,1.40908740234375,0.11858780097961424,-0.049312846730113956,-0.06888903737156651
1761466881218070300,1.4190703125,0.1360959851413965,-0.051874993402278045,-0.053026670488319355
1761466881228053200,1.42905322265625,0.1203852057904005,-0.05718054333133623,-0.0036150738081778397
1761466881238037200,1.439037353515625,0.10153086771667003,-0.03338005637560272,-0.022835226686729583
1761466881248020500,1.4490205078125,0.1470206992596388,-0.019319836693629622,-0.00014363712123595179
1761466881258003200,1.459003173828125,0.10572013610005378,-0.011975168452668003,0.04954684271565638
1761466881267986200,1.468986083984375,0.11769055987894535,0.014542215062235481,0.054345703497901555
1761466881277970400,1.478970458984375,0.12247896319925784,0.032775375330587844,0.015001297641079872
1761466881287953400,1.488953369140625,0.12217851894795893,0.03880819835457951,0.00601350183559116
1761466881297936100,1.49893603515625,0.1272656129539013,0.022843894050375093,0.02826541905889753
1761466881307919400,1.50891943359375,0.11888590714335441,0.026328898038365876,0.022789786959672344
1761466881317903400,1.5189033203125,0.13878770844340324,0.020136123795865567,0.013072201875178142
1761466881327886300,1.52888623046875,0.13235270695984364,0.006425057761569041,0.015697381013305856
1761466881337869300,1.538869384765625,0.1158925705462694,0.0026682510948739945,0.016044397502823268
1761466881347852300,1.548852294921875,0.13235270695984364,0.0025499105283874088,-0.002502726368815638
1761466881357836300,1.558836181640625,0.13115619065165518,0.009280200597515794,0.00785402655218495
1761466881367819300,1.5688193359375,0.12053192078471182,-0.01346680209977785,0.01141435623213183
1761466881377802500,1.578802490234375,0.1158931550681591,-0.015370685792609582,-0.00036740397370886054
1761466881387785200,1.58878515625,0.1275660572052002,-0.00994935714690946,-0.008513175447506363
1761466881397769200,1.598769287109375,0.13026128763854503,-0.01314508673158707,-0.016457524331379682
1761466881407752200,1.608752197265625,0.10706687453389167,-0.02013260296479566,-0.02427929029848892
1761466881417735400,1.6187353515625,0.096443189188838,-0.013269028205086943,-0.025157550420763435
1761466881427718400,1.628718505859375,0.16318214498758316,0.007135379721701611,-0.03447621529856697
1761466881437702100,1.6387021484375,0.08043255010843277,0.002613157623482402,-0.007398868946498259
1761466881447685000,1.64868505859375,0.13968962571918964,0.0016427919210982508,-0.013475875888799782
1761466881457668400,1.65866845703125,0.14223404950499532,0.0007769643054227344,0.005929878672747873
1761466881467651300,1.6686513671875,0.11006196469664573,0.008376666753378231,0.025219256296032107
1761466881477635300,1.67863525390625,0.13894085317850113,0.00455585037318524,0.03164093022384913
1761466881487618300,1.688618408203125,0.1260708502113819,0.004447006004117429,0.0260988087596721
1761466881497601300,1.698601318359375,0.10646715507507323,0.0025178508727112785,0.025000416780426166
1761466881507584300,1.708584228515625,0.1458206758201122,0.005995016330829822,0.014328933071158826
1761466881517568300,1.718568359375,0.12771394124329088,-0.003217722220777068,0.01367258577098837
1761466881527551500,1.728551513671875,0.10706336740255355,-0.0017772365223034283,0.00909120138103608
1761466881537534200,1.7385341796875,0.13519523690938948,0.00376496257368708,0.0018295009990804828
1761466881547517200,1.74851708984375,0.1124509056597948,0.003444576079479884,0.00013849058866035192
1761466881557501400,1.75850146484375,0.12965981461405754,-0.003608600684907287,-0.025593254407308995
1761466881567484400,1.768484375,0.11724047802388668,-0.0068532588616712015,-0.03453320618281141
1761466881577462300,1.778462158203125,0.09898469036519526,-0.0027131542491028084,-0.02439966527514625
1761466881587445200,1.7884453125,0.125770405960083,0.001373345596261788,-0.022277152129262685
1761466881597429200,1.79842919921875,0.109610129275918,0.002192669472377747,-0.00883696860835189
1761466881607412200,1.808412109375,0.12517302458882332,0.0023478531842236407,-0.0014061153547023422
1761466881617395500,1.8183955078125,0.11185586237609386,-0.004508574882068205,0.010853247184073551
1761466881627378200,1.828378173828125,0.13355331492125988,0.0022982875546091234,0.025914956075767985
1761466881637362200,1.838362060546875,0.11933657352030276,0.011024297468620351,0.03477657050160924
1761466881647345400,1.848345458984375,0.11813830364644527,0.006875589424488134,0.03022356967263622
1761466881657328400,1.858328369140625,0.12831249165832995,0.001932491016096901,0.019355234517285134
1761466881667311000,1.86831103515625,0.13654197534322737,0.007071899731166195,0.012097963715274818
1761466881677295000,1.878295166015625,0.10332067374289035,0.010511126065382268,0.003213660250301473
1761466881687278300,1.8882783203125,0.1547971784800291,0.010508420368353836,-0.011471504663291852
1761466881697261300,1.89826123046875,0.12397300114929675,0.0034209303424111567,-0.01803425842907745
1761466881707244300,1.908244384765625,0.09973112481832504,-0.006648242375440895,-0.009085575357847847
1761466881717228300,1.918228271484375,0.14178046051859855,-0.011024361400702036,-0.021514627341146113
1761466881727211300,1.928211181640625,0.11813830364644527,-0.009653052497899625,-0.0049224414961412544
1761466881737194200,1.9381943359375,0.15091127695739268,-0.021548456545511727,0.01623317980688298
1761466881747177500,1.948177490234375,0.10856383509337901,-0.028017746174451894,0.05868558216600213
1761466881757161500,1.958161376953125,0.11634499048888683,-0.028747010297072117,0.06554523880241904
1761466881767144200,1.968144287109375,0.14791852488219737,-0.020291618034965358,0.03287913481587311
1761466881777127200,1.978127197265625,0.09614274493753909,-0.014450881233683321,0.018421522447303867
1761466881787110400,1.9881103515625,0.10556932945251464,-0.002369380029442254,-0.023582170313224196
1761466881797094400,1.998094482421875,0.12981003673970698,0.016281071785930544,-0.0357620949572185
1761466881807077400,2.008077392578125,0.12202888134419917,0.03426498826725874,-0.039176501944009214
1761466881817060400,2.018060302734375,0.11918576687276362,0.03813973820821848,-0.03210077085451921
1761466881827043300,2.028043212890625,0.10646715507507323,0.03185347699598642,-0.012293004513473715
1761466881837027300,2.03802734375,0.1166425121307373,0.01905502316142665,-0.011231206801126244
1761466881847010300,2.04801025390625,0.12322656669616698,0.014294033004425,-0.001536511685163714
1761466881856993300,2.0579931640625,0.12741641960144043,-0.0017583788414951413,0.0013085504314745775
1761466881866976300,2.067976318359375,0.1253220776706934,-0.011882044525828677,0.009763874194922391
1761466881876960300,2.077960205078125,0.12322715121805668,-0.013090749028732534,0.008443174384639133
1761466881886943200,2.087943115234375,0.1310077220916748,-0.01783051373461494,0.030383214930468236
1761466881896926500,2.097926513671875,0.14582242938578127,-0.023494049071776678,0.04226097829011269
1761466881906909200,2.1079091796875,0.11544541130065918,-0.022970753566746133,0.04169844903652556
1761466881916893200,2.11789306640625,0.11140402695536612,-0.023282970454229505,0.02376111849314766
1761466881926876400,2.12787646484375,0.11619243027567863,-0.0034283944129478183,0.006544619887473527
1761466881936859400,2.137859375,0.12711539082825182,0.0001987420090707019,-0.01633778410896193
1761466881946842000,2.147842041015625,0.12352350381612777,0.0018274665889097376,-0.030019343204272443
1761466881956826000,2.157826171875,0.09718611651062965,0.008269285972323268,-0.02841317979940213
1761466881966809300,2.167809326171875,0.15330138696432113,0.019158225524285807,-0.026735930769564584
1761466881976792300,2.177792236328125,0.11394728169739246,0.012419318323861808,-0.0013051871473202482
1761466881986775300,2.187775390625,0.10900807172954081,0.015002911926142405,0.014824648732808417
1761466881996759300,2.19775927734375,0.13758943856954572,0.01299852015103679,0.02065265619996935
1761466882006742300,2.2077421875,0.12831249165832995,0.0006530410982319154,0.015743887036154047
1761466882016725200,2.217725341796875,0.10451894361674785,0.0005132695846492424,0.02032552030456718
1761466882026708500,2.22770849609375,0.1281622695326805,0.010727958570281044,0.0014389010961633176
1761466882036692500,2.2376923828125,0.13818857350647448,0.008209025418758393,0.013333451193827204
1761466882046675200,2.24767529296875,0.12876198899149893,0.0011044015949242749,0.008094191983609925
1761466882056658200,2.257658203125,0.12397358567118644,0.005808133722911588,0.004928455678396858
1761466882066641400,2.267641357421875,0.1102075106471777,0.005469805146637373,-0.00454266894791508
1761466882076625400,2.27762548828125,0.13115794421732424,0.0004944141871295869,-0.013520240186911541
1761466882086608400,2.2876083984375,0.1226291853249073,-0.010491501199593767,-0.0184855024780496
1761466882096591400,2.29759130859375,0.12502338698506354,0.010461925761948805,-0.008891221829527058
1761466882106574300,2.30757421875,0.15225801539123057,-0.0007388037025230005,-0.006857017154758796
1761466882116558300,2.317558349609375,0.09479717554748057,-0.00670999619977083,0.020504546116304118
1761466882126541300,2.327541259765625,0.10332651896178721,-0.0020206898893578907,0.027184713433391877
1761466882136524300,2.337524169921875,0.15031272654235361,0.0019816936028189958,0.012765672659676056
1761466882146507300,2.34750732421875,0.11454933924376964,0.011883622278273104,0.004884484105929732
1761466882156491300,2.3574912109375,0.11215396853983402,0.0017048905220115556,-0.00045816469681449234
1761466882166474200,2.36747412109375,0.12128010880351066,0.015686887018755077,0.0003042870260658674
1761466882176457500,2.37745751953125,0.13759060761332512,0.005570671705226414,-0.006033236299233976
1761466882186440200,2.387440185546875,0.12307459100484848,-0.005664147258515004,0.005526254891476128
1761466882196424200,2.397424072265625,0.11634148335754871,-0.005603295333194546,0.009451456378039437
1761466882206407400,2.407407470703125,0.13025953407287597,-0.005721608500217553,-0.004585574224591255
1761466882216390400,2.417390380859375,0.11664309665262698,-0.006166125980881043,-0.009337942683720029
1761466882226373000,2.427373046875,0.1247246962994337,-0.006286879983451217,-0.006114432326261885
1761466882236357000,2.437357177734375,0.12936404653787612,-0.008454732391692232,-0.004469921088824049
1761466882246340400,2.44734033203125,0.14313187512755393,-0.011027523755456787,0.0018864211013773454
1761466882256323300,2.4573232421875,0.11275485704243182,-0.0098322472729953,0.02086979923212202
1761466882266306300,2.467306396484375,0.12203297299742698,0.0019803578789695164,0.01595596116754459
1761466882276290300,2.477290283203125,0.13116145134866236,0.005147920815087854,-0.000013284173258580267
1761466882286273300,2.487273193359375,0.09030863195657729,0.0034462428801809437,0.0039119743955205195
1761466882296256300,2.49725634765625,0.11828969481587409,0.010287962001108097,-0.009021408097434323
1761466882306239500,2.507239501953125,0.1435784498512745,0.010933404314774088,-0.0012016788237844593
1761466882316223500,2.517223388671875,0.12577157500386238,0.018415120105980894,0.0038954091364983468
1761466882326206200,2.527206298828125,0.10916121646463871,0.010210825661267154,0.018881675888516473
1761466882336189200,2.537189208984375,0.13145897299051285,0.008598739405686501,0.006879475581739097
1761466882346172400,2.54717236328125,0.1076671785145998,-0.001739916169620119,0.013369837681460193
1761466882356156400,2.557156494140625,0.10886369482278824,-0.0050244474157574584,0.007543741326883901
1761466882366139400,2.567139404296875,0.1498649827748537,-0.0027677659465931356,0.0024275353908888063
1761466882376122000,2.5771220703125,0.11260580396056175,-0.009355973814043681,0.006774891829257831
1761466882386105300,2.587105224609375,0.10272913759052753,-0.012207757932413368,0.014053283051110338
1761466882396089300,2.59708935546875,0.12682196083962916,-0.005909518588020001,0.010283151111961342
1761466882406072300,2.607072265625,0.13280921855568886,0.004181594250292983,-0.0026959428193978965
1761466882416055300,2.61705517578125,0.1181453179091215,-0.0016515802990412338,-0.008647533283743541
1761466882426038300,2.627038330078125,0.11365618979632854,0.010393566383607685,-0.010847685092967003
1761466882436022300,2.637022216796875,0.12248422389626502,0.006117861825786531,-0.008701217966049444
1761466882446005200,2.647005126953125,0.1326595809519291,-0.0077946861639386035,0.00812690465983469
1761466882455988500,2.656988525390625,0.12218553321063517,0.003728982511430513,0.002052582864963915
1761466882465971200,2.66697119140625,0.12532792288959024,0.005357917153823655,-0.002523385564354248
1761466882475955200,2.676955078125,0.11679857947528362,0.0015628950853017157,0.00514572885800153
1761466882485938400,2.6869384765625,0.13460545432269572,0.0005509849462658167,-0.001553739097889047
1761466882495921400,2.69692138671875,0.12053893504738807,0.004237374991562683,0.0003246539606596343
1761466882505904000,2.706904052734375,0.12832125948667525,-0.0027124372964724896,0.006599174502748065
1761466882515887400,2.716887451171875,0.13999357710182667,-0.006495951590291224,0.018439672308636364
1761466882525871400,2.726871337890625,0.11889467497169971,-0.014859238272288348,0.024830665687110738
1761466882535854300,2.736854248046875,0.1293693072348833,0.0015545565152191557,0.017434865480533333
1761466882545837300,2.74683740234375,0.12338380308449268,-0.0006006852899095974,0.010783679946046322
1761466882555820300,2.7568203125,0.11650047331154345,0.006565621576306875,0.007044557349802926
1761466882565804300,2.76680419921875,0.1150040972739458,0.006686631307203788,0.01595643380829133
1761466882575791000,2.776791015625,0.1390951669573784,0.005732997543911915,0.018925104038289283
1761466882585774000,2.786774169921875,0.11111293505430221,-0.0014437919004121795,0.013308944656944367
1761466882595758000,2.796758056640625,0.1350561206996441,-0.0050256164595368314,-0.013965052211808505
1761466882605741300,2.8067412109375,0.12084054834246635,-0.0023481796944979576,-0.02522430693048518
1761466882615724300,2.816724365234375,0.1100672253936529,-0.01575292200926924,-0.017003084183856845
1761466882625707300,2.826707275390625,0.14209025712013243,0.002704489168745931,-0.014045978810777886
1761466882635690200,2.836690185546875,0.12233809342384337,-0.0025261666099075228,0.0029676769994432103
1761466882645674200,2.84667431640625,0.1130611465126276,-0.0032021547588868995,0.01895777789860731
1761466882655657200,2.8566572265625,0.13191665363013744,0.012192891440133097,0.016473066677094902
1761466882665640200,2.86664013671875,0.10707622688412666,0.010758508972171694,0.0282358025220572
1761466882675623200,2.876623046875,0.12174071205258369,0.006723221007524989,0.014012071974598802
1761466882685607200,2.886607177734375,0.12817454449236393,0.01425086286626756,0.005133415082411374
1761466882695590100,2.896590087890625,0.1179974338710308,-0.0003455140855978243,-0.007583913507068064
1761466882705573400,2.906573486328125,0.11889467497169971,0.0015862417115597054,-0.026627125216403508
1761466882715556000,2.91655615234375,0.1259276423484087,-0.001017161702888552,-0.017736832685349507
1761466882725540000,2.9265400390625,0.09809563257098197,-0.005656977732211817,-0.01288070474093547
1761466882735523300,2.9365234375,0.13385901986956594,-0.011750903843273408,-0.011556075390917249
1761466882745506300,2.94650634765625,0.13221359075009823,-0.01122491862423485,0.007973202802310697
1761466882755489000,2.956489013671875,0.12368424733579159,-0.01180816872215364,0.009497533142624888
1761466882765473000,2.96647314453125,0.1301192488193512,-0.02463644458953058,0.009164220951474272
1761466882775456300,2.976456298828125,0.0957020154327154,-0.018126128830458037,0.021575107090419623
1761466882785439200,2.986439208984375,0.11605097597837448,-0.005044907965185121,0.018672937641816677
1761466882795422200,2.996422119140625,0.1560048007041216,0.0032185579044162293,0.017475896177242975
1761466882805406200,3.00640625,0.14448270521461962,0.0001588072909042239,0.01095539010100765
1761466882815389200,3.01638916015625,0.1090180086016655,0.007405938008101656,0.010168600804603193
1761466882825372200,3.0263720703125,0.11275836417376994,0.011842048158869146,0.0034226816247915847
1761466882835355400,3.03635546875,0.14283552252948284,0.015091377944173291,-0.02479411023611901
1761466882845339400,3.04633935546875,0.12637538611590862,0.015213285007502417,-0.014232468693051486
1761466882855322000,3.056322021484375,0.1021335097849369,0.007572355500014964,-0.01590258244591532
1761466882865305000,3.06630517578125,0.11844400859475135,0.00675694974719081,-0.0221135407990776
1761466882875288300,3.076288330078125,0.12532792288959024,-0.0019705762704717925,-0.004281940219074022
1761466882885272300,3.086272216796875,0.12293372122943401,-0.001664033355237916,-0.011052566865168046
1761466882895255300,3.09625537109375,0.10737141043841839,0.002947810105059761,-0.009652493092184886
1761466882905238300,3.10623828125,0.14478198042213916,0.00017122153119416907,-0.005340924919827375
1761466882915221200,3.11622119140625,0.11171206999123096,-0.006261546896083746,0.01947140139299445
1761466882925205200,3.126205322265625,0.11889467497169971,-0.009947119524050503,0.028943462167645338
1761466882935188200,3.136188232421875,0.11231003588438034,-0.021541092939674853,0.03026294726837659
1761466882945171200,3.146171142578125,0.13565350207090376,-0.014047111321939155,0.005529280248912982
1761466882955154200,3.156154296875,0.1323626438319683,0.0029503651050385086,-0.023091345455823465
1761466882965138200,3.16613818359375,0.10812076750099658,0.0002892059046542272,-0.01757456621216843
1761466882975121200,3.17612109375,0.12652619276344776,-0.0016090814477414824,-0.006332815184141509
1761466882985104400,3.1861044921875,0.1241319911032915,-0.0015699161978438496,0.010728394678409676
1761466882995087000,3.196087158203125,0.12383271589577197,-0.001085064423503354,0.026110958138480782
1761466883005071000,3.206071044921875,0.10303367349505424,-0.01595094021584373,-0.010353844011283945
1761466883015054300,3.216054443359375,0.12293547479510307,-0.009466258938238024,-0.03285873819852713
1761466883025037300,3.226037353515625,0.10393091459572315,0.003128431935550179,0.017376235195051413
1761466883035020000,3.23602001953125,0.14148936861753464,-0.0008159057930344715,0.05004189622360281
1761466883045004000,3.246004150390625,0.09390461062192916,0.004446394082764163,0.045817264265893026
1761466883054987300,3.2559873046875,0.14074001155495644,-0.0016679514785297215,0.008166889610351063
1761466883064970200,3.26597021484375,0.10572539679706096,0.005780204536370001,-0.003918349337379914
1761466883074953200,3.275953125,0.17096797655820845,0.009489144340192433,-0.02912615950750187
1761466883084937200,3.285937255859375,0.07804244010150432,0.005144436516636051,-0.024835172898869495
1761466883094920200,3.295920166015625,0.1329594406813383,0.007663634529639966,-0.03296544540943578
1761466883104903200,3.305903076171875,0.12622574851214885,0.007720511249452829,-0.03614227164753247
1761466883114886400,3.315886474609375,0.11320727698504925,0.016085167904628904,-0.03221232777048135
1761466883124870400,3.325870361328125,0.13954407976865768,0.00600431616542628,-0.03630404036379186
1761466883134853000,3.33585302734375,0.12218728677630424,-0.0026504300271044485,-0.027909922435402402
1761466883144836000,3.345836181640625,0.12353460973203181,-0.0017205630151787771,-0.0036203162388759665
1761466883154819300,3.3558193359375,0.10827098962664604,-0.010026180676207877,0.023556122556515038
1761466883164803300,3.36580322265625,0.11994272271990776,-0.0218038880447275,0.03652145967386895
1761466883174786300,3.375786376953125,0.1401443837493658,-0.020654765958664938,0.041078399175731466
1761466883184769300,3.385769287109375,0.12084054834246635,-0.034195875403669196,0.054052853464591315
1761466883194752300,3.395752197265625,0.1310153208762407,-0.023084922564902806,0.02198382488862844
1761466883204736300,3.405736328125,0.1489724178493023,-0.01581104540467495,-0.0014426205733441746
1761466883214719200,3.41571923828125,0.09854454538226128,-0.004829287886549718,-0.002354648251191247
1761466883224702200,3.4257021484375,0.12173720492124557,0.007069182617694605,-0.0065547531224205155
1761466883234685200,3.435685302734375,0.1624392176657915,0.029117284364590885,-0.015575152006279677
1761466883244669200,3.445669189453125,0.09360533541440963,0.026937259744654874,0.005505534047144465
1761466883254652200,3.455652099609375,0.10362988582253456,0.02853396805130178,0.0017456791901262476
1761466883264635400,3.465635498046875,0.13236089026629924,0.030509855251130646,-0.0226170059423428
1761466883274618000,3.4756181640625,0.1094663368910551,0.012856013257673476,-0.025066154943418222
1761466883284602000,3.48560205078125,0.12113806998431682,0.004998374542873352,-0.030897137535666114
1761466883294585300,3.49558544921875,0.12712415865659712,-0.010283562103915027,-0.018577142267278395
1761466883304568300,3.505568359375,0.11590192289650439,-0.026823446939524726,0.004224143333942629
1761466883314551000,3.515551025390625,0.11994272271990776,-0.032342689851613246,0.020593662871595007
1761466883324535000,3.52553515625,0.131913731020689,-0.02293880122563569,0.03233945443162229
1761466883334518300,3.535518310546875,0.11769815866351127,-0.027189177262666633,0.04313669254556298
1761466883344501200,3.545501220703125,0.11859539976418018,-0.013921336367668118,0.039782057488569986
1761466883354484200,3.555484130859375,0.12787234667539596,-0.013526343417423776,0.024378782317321747
1761466883364468200,3.56546826171875,0.12009119127988814,0.0035342294075991956,0.0033044597893138413
1761466883374451200,3.575451171875,0.11365735884010791,0.016551835568307433,-0.03544005764533067
1761466883384434200,3.58543408203125,0.13086568327248096,0.013996650643181055,-0.02796831525886664
1761466883394417400,3.59541748046875,0.11784721174538135,0.01573254822480958,0.02321733047264861
1761466883404401400,3.6054013671875,0.11246025801002979,0.01861448545284802,0.03719881551273865
1761466883414384000,3.615384033203125,0.1293693072348833,0.03553487120575737,0.0071243400211678815
1761466883424367000,3.6253671875,0.14687749139666556,0.029526856112747916,-0.03257338191850576
1761466883434350300,3.635350341796875,0.11515431939959525,0.02695506711269263,-0.05359730541654862
1761466883444334300,3.645334228515625,0.12652677728533743,0.021269801717624066,-0.03541486612185835
1761466883454317300,3.6553173828125,0.1269762746185064,0.007228766226733569,0.011892862747365143
1761466883464300000,3.665300048828125,0.11889584401547908,-0.011980856124649289,0.05630730872733984
1761466883474283300,3.675283203125,0.12203823369443416,-0.025695324259006884,0.059333940239250656
1761466883484267300,3.685267333984375,0.1269762746185064,-0.033462905503599906,0.050321827409835526
1761466883494250200,3.695250244140625,0.11979308511614799,-0.03906379425057675,0.0045525715707102786
1761466883504233200,3.705233154296875,0.1328115566432476,-0.0351103850162588,-0.04228617666345089
1761466883514216200,3.71521630859375,0.13490648309588432,-0.01816364326267503,-0.035481499333994
1761466883524200200,3.7252001953125,0.1114139638274908,-0.013254095497436355,-0.007045201237197034
1761466883534183200,3.73518310546875,0.12652736180722712,-0.006373549053329043,0.0007615132912527769
1761466883544166400,3.74516650390625,0.14343758007586002,0.002238903783878777,0.03585799764632247
1761466883554149000,3.755149169921875,0.12218845582008361,0.008301544274110347,0.061341946460260074
1761466883564133000,3.765133056640625,0.12158932088315486,0.007207296463730745,0.027799386149458587
1761466883574113300,3.77511328125,0.12458148843646048,0.014982300679665057,-0.02228943850538926
1761466883584096500,3.785096435546875,0.10437924288511276,0.023195543332525992,-0.0551660525706131
1761466883594079500,3.79507958984375,0.13879647627174854,0.02737822442820761,-0.045843805212946606
1761466883604063500,3.8050634765625,0.12039163553118705,0.018936479382251854,-0.008738627366989386
1761466883614046200,3.815046142578125,0.12308452787697315,-0.00484171125999419,0.034784804040414743
1761466883624029400,3.825029541015625,0.11560264768898486,-0.022315251083369365,0.047217111993301655
1761466883634012400,3.835012451171875,0.13475567644834519,-0.012905492122319992,0.032858471053757235
1761466883643996400,3.844996337890625,0.125927057826519,0.007555516246357001,0.002758230933267623
1761466883653979600,3.854979736328125,0.12742343386411667,-0.0014323115251725538,-0.009604868257907219
1761466883663962400,3.86496240234375,0.11889467497169971,-0.008114750714448745,0.0005967215008451603
1761466883673945300,3.8749453125,0.10737199496030807,-0.011242878972610924,0.013762880703213158
1761466883683929300,3.884929443359375,0.13445581671893597,-0.01768079393246444,0.04452205965647008
1761466883693912600,3.89491259765625,0.1390945824354887,-0.023299010556866413,0.04652206066753715
1761466883703895300,3.904895263671875,0.1278711776316166,-0.00815042481602868,0.019811182140838355
1761466883713878300,3.914878173828125,0.12218436416685581,-0.00484195557187777,0.010838444623874965
1761466883723862500,3.924862548828125,0.13415537246763706,-0.0036840314081404354,-0.03141183645899873
1761466883733845500,3.934845458984375,0.13505202904641628,0.006368425353639759,-0.033747416966827586
1761466883743828500,3.944828369140625,0.124576812261343,-0.009503241364203859,0.006461866657598875
1761466883753811500,3.9548115234375,0.1507628083974123,-0.03688003873701673,0.05911391341355629
1761466883763794400,3.96479443359375,0.12936229297220705,-0.06872565437024458,0.07953026750646532
1761466883773778400,3.9747783203125,0.07743687542378902,-0.08664015431059524,-0.048742412731284275
1761466883783761400,3.984761474609375,0.09823708686828612,-0.03442993303800467,-0.2701130085842684
1761466883793744400,3.994744384765625,0.14043839825987814,0.01570369887294946,-0.2859588855570182
1761466883803725600,4.0047255859375,0.1498684899061918,0.016044523083698005,-0.06301675237126182
1761466883813708300,4.014708251953125,0.12907120107114314,0.026099950403987895,0.21883231868017464
1761466883823691300,4.024691162109375,0.11799684934914112,0.051988911238685244,0.35510471983440217
1761466883833675300,4.03467529296875,0.10991349613666533,0.06961754344236105,0.20013899812074376
1761466883843658500,4.044658447265625,0.14298282204568386,0.08252737609636969,0.02724354236498475
1761466883853641500,4.054641357421875,0.11933891160786152,0.09316928208470344,-0.052890691517153754
1761466883863624400,4.06462451171875,0.09734043028950691,0.05549084581187926,-0.06672967651374638
1761466883873608400,4.0746083984375,0.16108721853494642,0.01541125069843838,0.015195297259662765
1761466883883591400,4.08459130859375,0.11829086385965347,-0.042069958363194014,0.11249333829572424
1761466883893574400,4.094574462890625,0.11140461147725582,-0.06276459967452101,0.10825838587339967
1761466883903557600,4.1045576171875,0.11708733328878879,-0.07657123960435856,0.048566937433369456
1761466883913540400,4.114540283203125,0.1268120239675045,-0.08309647208806127,-0.06158926315167918
1761466883923524400,4.1245244140625,0.10705869122743605,-0.08321019812822342,-0.17067622707001864
1761466883933507300,4.13450732421875,0.11858195576071738,-0.08780841263867914,-0.2054557178977877
1761466883943490600,4.144490478515625,0.1426753635317087,-0.06869245992011856,-0.14764400052344426
1761466883953474600,4.154474609375,0.10077917256653308,-0.019433101509488186,-0.023611106430052313
1761466883963457300,4.164457275390625,0.12666706253886223,0.04107382346531376,0.08173721209936775
1761466883973440500,4.1744404296875,0.11993278584778308,0.08573370699016376,0.0615915555734653
1761466883983423500,4.184423583984375,0.11080547654032706,0.10845193568412213,-0.010207329946372192
1761466883993406500,4.194406494140625,0.14133213222920893,0.10418822295819409,-0.04550542183774523
1761466884003390200,4.20439013671875,0.11724106254577636,0.06845049525725189,0.007214324426138773
1761466884013373400,4.21437353515625,0.1360971541851759,0.04175039841947145,0.06447772830191534
1761466884023356400,4.2243564453125,0.12457505869567394,0.013188396150351035,0.11564701655367389
1761466884033340400,4.23434033203125,0.10886194125711918,-0.028035560392355545,0.14345869592912494
1761466884043323400,4.244323486328125,0.15225567730367182,-0.03285483377496712,0.10229179648603312
1761466884053306400,4.254306396484375,0.12232640298604965,-0.010583983522327617,0.05693804894550703
1761466884063289300,4.264289306640625,0.12591653643250464,0.06059820628771558,-0.04914388793795369
1761466884073272600,4.2742724609375,0.1301058048158884,0.0507805400959216,-0.08916191874002106
1761466884083256600,4.284256591796875,0.1547971784800291,0.012663545725762377,-0.04128005922767333
1761466884093239300,4.2942392578125,0.10197510435283183,-0.013771397369808982,0.017133138021023477
1761466884103222300,4.30422216796875,0.11738719301819801,-0.02815704504728783,0.007292666342377197
1761466884113205500,4.31420556640625,0.1304062490671873,-0.03650380985274678,-0.04698102908194996
1761466884123189500,4.324189453125,0.11559154177308081,-0.04096981510156766,-0.08195933955060318
1761466884133172500,4.33417236328125,0.14222820428609848,-0.043681868805550035,-0.08592860850775613
1761466884143155500,4.344155517578125,0.1245721360862255,-0.04862371825505979,-0.010856918712193145
1761466884153138400,4.354138427734375,0.14776830275654793,-0.048065673380345106,0.09235541755170561
1761466884163122400,4.364122314453125,0.12412439231872557,-0.05586431420019362,0.1702189482891932
1761466884173105400,4.37410546875,0.1055669913649559,-0.03718050582120195,0.10700603859159163
1761466884183088600,4.384088623046875,0.1287596509039402,-0.001325759577890858,-0.03883160662963055
1761466884193071400,4.3940712890625,0.1266635554075241,0.02140781966553768,-0.07696325742951594
1761466884203055400,4.404055419921875,0.11558978820741175,0.008844023970223496,0.01369413316580467
1761466884213038300,4.414038330078125,0.13549217402935027,0.010764692117786034,0.1030607989639975
1761466884223021600,4.424021484375,0.10840601418316363,0.06147172858607955,0.10629084866009653
1761466884233004300,4.43400439453125,0.09328852455019951,0.14253568106638267,0.032250789767480456
1761466884242988300,4.44398828125,0.1434165372878313,0.18305296662747858,-0.08876421552617102
1761466884252971500,4.453971435546875,0.13399053729474544,0.12448211058205924,-0.08699685879377647
1761466884262954500,4.46395458984375,0.07533142757713794,0.06962106884000822,-0.02857024037450319
1761466884272937500,4.4739375,0.11947393616437911,0.028848794737691058,-0.008946817624417598
1761466884282921200,4.483921142578125,0.13578501949608326,-0.005721457803167868,-0.04002358376001939
1761466884292904400,4.493904541015625,0.1173790097117424,-0.028495442122220993,-0.053254414829588495
1761466884302887400,4.503887451171875,0.11274082851707935,-0.07513909247596748,-0.04281041973326355
1761466884312870400,4.513870361328125,0.11722937210798264,-0.09845619124537333,0.001434035408089403
1761466884322854400,4.5238544921875,0.1516471900165081,-0.1053810951377265,0.035874932798102964
1761466884332837400,4.53383740234375,0.13084873213768006,-0.0997731190628372,0.055974601607676595
1761466884342820400,4.5438203125,0.11558569655418395,-0.08292880563726648,0.056606990360235795
1761466884352803600,4.553803466796875,0.11932605212628841,-0.05501362022156827,0.03935286315791309
1761466884362787600,4.56378759765625,0.14820610965192318,-0.025223779490811282,0.025201474044169298
1761466884372770300,4.573770263671875,0.1293517715781927,-0.02742879698810866,0.04241459338266868
1761466884382753300,4.583753173828125,0.11214286262392997,0.005809053888230119,0.02088351266364334
1761466884392737300,4.5937373046875,0.11618132435977459,0.01989737856996944,-0.010194895156484562
1761466884402721300,4.60372119140625,0.13069558740258216,0.03870710803370457,-0.01181212109477492
1761466884412704500,4.61370458984375,0.1196224047243595,0.04958258531589527,0.0030948105104500424
1761466884422687500,4.6236875,0.10525661024153232,0.04260570007455535,0.027595045516663228
1761466884432670500,4.63367041015625,0.1458084008604288,0.030730525964219123,0.02422750987890176
1761466884442654500,4.643654541015625,0.13398644564151763,0.00877433115132153,0.011256485089566557
1761466884452637400,4.653637451171875,0.10256137980818748,-0.016773282599530648,0.002184319485852029
1761466884462620400,4.663620361328125,0.13578092784285545,-0.025231917131494263,-0.001231368425861001
1761466884472603400,4.673603271484375,0.1329378133714199,-0.03754217645715689,0.0025176887592184356
1761466884482587400,4.68358740234375,0.11991992636620998,-0.037321389296348206,0.030002465134707744
1761466884492570400,4.6935703125,0.13129179973006247,-0.04900291769783944,0.059919320645462716
1761466884502553300,4.70355322265625,0.10645020394027233,-0.037598466371791435,0.06195256177242845
1761466884512536600,4.71353662109375,0.13353285665512085,-0.03574427617273759,0.01799972597181331
1761466884522520600,4.7235205078125,0.11841770510971546,-0.007048984646459575,-0.007701486888574436
1761466884532503300,4.73350341796875,0.1356260295420885,-0.0031028043039492328,-0.023156140620610676
1761466884542486500,4.743486572265625,0.12081073772609233,-0.0028700481441337614,-0.023435948509257284
1761466884552469500,4.753469482421875,0.12111001293361186,-0.013503526514128315,-0.025890808015200308
1761466884562453500,4.76345361328125,0.13023790676295757,-0.0008110298301617149,-0.02502050972038414
1761466884572436200,4.773436279296875,0.13233283321559428,0.0041626201217644845,-0.020657852964894845
1761466884582418400,4.78341845703125,0.1469984874278307,-0.00990561162001686,-0.029284971364983356
1761466884592401400,4.7934013671875,0.10105857402980327,-0.013538197110354666,-0.02532900941397529
1761466884602385400,4.803385498046875,0.12170914787054062,-0.0021095988653833044,-0.026916228373069315
1761466884612368600,4.81336865234375,0.1663034918785095,0.018599247926165116,-0.015400722454558126
1761466884622351400,4.823351318359375,0.08864099100530147,0.02489431235771626,0.004188779759616591
1761466884632334600,4.83333447265625,0.10165887801051139,0.03950532747299876,0.015813285310822538
1761466884642318600,4.843318603515625,0.15014146162867545,0.03864049993774388,0.034278167409240265
1761466884652301600,4.853301513671875,0.12320669295191763,0.03327411406638566,0.029634474355820565
1761466884662284300,4.8632841796875,0.13368190973699093,0.039453720583347604,0.027509856017818673
1761466884672267500,4.873267578125,0.14490589906275272,0.036821125323744486,0.03479028849970782
1761466884682251500,4.88325146484375,0.0953752676963806,0.028829569447413085,0.04776969524160959
1761466884692234500,4.893234375,0.13787234716415406,0.02107069209908368,0.01961792915763799
1761466884702217500,4.903217529296875,0.13697452154159545,0.013516436228051315,0.021532959865569135
1761466884712200400,4.913200439453125,0.10614800612330436,0.005362004240474198,0.052037654884392395
1761466884722184400,4.923184326171875,0.10898819798529147,-0.004939429163560271,0.06479123296418693
1761466884732167400,4.93316748046875,0.1546270826101303,-0.02153048249740386,0.04715246752556413
1761466884742150700,4.943150634765625,0.14819325017035007,-0.04878458050573244,0.017477163402433507
1761466884752133400,4.95313330078125,0.0765139153599739,-0.07059557642797008,-0.005689311382523737
1761466884762117400,4.963117431640625,0.13247779464423656,-0.06391771979897748,-0.04504178638136946
1761466884772100400,4.973100341796875,0.17647417275905608,-0.06275843479521573,-0.07253525751996785
1761466884782083600,4.98308349609375,0.07965864312648772,-0.058070459642075,-0.04997208239040337
1761466884792066600,4.993066650390625,0.09147826025784016,-0.021660445003025233,-0.04335658237393945
1761466884802050300,5.00305029296875,0.1520826588243246,0.004145001125038834,-0.043572458180901594
1761466884812033500,5.013033447265625,0.10794073475897312,0.02539537091476377,-0.011256325259362347
1761466884822016500,5.0230166015625,0.11931494621038437,0.025667175876756664,-0.0002603634026600048
1761466884831999500,5.03299951171875,0.1335305185675621,0.027436799914762375,0.021756288326624778
1761466884841983500,5.0429833984375,0.10719371578395366,0.020713056034140753,0.02444940443469677
1761466884851966500,5.052966552734375,0.14460428576767445,0.013337360183964482,0.019110650922358034
1761466884861949400,5.062949462890625,0.17827566922307014,0.00618204392757616,0.03408707441708538
1761466884871932400,5.072932373046875,0.08475041330754757,-0.010034248676587594,0.07151537185374181
1761466884881916400,5.08291650390625,0.12111235102117061,-0.025557443308411164,0.0822501939896494
1761466884891899400,5.0928994140625,0.16944646607935426,-0.022582567099912555,0.06977174305680674
1761466884901882400,5.10288232421875,0.10136018732488154,-0.015616087946511106,0.04958007826497778
1761466884911865600,5.112865478515625,0.11377835487127304,-0.020707466543570627,0.004689002633024938
1761466884921849600,5.122849609375,0.15567688392400741,-0.006376366631500423,-0.03124544408326037
1761466884931832600,5.13283251953125,0.10405015706121921,-0.011491162636765511,-0.015219712465000338
1761466884941815300,5.142815185546875,0.12754267632961272,-0.029253226803138386,-0.0011623994094552472
1761466884951798500,5.152798583984375,0.14804302804470063,-0.025131813191308174,0.012377931434125638
1761466884961782500,5.162782470703125,0.08474339904487133,-0.013701236476737539,0.03916719982612412
1761466884971765500,5.172765625,0.09865735810697078,-0.011058558214537334,0.023254673658218233
1761466884981748500,5.18274853515625,0.1701864707916975,-0.008594450247992063,-0.014827964067901484
1761466884991731500,5.1927314453125,0.11033201380968093,-0.01723769894061843,-0.0041692850412800905
1761466885001715500,5.202715576171875,0.06992693818509578,-0.00952844430411933,0.022080396581301464
1761466885011698400,5.212698486328125,0.15237667333483695,0.005491802349314093,0.017974870091769842
1761466885021681700,5.222681640625,0.1309773269534111,0.01944547236729413,0.018991929046669975
1761466885031664400,5.232664306640625,0.1079331359744072,0.028260478022298773,0.011249288163799791
1761466885041648400,5.2426484375,0.13382044142484664,0.03812102894117124,-0.015919882923876867
1761466885051631400,5.25263134765625,0.1083814642637968,0.05924941289410926,-0.03432023015241138
1761466885061614600,5.262614501953125,0.147438047888875,0.05759968662543687,-0.034991854936815794
1761466885071597600,5.27259765625,0.12663959001004696,0.04805899704438634,-0.009645844155689701
1761466885081581300,5.282581298828125,0.09296996012032031,0.020143555900361387,0.02656162451542914
1761466885091564500,5.292564453125,0.11900514960885047,-0.0028746535373036747,0.03487771790469996
1761466885101547500,5.302547607421875,0.12319500251412391,-0.017245607110793933,0.027614846195676362
1761466885111530500,5.312530517578125,0.15417232457995414,-0.0344793548204354,0.005905146090290509
1761466885121514500,5.322514404296875,0.10509060602486132,-0.046941729118023065,0.0009882758184103294
1761466885131497500,5.33249755859375,0.10897943015694618,-0.04535941009633243,0.009132752667553722
1761466885141480400,5.34248046875,0.1266366674005985,-0.040187341220676895,0.014770895551843568
1761466885151464400,5.35246435546875,0.1419002875059843,-0.03526513261997606,0.034228396283648904
1761466885161447400,5.362447509765625,0.13082710482776164,-0.0264665986091597,0.05287389564597979
1761466885171430400,5.372430419921875,0.11107318756580352,-0.021470925196737517,0.038985769711458125
1761466885181413400,5.382413330078125,0.10703180322051048,-0.018784220563143026,0.00235558668281883
1761466885191396400,5.392396240234375,0.11705752267241477,-0.021560633323783985,-0.02025181118096225
1761466885201380600,5.402380615234375,0.12798223679065704,-0.014155589223181594,0.008041432033199817
1761466885211363600,5.412363525390625,0.11661094794869423,-0.019925456170272082,0.05333448519532103
1761466885221346300,5.42234619140625,0.13950491680204868,-0.015442409596749347,0.07328436798737384
1761466885231329500,5.43232958984375,0.13217208969593047,0.004769055874092737,0.06219207874988206
1761466885241313500,5.4423134765625,0.11989946810007095,0.018657713814865563,0.010899976969207636
1761466885251296500,5.452296630859375,0.12363807010650633,0.025946789685869588,-0.05207334268570411
1761466885261279500,5.462279541015625,0.13052139987945555,0.03299156166480388,-0.06988851500400342
1761466885271262500,5.472262451171875,0.12513619970977305,0.0312622810536297,-0.04378855318357237
1761466885281246500,5.48224658203125,0.10029635748565197,0.017182755024632203,0.0201417064365698
1761466885291229400,5.4922294921875,0.13635960451364518,0.019322836934891528,0.06250561081161722
1761466885301212700,5.502212646484375,0.1439911223053932,0.02467051582249114,0.04356495072788093
1761466885311196700,5.51219677734375,0.09251344852447509,0.013063267366762738,0.007257140654558315
1761466885321179400,5.522179443359375,0.12633037793040275,0.0189785729498195,-0.022899508111574686
1761466885331162400,5.532162353515625,0.15895312911570073,0.02304784880739171,-0.03464621070376597
1761466885341145600,5.5421455078125,0.09715162971913814,0.0036351005327655,0.0007237842299044132
1761466885351129600,5.552129638671875,0.10657938327789306,-0.01128975488821743,0.04064484376378823
1761466885361112300,5.5621123046875,0.15102175159454345,-0.030118853489414323,0.0663344575179275
1761466885371095300,5.57209521484375,0.09415770860016345,-0.042732344961795024,0.07711342475623824
1761466885381078500,5.58207861328125,0.13411094880402089,-0.0718789764351677,0.05454409844710026
1761466885391062500,5.5920625,0.14099427857697008,-0.07718280019802042,0.022011048538982867
1761466885401045500,5.60204541015625,0.09056406802237034,-0.09006642069853842,-0.0002634778083534911
1761466885411028500,5.612028564453125,0.11704817032217979,-0.0843029344015289,-0.005687685681018047
1761466885421011500,5.622011474609375,0.14069091171622275,-0.05970183283672668,-0.009020679728360846
1761466885430995500,5.631995361328125,0.12378244701325893,-0.055469273300888015,0.008269409269909374
1761466885440978400,5.641978515625,0.11749591408967971,-0.033735735662188376,0.005826066671824082
1761466885450961400,5.65196142578125,0.10567337434887886,0.007436695047613465,-0.01050616904576309
1761466885460944400,5.6619443359375,0.14009060773551463,0.03693173695821315,-0.03618814291614108
1761466885470928400,5.671928466796875,0.13141104219555855,0.03745138605129905,-0.04553643803051673
1761466885480911600,5.68191162109375,0.09938742594718933,0.06930315286410041,0.014536566206160931
1761466885490894600,5.69189453125,0.13230769877433776,0.07659174810284748,0.029731084864400327
1761466885500877300,5.701877197265625,0.1230295828193426,0.09773026072415522,0.016256334636895915
1761466885510861300,5.711861328125,0.13619886099398135,0.09744313261215574,-0.020734813491511156
1761466885520844500,5.721844482421875,0.10701952826082706,0.09533388537322171,-0.03761968725633342
1761466885530827500,5.73182763671875,0.1155488716751337,0.08277696694326586,-0.030294609631830824
1761466885540810200,5.741810302734375,0.1188426525235176,0.07412280983920208,0.0018316221742192282
1761466885550794200,5.751794189453125,0.1456295371621847,0.0505234874617774,0.041106666288990526
1761466885560777500,5.761777587890625,0.12498013236522673,0.026044432240910825,0.05781759912585839
1761466885570760400,5.771760498046875,0.11211012939810752,0.007736340147891314,0.06135096088377758
1761466885580744400,5.781744384765625,0.1305155546605587,-0.0037409994594985617,0.03792148321450222
1761466885590728400,5.791728515625,0.15924889719188212,-0.00735350570961018,0.023305289600603282
1761466885600711700,5.801711669921875,0.0872714562177658,-0.021932192882802338,0.0430340450218413
1761466885610694700,5.811694580078125,0.09100947370231151,-0.036501072189677505,0.034254622136871325
1761466885620677400,5.821677490234375,0.16208792001008987,-0.03358442212457303,-0.0065884841453749685
1761466885630661400,5.831661376953125,0.12168635151684283,-0.04262069671428762,-0.02330948628510814
1761466885640644600,5.84164453125,0.09864157601594924,-0.05539840458834078,-0.01740418036461342
1761466885650627600,5.851627685546875,0.12976736664175986,-0.03556576866752002,-0.017195738945435732
1761466885660610600,5.861610595703125,0.1251303544908762,-0.04450538251630496,-0.0166385799867101
1761466885670594600,5.871594482421875,0.0893669671922922,-0.0445048071275698,-0.003963209109124727
1761466885680577500,5.88157763671875,0.12408230674266814,-0.031284986075782215,-0.001120619794074446
1761466885690560500,5.891560546875,0.16897592595815658,-0.023384090457856655,0.002377853313554078
1761466885700543700,5.901543701171875,0.09984335302114486,-0.02542222695564851,0.0399957413384458
1761466885710527700,5.91152783203125,0.1082242278754711,-0.011032040100370068,0.06731049490927253
1761466885720510500,5.921510498046875,0.15161971748769282,-0.005087078022921923,0.06155704138251021
1761466885730493400,5.931493408203125,0.0937070422232151,0.0013881424482387955,0.0387476683729561
1761466885740476700,5.9414765625,0.13395897311270236,0.02779626261061057,-0.010574754469678737
1761466885750460700,5.951460693359375,0.14099252501130102,0.03321120489800814,-0.02785515775757376
1761466885760443400,5.961443359375,0.1136100125670433,0.023456520939827894,0.013639558000932446
1761466885770426600,5.971426513671875,0.13336276078522205,0.024575620063673705,0.034905354830296706
1761466885780409600,5.98140966796875,0.11839900040924549,0.03180877248786855,0.04846721708567347
1761466885790393600,5.9913935546875,0.11450783818960189,0.049438710732641625,0.02823110579734202
1761466885800376600,6.00137646484375,0.1339613112002611,0.0562775255104294,-0.004542826494830661
1761466885810359600,6.011359619140625,0.09670096334218978,0.04390158510399051,-0.025877482742746358
1761466885820342500,6.021342529296875,0.09924363356232642,0.03583070778059773,0.008199782666377723
1761466885830326500,6.031326416015625,0.1588011534243822,0.025987443639955015,0.04571718315859325
1761466885840309500,6.0413095703125,0.11181436132192611,0.026500382147752678,0.08346602691966108
1761466885850292500,6.05129248046875,0.10672434470653533,0.02449471858087927,0.07497871428248472
1761466885860275500,6.061275390625,0.13500585181713104,0.0197931076280307,0.032086379286274315
1761466885870259500,6.071259521484375,0.1350064363390207,0.004539031669124961,0.0020605355592677368
1761466885880242700,6.08124267578125,0.11285890193879604,-0.010879624875989974,-0.006255064639658667
1761466885890225700,6.0912255859375,0.12258593070507048,-0.0250869853856042,-0.006145667714742012
1761466885900208400,6.10120849609375,0.13665244998037815,-0.034876557994075116,0.013734917267342097
1761466885910192400,6.1111923828125,0.10717267299592495,-0.05957697804777417,0.023773952858545815
1761466885920175600,6.121175537109375,0.12872048793733118,-0.0669414378345944,0.018747685661748982
1761466885930158600,6.13115869140625,0.13276070323884487,-0.06525531594513449,0.00820497029814869
1761466885940141300,6.141141357421875,0.10417816735506057,-0.07309158536163159,0.004228892574296332
1761466885950125600,6.15112548828125,0.12886778745353222,-0.07262582188025117,-0.018085984049737453
1761466885960108500,6.161108642578125,0.1267734455227852,-0.08352752958224155,-0.0055530264506815
1761466885970091500,6.171091552734375,0.12707213620841504,-0.09714560183715075,0.048637212490872474
1761466885980074800,6.18107470703125,0.12153437582552433,-0.07316510725556873,0.07854337536096573
1761466885990058800,6.191058837890625,0.13515022872388363,-0.05015777768823318,0.0817144614114426
1761466886000041500,6.20104150390625,0.11434767919182777,-0.04897043563376646,0.06856311161913908
1761466886010024400,6.2110244140625,0.11584113261997699,-0.03660710811372846,0.018054748661257326
1761466886020007700,6.221007568359375,0.14816168598830698,-0.010563381409004795,-0.051690170320705504
1761466886029991700,6.23099169921875,0.10910568688511847,-0.009157663346524349,-0.05125787985066417
1761466886039974400,6.240974365234375,0.09369184465408324,-0.012905953346623573,0.0021097084632376206
1761466886049957600,6.25095751953125,0.11823124262690543,0.006973668087658006,0.04339095043442212
1761466886059940600,6.260940673828125,0.12810440186560154,0.028563246661424634,0.05162763561166357
1761466886069924600,6.270924560546875,0.11657938376665114,0.040496836428111416,0.03042203083720524
1761466886079907600,6.280907470703125,0.1294476331681013,0.04913532103900797,-0.05406427447432652
1761466886089890600,6.290890625,0.11029343536496161,0.07204899010667577,-0.11305388565477914
1761466886099874600,6.30087451171875,0.12211714414954185,0.07449283502826001,-0.09241367794442922
1761466886109857500,6.310857421875,0.14516484225988388,0.06198520366670564,0.0037773265816271303
1761466886119840500,6.320840576171875,0.0977285528242588,0.04097753718371969,0.09879340557679533
1761466886129823500,6.330823486328125,0.13723229569494724,0.03522882833073381,0.10333446480622514
1761466886139807500,6.340807373046875,0.13648293863236904,0.03306659052923787,0.06616793727802578
1761466886149790500,6.35079052734375,0.10819967795610427,0.02371703047296032,0.012645044237980619
1761466886159773700,6.360773681640625,0.12331249141395091,0.01807570240102941,-0.028265556056215425
1761466886169756700,6.370756591796875,0.1316921972244978,0.018493677792995003,-0.02440161520363763
1761466886179740400,6.380740478515625,0.13663140719234942,-0.0056659932973736424,0.013726491932291536
1761466886189723400,6.390723388671875,0.10550737013220786,-0.020607981374603696,0.04415771985610481
1761466886199706600,6.40070654296875,0.09503215334713458,-0.02387483768344391,0.04684910979797132
1761466886209689600,6.410689697265625,0.11867489474117755,-0.009681507982470793,0.009073327797628008
1761466886219673600,6.420673583984375,0.12570610855221748,-0.006713239611272001,-0.031149116702470926
1761466886229656600,6.430656494140625,0.103858433881402,0.005092317028687102,-0.07251323291782755
1761466886239639600,6.4406396484375,0.13708032000362871,0.016858015440648886,-0.09350766545990481
1761466886249622500,6.45062255859375,0.10371288793087005,0.005845075049682054,-0.06490564399093855
1761466886259606500,6.4606064453125,0.11403963615596294,0.005291065887623699,-0.01568343925292138
1761466886269589800,6.47058984375,0.13319675656855107,0.007878439474233891,0.032860162970633246
1761466886279572500,6.480572509765625,0.12002981648147105,0.0034331002708175217,0.07976925476095639
1761466886289555500,6.490555419921875,0.0977332289993763,-0.0009299001196108293,0.08596150613036006
1761466886299539500,6.50053955078125,0.13708850331008435,-0.003296150901983492,0.049271309143328106
1761466886309522700,6.510522705078125,0.12272446239292621,-0.003562368656694889,0.030753272085567003
1761466886319505400,6.52050537109375,0.13110533724725246,-0.012430574936815536,0.03757098014324438
1761466886329488600,6.530488525390625,0.11988310148715972,-0.016035117076180175,0.047165970894531346
1761466886339472600,6.54047265625,0.12272563143670558,-0.02759009078033268,0.06286186777022666
1761466886349455600,6.55045556640625,0.11868424709141254,-0.03496945130876265,0.07297889593450818
1761466886359438600,6.5604384765625,0.12721125241816042,-0.029239351258124224,0.05174249872956425
1761466886369421600,6.570421630859375,0.1177834988594055,-0.03143850070363842,0.029046623431309124
1761466886379405600,6.580405517578125,0.1373860249519348,-0.023268702183570713,-0.011927105226973071
1761466886389388500,6.590388427734375,0.10835691434442997,-0.02372394427093677,-0.032710963758290745
1761466886399371500,6.60037158203125,0.09234452169835566,-0.0311204111977946,-0.012536916821543127
1761466886409354500,6.6103544921875,0.12376783396601676,-0.03577851865234552,0.009261192219657823
1761466886419338500,6.62033837890625,0.14337036005854606,-0.03448394194729626,0.012083172571519389
1761466886429321500,6.630321533203125,0.11224398491084575,-0.037273890042945276,0.01139711740296334
1761466886439304700,6.6403046875,0.12256956409215926,-0.015949741489312146,0.006039339529746212
1761466886449287700,6.65028759765625,0.14561550863683223,-0.007684180702391313,0.001637373677175492
1761466886459271400,6.660271484375,0.10506313349604605,-0.003640252773562679,0.014897257311292923
1761466886469254400,6.67025439453125,0.11478840869665145,0.0015852313563402276,0.02495707996219862
1761466886479237600,6.680237548828125,0.14052666106522083,0.00767656479316065,0.014643054221360943
1761466886489220600,6.690220703125,0.1126946512877941,0.004258074144652346,-0.0009221198135986923
1761466886499204600,6.70020458984375,0.10910276427567005,-0.00396723911355948,0.0010540345310000702
1761466886509187600,6.7101875,0.12406710917353629,0.00019486955155152827,0.023388204943970776
1761466886519170600,6.720170654296875,0.11508826842606067,0.0035470169655804056,0.05081868928237818
1761466886529153500,6.730153564453125,0.1251128188341856,0.007603451607888564,0.045408788496279155
1761466886539137500,6.740137451171875,0.11942483632564543,-0.00009093653633026405,0.020896643856563604
1761466886549120800,6.750120849609375,0.1254091714322567,0.014874452966084936,-0.004195720957056619
1761466886559103500,6.760103515625,0.15204641846716402,0.01897312958972179,-0.013465416143578476
1761466886569086500,6.77008642578125,0.12855331467688083,0.010262731661729049,-0.0014874712119344621
1761466886579073300,6.7800732421875,0.11703121918737888,-0.005356285744096385,-0.01289656218048185
1761466886589056300,6.79005615234375,0.12870353680253027,-0.0018324624244356526,-0.017810564641840755
1761466886599039200,6.800039306640625,0.1281055709093809,-0.00352119639609009,-0.012817651725374161
1761466886609022200,6.810022216796875,0.10326514416337013,-0.004969988698605448,0.020440054628904906
1761466886619006200,6.820006103515625,0.12391571800410747,0.0031352133027859963,0.03663164433336351
1761466886628989200,6.8299892578125,0.13992811065018176,0.006319137143593979,0.03328180418249685
1761466886638972200,6.83997216796875,0.11224515395462513,0.0016964286543428896,0.038225521362107245
1761466886648955100,6.849955078125,0.12825696207880974,-0.0031353560083254703,0.017383799730287863
1761466886658939100,6.859939208984375,0.12780804926753042,-0.004499986291880486,0.0034314448865596205
1761466886668922000,6.869922119140625,0.117034726318717,-0.007635127671074588,0.017154959410475568
1761466886678905300,6.8799052734375,0.1378349377632141,-0.007510280873632291,0.031329555869870816
1761466886688888300,6.889888427734375,0.10581132151484489,0.0008885771619563456,0.03514422335377894
1761466886698872300,6.899872314453125,0.11643617590367793,0.0006479345232073682,0.01702314972435124
1761466886708855000,6.90985498046875,0.13304594992101193,-0.0016571149906842036,0.009698811885365284
1761466886718838300,6.91983837890625,0.11359364595413207,0.0010035966851282864,0.020508471089461817
1761466886728821200,6.9298212890625,0.1275093585819006,-0.006269257561792619,0.019632816199515946
1761466886738805200,6.93980517578125,0.10835516077876091,-0.006334019618894671,0.03225278992832172
1761466886748788200,6.949788330078125,0.13035305757522583,0.006257698413095204,0.0170455761852907
1761466886758771200,6.959771240234375,0.14920914921462536,-0.006066581446409691,0.0017278923716861753
1761466886768754200,6.969754150390625,0.11359656856358051,-0.009672458167979493,-0.004542849327716976
1761466886778738200,6.97973828125,0.11389525924921035,-0.016065193695679773,-0.01815206698931288
1761466886788721400,6.989721435546875,0.12526713261306285,-0.015331915551645215,-0.02696149228690192
1761466886798704000,6.9997041015625,0.13304945705235002,-0.019601306816400026,-0.0032335020285099744
1761466886808687000,7.00968701171875,0.140981419095397,-0.008213951613981044,0.026843336666794494
1761466886818671000,7.019671142578125,0.13873919312655925,0.0005423621067486237,0.03861593175206799
1761466886828654300,7.029654296875,0.09234978239536284,0.007148056540184188,0.04315757550338749
1761466886838637000,7.039636962890625,0.11389642829298972,0.003274557841394562,0.016875854774727486
1761466886848620300,7.049620361328125,0.1354436587125063,-0.0003131987015949562,0.005817604804155416
1761466886858604300,7.059604248046875,0.11868366256952285,0.0025379289712931493,0.02447870359441731
1761466886868587300,7.069587158203125,0.14068097484409808,0.0012008556982327718,0.02769598514048848
1761466886878570200,7.0795703125,0.12077858902215957,0.004029940502671524,0.032565851632598786
1761466886888553200,7.08955322265625,0.11000351250767708,0.004320532363525126,0.018903661674750036
1761466886898537200,7.099537109375,0.13319734109044074,0.0033536874922108833,0.010618630144023335
1761466886908520200,7.109520263671875,0.12347089684605597,-0.008774024049000581,0.008064639378851279
1761466886918503200,7.119503173828125,0.1112000288158655,-0.009052596678497503,-0.0035370013199979436
1761466886928486100,7.129486083984375,0.1364893683731556,-0.011973414886998943,-0.00774918022151105
1761466886938470100,7.13947021484375,0.1203285071671009,-0.02220605508785229,0.0012322589084273203
1761466886948453000,7.149453125,0.10326865129470825,-0.033915925951127426,0.016406949488190003
1761466886958436400,7.159436279296875,0.13933306736648082,-0.027511225990997625,0.027293080595135688
1761466886968419300,7.16941943359375,0.1387368550390005,-0.027894585585664024,0.03980085808716249
1761466886978403300,7.1794033203125,0.10820844578444958,-0.03494268659942318,0.038508626319537866
1761466886988386000,7.189385986328125,0.12107611066401004,-0.025386091629764997,0.006873054974107071
1761466886998369300,7.199369384765625,0.13424363527297972,-0.004391299469728255,-0.015026199186895973
1761466887008353300,7.209353271484375,0.11179799470901489,0.00811634559155791,0.00828467077112291
1761466887018336300,7.219336181640625,0.1372381409138441,0.018896696502779378,0.025799572368059305
1761466887028319200,7.2293193359375,0.12377192561924456,0.01699887265797588,0.036574146559042855
1761466887038302200,7.23930224609375,0.10267185444533825,0.021832575283094773,0.04418840268873609
1761466887048286200,7.2492861328125,0.13843465722203255,0.033315368525381195,0.024510012048133648
1761466887058269200,7.259269287109375,0.1086556050300598,0.017191067336895502,0.023307180163590235
1761466887068252400,7.26925244140625,0.10910276427567005,0.00910825069724815,0.02903206974957138
1761466887078235100,7.279235107421875,0.17569266699254513,0.013359913367422996,0.006614833296183497
1761466887088219100,7.28921923828125,0.11718377940058708,0.0013640480449539608,0.014360844313073903
1761466887098202000,7.2992021484375,0.10401450122594832,-0.015962430865882195,0.008451816632109694
1761466887108185300,7.309185302734375,0.14516542678177355,-0.015509708387521094,0.00041582339243032034
1761466887118168000,7.31916796875,0.1107476088732481,-0.031354822741867974,-0.0023725012850016355
1761466887128152000,7.329152099609375,0.11119535264074802,-0.03269120874505024,-0.018094843209628016
1761466887138135300,7.33913525390625,0.13543722897171973,-0.028974494343437254,-0.032461112616490574
1761466887148118300,7.3491181640625,0.10535890157222748,-0.03573596043554134,-0.04472308038759511
1761466887158101200,7.359101318359375,0.12795476426184177,-0.02244019263728987,-0.06446680048252455
1761466887168085000,7.3690849609375,0.133195003002882,-0.0230762118187733,-0.06182374776098877
1761466887178068200,7.379068115234375,0.11135083546340464,-0.028128791633760555,-0.03376266476830933
1761466887188051200,7.38905126953125,0.1079109241425991,-0.025644219692854676,0.015855046659894286
1761466887198034200,7.3990341796875,0.12122925539910792,-0.011472757047106279,0.058646528797247445
1761466887208018200,7.40901806640625,0.12691606886386872,-0.006302916661155177,0.06271671454533934
1761466887218001200,7.419001220703125,0.1306593470454216,-0.008822806510614463,0.04724994111724663
1761466887227984100,7.428984130859375,0.12901508696973324,-0.0066477491850964725,0.031139166130614467
1761466887237967400,7.43896728515625,0.0926525647342205,-0.015785796798986847,0.03312398327228147
1761466887247951400,7.448951416015625,0.1456254455089569,-0.012045045076304814,0.031464977718610315
1761466887257934300,7.458934326171875,0.13395429693758487,-0.006789121284009888,0.043920011243247424
1761466887267917000,7.4689169921875,0.09354980583488941,0.0076136841658910265,0.05824796706687193
1761466887277900300,7.478900390625,0.13529811276197432,0.011327555873157688,0.04269191248670686
1761466887287884300,7.48888427734375,0.16837036128044128,0.006502921328839147,0.02873949827747419
1761466887297867300,7.4988671875,0.08696633579134941,0.03320401253881864,0.023800292876199818
1761466887307850200,7.508850341796875,0.12497253358066081,0.04103434083829634,0.0022533364513190463
1761466887317833200,7.518833251953125,0.15684651222527027,0.03833082663379609,0.005939020960428752
1761466887327817200,7.528817138671875,0.10192834260165691,0.04623948543306906,0.022876328165386803
1761466887337800200,7.53880029296875,0.10806231531202792,0.03499364503510296,0.00799248745809309
1761466887347783400,7.548783447265625,0.13918752141594887,0.03110072924979031,-0.023669675066741183
1761466887357766100,7.55876611328125,0.12167992177605629,0.032920227161375805,-0.021556103279138913
1761466887367750100,7.568750244140625,0.11763970647454261,0.015006496689293998,-0.010057785957446322
1761466887377733000,7.578733154296875,0.13125789746046065,0.0066741908090945795,0.0008081106456462293
1761466887387716400,7.58871630859375,0.11195464657545089,-0.006969843579200096,0.012895621465565636
1761466887397699000,7.598698974609375,0.11749123791456222,-0.008743648318690248,0.022016044374508784
1761466887407683000,7.60868310546875,0.14128478595614433,-0.021919395050022283,0.026666847588727248
1761466887417666300,7.618666259765625,0.11644552825391292,-0.022986188597895668,0.037683002850087355
1761466887427649300,7.628649169921875,0.12766776401400565,-0.026004753251071086,0.05212161597395316
1761466887437632300,7.63863232421875,0.14367840309441088,-0.04825041426352691,0.08026972422953695
1761466887447616000,7.648615966796875,0.11689210297763347,-0.05472770681912079,0.08267669403972104
1761466887457599200,7.65859912109375,0.14307809911370276,-0.05292651631578337,0.05393202183020766
1761466887467582200,7.668582275390625,0.12556816138625143,-0.055448833301058036,0.04042141940461006
1761466887477565200,7.678565185546875,0.09010171120762825,-0.031018718088720924,0.010070298379147425
1761466887487549200,7.688549072265625,0.14262392560541629,-0.021965917055890894,-0.01716146221649833
1761466887497532200,7.6985322265625,0.12197393628656863,-0.014696427234768633,-0.022333654389739967
1761466887507515100,7.70851513671875,0.08905249441564082,-0.0076324870477721555,-0.022113759994786233
1761466887517498400,7.718498291015625,0.12421557773351669,0.0026534451097424607,-0.023007786225061864
1761466887527482400,7.728482421875,0.11942717441320419,0.007545292821509065,-0.023161488082585856
1761466887537465000,7.738465087890625,0.13513853828608988,0.0008836555333109573,-0.024633396399207412
1761466887547448000,7.748447998046875,0.1366372524112463,0.0006927783119317609,-0.027242218057578427
1761466887557431300,7.758431396484375,0.11224749204218387,0.002413257987075485,-0.019853295116359367
1761466887567415300,7.768415283203125,0.12825988468825816,0.006226515540253603,0.0001315585243748501
1761466887577398300,7.778398193359375,0.1320008247822523,0.005259722042933572,0.02763373355923686
1761466887587378200,7.788378173828125,0.11105097573399543,0.01380647324976744,0.032185967203229665
1761466887597361400,7.798361328125,0.11538988172113895,0.0017742374226858372,0.048802152695041144
1761466887607345200,7.80834521484375,0.12765958070755004,-0.0011049575757060665,0.054199869853002014
1761466887617328000,7.818328125,0.13214870882034302,-0.005218517816287931,0.05493999329635407
1761466887627311000,7.82831103515625,0.1252653790473938,0.0016831707389035728,0.052142681594868186
1761466887637294300,7.83829443359375,0.3627905250966549,0.027550758850364943,-0.00801935491542099
1761466887647278300,7.8482783203125,0.5648275936573743,0.06396948195225559,-0.11199718880923465
1761466887657261000,7.858260986328125,-1.0125222613185643,-0.13621754742814227,0.3688252021510154
1761466887667244300,7.868244384765625,0.5936953762233257,0.049236831484991125,-0.09732154292594641
1761466887677227300,7.878227294921875,0.23052491189837454,-0.01233299174727872,-0.04834757732795551
1761466887687211300,7.888211181640625,-0.2987579056471586,-0.054931029105186456,0.046945154050970446
1761466887697194000,7.898194091796875,0.4042389722943306,0.019579211432312147,-0.14006975674373096
1761466887707177200,7.90817724609375,-0.008323007187247275,-0.010278808296984061,0.0039962711285101244
1761466887717160200,7.91816015625,0.1278401979714632,0.008091767131083179,-0.02856443397151306
1761466887727144200,7.928144287109375,0.18230185599923132,0.006194167048565577,-0.024942955538723617
1761466887737127400,7.93812744140625,0.04657002799510956,-0.003952694564976263,0.018719656010507606
1761466887747110100,7.948110107421875,0.152954765483737,-0.0017247962323017417,0.033972741022147236
1761466887757093000,7.958093017578125,0.162826171156764,-0.0088669162220438,0.051107662291591985
1761466887767077000,7.9680771484375,0.16177870793044566,-0.006258889148116577,0.05772092925177421
1761466887777060400,7.978060302734375,0.13484218568801878,0.0018288160124910063,0.07618042735559866
1761466887787043300,7.988043212890625,0.09952478859126568,-0.009943288165726698,0.08698578027733601
