time,seconds_elapsed,z,y,x
1761467016728705500,0.12270556640625,0.11013619897663593,0.036688995977211744,0.0029619642112869767
1761467016738687700,0.132687744140625,0.11148235288858413,0.04562655486622825,-0.007532505263527855
1761467016748670700,0.142670654296875,0.12839198663532733,0.04634075841703452,-0.01500471800744999
1761467016758654000,0.152654052734375,0.0990571710795164,0.03658225223368499,-0.022353308938280678
1761467016768636700,0.16263671875,0.1192348667114973,0.036361663718987254,-0.023047314517851917
1761467016778619600,0.17261962890625,0.12880056743621826,0.04222820853167213,-0.014988424459774977
1761467016788603000,0.182602783203125,0.09617898529469966,0.04240957928083371,0.002080884227552451
1761467016798585600,0.192585693359375,0.12776187203824518,0.03678541468954645,-0.004828292372706346
1761467016808567800,0.20256787109375,0.09664251115322113,0.015444730559643356,-0.004497631079657003
1761467016818550800,0.21255078125,0.09201075969934464,0.01460365835931152,-0.022051613444811664
1761467016828533800,0.22253369140625,0.1605517964839935,-0.003206212162785232,-0.03417716385333333
1761467016838516700,0.232516845703125,0.10608604680299759,-0.00892717905889731,-0.015528741881554014
1761467016848499700,0.242499755859375,0.1240408056885004,-0.008595529101870487,-0.011897367675835265
1761467016858483000,0.25248291015625,0.1310772801965475,-0.01118413223940879,0.021982238003029488
1761467016868465700,0.262465576171875,0.10909048931598662,-0.0012767990197637118,0.04749684225013479
1761467016878447900,0.27244775390625,0.1466536195129156,-0.009869416928628924,0.04971308896092232
1761467016888430800,0.282430908203125,0.11687573636472225,-0.016030487708479632,0.05270236130424309
1761467016898413600,0.29241357421875,0.1230079555094242,-0.009703396728937514,0.04725737093845382
1761467016908396800,0.302396728515625,0.13826806848347187,0.004072784130554646,0.05609123655755538
1761467016918379800,0.3123798828125,0.11746610347330569,0.0045541219236911274,0.07277637736604083
1761467016928362800,0.32236279296875,0.12434651063680648,-0.007998028999601956,0.05171607194694224
1761467016938345700,0.332345703125,0.11267360849976539,-0.03428764762363862,0.005546363814454525
1761467016948328700,0.34232861328125,0.119108609983325,-0.05201201811963692,-0.051713583162333814
1761467016958311000,0.352310791015625,0.10265081165730952,-0.11835983744263648,-0.18068269383218138
1761467016968293600,0.362293701171875,0.17074293563067913,-0.0766592695142608,-0.064085641978099
1761467016978276600,0.372276611328125,0.11104103886187076,-0.012058458255371078,0.15116612850129604
1761467016988259800,0.382259765625,0.12107026544511318,0.011348264159401877,0.18272125045508145
1761467016998242800,0.392242919921875,0.130201666405797,-0.00002372336888220161,0.07582550840412731
1761467017008225800,0.402225830078125,0.09862871653437613,-0.040015847978135566,-0.051719405548344366
1761467017018208800,0.412208740234375,0.13020400449335576,-0.03509291785822716,-0.10665149866603314
1761467017028191000,0.42219091796875,0.14068155936598778,-0.014100232031953054,-0.07596769335379358
1761467017038173700,0.432173583984375,0.11045067175328731,0.024654149209579916,0.028607862121285868
1761467017048156700,0.44215673828125,0.13199848669469355,0.06248617089220788,0.0859253388384357
1761467017058140000,0.452139892578125,0.13125497485101223,0.06800519460858777,0.07469322100514546
1761467017068123000,0.462122802734375,0.09444646241366862,0.023435058026690967,0.040538670842419376
1761467017078105600,0.472105712890625,0.12587328181266783,-0.009538513606984633,-0.031699010236770846
1761467017088088800,0.4820888671875,0.1333557465225458,-0.03635695557782892,-0.0473713161743246
1761467017098071800,0.49207177734375,0.13260931206941604,-0.06555296545114833,-0.004071103630121797
1761467017108053800,0.5020537109375,0.10971242060661315,-0.04609304899997078,0.07918706182567402
1761467017118036700,0.51203662109375,0.08801087640821934,-0.032551286534417884,0.11913702322705648
1761467017128019700,0.522019775390625,0.1798936258137226,-0.008857504506304395,0.07199523235913366
1761467017138003000,0.5320029296875,0.11854396183788776,-0.021486362511175684,0.07078989342367276
1761467017147985700,0.541985595703125,0.09295476255118847,-0.03539145784680731,0.031821668502059766
1761467017157968600,0.55196875,0.16433189954459665,-0.044705850691581145,-0.045634436778584496
1761467017167952000,0.561951904296875,0.12243161692619323,-0.039061332865431904,-0.046894876035302874
1761467017177934600,0.5719345703125,0.12003741526603698,-0.0005838848521583713,-0.017723361282423137
1761467017187916800,0.581916748046875,0.12572364420890808,0.02408439791405108,0.022194273318513296
1761467017197899800,0.591899658203125,0.1260235039383173,0.046867914963141084,0.03692226587696932
1761467017207883000,0.601883056640625,0.1332084470063448,0.042163892857497554,0.02015751592705492
1761467017217865700,0.61186572265625,0.12408055317699908,0.022324569184274876,-0.00703161110326182
1761467017227848700,0.6218486328125,0.1127080952912569,0.009197705379256512,-0.02899698930303566
1761467017237832000,0.63183203125,0.12378069344758987,-0.0010595509563339873,-0.041681767329783175
1761467017247814700,0.641814697265625,0.11300386336743831,-0.005402660477848258,-0.010491108473949134
1761467017257797600,0.651797607421875,0.13110942890048027,-0.003568467320629861,-0.0020765459791524336
1761467017267779800,0.66177978515625,0.1263239481896162,-0.01818813609982608,0.022047046867548485
1761467017277762600,0.671762451171875,0.11749766765534878,-0.015137100799020845,0.028946295728837137
1761467017287745800,0.681745849609375,0.1185462999254465,-0.018374064293096307,0.029088435012730767
1761467017297728800,0.691728759765625,0.12453180407583712,-0.03588952529574744,0.03268840943318792
1761467017307711700,0.701711669921875,0.12557692921459673,-0.0445247859030962,0.021985274776909498
1761467017317694700,0.71169482421875,0.12422726817131041,-0.03151435611855704,0.014752752540376968
1761467017327677700,0.721677734375,0.1240758770018816,-0.02301832131880801,0.03693230778037104
1761467017337660000,0.731659912109375,0.09998130018711089,-0.008854584180144592,0.05552862510557752
1761467017347642600,0.741642578125,0.13604396269321442,-0.00021242347455117851,0.04233789771753363
1761467017357625600,0.75162548828125,0.13350129247307777,0.0040394595329766156,0.007836721507646143
1761467017367608800,0.76160888671875,0.10970949799716471,0.007415616868610959,-0.012847530840407125
1761467017377591800,0.771591796875,0.1275169573664665,0.009672184173343703,-0.048467687443131575
1761467017387574800,0.78157470703125,0.1141986261099577,0.01239762936515035,-0.04453149877167307
1761467017397557800,0.791557861328125,0.11659165872633456,0.017855508895264938,-0.022279809877229852
1761467017407540000,0.8015400390625,0.12332710446119308,0.011989249493659008,-0.004842590326117352
1761467017417522700,0.811522705078125,0.11031272458732128,0.020712076503317804,0.015278950105258263
1761467017427505700,0.821505615234375,0.13650456594228744,0.0051837022312334734,0.0261803655463038
1761467017437489000,0.831489013671875,0.09789631060659885,-0.013503049306804314,0.02626297492899466
1761467017447471900,0.841471923828125,0.1246808571577072,-0.016887743858632166,0.016848482710612005
1761467017457454600,0.85145458984375,0.12812018395662306,-0.027041752165590877,0.007330205890769138
1761467017467437800,0.861437744140625,0.11285481028556824,-0.042234656538767734,0.01948560801486019
1761467017477420800,0.8714208984375,0.12258008548617362,-0.04183588474583812,0.02874401918896474
1761467017487402800,0.88140283203125,0.1161456685245037,-0.03957984031420201,0.02268251349318307
1761467017497385700,0.8913857421875,0.12153379130363463,-0.027300119973986875,0.013158752214047126
1761467017507368700,0.90136865234375,0.12078911041617393,-0.014631541880080475,0.006905084947030991
1761467017517352000,0.91135205078125,0.12752514067292212,0.00197297372353496,-0.009088488834141753
1761467017527334700,0.921334716796875,0.13246493516266344,0.01229048147953581,-0.004398508953582495
1761467017537317600,0.931317626953125,0.12363573201894759,0.018929031294735613,0.02806206024021376
1761467017547300900,0.94130078125,0.11884615965485572,0.02066269125350518,0.03379125154197681
1761467017557283800,0.951283935546875,0.1146551377058029,0.026477572094323113,0.0336650587458862
1761467017567265800,0.961265869140625,0.14353461070954798,0.020024571446480694,0.027773438857449217
1761467017577248800,0.971248779296875,0.10986264273226261,0.017110159004235174,0.031174995495821346
1761467017587232000,0.98123193359375,0.14502747961580753,0.00956211596156936,0.0011997494448907672
1761467017597214700,0.991214599609375,0.12647124770581722,-0.010591073133528698,0.012172636386682279
1761467017607197700,1.00119775390625,0.10058335773348807,-0.018728028829919637,-0.000015092537854798137
1761467017617181000,1.011180908203125,0.1463759716153145,-0.02168239425664069,-0.01148304668732453
1761467017627163600,1.02116357421875,0.08263269050121307,-0.03306252399218501,0.0001363214644603431
1761467017637146600,1.031146728515625,0.17362170593738555,-0.006148124533309601,-0.013175223858235403
1761467017647128800,1.04112890625,0.06349135217964649,-0.02003313606213778,-0.0021784719836665314
1761467017657111600,1.051111572265625,0.13681670063138007,-0.03688803024722729,0.001836951369885355
1761467017667094800,1.0610947265625,0.12634440645575523,-0.0440041686956305,-0.007404618267272599
1761467017677077500,1.071077392578125,0.1229033260911703,-0.03511564114668872,0.002731854382995516
1761467017687060500,1.081060546875,0.12110767484605311,-0.015993366001907268,-0.0015421468415064735
1761467017697043700,1.091043701171875,0.13891279612779617,0.002511083205207251,0.012506202022871001
1761467017707026400,1.1010263671875,0.1062900449424982,0.0227062825278379,0.036568337872764096
1761467017717009700,1.111009765625,0.12828501912951468,0.03102725758820306,0.03960224394225515
1761467017726991600,1.12099169921875,0.12304594943225383,0.02048451254185056,0.03399332258587237
1761467017736974600,1.130974609375,0.11301906093657016,0.02235893267818028,0.0021293904112419113
1761467017746957600,1.14095751953125,0.12274316709339618,0.020491287059220483,-0.017324310928280465
1761467017756940500,1.1509404296875,0.11914952651560305,0.01085712649145862,-0.012731137919123284
1761467017766923800,1.160923828125,0.10777648410797118,0.010232409588701558,-0.005034089743648655
1761467017776906500,1.170906494140625,0.1294745211750269,-0.005756622731382958,0.012626997124636545
1761467017786889500,1.180889404296875,0.12154781982898712,-0.01017293905300321,0.0024112212936161083
1761467017796871700,1.19087158203125,0.1208037234634161,-0.023197000070672946,0.004129459920967929
1761467017806854400,1.2008544921875,0.1187117196202278,-0.0390391849657055,0.004993059046939015
1761467017816837600,1.210837646484375,0.11182897436916828,-0.037863816476822826,0.00018553546762559563
1761467017826820600,1.220820556640625,0.11886194174587726,-0.03485700847681146,0.011170861765881999
1761467017836803600,1.230803466796875,0.12200257785916328,-0.030892328929807988,0.016853026454988866
1761467017846786600,1.24078662109375,0.12035714873969554,-0.02306586623798357,0.023280424587405285
1761467017856769500,1.25076953125,0.1272422320783138,-0.012162758880062028,0.02936271277631167
1761467017866752500,1.26075244140625,0.12020868017971514,0.005767591649969108,0.028146578452200626
1761467017876734500,1.270734375,0.10898352181017398,0.018441218095039947,0.023191129735601133
1761467017886717400,1.280717529296875,0.11556465376615524,0.024325762072007637,0.001143918471271172
1761467017896700700,1.29070068359375,0.1264852762311697,0.0366601374921971,0.0031798082130495456
1761467017906683600,1.30068359375,0.1275304013699293,0.019524403371999503,-0.004573395163030364
1761467017916666600,1.31066650390625,0.1281271982192993,0.023280620950227603,-0.013200591194932347
1761467017926649600,1.320649658203125,0.12842647342681884,0.01763334034483414,-0.01727289583487436
1761467017936632600,1.330632568359375,0.11585749923288821,0.007234709627041593,-0.022964755367510952
1761467017946615800,1.34061572265625,0.11870236726999282,0.0032342144145630298,-0.018080353459971957
1761467017956597500,1.350597412109375,0.13022680084705351,0.009603667248087004,-0.0018052182244835421
1761467017966580700,1.360580810546875,0.12364391532540321,-0.003201138695445843,0.016132689990918152
1761467017976563700,1.370563720703125,0.115117494520545,-0.005308575286495034,0.0213335648359498
1761467017986546400,1.38054638671875,0.11601473562121391,-0.012565346048295031,0.02146020515661221
1761467017996529700,1.39052978515625,0.12768529967069625,-0.006839054523094091,0.023152692854776977
1761467018006512600,1.4005126953125,0.12917992214262486,-0.0068563572843442664,0.011286464669299312
1761467018016495600,1.41049560546875,0.11780454164743423,-0.0041296928164083506,0.008663367890403605
1761467018026478600,1.420478515625,0.11735036813914775,-0.0018602272141957654,0.008431166569725609
1761467018036460500,1.43046044921875,0.12019582069814204,-0.019624765323800964,-0.0015573307109065352
1761467018046443800,1.44044384765625,0.11675824746489524,-0.024163564097485504,-0.011187232945370487
1761467018056426500,1.450426513671875,0.11870821248888969,-0.010793023163126782,-0.021808740033069623
1761467018066409500,1.460409423828125,0.12724047851264475,0.004935652604163624,-0.011522401450178585
1761467018076392700,1.470392822265625,0.12754326085150242,0.010770201693254057,0.013716075569554231
1761467018086375700,1.480375732421875,0.1244026247382164,0.011402905539644416,0.03159411595703568
1761467018096358700,1.490358642578125,0.13248305534124374,0.018258461389678994,0.0342020562659949
1761467018106341600,1.500341552734375,0.12874328429102896,0.001576982976158615,0.03077668949377257
1761467018116323600,1.510323486328125,0.11243044739365576,-0.016490997342718763,0.020015088948793707
1761467018126306600,1.520306640625,0.11362345657050608,-0.02703972688857466,0.007455165710998699
1761467018136289500,1.53028955078125,0.13067863626778126,-0.027312456582463344,0.005864069727808237
1761467018146272800,1.540272705078125,0.11152385394275188,-0.01787389850190375,0.009891950704134069
1761467018156255500,1.55025537109375,0.1224503216266632,-0.007638769516441971,0.008450816551689059
1761467018166238500,1.560238525390625,0.12544774987697602,-0.0006148302629822865,0.004503252536267973
1761467018176221700,1.5702216796875,0.11707330476343632,-0.00867023145603016,-0.01060578436218202
1761467018186204700,1.58020458984375,0.12530571105778215,0.007975193829997443,-0.01803014394296333
1761467018196186600,1.5901865234375,0.12156477096378802,0.009966993268299848,-0.015340429934952406
1761467018206169600,1.600169677734375,0.13293722884953021,0.014105741607421077,-0.011909523904509842
1761467018216152600,1.610152587890625,0.1218622926056385,0.014368664576637092,-0.0024907802026951685
1761467018226135600,1.620135498046875,0.12680091805160046,0.011436842058575711,-0.008911246270826087
1761467018236118500,1.630118408203125,0.1296446170449257,0.001723978814971633,-0.0029995106095448134
1761467018246101500,1.6401015625,0.12231237446069716,0.0008235319770639761,-0.0076758455572417
1761467018256084700,1.650084716796875,0.12156184835433959,-0.013840660930448211,-0.0013750694791786371
1761467018266067500,1.6600673828125,0.13098667930364608,-0.008640379740460776,0.008895359148527494
1761467018276049700,1.670049560546875,0.12425240261256694,-0.003139540134742856,0.03290428524015006
1761467018286032600,1.68003271484375,0.1184159515440464,0.0011141717869788408,0.05098170239094179
1761467018296015600,1.690015625,0.12425123356878756,0.006610538430267479,0.05191482308916747
1761467018305998600,1.69999853515625,0.12065934655666351,0.010112915961456019,0.029325353607721625
1761467018315981600,1.709981689453125,0.11841419797837734,-0.007810070962738246,-0.006170003004977479
1761467018325964800,1.71996484375,0.1299357089459896,-0.026716253388137556,-0.02937845376813784
1761467018335947500,1.729947509765625,0.11961129880845546,-0.018667740876891183,-0.012872176657896488
1761467018345930500,1.739930419921875,0.11557225255072116,-0.01462509158969624,-0.0031072818329557776
1761467018355912700,1.74991259765625,0.11856558914780616,0.003944643689261284,0.012464568537962623
1761467018365895400,1.7598955078125,0.11362871726751327,0.003798264338378794,0.027057445208355783
1761467018375878700,1.769878662109375,0.11752046400904655,0.006406254879687912,0.0020159611986018716
1761467018385861600,1.779861572265625,0.12395429644882679,-0.0017755994043545797,-0.025622594666224904
1761467018395844600,1.7898447265625,0.12380407432317733,-0.009965253402362578,-0.03961076517542824
1761467018405827600,1.79982763671875,0.1297884094297886,-0.011833204981999005,-0.04459625740384217
1761467018415810600,1.809810546875,0.1266466042727232,-0.008373486132314428,-0.02213745139762759
1761467018425793500,1.81979345703125,0.12589841625392437,-0.009467204219731502,0.022622650231840086
1761467018435775500,1.829775390625,0.12679624187648295,0.006607471973635256,0.042135790141019966
1761467018445758500,1.839758544921875,0.11976385902166366,0.003587229103315621,0.04194987108090426
1761467018455741700,1.84974169921875,0.12350421459376812,0.005521325271320529,0.030635719253658315
1761467018465724700,1.859724609375,0.1279921736627817,-0.01756581436684355,0.004513002178724855
1761467018475707600,1.869707763671875,0.13577216001451015,-0.016686392050655557,-0.017734827957930972
1761467018485690600,1.879690673828125,0.11975918284654617,-0.011146339245978742,-0.014199525404674932
1761467018495673600,1.889673583984375,0.12514496753811835,-0.012022843519295565,0.012901558016007765
1761467018505656600,1.899656494140625,0.12738953159451483,0.012373524687066673,0.03601662227413617
1761467018515638500,1.909638427734375,0.12080664607286452,0.02367914614798501,0.04435353012257255
1761467018525621800,1.919621826171875,0.11452362028062343,0.016408451892109585,0.04445282577858306
1761467018535604500,1.9296044921875,0.12170622526109218,0.009616015273006632,0.017532359621813518
1761467018545587500,1.93958740234375,0.11736498118638991,-0.015305322088953107,-0.013460963730746879
1761467018555570700,1.94957080078125,0.12110533675849437,-0.022981806967011652,-0.036331560841668394
1761467018565553700,1.9595537109375,0.127090840908885,-0.01708587166306097,-0.04283707027817145
1761467018575536400,1.969536376953125,0.1266419280976057,-0.01763689314194489,-0.006500107175600714
1761467018585519600,1.97951953125,0.10719020865261554,-0.005966968413279391,0.013005187353841029
1761467018595501600,1.98950146484375,0.12305296369493007,0.0003154271912993863,0.0034727587110595774
1761467018605484500,1.999484619140625,0.1175181259214878,-0.003697032453608699,0.006119880252936855
1761467018615467500,2.009467529296875,0.1287421152472496,-0.007136991723475512,-0.012693025265284813
1761467018625450500,2.019450439453125,0.11318038897812366,0.010743325102771631,-0.01922819918768946
1761467018635433700,2.029433837890625,0.12410393405258655,0.00834433538635494,-0.01211204247297719
1761467018645416400,2.03941650390625,0.11901567100286484,0.024068866984779013,0.01885882701918017
1761467018655400400,2.049400390625,0.12634791358709335,0.03233050850676372,0.03646707858853042
1761467018665383700,2.0593837890625,0.11602291892766951,0.015526189164863898,0.04960735899754799
1761467018675365400,2.069365478515625,0.13831716832220553,0.009807153930934145,0.03446164791709743
1761467018685348600,2.0793486328125,0.11811550729274749,-0.003351255789818242,0.00050373457132373
1761467018695331600,2.08933154296875,0.14355389993190765,-0.010974599408265203,-0.01031841422158759
1761467018705314300,2.099314208984375,0.10135609567165374,-0.02771879976049531,0.00009083835491910577
1761467018715297500,2.109297607421875,0.118864279833436,-0.020226421011378986,-0.00024394655739888547
1761467018725280500,2.119280517578125,0.11542436851263045,-0.01583575743753463,0.0008219930405262857
1761467018735263500,2.129263427734375,0.12290858678817748,-0.003564302602165844,0.004122651154268533
1761467018745246500,2.13924658203125,0.11707505832910536,-0.015548921586479992,-0.0050452276255935425
1761467018755228400,2.149228515625,0.125007604894042,-0.0009601913682417944,-0.014450760219385846
1761467018765211600,2.159211669921875,0.12904898923933505,0.0018331359945819713,-0.006167194559960626
1761467018775194400,2.1691943359375,0.10959493170678615,0.0017762250254396348,0.020632978818542324
1761467018785177300,2.17917724609375,0.13997019622623919,0.011162155586329754,0.025958676486485636
1761467018795160600,2.18916064453125,0.11408113721013069,0.014139643877022899,0.026569638858526014
1761467018805143300,2.199143310546875,0.11632277865707874,0.020531413573632015,0.004572860873490571
1761467018815126500,2.20912646484375,0.12664835783839226,0.004978007608279585,0.006864912766846828
1761467018825109500,2.219109619140625,0.15702537592351434,0.006960710424673743,-0.009187510495516471
1761467018835091500,2.229091552734375,0.09731704941391944,0.0021487252993742,-0.005410179347312078
1761467018845074400,2.239074462890625,0.12095862176418304,0.01209129651247058,-0.01646537427769508
1761467018855057400,2.249057373046875,0.1416115336924791,0.01348662789496593,-0.018896935106441377
1761467018865040600,2.25904052734375,0.08399930267930031,-0.000840750256634783,-0.006241410573641769
1761467018875023400,2.2690234375,0.1381704533278942,-0.008919858835544437,-0.02284670021210331
1761467018885006300,2.27900634765625,0.1375730719566345,-0.011300474928342737,-0.027219841828988862
1761467018894989600,2.288989501953125,0.0976198317527771,-0.016740775419282726,-0.009943000471359119
1761467018904972500,2.29897265625,0.14565467160344123,-0.0083042225716752,-0.005742904733284376
1761467018914954500,2.30895458984375,0.1265016428440809,-0.013217124487913678,0.00805046472302638
1761467018924937500,2.3189375,0.10300737001001835,-0.015449050541734321,0.02203856673357077
1761467018934920400,2.32892041015625,0.11782090826034546,-0.011522821575286798,0.01622502618317958
1761467018944903400,2.3389033203125,0.16376082165837286,0.0005341571090510114,0.013889171680714935
1761467018954886400,2.348886474609375,0.06574526858627795,-0.01400363065652782,0.03190621868008747
1761467018964869400,2.358869384765625,0.14879589223861694,0.002800789150071796,0.015003530697361565
1761467018974852600,2.3688525390625,0.13712357462346553,0.0143615019001998,0.0349296124887187
1761467018984835300,2.37883544921875,0.09372574692368507,0.002346752639103215,0.03311851707929745
1761467018994818600,2.388818603515625,0.15612404316961764,0.006179430703737307,0.006755570640857331
1761467019004800500,2.398800537109375,0.12559855652451515,-0.0013542458868585525,-0.001809593005501665
1761467019014783500,2.408783447265625,0.1092880577147007,-0.0018414517317782155,-0.014188880713074467
1761467019024766500,2.418766357421875,0.11482581809759139,-0.006638207321905065,-0.009128414419153704
1761467019034749400,2.42874951171875,0.13068798861801623,0.0019064455426763742,-0.016081242931471205
1761467019044732700,2.438732666015625,0.12545125700831414,-0.01496034914276097,-0.029385751158604395
1761467019054715400,2.44871533203125,0.12425590974390506,-0.017155009642825462,-0.029575474177580326
1761467019064698400,2.458698486328125,0.12425649426579474,-0.020675438853935336,-0.02379566693343222
1761467019074681600,2.468681640625,0.11423077481389045,-0.018232443315722047,0.007173184131574817
1761467019084663300,2.478663330078125,0.11946809094548225,0.0073890987544436935,0.010387899261224083
1761467019094646500,2.488646484375,0.11647592339217662,0.011138681095908395,0.03598275197057519
1761467019104629500,2.49862939453125,0.1369768596291542,0.014306371896190103,0.02860724563335534
1761467019114612500,2.508612548828125,0.10225859746932983,0.012521383608982433,0.04187639941931702
1761467019124595500,2.518595458984375,0.12530161940455437,0.009790725669229868,0.015508890970190986
1761467019134578400,2.528578369140625,0.14490473001897333,-0.001383177437109407,-0.011091732115065677
1761467019144561400,2.5385615234375,0.08743979852199554,-0.016337530663923825,-0.010731118641747162
1761467019154544400,2.54854443359375,0.12245265971422195,-0.015221144086972343,-0.0156720273763407
1761467019164526300,2.5585263671875,0.16599954049587248,-0.0014353254661662502,-0.012112526530167088
1761467019174509600,2.568509521484375,0.09043313511908053,-0.008206618832540698,-0.003135297784465365
1761467019184492500,2.578492431640625,0.09432429733872413,-0.011173272918676957,-0.013137389765609986
1761467019194475500,2.5884755859375,0.15553075345158576,0.0014381179281626828,-0.021088504033698698
1761467019204458500,2.59845849609375,0.09956628964543342,-0.006362011595873627,0.001581369173619896
1761467019214441500,2.60844140625,0.12276128727197647,0.0054512808259692975,0.008915447521908208
1761467019224424400,2.618424560546875,0.13428338276147841,0.009052737100748345,0.01239310160379391
1761467019234407400,2.628407470703125,0.10899228963851929,-0.0014969171770033425,0.02488543949809391
1761467019244390400,2.638390380859375,0.15119126294255256,0.022313355953805146,0.008710070276074112
1761467019254372400,2.648372314453125,0.1270990242153406,0.01216116514459718,0.011195553249143994
1761467019264355300,2.658355224609375,0.09537468317449092,0.006978047435253393,0.022132556026801465
1761467019274338600,2.668338623046875,0.14221125315129757,0.00165503948131809,0.009643789195921272
1761467019284321500,2.678321533203125,0.11003799929916858,-0.003247226876474451,0.0008040189924184233
1761467019294304300,2.68830419921875,0.12470248446762561,0.0041960086514241995,0.009634532743808813
1761467019304287500,2.69828759765625,0.12335457699000835,-0.010202564722998067,-0.003863607492437586
1761467019314270500,2.7082705078125,0.10898761346340179,-0.01176275411127135,-0.0038387424792395903
1761467019324253400,2.71825341796875,0.1405623169004917,-0.005559586338920053,-0.016728422827785833
1761467019334235400,2.7282353515625,0.11901450195908546,-0.00694280715851346,-0.012540876044030301
1761467019344218400,2.73821826171875,0.10210369916856288,-0.01131199640277773,0.0033557493018452076
1761467019354201600,2.74820166015625,0.1492418824404478,-0.010313269972300622,0.024294086008821613
1761467019364184300,2.758184326171875,0.17782734093368052,-0.005640796065679751,0.014161394484527409
1761467019374167600,2.76816748046875,0.037762452161312104,-0.0152311882736627,0.05300837221322581
1761467019384150500,2.778150634765625,0.14804478161036969,0.003984530458366498,0.018322793046873995
1761467019394133500,2.788133544921875,0.14669862769842146,-0.010529125229665077,-0.0037076314794365316
1761467019404116500,2.798116455078125,0.09282733677923678,0.0031941107330378145,-0.012118175386241636
1761467019414098400,2.808098388671875,0.12903963688910006,0.01742699498462025,-0.0033809020094107836
1761467019424081700,2.81808154296875,0.11182955889105796,0.016334181079501284,0.014623532103560865
1761467019434064400,2.828064453125,0.10748889933824539,0.018726944267819633,0.01801716116380412
1761467019444047400,2.83804736328125,0.13247837916612623,0.017488707709754817,-0.0023992659943411127
1761467019454030600,2.848030517578125,0.12125555888414383,0.002504365770053118,-0.02373985879269894
1761467019464013600,2.858013671875,0.1305330903172493,-0.0017739371702307834,-0.0231686256428482
1761467019473996300,2.867996337890625,0.12813947317898272,0.00177762696465943,-0.013594467617035843
1761467019483979500,2.8779794921875,0.12200491594672203,0.0059290566888405005,0.007999725483055225
1761467019493962500,2.88796240234375,0.08863339222073555,0.017928117473749443,0.03162275296305306
1761467019503944400,2.8979443359375,0.14370119944810866,0.018569118791026993,0.006673746709455736
1761467019513927400,2.907927490234375,0.11646657104194164,-0.005627858952293172,0.000799173853942193
1761467019523910400,2.917910400390625,0.09761164844632148,-0.015881455176207235,-0.02488080898874905
1761467019533893600,2.9278935546875,0.15881518194973468,-0.029266494993376545,-0.04920705283465795
1761467019543876400,2.93787646484375,0.07816051352322101,-0.03741889485407155,-0.0004828607466537505
1761467019553859600,2.947859619140625,0.13876432756781576,-0.017937022299412637,0.019971455303044058
1761467019563842600,2.957842529296875,0.13517477864325045,-0.006849089576629922,0.03768711733620148
1761467019573825300,2.9678251953125,0.12260638897120951,-0.009142968100891448,0.030344709550985133
1761467019583808500,2.97780859375,0.11901450195908546,-0.007968754956056364,0.020957603096449746
1761467019593790500,2.98779052734375,0.12918927449285983,-0.007675174270384013,0.015101465513347647
1761467019603773400,2.9977734375,0.14160744203925132,0.001471990515012294,0.012768835014430805
1761467019613756400,3.00775634765625,0.10479659151434897,0.007649016915820538,0.022607233466999603
1761467019623739400,3.017739501953125,0.1387631585240364,0.01984717133624945,0.018268784137582407
1761467019633722600,3.02772265625,0.10943360366523265,0.018038318116264416,0.006373663217760622
1761467019643705300,3.037705322265625,0.13457330561876296,0.01121371909349691,-0.019668316771159877
1761467019653695500,3.047695556640625,0.13158055354356765,0.005699627280561253,-0.026007342500379307
1761467019663678700,3.0576787109375,0.10674012679755687,0.011487380369147286,-0.015898602673830465
1761467019673660400,3.067660400390625,0.1353209091156721,0.014246780346194282,-0.009485799322347156
1761467019683643600,3.0776435546875,0.13502280295193195,0.004954791129473597,-0.0045560787020483984
1761467019693626600,3.087626708984375,0.12709317899644373,-2.876943675801158e-7,-0.0022021359870443118
1761467019703609600,3.097609619140625,0.1270955170840025,-0.007563955281139351,-0.007839205725677312
1761467019713592600,3.107592529296875,0.11886778696477412,-0.01627212586107198,-0.01025787510680966
1761467019723575600,3.117575439453125,0.12649988927841185,-0.02973978876066394,-0.010405224855360575
1761467019733558500,3.12755859375,0.12605039194524287,-0.0318354047664674,-0.009147050620964728
1761467019743541500,3.13754150390625,0.1371247436672449,-0.019371283753076566,-0.0002067061198176816
1761467019753524500,3.1475244140625,0.10240940411686897,-0.0033043981405207886,0.03860668443311006
1761467019763506700,3.157506591796875,0.1299438922524452,0.015076981809351128,0.06179730271205772
1761467019773489700,3.16748974609375,0.12814765648543833,0.025400389583176,0.05863545028080698
1761467019783472600,3.17747265625,0.10989069978296756,0.01762552008127095,0.047564719854574646
1761467019793455600,3.18745556640625,0.11362988631129264,0.013803657954884693,0.03255513844233937
1761467019803438600,3.1974384765625,0.11901508648097514,0.006844742195075378,0.01120042122050654
1761467019813421600,3.207421630859375,0.13352876500189303,0.007925212641851975,-0.005643321382906287
1761467019823404500,3.217404541015625,0.11197802745103835,-0.0023378272638423367,-0.018784697770467026
1761467019833387500,3.227387451171875,0.12499649897813796,-0.0033574572017416354,-0.035845270595489996
1761467019843370800,3.237370849609375,0.1170651214569807,-0.0013330820845323613,-0.03712527306920383
1761467019853352400,3.2473525390625,0.1004559319615364,-0.0012057933098985813,-0.04060259379094932
1761467019863335700,3.257335693359375,0.13801613954901695,0.003162400420522317,-0.023531134245730934
1761467019873318700,3.267318603515625,0.11302665972113608,0.010068195470317731,-0.011656448759161867
1761467019883301400,3.27730126953125,0.12454992425441741,0.005727503951464314,0.006721430909237824
1761467019893284600,3.28728466796875,0.15492811138331888,0.0005906867689918727,0.015157976906979455
1761467019903267600,3.297267578125,0.06529343316555022,-0.005611471789784264,0.05592683520950377
1761467019913250600,3.30725048828125,0.1356219378888607,0.0002209355745697394,0.051334105158341116
1761467019923233500,3.317233642578125,0.13188099779486656,-0.0001908304139622487,0.03901773575230036
1761467019933215700,3.3272158203125,0.13247896368801593,-0.0001960842611035332,0.01608813389656134
1761467019943198700,3.33719873046875,0.11811258468329906,0.00678614844221156,-0.00898563581444323
1761467019953181400,3.347181396484375,0.13352525787055491,-0.0018598299219738691,-0.03132040444903541
1761467019963164700,3.35716455078125,0.12379822910428047,0.002344307236978784,-0.04142940913706552
1761467019973147600,3.367147705078125,0.11616554226875304,0.0009335134238703176,-0.03673934249153826
1761467019983130600,3.377130615234375,0.12230126854479312,0.007228209104307461,-0.019761748941964467
1761467019993113600,3.387113525390625,0.10344576142728328,-0.00019448595906142144,0.0021655851026298476
1761467020003096600,3.3970966796875,0.11122516325712203,-0.00881751727249939,0.025597030966705642
1761467020013079600,3.40707958984375,0.17437515465319156,-0.002229832278145477,0.032970185516634956
1761467020023061500,3.4170615234375,0.10060264695584774,-0.008711209637101274,0.05275142461035866
1761467020033044500,3.42704443359375,0.09970365228950977,-0.011361820044007617,0.057971748507954175
1761467020043027700,3.43702783203125,0.15941197879910468,0.000577537309762556,0.04398077412031125
1761467020053010700,3.4470107421875,0.0856377175360918,0.006340069192124064,0.06359701821093913
1761467020062993400,3.456993408203125,0.10673486610054969,0.0021035778332618065,0.03548441052699927
1761467020072976600,3.4669765625,0.14818448234200476,0.0024881955199642105,-0.009337705221702344
1761467020082959600,3.476959716796875,0.10613339307606219,0.003205846836604178,-0.010625210581859574
1761467020092942600,3.486942626953125,0.12558569704294203,0.008211772214982193,-0.0366222326176241
1761467020102925600,3.496925537109375,0.12319032633900642,0.0013410324955475516,-0.05568223563155625
1761467020112907800,3.50690771484375,0.12184241886138915,-0.0009243642863235435,-0.06221785251195542
1761467020122890800,3.516890869140625,0.12827742034494877,0.008295509542257058,-0.05540252820760943
1761467020132873500,3.52687353515625,0.09760171157419681,-0.0005536586772534064,-0.035293148571485654
1761467020142856700,3.536856689453125,0.15177403126657008,-0.008365003715048077,-0.027869802770856766
1761467020152839700,3.546839599609375,0.1106254437983036,-0.01917223121675197,-0.001184707139385864
1761467020162822400,3.556822509765625,0.09625964931547641,-0.01715387256508693,0.021740031311567872
1761467020172805600,3.5668056640625,0.15776245802640915,-0.015047420071437953,0.02965718394455034
1761467020182788600,3.57678857421875,0.1047913308173418,-0.009414973992283922,0.05819819594128057
1761467020192771600,3.586771484375,0.10823241118192672,-0.00005028258224483579,0.0736767602718668
1761467020202753500,3.59675341796875,0.14923369913399218,0.004641759107948746,0.06353599047239404
1761467020212736500,3.606736572265625,0.11152385394275188,-0.005778740948357153,0.047123921851092015
1761467020222719700,3.6167197265625,0.1487842018008232,-0.004408025700598955,0.003069589304225519
1761467020232702500,3.626702392578125,0.11541443164050579,-0.0013978749660309403,-0.0070780303611420094
1761467020242685400,3.636685546875,0.08997370091378688,0.003769499468198046,-0.011895212251367047
1761467020252668700,3.646668701171875,0.15327274539172647,0.0004762688923743553,-0.04214483653057832
1761467020262651600,3.656651611328125,0.13067746722400186,0.0005086436418816447,-0.044408593911211935
1761467020272634600,3.666634521484375,0.06259177299141884,0.0035193423657212406,-0.028359175456687806
1761467020282617600,3.67661767578125,0.16973521989285945,0.00428902526369784,-0.027834420930221676
1761467020292599600,3.686599609375,0.08189794648587703,-0.006314336529246066,-0.002795366339571774
1761467020302582500,3.69658251953125,0.14115502209663391,0.0033751024562865494,0.018357649731123818
1761467020312565500,3.7065654296875,0.13547171576321124,0.0019008560521062462,0.0344957556826761
1761467020322548700,3.716548828125,0.1261930152863264,0.004319274271489121,0.07115799608370289
1761467020332531700,3.72653173828125,0.0973106196731329,0.011357059387210756,0.08459278419357724
1761467020342514400,3.736514404296875,0.14459493341743945,0.0026955820597941056,0.05840697072059847
1761467020352497700,3.74649755859375,0.11586159088611601,-0.001692805075284559,0.031143915370968167
1761467020362480600,3.756480712890625,0.1330687462747097,-0.00738347273125546,-0.019627943661576136
1761467020372463600,3.766463623046875,0.09864917480051517,-0.023088315531809348,-0.03896273589574266
1761467020382445600,3.776445556640625,0.1207943711131811,-0.005631092088995501,-0.049625734904455016
1761467020392428500,3.786428466796875,0.13635843546986579,-0.0007707651767879724,-0.03546675613929983
1761467020402411800,3.796411865234375,0.10987316412627697,0.0005539532214868814,0.008219893872644752
1761467020412394500,3.80639453125,0.11047113001942634,0.013599031911010388,0.02226285417585168
1761467020422377500,3.81637744140625,0.12229016262888907,0.021929468919464852,0.03306959077049978
1761467020432360700,3.826360595703125,0.11645429608225821,0.010335984127607662,0.03207723699859343
1761467020442343700,3.83634375,0.15386603510975838,0.009249784909654408,0.01678974739385303
1761467020452326700,3.84632666015625,0.1031359648257494,-0.0063735193705768325,0.03433694839177187
1761467020462309600,3.8563095703125,0.10523030675649642,-0.009980608518410008,0.02102246219331864
1761467020472291600,3.86629150390625,0.17077391529083252,-0.020710519300471058,-0.016580602721776812
1761467020482274600,3.876274658203125,0.08263678215444087,-0.02898077567046275,-0.0017816272863419725
1761467020492257500,3.886257568359375,0.11481003600656986,-0.027585862129786982,-0.006871210076892748
1761467020502240800,3.89624072265625,0.1380056181550026,-0.020017525217763614,-0.004160864272806793
1761467020512223500,3.906223388671875,0.12229308523833751,-0.01627901225958485,0.0173357776037883
1761467020522206500,3.91620654296875,0.13411504045724867,0.0007386689884937368,0.01409933469952084
1761467020532189700,3.926189697265625,0.12408932100534438,0.003425423854438122,0.014036146969930267
1761467020542172700,3.936172607421875,0.11840367658436297,0.0013053127281949855,0.0023108022595988587
1761467020552155400,3.9461552734375,0.13276830202341078,0.0013179484474821947,-0.012560288563976063
1761467020562137600,3.9561376953125,0.10224047729074955,-0.003252421358111314,0.005187878366140648
1761467020572120600,3.96612060546875,0.10957038178741932,-0.008798860521090681,0.0041069101624423635
1761467020582103600,3.976103515625,0.13471008374094962,-0.0018711299174115992,0.003021238384163007
1761467020592086500,3.98608642578125,0.10972001939117908,0.0072533572452957735,0.004974048385792412
1761467020602069500,3.996069580078125,0.1258791270315647,0.013321043803403152,-0.001646022774511948
1761467020612051500,4.006051513671875,0.14069500336945057,0.0039484864640282466,0.0042230473553994665
1761467020622034400,4.016034423828125,0.12034545830190181,0.011036611244210508,0.022626303493650628
1761467020632017700,4.026017578125,0.10762450841665268,0.008207438533159438,0.027792381019936873
1761467020642000600,4.036000732421875,0.107174426561594,-0.005585111222532578,0.02682902958022896
1761467020651983600,4.045983642578125,0.14997019671499728,-0.005714767767477314,0.012386553131998516
1761467020661958000,4.0559580078125,0.08562544257640838,-0.02197758237750968,0.004299076300254091
1761467020671941000,4.065941162109375,0.1602951913744211,-0.028759798996697644,-0.02296828076515812
1761467020681923800,4.075923828125,0.10088847815990447,-0.03058849627817981,-0.029026713154441674
1761467020691906800,4.08590673828125,0.12617898676097392,-0.03345961528468178,-0.034038006544392554
1761467020701890000,4.09589013671875,0.09969429993927478,-0.022031965746136847,-0.021753662544698453
1761467020711873000,4.105873046875,0.12139350605010986,-0.008281659113417845,-0.003644411783805117
1761467020721856000,4.11585595703125,0.13785656507313251,0.011161687512160278,0.014807898527407087
1761467020731839000,4.1258388671875,0.09775485630929469,0.018833672028325962,0.03579288282112684
1761467020741822000,4.135822021484375,0.11017594646513461,0.024853916415246202,0.0402758232217282
1761467020751805200,4.14580517578125,0.11451426793038845,0.03289412003916222,0.041820614111470054
1761467020761787000,4.155786865234375,0.108377372610569,0.03468964113682741,0.034255421287892385
1761467020771770000,4.16577001953125,0.12752864780426024,0.027990629838663152,0.014894681761716492
1761467020781753000,4.175753173828125,0.11361176613271236,0.012845242985198273,0.005876070692855864
1761467020791735800,4.18573583984375,0.13650748855173586,0.0162809096724377,0.0018011311378329992
1761467020801719000,4.195718994140625,0.11900047343373298,0.002687024294002913,0.0009453728250227868
1761467020811702000,4.205701904296875,0.08039280261993408,-0.011103612065815833,0.005110027356958017
1761467020821685000,4.21568505859375,0.13351473647654055,-0.01132304980304325,-0.007160146553488448
1761467020831668000,4.22566796875,0.1151087266921997,-0.011987288148724474,0.005676931391563266
1761467020841651000,4.23565087890625,0.13680851732492447,-0.023040307105041572,-0.006503865468688309
1761467020851634000,4.245634033203125,0.11630816560983658,-0.03161932574681705,0.001292734091123566
1761467020861615900,4.255615966796875,0.0790460641860962,-0.029640209976863115,0.01822356132294517
1761467020871598800,4.265598876953125,0.1424924081802368,-0.01725920980281662,0.004934871719451621
1761467020881582000,4.27558203125,0.15671207219064234,-0.003996383009653073,0.0028136646146653217
1761467020891565000,4.28556494140625,0.0877291368573904,-0.0031698279584408736,0.025989354752539655
1761467020901548000,4.295548095703125,0.09745265849232673,0.00641569627817953,0.023744018944585693
1761467020911531000,4.305531005859375,0.15356734442412853,0.012142328013386577,0.010774765987228601
1761467020921514000,4.315513916015625,0.10089315433502197,0.013753996427147648,0.020191715024178845
1761467020931497000,4.3254970703125,0.1207949556350708,0.018998995824984738,0.021161587536218576
1761467020941480000,4.33547998046875,0.14443945059478283,0.022033027475350533,0.017828849217202514
1761467020951462100,4.345462158203125,0.09610416649281978,0.009846093135257252,0.033050178250554015
1761467020961444900,4.35544482421875,0.1436906780540943,0.01270991246800404,0.017959316329611463
1761467020971427800,4.365427734375,0.12064531803131102,0.001589031890267506,0.003181264951196499
1761467020981411000,4.3754111328125,0.10762509293854236,-0.010862887228676118,-0.0051280470708385106
1761467020991394000,4.38539404296875,0.11764847430288791,-0.02567601448704954,-0.019161842253478244
1761467021001376800,4.395376708984375,0.09549977085888385,-0.02995090619411785,-0.0201324180184165
1761467021011360000,4.405360107421875,0.14832418307363987,-0.026615055752696935,-0.028024664539005605
1761467021021343000,4.415343017578125,0.11016484054923056,-0.02357869743121555,0.0002400604001479223
1761467021031326000,4.425325927734375,0.12976853568553923,-0.0063633085038163695,0.0023978229559259486
1761467021041308000,4.435307861328125,0.11390636516511439,-0.006132486289471853,0.022051426215143874
1761467021051291000,4.445290771484375,0.148474989721179,0.007812055140559096,0.020546232116851023
1761467021061274000,4.455274169921875,0.09161211577057837,0.018523290904902387,0.02915175060648471
1761467021071256800,4.4652568359375,0.08741934025585651,-0.003227912537939846,0.028287302097142673
1761467021081240000,4.475239990234375,0.14667407777905464,-0.001321373380429577,0.010808462760853581
1761467021091223000,4.48522314453125,0.12647124770581722,0.002788737952674273,0.004421985727292486
1761467021101206000,4.4952060546875,0.10312602795362472,-0.0007121988233877346,0.005639608755591325
1761467021111189000,4.50518896484375,0.14457681323885918,0.009873716361122204,0.00660365431504324
1761467021121172000,4.515171875,0.10806465339958667,0.0059910274255904365,0.006789418111531995
1761467021131155000,4.525155029296875,0.11509762077629565,-0.0016882088152691721,-0.004408710687188432
1761467021141137000,4.535136962890625,0.14382862522006035,-0.008178956790769007,-0.009475688920286484
1761467021151120000,4.545119873046875,0.12647007866203785,-0.014795386105705983,0.01115540846842341
1761467021161103000,4.55510302734375,0.1192868891596794,-0.014081451982958241,0.0033547035556519404
1761467021171086000,4.565086181640625,0.11794248881340026,-0.027991319391829892,0.011926219310984015
1761467021181068800,4.57506884765625,0.10746785655021666,-0.02578406655496219,-0.00004374324360396713
1761467021191052000,4.585052001953125,0.11135843424797058,-0.014995091662579216,-0.004763734669936821
1761467021201035000,4.595034912109375,0.12991525067985057,-0.007997227565292269,-0.0053614631010685115
1761467021211018000,4.60501806640625,0.11629764421582221,0.0077755156725877895,0.0003447537504835054
1761467021221001000,4.6150009765625,0.12018822191357612,0.02065271328218514,0.014427826868370174
1761467021230984000,4.62498388671875,0.13590192387402056,0.030585434388124846,0.001682669557048939
1761467021240966100,4.634966064453125,0.11674889511466026,0.02939663787879981,-0.0001773430280154571
1761467021250948900,4.644948974609375,0.1055272438764572,0.03454435776448808,-0.010275748690217733
1761467021260932000,4.65493212890625,0.117348030051589,0.02602964566373266,-0.0010623091690009458
1761467021270915000,4.6649150390625,0.12408230674266814,0.017981756490282712,0.0019280134870903565
1761467021280897800,4.674897705078125,0.12213760241568088,-0.000513427131564822,0.017380050570354796
1761467021290881000,4.684881103515625,0.11540332572460174,0.0017866665043518878,0.03344255226873793
1761467021300864000,4.694864013671875,0.13276187228262423,-0.0076236838284530675,0.0459801951760659
1761467021310847000,4.704846923828125,0.1374000534772873,-0.007290513201197609,0.0441835164510645
1761467021320830000,4.714829833984375,0.11420447132885456,-0.01221083580548875,0.051119713488989506
1761467021330812000,4.72481201171875,0.12557692921459673,-0.03566867191956844,0.02327532828717958
1761467021340795100,4.734795166015625,0.13590309291779995,-0.02434956078941468,-0.0003233456362737343
1761467021350777900,4.74477783203125,0.10851882690787315,-0.022279930891527328,-0.01772487281949725
1761467021360760800,4.7547607421875,0.11734627648591994,-0.004317315209843218,-0.011073981829243712
1761467021370744000,4.764744140625,0.12991583520174027,0.017554751833423504,0.013209596485295332
1761467021380727000,4.77472705078125,0.12303308995068073,0.02624452824014006,0.033450817773584274
1761467021390709800,4.784709716796875,0.130964467471838,0.02735384347219951,0.0406164853189839
1761467021400693000,4.79469287109375,0.09055997636914252,0.013288141614221967,0.039395327759883365
1761467021410676000,4.804676025390625,0.12991291259229182,-0.01485853730267845,0.0027722959912382067
1761467021420658000,4.814657958984375,0.13290391110181807,-0.0332350698307855,-0.039479498911998236
1761467021430641000,4.824640869140625,0.1128518876761198,-0.052369727249816055,-0.056315702096349556
1761467021440623900,4.834623779296875,0.1140501575499773,-0.05058875298402272,-0.051190257974551054
1761467021450607000,4.844607177734375,0.11300327884554863,-0.04514231501324102,-0.035008399646240286
1761467021460589800,4.85458984375,0.1216834289073944,-0.01707901266401168,-0.023689589910185896
1761467021470573000,4.864572998046875,0.12078794137239456,0.003978160083084367,0.012651318715140223
1761467021480556000,4.87455615234375,0.11555062524080276,0.011505066722887567,0.04834664574619382
1761467021490539000,4.8845390625,0.1224327859699726,0.029888487932796123,0.056498470218153664
1761467021500522000,4.89452197265625,0.14921791704297066,0.04563552819055039,0.05819737852395046
1761467021510505000,4.9045048828125,0.10896423258781432,0.026662210229516495,0.055191022615088146
1761467021520488000,4.914488037109375,0.12332710446119308,0.02090631358391838,0.03863084162683226
1761467021530470000,4.924469970703125,0.11195464657545089,0.019078257906541694,0.017372602482838555
1761467021540452900,4.934452880859375,0.11270049650669098,0.0018579484921414403,-0.0011222637618891894
1761467021550436000,4.94443603515625,0.12422200747430324,-0.003800949485809542,-0.012820460170391014
1761467021560419000,4.954419189453125,0.10012801518142223,-0.01640095128895482,-0.02144827269022353
1761467021570401800,4.96440185546875,0.11898176873326301,-0.024670764700951985,-0.04599158878633752
1761467021580385000,4.974385009765625,0.1459177064538002,-0.028977830228128002,-0.053639071332197634
1761467021590368000,4.984367919921875,0.09204875362217425,-0.033957817447651174,-0.04593085330873727
1761467021600351000,4.99435107421875,0.1367939042776823,-0.02020166559603531,-0.024479283549729735
1761467021610334000,5.004333984375,0.12721885120272636,-0.00953776240502484,0.005974457599991001
1761467021620317000,5.01431689453125,0.09340250631868839,-0.00547582617875887,0.03487930707358755
1761467021630299000,5.024298828125,0.13350596864819525,0.00017706446680240332,0.0317983743914403
1761467021640281900,5.03428173828125,0.11495090578198432,0.0032649292132351545,0.04105311860400252
1761467021650265000,5.04426513671875,0.13036474801301956,0.022193889726023187,0.04288416082290932
1761467021660252000,5.054251953125,0.12617431058585643,0.023198561840096953,0.033551478836196476
1761467021670235000,5.06423486328125,0.11435293988883495,0.018329866675054655,0.018838103891559876
1761467021680217900,5.0742177734375,0.12781915518343448,0.01727670207702322,0.016599471819028256
1761467021690200800,5.084200927734375,0.11480009913444518,0.002062839397497009,0.010297047206573188
1761467021700183800,5.094183837890625,0.10237900897860526,0.000021289383200928568,0.003677542301849462
1761467021710167000,5.1041669921875,0.10956102943718432,-0.008703592586226295,0.005665377951087429
1761467021720148700,5.114148681640625,0.15669921270906925,-0.0006578679703990928,-0.002131226175301708
1761467021730132000,5.124132080078125,0.10223170946240424,-0.015012353324634022,0.011870292439241892
1761467021740115000,5.134114990234375,0.11824351758658885,-0.015138998211873695,0.014291464304714462
1761467021750098000,5.144097900390625,0.13769640607535838,-0.016435819389647804,0.016764768216223455
1761467021760081000,5.154080810546875,0.10507599297761916,-0.0248535693553742,0.027716347508504983
1761467021770064000,5.16406396484375,0.14084113384187222,-0.014900182204029987,0.021652165798447094
1761467021780046800,5.174046875,0.12138649178743362,-0.003649334554094821,0.018041692816861903
1761467021790030000,5.184030029296875,0.12138532274365424,0.005964315231889486,0.026121675895317456
1761467021800012800,5.1940126953125,0.12333002707064152,0.015143537389673292,0.026531133479042908
1761467021809995800,5.203995849609375,0.10686813709139824,0.025754854160209652,0.009495649429503828
1761467021819979000,5.21397900390625,0.12527180878818034,0.014110981754830571,-0.006110505069815553
1761467021829960700,5.223960693359375,0.10671499235630034,0.01325953657424543,-0.010665560858557
1761467021839944000,5.23394384765625,0.1269166533857584,0.01161866033230908,-0.011652790930774062
1761467021849927000,5.243927001953125,0.1254220309138298,-0.008537389723444358,-0.01744866339373402
1761467021859910000,5.253909912109375,0.10357610980868338,-0.013625424444302916,0.0011576227696379645
1761467021869892900,5.263892822265625,0.12856792772412298,-0.016367220266000366,0.006478973056026734
1761467021879875800,5.273875732421875,0.11195932275056839,-0.030236947460728695,0.030166887032357044
1761467021889859000,5.283859130859375,0.12557692921459673,-0.01728308843532577,0.031046277382504192
1761467021899841800,5.293841796875,0.11719722340404987,-0.00459317300915718,0.02589826066929381
1761467021909824800,5.30382470703125,0.11884382156729698,0.00328106749728322,0.020916042676777578
1761467021919808000,5.31380810546875,0.09714519997835158,0.006694880829029716,0.012683421753300353
1761467021929789700,5.323789794921875,0.0983382091552019,0.025366697376128285,-0.009922354975552298
1761467021939773000,5.33377294921875,0.1370943485289812,0.032118948115315286,-0.025184842569776808
1761467021949756000,5.343755859375,0.12302841377556323,0.032159764182893555,-0.03637993916119449
1761467021959739000,5.35373876953125,0.07663783400058746,0.009320443559647538,-0.021016813337244093
1761467021969721900,5.363721923828125,0.15310557213127612,0.0003648238575551659,-0.04168219202146865
1761467021979704800,5.373704833984375,0.09744155257642269,-0.009940096128219738,-0.024671454254118725
1761467021989687800,5.383687744140625,0.11794424237906932,-0.02201508995986078,-0.026376737501774914
1761467021999671000,5.393671142578125,0.12213409528434276,-0.02344095804451499,-0.0018302202349994331
1761467022009653800,5.40365380859375,0.09923895738720893,-0.017491077763354405,0.05027852255764883
1761467022019637000,5.413636962890625,0.1680769312918186,-0.00238770342071075,0.0691432632943848
1761467022029619000,5.423618896484375,0.0808358702123165,-0.022272407455486243,0.09671152126882225
1761467022039602000,5.433601806640625,0.1050742394119501,-0.012455376017931848,0.07385203007380478
1761467022049585000,5.4435849609375,0.15250877528190612,-0.012905183878354728,0.03489779714492615
1761467022059567900,5.45356787109375,0.09759060565829276,-0.011967624467029236,0.013367440228397027
1761467022069551000,5.463551025390625,0.12242986336052417,0.01086064960581716,-0.013147828961233607
1761467022079533800,5.473533935546875,0.11973287936151027,0.009636962162912823,-0.0043113010275876145
1761467022089516800,5.483516845703125,0.14083236601352692,0.02350878541660495,0.009283225954952649
1761467022099500000,5.4935,0.13005904306471347,0.03042593069418799,0.008422348509030416
1761467022109483000,5.50348291015625,0.10117723197340965,0.02174320508276578,0.0010886172206141054
1761467022119465700,5.5134658203125,0.14322539862990377,0.01843598479749635,-0.013791529125673696
1761467022129448000,5.523447998046875,0.13813947366774082,0.012555288161872886,-0.029923666560743002
1761467022139431000,5.533430908203125,0.10207447307407855,-0.005325058347126469,-0.019165102789644152
1761467022149414000,5.543413818359375,0.13245207568109035,-0.0060961888500954955,0.003049226936209015
1761467022159396900,5.55339697265625,0.13155541910231114,-0.0034799921694444493,0.014083479543263092
1761467022169379800,5.5633798828125,0.08920563915073872,-0.008445103763532824,0.04439063812941312
1761467022179362800,5.57336279296875,0.12317279068231582,0.003686602391139604,0.02410511647509411
1761467022189345800,5.583345703125,0.12975859881341456,-0.0031419649872696026,0.02143875594320707
1761467022199329000,5.5933291015625,0.10940671565830706,-0.02030975191327743,-0.0001491170139517635
1761467022209312000,5.60331201171875,0.10012743065953254,-0.04562931764547247,-0.004391161330766044
1761467022219294700,5.613294677734375,0.13349603177607058,-0.050421812619012775,-0.028305536440154537
1761467022229277000,5.62327685546875,0.12496902644932269,-0.038367656079423614,-0.0179373739258619
1761467022239260000,5.633260009765625,0.11464461631178856,-0.020770537825440985,0.01565577949443832
1761467022249243000,5.643242919921875,0.10791267770826816,0.01541822614520788,0.0408934299636865
1761467022259225900,5.653225830078125,0.09758768304884433,0.037780257246061225,0.05484440570108127
1761467022269208800,5.663208740234375,0.1338005676805973,0.044761161075392734,0.052622016943874764
1761467022279192000,5.673192138671875,0.12018120765089987,0.0421779624820454,0.03191200910005718
1761467022289174800,5.6831748046875,0.09414075746536255,0.033323067774646914,0.00773348032888025
1761467022299157800,5.69315771484375,0.14292144724726677,0.01950211619166657,-0.013503122372040524
1761467022309141000,5.70314111328125,0.12182196059525012,-0.001090859410050325,-0.018732063400931656
1761467022319124000,5.7131240234375,0.11119535264074802,-0.015194692188175395,-0.02589708249235991
1761467022329106000,5.72310595703125,0.12496259670853614,-0.01271671210154891,-0.029309854644490405
1761467022339089000,5.7330888671875,0.08979659078121185,-0.01407102648706641,-0.008018727011047303
1761467022349072000,5.74307177734375,0.11673311302363872,-0.015439579460490495,-0.007666123314248398
1761467022359054800,5.753054931640625,0.13050152613520621,-0.011993777255015447,-0.004091539063374511
1761467022369037800,5.763037841796875,0.0921948840945959,-0.003537366646178998,0.002413276253384538
1761467022379021000,5.77302099609375,0.1370896723538637,0.0006460473851533607,0.0032833005535649134
1761467022389004000,5.783004150390625,0.12018179217278957,0.003100623763306066,0.014958152619097382
1761467022398986800,5.79298681640625,0.11554419550001621,0.00899186005925294,0.03151051106050145
1761467022408970000,5.802969970703125,0.14158230759799478,0.004233390652900562,0.02326737787616439
1761467022418953000,5.812952880859375,0.07798281886875628,-0.007026889262371696,0.03729617722327821
1761467022428935000,5.822934814453125,0.1496604001134634,-0.001714398135873489,0.007027090191771276
1761467022438918000,5.83291796875,0.12003098552525043,-0.005607903009653091,0.008973643982550128
1761467022448900900,5.84290087890625,0.0860603268623352,-0.014310534331365487,0.021848345957673154
1761467022458884000,5.852884033203125,0.14277531677484512,-0.007036191380256787,0.0035969833123497665
1761467022468866800,5.86286669921875,0.14636895735263825,0.010918316343496553,0.012132751900865695
1761467022478849800,5.872849853515625,0.09070201518833637,0.016263006406277418,0.02529663694775663
1761467022488833000,5.8828330078125,0.12407061630487441,0.006475918015837669,0.018717532552080227
1761467022498815700,5.892815673828125,0.1267646776944399,0.015171644672728142,0.02184551011319272
1761467022508798700,5.902798828125,0.10297112965285778,0.0083209704937879,0.037531232654745686
1761467022518782000,5.912781982421875,0.12511691048741339,0.01476276247773785,0.02834564925483428
1761467022528763600,5.922763671875,0.12586392946243286,0.016385701204184443,0.024432836892385967
1761467022538747000,5.932746826171875,0.09787877494990825,0.006187524961936287,0.02037648330682423
1761467022548729900,5.942729736328125,0.14351707505285738,0.011752045487589203,0.0027512623363640156
1761467022558712800,5.952712890625,0.09742869309484958,-0.00501979179023765,0.014191017871233634
1761467022568695800,5.96269580078125,0.1409732357889414,-0.02700452314445283,-0.0059702335160225625
1761467022578678800,5.9726787109375,0.09623217678666114,-0.04910351482836995,-0.010793995844083838
1761467022588662000,5.982662109375,0.14621172096431254,-0.0597321138105588,-0.028631179064791647
1761467022598645000,5.99264501953125,0.10206862785518168,-0.04608041784726083,-0.0027043270552530884
1761467022608627700,6.002627685546875,0.1339431910216808,-0.026798246282897887,0.012002385253156535
1761467022618611000,6.01261083984375,0.11897826160192489,-0.021313736757473088,0.031795734909782186
1761467022628594000,6.022593994140625,0.1297527535945177,-0.002252779328892939,0.044455921917967496
1761467022638575900,6.032575927734375,0.12735796741247177,0.004355163002200424,0.027931319133169017
1761467022648558800,6.042558837890625,0.07827449529170989,0.00807529320360627,0.022993684634473172
1761467022658538000,6.0525380859375,0.15459084225296973,0.020470655263145454,-0.000027002171357162296
1761467022668521200,6.062521240234375,0.11418810471594333,0.027676741583901456,-0.017053978687454945
1761467022678504000,6.07250390625,0.11134615928828716,0.035652675199415534,-0.014931296578212641
1761467022688487200,6.082487060546875,0.14336977553665636,0.038228809297736734,-0.012212566538271493
1761467022698470100,6.09247021484375,0.09204173935949801,0.033260775094199925,-0.0033689878093311563
1761467022708453000,6.102453125,0.11448621087968348,0.031140705067152157,-0.012532701870729215
1761467022718436000,6.11243603515625,0.14217092114090918,0.016190913851023652,-0.02096030651018955
1761467022728419000,6.122419189453125,0.09787702138423919,0.016714321237197145,-0.006663307513832114
1761467022738401300,6.1324013671875,0.13738368686437605,0.011313284177565946,-0.00028021431402303277
1761467022748384000,6.142384033203125,0.12316811450719832,-0.007939031104650348,0.018239772672229447
1761467022758367000,6.152366943359375,0.10087152702510356,-0.010575229393714107,0.03598296659970656
1761467022768350200,6.16235009765625,0.1369336050093174,-0.009038384348410181,0.03112124688143376
1761467022778333200,6.172333251953125,0.10939970139563084,-0.02507771066718269,0.02509774880821351
1761467022788316000,6.18231591796875,0.13678455192744732,-0.024747738927300086,-0.004223129553790204
1761467022798299100,6.192299072265625,0.10984861420691013,-0.026980375083885153,-0.010380222844844684
1761467022808282000,6.2022822265625,0.12765782714188098,-0.028656007545371537,-0.01024132583080791
1761467022818265000,6.21226513671875,0.12466565958857535,-0.024139205974363722,0.004410998542397283
1761467022828248000,6.222248046875,0.09458791671097277,-0.022814158782525917,0.006071364936092868
1761467022838230000,6.23222998046875,0.1352905139774084,-0.01985049580449704,-0.001349592544627376
1761467022848213200,6.242213134765625,0.11538871267735958,-0.015914261467265895,0.0111176976733841
1761467022858196000,6.252196044921875,0.13155132744908332,-0.009751528453291393,0.018443277621385642
1761467022868179200,6.26217919921875,0.12496961097121238,0.008236086955619976,0.017221750169526786
1761467022878162200,6.272162109375,0.10252397040724753,0.015893255211855285,0.032203964084223845
1761467022888145200,6.282145263671875,0.1094055466145277,0.015114484825124964,0.03788511499317828
1761467022898128100,6.292128173828125,0.14127835621535778,0.02280133583357092,0.04071081253893208
1761467022908111000,6.302111083984375,0.10955284613072871,0.02426321594652254,0.03756423987520393
1761467022918094000,6.312093994140625,0.12990297572016715,0.021168300404795445,0.02039348010739777
1761467022928077000,6.3220771484375,0.11284195080399513,0.02738252157741226,0.010049004429369233
1761467022938059000,6.33205908203125,0.12361527375280856,0.0029095216379966585,-0.004848184383264742
1761467022948042200,6.342042236328125,0.11553425862789153,0.010960899676475674,-0.0030068947649793698
1761467022958025000,6.35202490234375,0.12137070969641207,0.00792181054179091,-0.007124837778089568
1761467022968008000,6.362008056640625,0.12990297572016715,0.00877312557492405,-0.01206075981031172
1761467022977991200,6.3719912109375,0.0814203921020031,0.003032654827320948,0.010523197812377474
1761467022987974100,6.38197412109375,0.11284487341344356,0.0010115333964116871,-0.010906379310530609
1761467022997956900,6.391956787109375,0.10985036777257919,-0.0007803275895770639,-0.0007659748372389003
1761467023007940000,6.401940185546875,0.12331892115473747,-0.021295219286670906,0.00023770404628012327
1761467023017923000,6.411923095703125,0.1641734941124916,-0.017143625165708363,0.0021681926182471212
1761467023027906300,6.42190625,0.07827917146682739,-0.019253557391231878,0.03595253949540202
1761467023037889000,6.431888916015625,0.15399989062249658,-0.011841691965842619,0.03133251044536009
1761467023047871200,6.441871337890625,0.13065642443597317,-0.011140909585612825,0.031100797748449257
1761467023057854200,6.451854248046875,0.07064882271885871,-0.01993127398970537,0.03630928964435588
1761467023067837000,6.4618369140625,0.16133037964105604,-0.011248041488206944,0.0008396200287621468
1761467023077820200,6.471820068359375,0.09369242917597294,-0.022438886596192604,0.02493554398382548
1761467023087803100,6.48180322265625,0.12466741315424441,-0.007499420411256142,0.019071191128226927
1761467023097786000,6.4917861328125,0.11778232981562614,-0.000930394451599568,0.015281831615511327
1761467023107769000,6.50176904296875,0.09907529125809669,0.00441989423490595,0.023140801487583667
1761467023117752000,6.511751953125,0.14830723193883896,0.005576708720368333,0.004910276134312152
1761467023127735000,6.521735107421875,0.11239303799271583,-0.009622641376615502,0.0021907880425453183
1761467023137718300,6.53171826171875,0.1104465801000595,-0.006489014959428459,-0.004077574470103718
1761467023147700000,6.541699951171875,0.1161328090429306,-0.01775534102299716,-0.007902023562509566
1761467023157683200,6.55168310546875,0.1191255611181259,-0.0025435333032393826,-0.0034397332242922856
1761467023167666200,6.561666259765625,0.11733049439489841,-0.009751569552486761,-0.0025039593446766957
1761467023177649000,6.57164892578125,0.11478782417476177,-0.016527461462165226,-0.009542214817856437
1761467023187632000,6.581632080078125,0.12361702731847762,0.0011317987752147017,-0.006396747265825979
1761467023197615000,6.591614990234375,0.07947451873123645,0.0010881514297332614,0.02715262637825217
1761467023207598300,6.601598388671875,0.13948095140457153,0.012904101599543355,0.025929103332129305
1761467023217581000,6.6115810546875,0.11494096890985965,0.01535416163278278,0.03067330218453426
1761467023227564000,6.62156396484375,0.11882920852005481,0.011292953775590284,0.018488874895358456
1761467023237547300,6.63154736328125,0.10640870288610457,0.007306135462014935,-0.000907072941516526
1761467023247530000,6.641530029296875,0.12122048757076263,0.007165585347008891,-0.006982575196609832
1761467023257512200,6.65151220703125,0.11927461419999599,0.015438314518588594,-0.010125019674492069
1761467023267495200,6.6614951171875,0.12436521533727646,0.004332777640456333,0.013751585274352692
1761467023277478000,6.671477783203125,0.10117138675451279,-0.003326852000923827,0.02504622868353035
1761467023287461000,6.681461181640625,0.11613573165237903,-0.013713495453400537,0.022946781319403087
1761467023297444000,6.691444091796875,0.12152443895339965,-0.01492787621184252,0.010612693593581206
1761467023307427000,6.701427001953125,0.12391980965733528,-0.023141276411619036,-0.0033488309372914954
1761467023317410000,6.71141015625,0.09623451487421988,-0.03250783555175876,-0.004933625043858774
1761467023327393000,6.72139306640625,0.12960253146886824,-0.019866515357536262,-0.0023464763611787927
1761467023337376000,6.7313759765625,0.12705927672684192,-0.01949420231326949,0.005698106610332616
1761467023347359200,6.741359130859375,0.10925357092320918,-0.011416993430501315,0.02193186408923939
1761467023357341000,6.7513408203125,0.12661387104690075,0.009766732872289139,0.021830143580702132
1761467023367324200,6.76132421875,0.10147592265903949,0.009298284243477974,0.028004110374744047
1761467023377307100,6.77130712890625,0.13140519697666167,0.020972750433231702,0.006438444682816043
1761467023387290000,6.7812900390625,0.12018237669467925,0.010070921716943848,-0.007820149398758075
1761467023397273000,6.791273193359375,0.1119499704003334,0.00789071443391731,-0.0055775535371620204
1761467023407256000,6.801256103515625,0.14621873522698878,0.010821824565925635,0.0007901046314975247
1761467023417239300,6.8112392578125,0.1070136830419302,0.009542328982288018,0.02628995426746551
1761467023427222000,6.821221923828125,0.09982932449579238,0.010706543606205376,0.03405272462291177
1761467023437205000,6.831205078125,0.14517068747878073,0.011521568049828056,0.0005362988337874413
1761467023447188200,6.841188232421875,0.10686404543817042,-0.0027080191329703664,0.0021089915106073023
1761467023457171200,6.851171142578125,0.10267419253289699,-0.012249348034837747,-0.005309614182822406
1761467023467153200,6.861153076171875,0.11464461631178856,-0.016951589175348634,-0.001856957544875331
1761467023477136100,6.87113623046875,0.12930968600213527,-0.012602312491240445,-0.0024854829730698836
1761467023487119000,6.881119140625,0.11314999383985995,-0.01096979308569571,0.01778784591995645
1761467023497102000,6.89110205078125,0.13425240310132502,0.008613715495821088,0.027560622657253404
1761467023507085000,6.9010849609375,0.13021394136548042,0.0001335130194434896,0.03701859325775876
1761467023517068000,6.911068115234375,0.08457213413119316,-0.003721497891296167,0.0396789396073902
1761467023527051300,6.92105126953125,0.1378442901134491,-0.01033076452979585,0.02274521259900648
1761467023537034000,6.931033935546875,0.12886661840975283,-0.018845259718131273,0.012002960641891694
1761467023547017200,6.941017333984375,0.09728957688510417,-0.0339894935108372,0.0008879937817109748
1761467023557000200,6.951000244140625,0.13829028031527996,-0.028848226198821793,-0.0015429505591047926
1761467023566982100,6.960982177734375,0.11734101578891276,-0.028719231807580216,0.005064119555731304
1761467023576965000,6.970965087890625,0.13260697398185728,-0.017646574285742827,0.001506828932953067
1761467023586948000,6.980947998046875,0.09250351165235042,-0.0122696921365452,0.0016323458756087347
1761467023596931000,6.99093115234375,0.10163082095980644,-0.01405105684469454,0.0046098638490540906
1761467023606914000,7.0009140625,0.16163842267692088,0.0012099557450739667,-0.002753157465928234
1761467023616897000,7.01089697265625,0.10836743573844432,0.00918090950808255,0.009260333703132347
1761467023626880300,7.02088037109375,0.09594517653882503,0.01759857727541821,0.012446836518449708
1761467023636863000,7.030863037109375,0.13769406798779962,0.030252697585709393,-0.010699339830572717
1761467023646846000,7.040845947265625,0.1252741468757391,0.03068620504859136,-0.00009993954340461641
1761467023656829000,7.050828857421875,0.12587269729077816,0.041616236946056595,0.003453921579848975
1761467023666812000,7.06081201171875,0.12812018395662306,0.028376281855115666,-0.011504377169720827
1761467023676793900,7.0707939453125,0.11061316883862019,0.018606640073109883,-0.018942354283900932
1761467023686776800,7.08077685546875,0.12528116113841534,0.020409691456682047,-0.0065484352627769105
1761467023696760000,7.090760009765625,0.13620704430043695,0.012913666295621077,0.002168151519051753
1761467023706742800,7.10074267578125,0.07021510747671127,-0.005017264189722482,0.03371158303504344
1761467023716725800,7.110725830078125,0.13725275396108627,0.0024183565705898215,0.03369365465270821
1761467023726709000,7.120708984375,0.10777239245474338,-0.008719794802356046,0.04081704482580535
1761467023736692000,7.13069189453125,0.13036767062246798,-0.007724981928593479,0.02625650408901274
1761467023746674700,7.1406748046875,0.12497954784333705,-0.015008113257645162,0.011391911504883319
1761467023756658000,7.150657958984375,0.11181026966869831,-0.015422173951251898,-0.0012138373357476666
1761467023766641000,7.160640869140625,0.11225801343619823,-0.00019437179462984203,-0.008454730108403601
1761467023776623900,7.170623779296875,0.1366506964147091,-0.0032644931051065214,-0.013302224938501602
1761467023786605800,7.180605712890625,0.13485679873526096,-0.01080029772070702,-0.0066838342786300926
1761467023796588800,7.1905888671875,0.0757476071625948,-0.0016544138602330347,0.013400652944832107
1761467023806572000,7.200572021484375,0.16164426789581773,0.0033548588192788883,-0.004527592393080704
1761467023816554800,7.2105546875,0.11106617330312728,-0.006218015998322516,0.02048973898952827
1761467023826537700,7.220537841796875,0.08906886102855205,0.00532284584044246,0.027761876283818855
1761467023836521000,7.23052099609375,0.15775252115428448,0.020425039722863584,0.02131583738301415
1761467023846503700,7.240503662109375,0.07574877620637416,0.004275140585529152,0.029705438966490326
1761467023856487000,7.25048681640625,0.15685235744416712,0.00884954724542331,0.001649927198071964
1761467023866470000,7.260469970703125,0.09953940163850784,-0.005483340481645427,-0.001839924211683683
1761467023876452900,7.270452880859375,0.1447322960615158,-0.001290409703296609,-0.018919672094634733
1761467023886435800,7.280435791015625,0.11270926433503627,0.0074181307693943375,-0.006426324986759573
1761467023896417800,7.290417724609375,0.092657240909338,0.00024135502480203283,0.007201127017848193
1761467023906401000,7.300401123046875,0.1379968503266573,0.00047036659126169976,0.016018607757729477
1761467023916383700,7.3103837890625,0.10432663591504096,0.0019389801223878747,0.02942287286517676
1761467023926366700,7.32036669921875,0.12527590044140816,0.011185216801508795,0.017939547616639174
1761467023936350000,7.330349853515625,0.10941314539909362,0.0011637625327683054,0.01872156027322635
1761467023946333000,7.3403330078125,0.13185761691927908,-0.012586429935519117,-0.00800589949551504
1761467023956315600,7.350315673828125,0.1243763212531805,-0.012066477165045216,-0.016668518467247484
1761467023966299000,7.360298828125,0.09729191497266292,-0.020381723454233724,-0.005068302540504373
1761467023976281900,7.37028173828125,0.14801906264722348,-0.008368752874981145,0.002019824522966519
1761467023986264800,7.380264892578125,0.10657003092765807,-0.031006676024477927,0.016245393117773347
1761467023996246800,7.390246826171875,0.14622633401155471,-0.014203927585156633,0.013994107059645466
1761467024006229800,7.400229736328125,0.12826923703849316,-0.006776453598681837,0.017217183592263607
1761467024016213000,7.410212890625,0.1050742394119501,-0.00506755133854458,0.005065964452945627
1761467024026195700,7.42019580078125,0.1385930626541376,0.0034352579785743727,0.006328627632791176
1761467024036179000,7.430178955078125,0.12452654337882994,0.0015754394730436614,0.01731465718394611
1761467024046162000,7.440161865234375,0.10656886188387871,-0.007112019395711831,0.02898472804308403
1761467024056145000,7.450144775390625,0.11898819847404957,-0.0007308921074145473,0.011531703568063675
1761467024066128000,7.4601279296875,0.09878536840081215,-0.007869788093608804,0.012346326152887195
1761467024076110800,7.47011083984375,0.12362462610304355,-0.015547453431889879,0.0054269341192906715
1761467024086093800,7.48009375,0.12078209615349769,-0.011590000493405386,0.01186251099158544
1761467024096076800,7.490076904296875,0.12631868749260902,-0.008280939877498894,-0.003377737371367402
1761467024106059800,7.500059814453125,0.11674129633009434,-0.0137872936252621,0.013140924296411685
1761467024116042000,7.5100419921875,0.11988310148715972,-0.006408357788517605,0.017005572968465277
1761467024126025000,7.52002490234375,0.12212766554355621,-0.008253364600695203,0.011172747762291692
1761467024136007700,7.530007568359375,0.11703940249383449,-0.0014611015115282497,0.012283996939822099
1761467024145991000,7.539990966796875,0.11239771416783333,0.0020361066541983745,0.018179347721883093
1761467024155974000,7.549973876953125,0.11479016226232051,0.022481963119516148,0.01496135835633613
1761467024165956600,7.55995654296875,0.1547445715099573,0.038556908740941434,0.011393875133106484
1761467024175939800,7.56993994140625,0.09952654215693474,0.03293015490034595,0.02852056743032299
1761467024185922800,7.5799228515625,0.1236176118403673,0.03372674407155719,-0.005261505291354842
1761467024195906000,7.589906005859375,0.1349900697261095,0.037929986181366254,-0.03891576408201363
1761467024205888800,7.599888671875,0.1010229181945324,0.0242377983774757,-0.04142960093331057
1761467024215871700,7.609871826171875,0.1520516791641712,0.0007368035416817292,-0.016094307909021152
1761467024225854000,7.61985400390625,0.10356909554600716,-0.016837198698194698,0.03476849450971931
1761467024235836700,7.629836669921875,0.1082072767406702,-0.02347365017114207,0.0363739112792071
1761467024245820000,7.63981982421875,0.14427169281244276,-0.06904924660169054,0.011628135980130173
1761467024255803000,7.649802978515625,0.10027823730707168,-0.05027454050227534,-0.021054688529064877
1761467024265785900,7.659785888671875,0.10836042147576808,-0.013168383125495165,-0.027440590173890812
1761467024275768800,7.669768798828125,0.12422376103997229,0.03355493116860744,-0.02137231224402785
1761467024285751800,7.679751708984375,0.10671791496574878,0.0610487402339233,-0.015612648172187618
1761467024295734800,7.68973486328125,0.13679682688713074,0.07722946148449554,-0.0025610780930845067
1761467024305718000,7.699718017578125,0.11974106266796589,0.06916782691348344,0.006670554671948776
1761467024315700700,7.70970068359375,0.1189952127367258,0.03730299968970939,-0.005402849990804679
1761467024325683000,7.719682861328125,0.10942132870554923,-0.013858237686334178,-0.025076906949584372
1761467024335666000,7.729666015625,0.11436170771718024,-0.05552320001178886,-0.028600226804101837
1761467024345648600,7.739648681640625,0.13800678719878195,-0.07563823307056446,-0.0038908745252760127
1761467024355631900,7.7496318359375,0.13800795624256132,-0.07568223660907242,0.04926808057320304
1761467024365614800,7.75961474609375,0.12020283496081828,-0.06877855816783848,0.07841494494201615
1761467024375598000,7.76959814453125,0.1266366674005985,-0.05791570747178047,0.0732111063883407
1761467024385580800,7.779580810546875,0.11676058555245399,-0.04609167446021456,0.06455995865869335
1761467024395563800,7.789563720703125,0.14878537084460258,-0.030729941442329434,0.02665237153880298
1761467024405547000,7.799547119140625,0.09072422702014446,-0.013456497618183494,0.012307866439176723
1761467024415529700,7.80952978515625,0.1140671086847782,0.016132237899769097,0.0020779935841448603
1761467024425512700,7.8195126953125,0.14624153158068656,0.03457979440405033,0.010092966868681833
1761467024435496000,7.829495849609375,0.08892857577502727,0.05133432892062701,0.026707380528515203
1761467024445478000,7.839477783203125,0.11915361816883087,0.058970993244950656,0.02335662706219591
1761467024455460900,7.8494609375,0.12408932100534438,0.0547457128332695,0.012717876578751019
1761467024465443800,7.85944384765625,0.10343757812082767,0.034754589281952936,-0.012937222984433174
1761467024475426800,7.8694267578125,0.1453372762173414,0.02059788010569755,-0.02985747858989052
1761467024485409800,7.879409912109375,0.11466273649036883,-0.005195367552852258,-0.02673405847288668
1761467024495392800,7.889392822265625,0.07186462824940681,-0.024891229918063616,-0.0005714888781774789
1761467024505375700,7.899375732421875,0.16000234590768814,-0.019905207966687155,0.015076111876382492
1761467024515359000,7.90935888671875,0.114960842654109,-0.02232020581969991,0.026390624463232232
1761467024525341700,7.919341796875,0.09715162971913814,-0.03308909918856807,0.018213976077269763
1761467024535325000,7.929324951171875,0.14578443546295164,-0.02398403824553825,0.0006013177608605474
1761467024545308000,7.939307861328125,0.12483692450225352,-0.02065859731698874,-0.010774811653001233
1761467024555289900,7.949289794921875,0.10478490107655525,-0.024020178137999025,-0.0008026170531986281
1761467024565272800,7.95927294921875,0.12498480854034423,-0.009148169432394207,0.011656846051383762
1761467024575255800,7.969255859375,0.14369360066354273,-0.0011902235647197812,0.002603981086472049
1761467024585239000,7.979239013671875,0.10867898590564727,0.00770195267945528,0.0009636345674982294
1761467024595221800,7.9892216796875,0.0842868874490261,0.005999235848220996,-0.007064435660629533
1761467024605204700,7.999204833984375,0.15282324805855751,0.024483229072485117,-0.02475038754211273
1761467024615188000,8.00918798828125,0.1408539933234453,0.016656051711319012,-0.012566590440599247
1761467024625171000,8.0191708984375,0.07501227862536906,0.018038514479086734,0.01317928811199963
1761467024635153700,8.029153564453125,0.15312544587552546,0.022066363489371722,0.023282680476573295
1761467024645137000,8.039136962890625,0.1134703118354082,0.010599176524882204,0.053947077835444356
1761467024655120000,8.049119873046875,0.09865385097563266,0.014321096824575216,0.05614180226759054
1761467024665102600,8.0591025390625,0.14219722462594508,0.00301658504193183,0.035508097363263366
1761467024675085300,8.069085205078125,0.10104513002634048,0.005051734998193569,0.035047704176744444
1761467024685068300,8.079068359375,0.13261807989776134,-0.005709459121408872,0.02759300425662659
1761467024695051500,8.089051513671874,0.10463350990712642,-0.016235762206325305,0.02927719905048143
1761467024705034500,8.099034423828124,0.13695581684112548,-0.011485343675687909,0.014225838022865355
1761467024715017200,8.109017333984376,0.12663140670359133,-0.01013853674319107,0.0016640835875878109
1761467024725000400,8.11900048828125,0.09655307930409908,-0.004283750866958871,0.0016581653034547343
1761467024734983400,8.1289833984375,0.11765139691233634,-0.010608560841158032,-0.0172179781767074
1761467024744966100,8.138966064453125,0.1505710852175951,0.009495827526017091,-0.015105662197852506
1761467024754949400,8.148949462890625,0.21026947485506534,0.07298106962528544,0.07883934436654672
1761467024764932400,8.158932373046875,-0.020922376519441604,0.1361726762399543,0.07698091181721538
1761467024774915600,8.16891552734375,0.0582405920445919,0.06683320082030259,-0.09177066733315586
1761467024784897300,8.178897216796875,0.13679916497468947,-0.09045806863093749,-0.13563889815681612
1761467024794880500,8.188880615234375,0.25321722069978714,-0.11587240454107522,-0.0964770457926672
1761467024804863500,8.198863525390625,0.06766834560334682,-0.042282226574118245,-0.021653923930693417
1761467024814846200,8.20884619140625,0.01873626465201378,-0.02833111840598285,0.08713510735384188
1761467024824829400,8.218829345703124,0.2624994283080101,-0.04895803280991967,0.12501845508161932
1761467024834812400,8.2288125,0.11210954487621784,-0.05264499139408581,0.10869822032907978
1761467024844795400,8.23879541015625,0.0015238485664129256,-0.022256104774656706,0.04365579821595456
1761467024854778400,8.2487783203125,0.200545953220129,-0.03853755558650009,0.0200807791627245
1761467024864761300,8.25876123046875,0.1724129146695137,-0.0377669913391117,0.0431121106601553
1761467024874744300,8.268744384765625,0.07140519404411315,0.021604454199201425,0.06903392573497258
1761467024884727600,8.2787275390625,0.1047737951606512,0.05842966204301919,0.06434361706085037
1761467024894709200,8.288709228515625,0.12033026073276996,0.049929599522124044,0.02117007680335082
1761467024904692500,8.2986923828125,0.12062602880895137,0.03080118461421225,-0.0717970429059118
1761467024914675500,8.308675537109375,0.15893500893712043,0.04587783991328906,-0.1360815638903994
1761467024924658200,8.318658203125,0.06960077497065068,0.026375664356118066,-0.1079460319885984
1761467024934641400,8.328641357421875,0.13140227436721325,0.04133146518792491,-0.06435711586324032
1761467024944624400,8.338624267578124,0.15160568896234033,0.045203927273675795,0.009237368386075832
1761467024954607400,8.348607421875,0.07349252171218394,0.0284338937938679,0.0943284437908791
1761467024964590300,8.35859033203125,0.15115502258539198,0.01037602159376256,0.07463591502706986
1761467024974573300,8.3685732421875,0.12137538587152957,-0.037346071646455675,0.051490332333091644
1761467024984556500,8.378556640625,0.09892857626378536,-0.07172479965360835,0.02003471153129358
1761467024994539500,8.38853955078125,0.129604869556427,-0.07960351540576666,-0.0216413384437561
1761467025004521500,8.398521484375,0.12107727970778942,-0.07201417452162132,-0.0030099954709410666
1761467025014504400,8.40850439453125,0.100277652785182,-0.05678669887527357,0.026109400935634037
1761467025024487400,8.4184873046875,0.13155249649286269,-0.020752623142837545,0.0399104833409423
1761467025034470400,8.428470458984375,0.12466916671991347,0.003944390244223177,0.04324726308083627
1761467025044453400,8.438453369140625,0.09369067561030388,0.009902636494929902,0.03428203073360491
1761467025054436400,8.448436279296875,0.13828326605260371,0.02240634516661521,-0.0031214427890488877
1761467025064419300,8.45841943359375,0.11763269221186637,0.03270770322212484,-0.012129970855312422
1761467025074402300,8.46840234375,0.10117021771073341,0.03908868666323833,0.010065868799202144
1761467025084385300,8.47838525390625,0.14516425773799418,0.04611747562175151,0.006151019743294454
1761467025094368500,8.488368408203126,0.12406477108597755,0.0409044673809316,0.011287725044623949
1761467025104351200,8.498351318359376,0.10775251871049403,0.03235741477999836,0.015600181416259146
1761467025114334500,8.50833447265625,0.12136895613074301,0.023454086954146622,-0.016084996657981538
1761467025124316400,8.51831640625,0.0993710593342781,-0.0005135755453258752,-0.02864351338997949
1761467025134299400,8.52829931640625,0.13019699023067952,-0.018047853129589928,-0.03936500112027861
1761467025144282400,8.538282470703125,0.12301438525021076,-0.010422632647887804,-0.02598875653091818
1761467025154265300,8.548265380859375,0.096678166988492,-0.024247662184364163,-0.006203060457785613
1761467025164248600,8.55824853515625,0.13423837457597254,-0.02022022873261012,-0.0029741980717750264
1761467025174231300,8.568231201171875,0.11897592351436614,-0.011707918651495128,0.02407141970146913
1761467025184214300,8.57821435546875,0.11373977642655372,-0.02021190386225935,0.027949708739807826
1761467025194197500,8.588197509765624,0.11209259374141692,-0.01797190638312604,0.030338613170338792
1761467025204181500,8.598181396484375,0.1385802031725645,-0.006479356648516841,0.022818168237362987
1761467025214163200,8.6081630859375,0.12286767025589942,-0.005228182977065444,0.01581107508742716
1761467025224146400,8.618146484375,0.08680266966223717,-0.004084113808744586,0.0033847059682710094
1761467025234129400,8.62812939453125,0.14276830251216888,0.00422161345013883,-0.00864830731858965
1761467025244112400,8.6381123046875,0.1339402684122324,0.012744970081653446,-0.0023972475671907886
1761467025254095400,8.648095458984375,0.08605389712154865,0.01750511542186141,0.031213057917309925
1761467025264078300,8.658078369140625,0.1408195065319538,0.02803539599557407,0.022560211420920677
1761467025274061600,8.6680615234375,0.10505378114581107,0.02260583609435707,0.033177320894715374
1761467025284044500,8.67804443359375,0.11373276216387748,0.03265292256127577,0.01577733264802955
1761467025294027300,8.68802734375,0.1508452259838581,0.003362439337535761,-0.013101359471003524
1761467025304010500,8.698010498046875,0.10071604420244692,-0.02036981610401999,0.012113302848301827
1761467025313993500,8.707993408203125,0.09592647183835507,-0.02150304878449533,0.010576891627837903
1761467025323976200,8.71797607421875,0.13543196827471254,-0.023312682889192363,0.0024197699262527746
1761467025333958400,8.72795849609375,0.11193944900631904,-0.0222845043186564,0.005883774508698843
1761467025343941400,8.73794140625,0.1310954003751278,-0.022964435707102528,-0.016931475685792972
1761467025353924400,8.74792431640625,0.09428513437211512,-0.022215909761586224,-0.017076345782889985
1761467025363907300,8.7579072265625,0.11239245347082615,-0.01738309191081207,-0.03557022108035162
1761467025373890300,8.767890380859376,0.13962883544266222,-0.010902831079997122,-0.02131809327218216
1761467025383873500,8.77787353515625,0.11688508871495723,0.006463405594136566,0.021026782175409608
1761467025393856300,8.787856201171875,0.12676175508499143,0.03286596709033474,0.06127558495947159
1761467025403839200,8.797839111328125,0.11598550952672958,0.034056240887404415,0.08303567267837934
1761467025413822500,8.807822509765625,0.13124679154455662,0.021329902440984733,0.07402652355760801
1761467025423805400,8.817805419921875,0.1385802031725645,0.019916286483127623,0.03253727855866309
1761467025433788400,8.827788330078125,0.09159048846065998,0.009415853058407083,0.0138238833255833
1761467025443771400,8.837771484375,0.10445756881833076,0.004274795808945782,-0.014877392700198106
1761467025453753300,8.84775341796875,0.1376777013748884,0.005148866096581332,-0.009089498047716915
1761467025463736300,8.857736328125,0.12465864532589911,-0.004586190712521784,-0.007498863288830034
1761467025473719300,8.86771923828125,0.10430851573646067,-0.010458092120336368,-0.022367163933697157
1761467025483702500,8.87770263671875,0.12510931170284748,-0.019904217019421046,-0.03376576547427103
1761467025493685500,8.887685546875,0.10775076514482497,-0.029110523546952753,-0.03586601198941935
1761467025503668200,8.897668212890625,0.13438742765784262,-0.01580710673178546,-0.03520939297790173
1761467025513651500,8.9076513671875,0.12406418656408787,0.014214394180243834,-0.00416203788316343
1761467025523634400,8.917634521484375,0.08964695317745208,0.01686106819754932,0.01997528666136786
1761467025533617400,8.927617431640625,0.1281049863874912,0.013201984000997617,0.027655849492922425
1761467025543600400,8.937600341796875,0.15204992559850214,0.011590123790991492,0.0031373527442337943
1761467025553583400,8.947583251953125,0.08171791374385357,-0.011488544846349395,0.01050726045772899
1761467025563565600,8.957565673828125,0.1275081895381212,-0.012941940258746034,-0.009806336513604037
1761467025573548300,8.96754833984375,0.17090718628168106,0.0013255540819140151,0.005095309278438799
1761467025583531300,8.97753125,0.09114858991205692,-0.012115974296000786,0.05848618713638279
1761467025593514500,8.987514404296874,0.11943243511021137,0.008886513688368722,0.06165267921013291
1761467025603497500,8.99749755859375,0.13783786037266255,-0.0024277020709589123,0.06926830987958237
1761467025613480400,9.00748046875,0.10910568688511847,-0.015637791746598666,0.05204708943301811
1761467025623463400,9.01746337890625,0.10670973165929316,-0.005512415879080071,0.012943908453546463
1761467025633446400,9.0274462890625,0.09742986213862895,-0.009277453801291994,-0.012688358223321847
1761467025643429400,9.037429443359375,0.12765607357621192,-0.015777743639983237,-0.048564539980306284
1761467025653412400,9.047412353515625,0.13304302731156348,0.002263529051770456,-0.04639370331382379
1761467025663394800,9.057394775390625,0.0965302829504013,0.016154787658294662,-0.018520146816456688
1761467025673378000,9.0673779296875,0.10924889474809168,0.0187846018723445,0.004093256096425466
1761467025683359700,9.07735986328125,0.1330418582677841,0.016395944036985747,0.014716014426294713
1761467025693343000,9.087343017578124,0.12361468923091888,0.027500426035770215,0.021558884324692187
1761467025703326000,9.097325927734374,0.13034896592199802,0.020859695679927244,0.02830951392895076
1761467025713309000,9.107308837890624,0.1117927340120077,0.01284611520145554,0.039666641814820464
1761467025723292000,9.1172919921875,0.1222667817533016,0.0020889442364219577,0.03592907642142381
1761467025733275000,9.12727490234375,0.12690496294796466,0.0010599162825150415,0.027200602838979102
1761467025743258000,9.137258056640626,0.13947452166378496,-0.002714569888054393,0.02348777002803981
1761467025753241000,9.147240966796875,0.09772387664914131,-0.009544018615875392,0.029272358478582464
1761467025763223800,9.157223876953125,0.11238719277381896,-0.013231164429709315,0.0033303134664893147
1761467025773207000,9.16720703125,0.1319879653006792,-0.011753237364254892,-0.01539963560916949
1761467025783190000,9.17718994140625,0.11792203054726123,-0.0053378721629269415,-0.019404907461465334
1761467025793173000,9.187173095703125,0.12136369543373585,0.00965945712251123,-0.022473460152652114
1761467025803155000,9.197155029296875,0.10939151808917522,0.004936766849015839,-0.02897088218082208
1761467025813138000,9.207137939453125,0.09846738849282265,0.0008133028439944609,-0.004097667410061695
1761467025823121200,9.21712109375,0.1412643276900053,0.0019536182858049867,-0.004553302223072387
1761467025833104000,9.227103759765624,0.11403028380572795,0.0009229828967014328,0.02182467738771811
1761467025843086800,9.2370869140625,0.13123919275999069,-0.00794080293662846,0.022864870623033492
1761467025853070000,9.247070068359376,0.11014029062986373,-0.014100129283964632,0.02591417519105598
1761467025863053000,9.257052978515626,0.12974281672239302,-0.016942809930560177,0.010883473358978516
1761467025873036000,9.2670361328125,0.09727145670652389,-0.013452689092746004,0.005916329638008028
1761467025883019000,9.27701904296875,0.1152268001139164,-0.010608780036866664,0.01320585645851679
1761467025893002000,9.287001953125,0.1334820032507181,-0.002319802983384579,0.02424767588409595
1761467025902985000,9.29698486328125,0.1080418570458889,0.005753458093339577,0.03160114391944371
1761467025912967000,9.306966796875,0.12779577430784703,0.003043112289253622,-0.008175566107151097
1761467025922950100,9.3169501953125,0.10789397300779818,-0.011164756252081133,-0.03968301299430895
1761467025932932900,9.326932861328125,0.12016484103798866,-0.008827627674560062,-0.06470039460926783
1761467025942915800,9.336915771484374,0.13093991755247114,0.001410624849749729,-0.06284531392764765
1761467025952899000,9.346899169921874,0.11657529211342334,-0.0012003020007396116,-0.028713998510036615
1761467025962882000,9.356882080078124,0.12540741786658763,-0.0011292003927519543,-0.0025465655105421318
1761467025972864800,9.36686474609375,0.12092179688513278,0.005671903589996509,0.027378384258411822
1761467025982848000,9.376847900390626,0.09189268627762794,0.006368238123971968,0.06770717977639287
1761467025992831000,9.3868310546875,0.10386369457840919,0.002551360416668467,0.06996796431522816
1761467026002814000,9.39681396484375,0.1409761583983898,0.003791784365242347,0.06421970298681408
1761467026012797000,9.406796875,0.11000000537633896,-0.011576798518537544,0.06577270914905238
1761467026022780000,9.41677978515625,0.11224398491084575,-0.011810086684604175,0.051703367728996086
1761467026032762000,9.42676220703125,0.11179331853389739,-0.0005101734452648088,0.044799091066140675
1761467026042744800,9.436744873046875,0.12915069604814053,0.010045602329308167,0.028734570940607225
1761467026052728000,9.44672802734375,0.12136895613074301,0.011173350550490431,-0.002298787594819441
1761467026062711000,9.4567109375,0.0878466257572174,0.010189253150275909,-0.020318149848864413
1761467026072694000,9.466694091796874,0.12720131554603575,0.0031250321187777444,-0.05084179616332985
1761467026082677000,9.476677001953124,0.14321487723588944,-0.007596441911789588,-0.06078976050417404
1761467026092660000,9.486659912109374,0.0962292541772127,-0.011726659884583204,-0.04602605731151998
1761467026102643000,9.496642822265626,0.11957330488562583,-0.003856876357551664,-0.03935033784068655
1761467026112626200,9.506626220703126,0.12406535560786723,-0.006290939670638181,-0.03512650960057508
1761467026122609000,9.51660888671875,0.1218231296390295,0.004260780983325094,-0.014797116838488727
1761467026132591900,9.526591796875,0.09503799856603146,0.005832491846033371,0.023516009741835295
1761467026142575000,9.5365751953125,0.12047814477086066,0.019446056889183817,0.04666274321328383
1761467026152556800,9.546556884765625,0.1320008247822523,0.010542509867623447,0.07912956861793063
1761467026162540000,9.5565400390625,0.09608546179234981,0.0020037364712683484,0.08350558261191472
1761467026172523000,9.56652294921875,0.14591478384435175,-0.0011388906697044148,0.07961717860493808
1761467026182506000,9.576506103515625,0.11867781735062599,-0.01661163718085736,0.07395687412119005
1761467026192489000,9.586489013671875,0.08320902908444404,-0.021526589490287004,0.05317465955768712
1761467026202472000,9.596471923828124,0.14964812515377998,-0.020488990070857107,-0.010736963860644027
1761467026212455000,9.606454833984374,0.11493220108151435,-0.018833573846914805,-0.04321730633398983
1761467026222438000,9.61643798828125,0.11777590007483958,-0.012020117272669448,-0.060956225945148615
1761467026232420900,9.6264208984375,0.10550444752275943,-0.010936057496163993,-0.0609017740778625
1761467026242404000,9.636404052734376,0.1310954003751278,0.015244280650676227,-0.05593518747931812
1761467026252387000,9.646386962890626,0.10670564000606536,0.02077583505506627,-0.02442009157524444
1761467026262369000,9.656369140625,0.10700549973547457,0.018205555308796466,-0.0013196403643582016
1761467026272352000,9.66635205078125,0.16057809996902941,0.031268482465553096,0.00867411304670386
1761467026282335000,9.6763349609375,0.07722761658728122,0.00953373468387872,0.050806345824035815
1761467026292318000,9.68631787109375,0.11957622749507427,0.010341945794224738,0.050062400155514476
1761467026302301000,9.696301025390625,0.13768413111567496,-0.003975374470953829,0.046187399052805264
1761467026312284000,9.706283935546875,0.10506254897415637,-0.02370538113436196,0.058808441360690626
1761467026322267100,9.71626708984375,0.12526187191605567,-0.018778080800012684,0.05790092089460231
1761467026332249900,9.726249755859374,0.13633388555049897,-0.025791233797976744,0.0430276335473638
1761467026342232800,9.73623291015625,0.10790098727047442,-0.03516870934106409,0.02524677449062001
1761467026352216000,9.746216064453124,0.11687632088661193,-0.03661941960602998,0.005992842640052549
1761467026362199000,9.756198974609376,0.13109130872189997,-0.033233677024720236,-0.017528341033821924
1761467026372182000,9.76618212890625,0.11972001987993716,-0.026306211282522415,-0.03813674253353383
1761467026382164000,9.7761640625,0.09427987367510796,-0.015553250701725483,-0.039191603615018535
1761467026392147000,9.78614697265625,0.12316110024452209,-0.0019203416372882201,-0.04265646214741282
1761467026402130000,9.7961298828125,0.14875029953122137,0.008956971408962271,-0.04711643723095767
1761467026412113000,9.80611279296875,0.09727379479408263,0.03369803400030359,-0.029057724780635907
1761467026422096100,9.81609619140625,0.10715104568600654,0.040985916852997614,-0.025299372327537276
1761467026432079000,9.8260791015625,0.15563596739172936,0.04705510809831321,-0.01318306923797354
1761467026442061800,9.836061767578125,0.09518295999467373,0.029899746829038485,0.035250309510179795
1761467026452045000,9.846045166015625,0.13214637073278426,0.03557923550386913,0.03176341724249068
1761467026462028000,9.856028076171874,0.11838029570877551,0.010259569306974298,0.04441052557339426
1761467026472011000,9.866010986328124,0.1094008704394102,0.005904050111747347,0.055921218319470056
1761467026481994000,9.875993896484376,0.12750760501623154,-0.009131277663097716,0.04493415215527639
1761467026491976000,9.885975830078126,0.10625731171667575,-0.03642308874975424,0.048066851557279
1761467026501959200,9.895959228515625,0.11568214266598224,-0.0395248541573761,0.043138213215791615
1761467026511942000,9.90594189453125,0.14935294159948825,-0.031013019000296477,0.0334689699182054
1761467026521924900,9.9159248046875,0.10236556497514247,-0.026896939150709658,0.03131926280471962
1761467026531908000,9.925908203125,0.09727671740353107,-0.011569811655324884,0.021036294355848802
1761467026541890800,9.935890869140625,0.13049626543819903,0.002429199908301234,-0.007725073260138742
1761467026551874000,9.9458740234375,0.12121873400509357,0.014061957264621741,-0.010774770553805865
1761467026561857000,9.95585693359375,0.11089432386755943,0.036534860294847746,-0.027200333410920572
1761467026571840000,9.965840087890625,0.12660919487178324,0.03378294950451236,-0.03605461163038853
1761467026581823000,9.975822998046874,0.18152853353917597,0.06124723564782179,-0.023678100401791743
1761467026591806000,9.985805908203124,0.10072481203079223,0.05907659534416161,-0.021937225250946355
1761467026601789000,9.995788818359374,0.04430968184769153,-0.026932284458726644,0.011552549993270076
1761467026611771000,10.00577099609375,0.13244681498408317,-0.07753794291177764,0.05264337482573464
1761467026621753900,10.01575390625,0.13469196356236934,-0.06957704246861394,0.1273922532745637
1761467026631737000,10.025737060546875,0.11882803947627543,-0.05719110125796869,0.1410877929461654
1761467026641720000,10.035719970703125,0.13169511983394622,-0.030705332157458177,0.09047019746014848
1761467026651702800,10.045702880859375,0.13977204330563545,-0.023802160606300457,0.03388115374855697
1761467026661686300,10.055686279296875,0.10460486833453178,-0.003097331261099316,-0.03805605567987077
1761467026671669200,10.065669189453125,0.10325696085691452,0.029107756201131266,-0.08152136825844646
1761467026681652200,10.07565234375,0.11971768179237842,0.04476569568661507,-0.09654377261963672
1761467026691635200,10.08563525390625,0.11777473103106022,0.05190386330373585,-0.0638714969039196
1761467026701618200,10.0956181640625,0.10789864918291568,0.06025313287682365,-0.00809671501754783
1761467026711601200,10.10560107421875,0.11193944900631904,0.03270102231958881,0.03347151806831825
1761467026721584400,10.11558447265625,0.1221148060619831,-0.005685653554135933,0.03341636294813361
1761467026731566000,10.125566162109376,0.126005383759737,-0.03286107628608588,-0.009315246794722043
1761467026741549300,10.13554931640625,0.11792553767859935,-0.050351870921649965,-0.029166541750240138
1761467026751532300,10.1455322265625,0.11972177344560622,-0.04301268257340416,0.002661405795556493
1761467026761515300,10.155515380859375,0.11418518210649489,-0.010887414315156638,0.04484783471184783
1761467026771498200,10.165498291015625,0.11283785915076731,0.038535569125390606,0.07055355935057159
1761467026781481200,10.175481201171875,0.12136661804318427,0.055943621947523205,0.06117370005415287
1761467026791464400,10.18546435546875,0.11163842023313045,0.05764913809061981,0.02042795319915749
1761467026801447200,10.195447265625,0.1099894839823246,0.04508622374471742,-0.026979553099977783
1761467026811430100,10.20543017578125,0.13063888877928256,0.026518844819627702,-0.06127914232315961
1761467026821413400,10.215413330078125,0.10370412010252475,0.012151305904285982,-0.06457258524482604
1761467026831396000,10.22539599609375,0.12256079626381397,0.0063303629321511835,-0.04354569803813938
1761467026841379000,10.235379150390624,0.10939385617673396,-0.01442077607307583,0.01146609555252362
1761467026851361300,10.245361328125,0.11971943535804748,-0.026151363214105366,0.05930387846112717
1761467026861344300,10.25534423828125,0.11956862871050834,-0.0357398100601742,0.07127647136421873
1761467026871327200,10.2653271484375,0.11283376749753951,-0.055982931044604625,0.04967411779055837
1761467026881310200,10.275310302734376,0.13303542852699757,-0.07028795808379072,0.03182773291666526
1761467026891293200,10.285293212890625,0.10774608896970748,-0.06307154216526542,0.019007656338764355
1761467026901276200,10.295276123046875,0.12046528528928756,-0.04479030953806359,0.01756958179308567
1761467026911259100,10.305259033203125,0.11986790391802787,-0.019340199061646125,0.02297159610025119
1761467026921242000,10.3152421875,0.16702070023715496,0.02360155543370638,0.01770431408865843
1761467026931225300,10.325225341796875,0.5505728583335876,0.08328734588450752,-0.09231593492468819
1761467026941208000,10.3352080078125,-0.6279945361882447,-0.015790091664902865,0.19368313651224597
1761467026951191300,10.34519140625,0.5972527764439582,0.10963222237671724,-0.15111162183508275
1761467026961173200,10.35517333984375,-0.21813889305591583,0.019792536805872805,0.05920585231359582
1761467026971156200,10.36515625,0.2577110249876976,0.06386617684140801,-0.07718238920606672
1761467026981139200,10.37513916015625,0.052097851505875585,0.028577795776585115,-0.020013910771859808
1761467026991122200,10.3851220703125,0.14771452674269675,0.021803365171630864,-0.030665995660913176
1761467027001105400,10.39510546875,0.20382862815260885,0.010442844318854621,-0.024306525365286505
1761467027011088100,10.405088134765625,0.058523500639200206,-0.029941636042273602,0.02526782184522599
1761467027021071000,10.415071044921875,0.14860475358068942,-0.038019838155596515,0.03236426007931586
1761467027031054300,10.425054443359375,0.17539280726313589,-0.046515480229700916,0.03520722385370172
1761467027041037300,10.435037353515625,0.07887421475052833,-0.06505126757328399,0.05508735217805952
1761467027051020000,10.44502001953125,0.1376823775500059,-0.037780389676801855,0.04883988632296678
1761467027061003300,10.455003173828125,0.12092296592891215,-0.03462110822855029,0.06434354399561416
1761467027070986200,10.464986328125,0.10865209789872168,-0.020583125494560227,0.07180773326328489
1761467027080968200,10.47496826171875,0.13588555726110935,-0.02047312121486757,0.05195726485825143
1761467027090951200,10.484951171875,0.11897475447058677,-0.013456018127570859,0.02950573797619436
1761467027100934100,10.49493408203125,0.119871411049366,0.00655517553081736,-0.011698516068910248
1761467027110917400,10.50491748046875,0.11523147628903388,0.0195698978979839,-0.03327397706906777
1761467027120900000,10.514900146484376,0.1225637188732624,0.027076309739029965,-0.04112034318789374
1761467027130883300,10.52488330078125,0.12061959906816482,0.020498045593569984,-0.03868496926713269
1761467027140866300,10.5348662109375,0.10445932238399983,0.033025281271315175,-0.02882085185141768
1761467027150849000,10.54484912109375,0.12870061419308185,0.028857516900263724,-0.003807571022841148
1761467027160832300,10.554832275390625,0.1210690964013338,0.038181225562654436,0.016837842585588805
1761467027170815200,10.564815185546875,0.11792670672237872,0.03318410226195119,0.02798002167968079
1761467027180798200,10.574798095703125,0.11717910322546958,0.008353388625779189,0.018765385715221055
1761467027190780200,10.5847802734375,0.1243628772497177,-0.004877944767288863,0.00010349234051536768
1761467027200763100,10.59476318359375,0.11418693567216395,-0.020794617387349716,-0.013725802379124796
1761467027210746400,10.604746337890624,0.11179331853389739,-0.02120814379141666,-0.002873788170912303
1761467027220729000,10.61472900390625,0.12975100002884865,-0.03419698736523278,0.021535384718095883
1761467027230712000,10.624712158203126,0.10790449440181255,-0.04155722306808456,0.03937801586547866
1761467027240695300,10.6346953125,0.1138929211616516,-0.03350594092772808,0.0398400438866578
1761467027250678300,10.64467822265625,0.16793255438506602,-0.02150146874876227,0.017669087511650285
1761467027260661200,10.6546611328125,0.5392150134950876,0.02871926834019832,-0.08870212834170088
1761467027270644200,10.664644287109375,-0.6124123516529798,-0.08116971440971829,0.20157237365841865
1761467027280627200,10.674627197265625,0.6004179624766111,0.07532692493195645,-0.11767686928031033
1761467027290610400,10.6846103515625,-0.2380161444365978,-0.0018052273576380684,0.10479540420426055
1761467027300593200,10.69459326171875,0.23873043018579482,0.05047356563913635,-0.04437575108753517
1761467027310575400,10.704575439453125,0.01336392396390438,0.02168296736208722,-0.0008755361589370294
1761467027320558300,10.714558349609375,0.0717079763829708,0.01654761833420489,-0.009913664779020472
1761467027330541000,10.724541015625,0.17988661155104635,0.026073224510555153,-0.022952311444468795
1761467027340524300,10.734524169921874,0.22403321179151534,0.021720787754980847,-0.03355801817483734
1761467027350507300,10.74450732421875,0.09713935475945472,-0.01609794290452264,0.006510697068274021
1761467027360490200,10.754490234375,0.09728899236321449,-0.023310317402170037,0.016175766514241696
1761467027370473200,10.76447314453125,0.15639584584832192,-0.025542496901028788,0.01774688828848302
1761467027380456200,10.774456298828126,0.08262158458530902,-0.04679339755536057,0.051819783483166244
1761467027390439200,10.784439208984375,0.14981003771722315,-0.04268469729463104,0.036337643522582945
1761467027400422400,10.79442236328125,0.11733867770135402,-0.030227777773584236,0.03352050374262035
1761467027410405000,10.804405029296875,0.10925766257643699,-0.01776852016497869,0.030443146690470164
1761467027420387300,10.81438720703125,0.13125497485101223,-0.014631254185712896,0.00936597690153867
1761467027430370300,10.824370361328125,0.11030629484653472,-0.010725643315608612,0.01852058064129669
1761467027440353300,10.834353271484375,0.11703940249383449,-0.0009760191250359638,0.025718173128343187
1761467027450336300,10.844336181640625,0.14382511808872223,0.012671014362876303,0.017021432691300287
1761467027460319200,10.8543193359375,0.11509352912306785,0.008661125700967385,0.03941069885895122
1761467027470302200,10.86430224609375,0.13305062609612942,0.024580771162826566,0.030962421324220484
1761467027480285200,10.87428515625,0.11629062995314597,0.018334282555268144,0.004835699361027218
1761467027490268200,10.88426806640625,0.09953063381016254,0.010944966888404451,-0.004151895515061915
1761467027500251400,10.89425146484375,0.13514379898309706,0.001942959894472733,-0.011872233234578743
1761467027510234000,10.904234130859376,0.10506722514927387,0.001848313014116138,-0.010274333051266148
1761467027520217000,10.914217041015625,0.12167758368849754,-0.002577188977668993,-0.00875996926582884
1761467027530200300,10.924200439453125,0.12407236987054347,-0.0028742128625977785,-0.011822599106305278
1761467027540182000,10.93418212890625,0.1138970128148794,-0.0063370392681099475,-0.013608441343461163
1761467027550165200,10.944165283203125,0.12841244490146636,-0.006138000431517139,-0.010950565512129105
1761467027560148200,10.954148193359375,0.11584347070753574,-0.005317464129137806,-0.010708304021740332
1761467027570131200,10.964131103515625,0.09998305375277995,-0.004797933767060749,0.008265157786477356
1761467027580114200,10.9741142578125,0.11793898168206214,-0.007617544065322727,0.022133186214463783
1761467027590097200,10.98409716796875,0.12092998019158839,-0.00217269069685135,0.043720885641686615
1761467027600080100,10.994080078125,0.12556816138625143,0.005148213076032698,0.05867156734038144
1761467027610063400,11.0040634765625,0.12870938202142715,-0.004796362864482216,0.059922882575728
1761467027620046000,11.014046142578126,0.11928104394078254,-0.014864336855802684,0.04363779220180586
1761467027630029300,11.024029296875,0.12392039417922496,-0.009056965751294046,0.02426019743895158
1761467027640012300,11.03401220703125,0.11149988854527473,-0.00498651057514362,0.010878198962239547
1761467027649995300,11.043995361328125,0.11269698937535286,-0.006059861727966927,-0.011849491679808125
1761467027659977200,11.053977294921875,0.1242190848648548,-0.0017999164282809941,-0.014221129881707019
1761467027669960200,11.063960205078125,0.1117974101871252,-0.0010556876319693402,0.00047858643033541734
1761467027679943400,11.073943359375,0.11793372098505496,0.0031194745942484587,0.00910506094302982
1761467027689926100,11.083926025390625,0.12287059286534785,-0.0018260372502263635,0.019420968113699928
1761467027699909000,11.0939091796875,0.11209493182897567,-0.00591511036187876,0.02248285816865973
1761467027709892400,11.103892333984374,0.14726035323441028,-0.00048442708265502004,0.013177799407811835
1761467027719875300,11.113875244140624,0.12705927672684192,-0.0022422077025286854,0.02048679811377078
1761467027729858000,11.123858154296874,0.10775427227616309,0.006892741488688625,0.02171551792481914
1761467027739841300,11.13384130859375,0.1294517248213291,0.007032369155087508,0.020231649742345325
1761467027749824300,11.14382421875,0.11448913348913192,0.0052201640673913054,0.013367846653773448
1761467027759807200,11.15380712890625,0.1258615913748741,-0.014813688947376794,0.0004108412566361949
1761467027769789200,11.1637890625,0.11868073996007442,-0.002679567073332146,-0.00908614161342848
1761467027779772200,11.173772216796875,0.10506430253982543,-0.0038178960540331897,-0.0007288257312029599
1761467027789755100,11.183755126953125,0.1177840833812952,-0.008404516024817713,0.004366666210326366
1761467027799738000,11.193738037109375,0.11868366256952285,-0.0067045528396731235,0.010394612129800952
1761467027809721300,11.203721435546875,0.11225158369541167,-0.0021302854603854936,0.01705737622093875
1761467027819704300,11.213704345703125,0.13843991791903973,-0.007717670838395133,0.02525915448158048
1761467027829687000,11.22368701171875,0.12168109081983565,0.0033961817769333717,0.029400455537391824
1761467027839670300,11.233670166015624,0.11973463292717933,0.010521553844562732,0.031408539390214714
1761467027849653200,11.2436533203125,0.11315291644930839,0.007640084690693765,0.012641030216566287
1761467027859636200,11.25363623046875,0.6429167955100537,0.06426770228042733,-0.08628936811154708
1761467027869619200,11.263619140625,-0.5081213715732097,-0.05623306074761785,0.17702703913515433
1761467027879602200,11.273602294921876,0.2803366982936859,0.044582343042921274,-0.013779742789757438
1761467027889584400,11.28358447265625,0.22361878577172756,0.029010552037507294,-0.013859598526358603
1761467027899567000,11.293567138671875,-0.17247662755548954,-0.028490099226823076,0.05184054770998191
1761467027909550000,11.303550048828125,0.3276104906439781,0.019030900217033922,-0.09964077965375036
1761467027919533300,11.313533203125,-0.09348083225190638,-0.046808636223687784,0.007422368553094565
1761467027929516300,11.323516357421875,0.2478384502708912,-0.017994816901255397,-0.06577805204445031
1761467027939499300,11.333499267578125,0.032497663500905036,-0.03608885182670783,0.03132080174125731
