time,seconds_elapsed,z,y,x
1761466832270398500,0.1173984375,0.11874445284605026,0.002577920771675417,-0.014384455800813156
1761466832280381400,0.12738134765625,0.12802198427915573,-0.00500967796324403,0.0007808481793850659
1761466832290365200,0.137365234375,0.13056699258685112,0.0052994421319686805,0.015495442400150931
1761466832300348200,0.14734814453125,0.1241325756251812,-0.011148265199939486,0.020219194402860012
1761466832310332400,0.15733251953125,0.10437982740700244,-0.019342802010686135,0.022428890358563512
1761466832320316400,0.16731640625,0.13864742318987847,-0.012701720028393901,0.012270995894353836
1761466832330299400,0.17729931640625,0.12383388493955134,-0.010398110127984545,-0.005293051207088865
1761466832340283400,0.187283447265625,0.1136579433619976,-0.015140781460294964,-0.005556298403290565
1761466832350266000,0.19726611328125,0.12817220640480517,-0.0077150998553959646,0.008386560243018903
1761466832360250000,0.20725,0.13251111239194868,-0.01870267062637722,0.019274353584088383
1761466832370234400,0.217234375,0.1254781450152397,-0.010341864737478317,0.015410887655545956
1761466832380217300,0.22721728515625,0.12278466814756393,-0.019305721403309144,-0.0023574772458057848
1761466832390201300,0.237201416015625,0.13251052787005901,0.002536030416795984,-0.013554293153563048
1761466832400184300,0.247184326171875,0.09959025504291057,0.014810416994767728,-0.01898784196001943
1761466832410168300,0.257168212890625,0.11365443623065948,0.011473984314745757,-0.017823099896428173
1761466832420152300,0.26715234375,0.12532500028014182,0.01664366943706991,-0.018376174051791896
1761466832430135300,0.27713525390625,0.10766776303648948,0.01006831534297089,-0.0240688441518927
1761466832440119300,0.287119384765625,0.1314607265561819,0.007224406287091551,-0.032872298649710134
1761466832450102300,0.297102294921875,0.1239794308900833,0.004874347446049796,-0.03299272385871736
1761466832460086300,0.307086181640625,0.1147030685007572,0.00047148768597980956,-0.021015813256823456
1761466832470069500,0.317069580078125,0.1254781450152397,-0.013928025261714355,-0.012774239558621775
1761466832480053500,0.327053466796875,0.12847148161232472,-0.0233308213340817,0.007271306177228689
1761466832490037500,0.33703759765625,0.1166506954371929,-0.039165838986099696,0.01441146025545895
1761466832500020200,0.347020263671875,0.12428221322894095,-0.04151632936869282,0.022005139388004316
1761466832510004200,0.357004150390625,0.13086685231626033,-0.03204171131077455,0.037817088974977375
1761466832519987500,0.366987548828125,0.11994330724179744,-0.031385046633484306,0.04189967983020469
1761466832529967600,0.376967529296875,0.11680033304095268,-0.021779440873349085,0.028127471892931497
1761466832539951600,0.38695166015625,0.1371510471522808,-0.01713283091870253,0.02512523960333783
1761466832549934600,0.3969345703125,0.12203706465065478,0.0004699567409523297,0.03814673420458566
1761466832559918600,0.406918701171875,0.11949264086484908,0.006047808247280772,0.028705561758542896
1761466832569901600,0.416901611328125,0.13221125266253947,0.016026386922097298,0.003970748528186231
1761466832579885600,0.426885498046875,0.11934183421730994,0.01797541693939711,-0.012520997733203693
1761466832589869600,0.43686962890625,0.10602233391702175,0.009032105304673313,-0.024362061794672627
1761466832599852500,0.4468525390625,0.11380232026875019,0.00035147346892626955,-0.04600979116330854
1761466832609836500,0.45683642578125,0.15136194333434105,-0.0012067945319635327,-0.046441871570795774
1761466832619819500,0.466819580078125,0.14642507145404815,-0.0034323650518781504,-0.0375328674894059
1761466832629803800,0.4768037109375,0.07848901482522487,-0.010142405775777297,-0.016132731090113518
1761466832639787800,0.486787841796875,0.12637363255023956,-0.004707883146719541,-0.021265255689958573
1761466832649770500,0.4967705078125,0.12966624435484408,-0.0046415947111672715,-0.01217975339734694
1761466832659754500,0.50675439453125,0.11260814204812049,-0.0028230215314775705,-0.004154550979740452
1761466832669737500,0.516737548828125,0.11051321559548377,-0.009089729801513022,0.005570566673949361
1761466832679721500,0.526721435546875,0.13969313285052776,-0.006102405103394994,0.0196064008333371
1761466832689704700,0.53670458984375,0.0793891785353422,-0.0060951784948760175,0.012623864452634005
1761466832699688700,0.546688720703125,0.13236030574440955,-0.010053775360964936,-0.01810159261082299
1761466832709672700,0.556672607421875,0.1302671328574419,-0.0007547969977429602,-0.019416666397918014
1761466832719655400,0.566655517578125,0.11844634668231009,0.006931287967367097,0.018606745104386934
1761466832729639400,0.576639404296875,0.12428279775083065,0.002364770069695078,0.06626918286252767
1761466832739622700,0.58662255859375,0.12966858244240284,-0.011420132952369749,0.07555878832591698
1761466832749606700,0.596606689453125,0.1429851601332426,-0.019084147649566875,0.041170022981939836
1761466832759590700,0.606590576171875,0.13310790924131868,-0.011766061454854206,-0.005153302526392508
1761466832769573600,0.61657373046875,0.10377776986062526,-0.018683494426804826,-0.04294371812357567
1761466832779557400,0.626557373046875,0.14148703052997588,-0.013346341499796835,-0.060390591419022525
1761466832789540600,0.63654052734375,0.12338146499693393,-0.002872100820613559,-0.035767606815975156
1761466832799524600,0.646524658203125,0.11769465153217315,-0.010819702249142573,-0.008742483841488137
1761466832809508600,0.656508544921875,0.11829261742532253,-0.014261675379582447,0.005338913342542946
1761466832819491600,0.66649169921875,0.13939151955544948,-0.004404976368631469,0.0014483059620368293
1761466832829475600,0.6764755859375,0.1296656598329544,-0.011104678361606784,0.001631352645053994
1761466832839458600,0.68645849609375,0.12038812839984893,-0.0026681494885298887,-0.001137271818064619
1761466832849442600,0.696442626953125,0.12816986831724642,-0.013483871965587604,0.012541273336252197
1761466832859425500,0.706425537109375,0.13071370758116244,-0.002159229568723822,0.012807632654858752
1761466832869409500,0.716409423828125,0.13639993652403354,-0.010080659942957572,0.011669246591941919
1761466832879393500,0.7263935546875,0.11844400859475135,-0.016624425880482886,0.01709692734661512
1761466832889376800,0.736376708984375,0.11515256583392619,-0.014440236542082856,0.026429787429841235
1761466832899360800,0.74636083984375,0.15166355662941933,-0.02300266709194984,0.019518510204041377
1761466832909343500,0.756343505859375,0.09988894572854042,-0.011427700912539147,-0.0005048510994645766
1761466832919327500,0.766327392578125,0.13969254832863806,-0.00330525551540195,-0.02593061943578068
1761466832929311500,0.7763115234375,0.119940384632349,0.0050466603892098645,-0.043406166269863024
1761466832939294500,0.78629443359375,0.13385668178200721,0.01838377283635782,-0.03356700291560264
1761466832949278700,0.79627880859375,0.1256271980971098,0.011651111571985529,-0.024023351909196935
1761466832959261700,0.80626171875,0.12877017229795454,0.008730568499764195,-0.008763617961062118
1761466832969245700,0.81624560546875,0.11799684934914112,-0.005614035922917537,-0.01058410453662509
1761466832979229700,0.826229736328125,0.11036533155739307,-0.0054920215450227254,-0.018410437080997506
1761466832989212400,0.83621240234375,0.12652677728533743,-0.02209864919062238,-0.013454360460024326
1761466832999196400,0.846196533203125,0.13251286595761774,-0.021152445248537696,-0.00039665290107950566
1761466833009179600,0.8561796875,0.13116612752377987,-0.022501658767252228,0.019085308701836036
1761466833019163600,0.86616357421875,0.11590309194028377,-0.02740217155937571,0.026290178029751404
1761466833029146600,0.876146728515625,0.12847265065610408,-0.030162736013624816,0.03458854624937521
1761466833039130600,0.886130615234375,0.122786421713233,-0.025112971493520306,0.036947491649771104
1761466833049114400,0.8961142578125,0.13356149822771549,-0.028351222762383985,0.022727665525872725
1761466833059097600,0.90609765625,0.11111527314186095,-0.017397287116234655,0.007021254106028937
1761466833069081600,0.91608154296875,0.10108721560239792,-0.006807909324514912,-0.010182291403238196
1761466833079064600,0.926064697265625,0.14403320788145063,-0.004716998034936842,-0.021662520512391346
1761466833089048600,0.936048583984375,0.14792378557920455,0.0030478889290709047,-0.02778250123002799
1761466833099032600,0.946032470703125,0.0828320124655962,0.004287275122961728,-0.021950559656554833
1761466833109015600,0.956015625,0.13266191903948782,0.0021803979376272763,-0.023042273016553372
1761466833118999600,0.96599951171875,0.12592881139218806,0.0013530083444202319,-0.04019651547439862
1761466833128982500,0.975982421875,0.1277256316810846,0.01116588077173219,-0.02823909502426395
1761466833138966500,0.985966552734375,0.12578092735409735,0.005608577721443725,-0.0013837254263809882
1761466833148949500,0.995949462890625,0.12428455131649971,0.014021288469160207,0.034167272646981287
1761466833158933800,1.005933837890625,0.11889759758114814,-0.006267949237406719,0.06198088368461467
1761466833168917800,1.015917724609375,0.12488310173153877,-0.006549557499139337,0.04984209933518432
1761466833178900500,1.025900390625,0.1135100593239069,-0.0053587300045765006,0.030308480610267724
1761466833188884500,1.035884521484375,0.13505845878720282,-0.007487218516808934,-0.006597085293650161
1761466833198867500,1.045867431640625,0.12338614117205142,-0.01337965696422034,-0.015347156503261065
1761466833208851500,1.0558515625,0.12203881821632384,-0.02669609194952063,-0.01974422926829429
1761466833218835700,1.065835693359375,0.13206512219011782,-0.01985040903952904,0.003679289017652627
1761466833228818700,1.075818603515625,0.1283241820961237,-0.019552828032174147,0.019268793776270467
1761466833238802700,1.085802734375,0.11665303352475166,-0.026734702360280787,0.024679103271034546
1761466833248785400,1.095785400390625,0.12159048992693423,-0.006503323187638307,0.014967205858521628
1761466833258769400,1.105769287109375,0.12084230190813541,-0.0056811600421089676,-0.010765192157996352
1761466833268752600,1.115752685546875,0.11650222687721251,-0.008897278252622345,-0.025372024288505778
1761466833278736600,1.125736572265625,0.12069207978248596,0.003865515180089278,-0.031429938371269964
1761466833288720600,1.135720703125,0.12892273251116276,-0.003672560166055336,-0.02109118004797492
1761466833298703600,1.14570361328125,0.13326280754208564,-0.0022120043605100364,-0.010386705101269763
1761466833308687600,1.1556875,0.12922259224057198,0.009081154911057092,0.008952064621692988
1761466833318670600,1.165670654296875,0.12458324200212954,-0.0001778213769837748,0.01466938738914905
1761466833328654600,1.175654541015625,0.12054302670061588,0.0052665513592306526,0.02363785515637137
1761466833338638600,1.185638671875,0.12488251720964907,0.0030824133948248343,0.01075157462459756
1761466833348621600,1.19562158203125,0.1314654027312994,0.00904276027107262,0.001678612153150607
1761466833358605600,1.20560546875,0.12817279092669487,0.007503005174407735,-0.00842281429991126
1761466833368588800,1.2155888671875,0.12398293802142142,-0.004515719292196445,-0.009746646782197058
1761466833378572500,1.225572509765625,0.13999416162371633,-0.012454498093453002,-0.008145714391581713
1761466833388555500,1.235555419921875,0.12652677728533743,-0.018941714963084087,-0.004352041746641043
1761466833398539500,1.24553955078125,0.11186170759499073,-0.022200264667882583,-0.015409284786926582
1761466833408523500,1.2555234375,0.12338380308449268,-0.026183831578446552,-0.018188821086415553
1761466833418506500,1.265506591796875,0.1335609137058258,-0.03228439520956017,-0.015700885861355346
1761466833428490800,1.27549072265625,0.12338555665016174,-0.036077218471129886,-0.010685998575098346
1761466833438473500,1.285473388671875,0.1196446165561676,-0.03132920424342155,-0.01656629335192265
1761466833448457500,1.29545751953125,0.12997019573748111,-0.024338628403446635,-0.0072647257393924514
1761466833458441500,1.30544140625,0.12847440422177314,-0.027910867716895882,-0.003051503374974709
1761466833468424400,1.315424560546875,0.1260807870835066,-0.02493489781314274,0.00365688082302222
1761466833478408400,1.325408447265625,0.12967267409563063,-0.014027550388232338,0.015398019040818325
1761466833488391700,1.3353916015625,0.11829904716610908,-0.002613381385768298,0.013834413852752185
1761466833498375700,1.345375732421875,0.13206512219011782,0.00229102213018341,0.01101452042669989
1761466833508358400,1.3553583984375,0.14613164146542548,0.007648814844776643,0.00378698717582738
1761466833518342400,1.36534228515625,0.11979483868181705,-0.0017140225348935927,0.011625957722775637
1761466833528330500,1.37533056640625,0.1221890403419733,-0.0009885030056291724,0.005588874082197435
1761466833538313700,1.385313720703125,0.12682839058041573,0.0031467461936641483,0.007373590658057946
1761466833548297700,1.395297607421875,0.0966004255771637,0.002378964133473346,0.011034643049410079
1761466833558280700,1.40528076171875,0.12637772420346735,0.010134133421065053,0.01218886828556424
1761466833568264700,1.4152646484375,0.1465799697548151,0.004883408676984254,0.002086313887918368
1761466833578248700,1.425248779296875,0.12682839058041573,-0.010781121521134628,0.0177169977570069
1761466833588231700,1.435231689453125,0.1160538985878229,-0.001589665502862772,0.018456639426457696
1761466833598215700,1.445215576171875,0.14179156643450258,-0.0011472052652563432,-0.018642113245290238
1761466833608198700,1.45519873046875,0.12054302670061588,0.0018483335637138223,-0.02733627356617944
1761466833618182700,1.4651826171875,0.14328794247210025,0.011944293823791667,-0.021374358070641756
1761466833628165600,1.47516552734375,0.11066811389625072,0.0036853237495059147,-0.009829016419581603
1761466833638149600,1.485149658203125,0.14209317972958088,-0.009455921348958509,0.0030261497380095533
1761466833648133600,1.495133544921875,0.12159341253638267,-0.02021083984975703,0.02706027191968169
1761466833658116600,1.50511669921875,0.12144435945451258,-0.038810974833555514,0.010355668358900583
1761466833668100600,1.5151005859375,0.13236848905086518,-0.03791392324584303,-0.010470775788684841
1761466833678083600,1.52508349609375,0.1096229887574911,-0.030169996871473266,-0.00032782544856891033
1761466833688067600,1.535067626953125,0.12727964147925377,-0.029094928685599004,-0.004014411856688094
1761466833698050800,1.54505078125,0.1370066702455282,-0.02859682470404077,0.011297776081180199
1761466833708034600,1.55503466796875,0.1278787764161825,-0.03589308722601272,0.03950581609676592
1761466833718018600,1.5650185546875,0.09585574468970298,-0.015885494313796517,0.05081111789727583
1761466833728001500,1.57500146484375,0.14149462931454182,-0.012894292591582052,0.03956212656099815
1761466833737985500,1.584985595703125,0.1349105747491121,-0.011623925595893524,0.022980162999196908
1761466833747968800,1.59496875,0.11919745731055736,0.0052223571661219464,-0.006405985451629385
1761466833757952800,1.604952880859375,0.11530571056902408,-0.007348629746737424,-0.02366649216238875
1761466833767935500,1.614935546875,0.1564566361248493,0.0048997022246592675,-0.03843473453284241
1761466833777919500,1.62491943359375,0.11470540658831596,-0.0004734250563837122,-0.018237069258489644
1761466833787903500,1.634903564453125,0.11096329745054244,-0.0035371017846977334,-0.026431447380676397
1761466833797886700,1.64488671875,0.16378770966529846,0.00011945595298311672,-0.03292122495850781
1761466833807870700,1.65487060546875,0.11276187130510806,-0.011369716797739965,-0.015612988382193724
1761466833817853700,1.664853759765625,0.1557078635841608,-0.01838106371439644,-0.001859297915722709
1761466833827837700,1.674837646484375,0.05889233395159244,-0.021329288236342836,0.022066498203400987
1761466833837821700,1.68482177734375,0.14508300919532774,-0.027259493419365025,0.020400693016184957
1761466833847804700,1.6948046875,0.12158990540504455,-0.019313801961776334,0.01472695137884002
1761466833857788700,1.70478857421875,0.1435872176796198,-0.011293150138412601,0.01077648758685682
1761466833867771600,1.714771728515625,0.13221534431576729,0.0029328648393217006,0.012824939982686192
1761466833877755600,1.724755615234375,0.10258592972755431,0.0006163680578756611,0.027993093507096636
1761466833887738600,1.734738525390625,0.11874562188982962,0.012277221280807861,0.018805589861446058
1761466833897722600,1.74472265625,0.14223814115822314,0.02034210839647567,-0.00132846527491929
1761466833907706600,1.75470654296875,0.10228373191058635,0.025353296755149492,-0.026435899793507994
1761466833917689600,1.764689697265625,0.1251782852858305,0.025180513454531317,-0.04211928653079085
1761466833927673600,1.774673583984375,0.14298574465513228,0.03041681580597069,-0.05171886212565004
1761466833937656600,1.784656494140625,0.10856968031227587,0.006185248523170594,-0.030214616897911762
1761466833947640600,1.794640625,0.12353344068825244,-0.005674724593100837,0.010508696646278258
1761466833957623800,1.804623779296875,0.12233633985817431,-0.0033376451062853444,0.026692687566170933
1761466833967607800,1.81460791015625,0.14134090005755423,-0.00995211764286505,0.0229858872037963
1761466833977591600,1.824591552734375,0.1123117894500494,-0.015220206796989077,0.013978678878361824
1761466833987574500,1.834574462890625,0.11919511922299861,-0.015786176966544007,0.008969798924494534
1761466833997558500,1.84455859375,0.12847206613421439,-0.011965784136392175,-0.01817445235105697
1761466834007541800,1.854541748046875,0.12383271589577197,-0.012910787068656645,-0.03738794487667037
1761466834017525800,1.86452587890625,0.11694938612282275,-0.01641354590904666,-0.03887392053455114
1761466834027508700,1.8745087890625,0.1411906779319048,-0.02237599569412414,-0.026866251751501112
1761466834037492500,1.884492431640625,0.12473171056210994,-0.02860182510614395,0.0011966898381244391
1761466834047476500,1.8944765625,0.11724983037412166,-0.03221968680974096,0.024035989911772776
1761466834057459700,1.904459716796875,0.12847206613421439,-0.027374703597137704,0.023547505425219422
1761466834067443700,1.914443603515625,0.11171148546934127,-0.01331912013273104,0.020351284933486022
1761466834077426700,1.9244267578125,0.12667583036720753,-0.01191008331022458,0.005644344296213239
1761466834087410700,1.93441064453125,0.12158815183937549,-0.005475231382070342,0.012788112820347305
1761466834097393400,1.944393310546875,0.1316132867693901,0.005130788158840732,0.002779234905389603
1761466834107377400,1.95437744140625,0.12368190924823283,-0.006179879369953414,0.0025823651929968035
1761466834117361700,1.964361572265625,0.11395488048195838,0.0036885237785230854,-0.0013152952660922892
1761466834127344600,1.9743447265625,0.13355740657448767,0.00823615659592324,-0.016549929022300056
1761466834137328600,1.98432861328125,0.13191139293313026,0.006308921710256254,-0.01383881831652252
1761466834147311600,1.9943115234375,0.1295177757948637,0.00007424112985609099,-0.022969063933158756
1761466834157295600,2.004295654296875,0.11500234370827674,-0.000049033623363357036,-0.010006176784506533
1761466834167278600,2.014278564453125,0.12308335883319377,-0.006919684294541366,-0.01718272876681294
1761466834177262600,2.0242626953125,0.12577683570086956,-0.0024000388875429052,-0.006142751955159474
1761466834187246600,2.03424658203125,0.13759879091978072,-0.014589391230297042,-0.010054329058458097
1761466834197229600,2.0442294921875,0.12308394335508346,-0.01733159690230386,-0.0024865104529540986
1761466834207213600,2.054213623046875,0.10752163256406784,-0.015004620967683149,-0.005708365426154341
1761466834217196800,2.06419677734375,0.12562778261899948,-0.011168608160002622,-0.016424268232460598
1761466834227180800,2.074180908203125,0.12697452105283735,-0.007880749020684743,-0.015788927187700755
1761466834237163500,2.08416357421875,0.10647358481585979,-0.0161873827451549,-0.003356863546697423
1761466834247147500,2.0941474609375,0.12667583036720753,0.0027751775014912706,0.0054202943159500135
1761466834257131500,2.104131591796875,0.12278525266945362,0.003205938168149441,0.02910593185351463
1761466834267114800,2.11411474609375,0.1302671328574419,-0.0006734810980618931,0.02523208381156437
1761466834277098800,2.1240986328125,0.13535481138527392,0.004089584568305872,0.014363205233518965
1761466834287081700,2.134081787109375,0.12278525266945362,0.002532385146495653,0.014405425523605662
1761466834297065700,2.144065673828125,0.11350655219256878,-0.0020192502758756745,0.00464978715077741
1761466834307048400,2.15404833984375,0.13490414500832557,-0.0036644841741654086,0.009020428566611371
1761466834317032400,2.164032470703125,0.14687456878721714,0.005424213580886135,0.0022201648340793327
1761466834327016700,2.1740166015625,0.12218377964496611,-0.005487900209042709,-0.00488289950361941
1761466834336999700,2.183999755859375,0.11679624138772488,-0.0012666349604201967,-0.01571233655384276
1761466834346983700,2.193983642578125,0.13849427845478057,-0.00986980622934061,-0.025933281750325114
1761466834356966700,2.203966552734375,0.12383037780821322,-0.022825369729707015,-0.018294130924681667
1761466834366950400,2.213950439453125,0.1164987197458744,-0.0205100602583494,-0.003813824950403068
1761466834376934700,2.2239345703125,0.1160498069345951,-0.02379169857779052,0.0039516008697217326
1761466834386917600,2.233917724609375,0.1286193656504154,-0.01781374754619319,0.013816524286323692
1761466834396901600,2.243901611328125,0.12832067496478558,-0.020716720712394453,0.020705329385411458
1761466834406884600,2.253884521484375,0.11066226867735385,-0.021482553985738194,0.012681492374406661
1761466834416868600,2.26386865234375,0.14163783717751502,-0.006482808980927802,0.0072572890683193685
1761466834426851600,2.2738515625,0.11814473338723182,-0.006764581639441894,0.013574475141777656
1761466834436835600,2.283835693359375,0.11395312691628932,-0.007350625341001432,0.018422253099665976
1761466834446819600,2.293819580078125,0.1554027431577444,0.005313544864201685,0.008825090940890368
1761466834456802600,2.303802490234375,0.11889116784036159,0.004862467495299643,0.014927490336063783
1761466834466786600,2.31378662109375,0.10647007768452167,0.005864271798852132,0.008219309350755065
1761466834476769800,2.323769775390625,0.14567512986958026,0.0029932384156738405,-0.020378677547199183
1761466834486753800,2.33375390625,0.1268202072739601,-0.0008848816593061201,-0.009571815371676347
1761466834496736500,2.343736572265625,0.11903905187845229,0.00324549271875876,-0.0013491678529419003
1761466834506720500,2.353720458984375,0.121133978331089,0.001359234872518573,0.00039270052845822646
1761466834516704500,2.36370458984375,0.12891513372659683,-0.00463078105620807,-0.001413307713891845
1761466834526683600,2.37368359375,0.12577274404764174,-0.014137870903400471,-0.012358212953503244
1761466834536667600,2.383667724609375,0.1277186174184084,-0.0033098825998138636,-0.010078280756203458
1761466834546650400,2.393650390625,0.11589783124327659,-0.004942139427165967,-0.006442645933898166
1761466834556634400,2.40363427734375,0.11514964322447777,-0.0021916625420912166,-0.021989081019058356
1761466834566617600,2.41361767578125,0.134603116235137,0.006132882440049434,-0.01689507093185093
1761466834576601600,2.4236015625,0.12038812839984893,-0.007824876947869779,0.009632254021754487
1761466834586585600,2.433585693359375,0.10377776986062526,-0.0029678790704871063,0.01737253398417961
1761466834596568600,2.443568603515625,0.11664601926207542,-0.007136411768163088,0.014095804735296405
1761466834606552600,2.453552490234375,0.14507774849832056,-0.014953000378300203,-0.009749937001115176
1761466834616535600,2.46353564453125,0.14867080455422402,-0.002303558526415145,-0.016205940173508133
1761466834626519600,2.47351953125,0.08761866222023963,-0.016857364703388885,-0.00016339898434234782
1761466834636502500,2.48350244140625,0.09659516488015651,-0.013774983274604892,-0.004022478715423494
1761466834646486500,2.493486572265625,0.16408347774147986,-0.008150020673940888,-0.0012475934748770669
1761466834656469500,2.503469482421875,0.10916706168353557,-0.013501661067316309,0.025968971834925466
1761466834666453500,2.51345361328125,0.10796996085345745,-0.014764957859757122,0.038017671314685135
1761466834676437500,2.5234375,0.15121464381814,-0.010807532320736208,0.01099371738397749
1761466834686420500,2.53342041015625,0.1308627606630325,-0.012473879789002239,0.007203837281453888
1761466834696404500,2.543404541015625,0.14253507827818393,-0.013588035592960658,0.003277923408837523
1761466834706387500,2.553387451171875,0.10871756435036659,-0.006889630507928086,0.018713048173207788
1761466834716371500,2.563371337890625,0.13714929358661174,0.007935295644449069,0.013385117448982782
1761466834726354700,2.573354736328125,0.12068915717303752,-0.006506193281448213,0.006416915554308798
1761466834736338700,2.583338623046875,0.11410451808571814,-0.0009122491568443365,0.0025886853359290397
1761466834746322400,2.593322509765625,0.13954349524676798,-0.004314015857770573,-0.0012715291896020062
1761466834756305400,2.603305419921875,0.11814473338723182,-0.015229450691014062,0.0013627625534543767
1761466834766289400,2.613289306640625,0.11200900711119174,-0.015884707720862933,-0.0069999624395393764
1761466834776272600,2.623272705078125,0.14059037395119667,-0.01841366907605552,-0.03793522861206438
1761466834786256600,2.633256591796875,0.1147036530226469,-0.017194779964210465,-0.04167147883120924
1761466834796239600,2.643239501953125,0.1076712701678276,-0.018884174947923747,-0.02042168785515241
1761466834806223400,2.653223388671875,0.12368307829201221,-0.02930053654358489,-0.02033636364227859
1761466834816207400,2.663207275390625,0.13071721471250056,-0.021565062903729264,-0.00535023388757836
1761466834826190600,2.673190673828125,0.12503098576962948,-0.024864214046974666,0.02720340443413006
1761466834836174600,2.683174560546875,0.112760117739439,-0.0453712694974849,0.027964417685172518
1761466834846157600,2.693157470703125,0.12877134134173393,-0.028106735065579414,0.01575190137925092
1761466834856141600,2.7031416015625,0.13939619573056697,-0.008832315266120713,-0.0032507362911012023
1761466834866124300,2.713124267578125,0.11305997746884822,-0.005340672616433585,-0.0030022870885208245
1761466834876108300,2.7231083984375,0.12577858926653862,-0.001492179353092797,-0.010100809965131338
1761466834886092500,2.733092529296875,0.134457570284605,0.013002770492824492,-0.006825690434733405
1761466834896075500,2.743075439453125,0.12817337544858454,0.00034471036799950524,0.005037528376327827
1761466834906059500,2.7530595703125,0.11066577580869197,0.005675496344658313,0.004642574241990223
1761466834916042500,2.76304248046875,0.12802432236671446,0.005037519243173301,-0.012743479094177019
1761466834926026500,2.773026611328125,0.12712708126604555,0.00922581380395568,-0.02040176159526454
1761466834936009500,2.783009521484375,0.10991817231178283,0.012881708246289054,-0.008247507965355179
1761466834945993500,2.792993408203125,0.12218787129819392,0.013970640560734318,0.006006793533591554
1761466834955977500,2.8029775390625,0.14792729271054267,0.01660549399279407,-0.004569878898537718
1761466834965960400,2.81296044921875,0.11949556347429752,-0.002572305023286026,-0.011248829222784843
1761466834975944400,2.8229443359375,0.10946984402239322,-0.007116472950187744,-0.02435890628978377
1761466834985927700,2.832927734375,0.16618424941301344,0.00010757143565570004,-0.020576442308735565
1761466834995911700,2.84291162109375,0.11650514948666095,-0.014582710327761013,0.010369438872637693
1761466835005894400,2.852894287109375,0.10812485915422439,-0.014627878343471092,0.01586168189665768
1761466835015878400,2.86287841796875,0.15107085143327711,-0.022829422567028086,0.0036279995051212606
1761466835025862400,2.8728623046875,0.13101999705135822,-0.0263262037577806,0.003807054999610409
1761466835035845600,2.882845703125,0.11396131022274493,-0.024895458568609318,-0.004541289841581602
1761466835045829600,2.89282958984375,0.12204232534766196,-0.022854321829555557,-0.0035943666635779663
1761466835055812600,2.9028125,0.1292249303281307,-0.027319932069443165,0.03186986872507259
1761466835065796600,2.912796630859375,0.12922434580624104,-0.017295589440583715,0.05576397279798984
1761466835075779300,2.922779296875,0.13176760054826736,-0.010711281430115923,0.04957143830079585
1761466835085763300,2.932763427734375,0.12578151187598705,0.010829424492135876,0.011644422677939291
1761466835095747600,2.94274755859375,0.1168032556504011,0.01603264884116943,-0.02334491150822723
1761466835105730600,2.95273046875,0.11889759758114814,0.01833627129966626,-0.0412978095134953
1761466835115714600,2.962714599609375,0.12099252403378485,0.028239652146690056,-0.02581487725175684
1761466835125697500,2.972697509765625,0.13565759372413158,0.022409541770699433,0.0028235855037695725
1761466835135681300,2.982681396484375,0.11411036330461502,0.008485771417350041,0.03220114422276383
1761466835145664500,2.99266455078125,0.12458382652401924,0.008572598034143447,0.006798585515387821
1761466835155648500,3.0026484375,0.13191548458635807,-0.00039227012855117205,-0.01233325204218272
1761466835165631500,3.012631591796875,0.14239070137143134,-0.003944215572642861,-0.016329653318144847
1761466835175615500,3.022615478515625,0.12278759075701236,-0.024809421969682444,-0.012864644088700878
1761466835185599500,3.032599609375,0.11799860291481018,-0.03238369314885931,-0.032553709103656
1761466835195582500,3.04258251953125,0.13401158008277417,-0.03120530615240568,-0.037617687095492146
1761466835205566500,3.05256640625,0.10588029509782791,-0.03861755288699641,-0.028067983090924096
1761466835215549400,3.062549560546875,0.12278934432268142,-0.03682069149890449,-0.009328549234289675
1761466835225533400,3.072533447265625,0.1232388416558504,-0.024660412270296365,0.009955503759905695
1761466835235516700,3.0825166015625,0.1353606566041708,-0.008354309932742035,0.02669642530966084
1761466835245500700,3.092500732421875,0.10647943003475666,-0.006461350634368136,0.029262716150691266
1761466835255484700,3.102484619140625,0.11455927611589431,-0.0008764643157657701,0.02474423179596197
1761466835265467400,3.11246728515625,0.12772738524675367,0.006591774364293087,0.008874268411437515
1761466835275451400,3.122451416015625,0.1250339083790779,0.010730841222178423,-0.002618226524244528
1761466835285434400,3.132434326171875,0.13954875594377517,0.024338128363236317,-0.008587083217222242
1761466835295418600,3.142418701171875,0.11590659907162189,0.03308493218681542,0.009435781601583584
1761466835305401600,3.152401611328125,0.12308803500831127,0.03508327781362459,0.013818645461462437
1761466835315385600,3.162385498046875,0.1485270121693611,0.024395639837288763,0.012731258933420758
1761466835325369600,3.17236962890625,0.12383680754899978,0.0005706029621884226,0.0021087951477849853
1761466835335352300,3.182352294921875,0.1271288348317146,-0.0053702434875012835,-0.03186523821572773
1761466835345336300,3.19233642578125,0.12952420553565025,-0.013494327144231646,-0.04384186340654268
1761466835355319600,3.202319580078125,0.12069617143571376,-0.01769116805436206,-0.03519117005133303
1761466835365303600,3.212303466796875,0.11935001752376556,-0.03129282003907719,-0.017333882474224082
1761466835375286500,3.22228662109375,0.13326748371720312,-0.041250157279754056,-0.0020137875078245996
1761466835385270500,3.2322705078125,0.13102350418269634,-0.04096025725535583,0.02751939788101008
1761466835395253500,3.24225341796875,0.11590952168107033,-0.037132716590142806,0.01989739455298986
1761466835405237500,3.252237548828125,0.12578560352921486,-0.028453093967970924,0.002486489903356414
1761466835415221500,3.262221435546875,0.1364098733961582,-0.02722433534101583,0.008872142669721505
1761466835425204500,3.27220458984375,0.12294190453588962,-0.02282568939011544,0.01987630153261125
1761466835435188500,3.2821884765625,0.1343143624216318,-0.007403319076041225,-0.00411374861189397
1761466835445171700,3.292171630859375,0.13027414712011814,-0.0045441382441495076,-0.00012788471296662463
1761466835455155700,3.30215576171875,0.11141922452449798,0.004228633421036647,0.004946169431600719
1761466835465138400,3.312138427734375,0.13805471799373625,0.01330356408728403,-0.0020942848485312423
1761466835475122400,3.322122314453125,0.14104747006893156,0.01563500613446813,-0.003396442071837373
1761466835485106400,3.3321064453125,0.11680617825984954,0.009397521675628377,-0.001453486743941903
1761466835495089400,3.34208935546875,0.11665595613420009,0.0064231112580106125,0.0002949780583148822
1761466835505073700,3.35207373046875,0.12563479688167573,-0.0016378645842312835,-0.00934231518144952
1761466835515056600,3.362056640625,0.12817863614559172,-0.00702443701038137,-0.005307045483111869
1761466835525040400,3.372040283203125,0.12608429421484468,-0.002713615473406389,0.0008774358550785109
1761466835535023600,3.382023681640625,0.13281857090592383,-0.016701188902632565,0.0026111506127752364
1761466835545007600,3.392007568359375,0.11770517292618751,-0.020188680533587466,-0.0075130539276753545
1761466835554990800,3.401990966796875,0.12114683781266211,-0.027679588844825045,-0.0074781447277870025
1761466835564974800,3.411974853515625,0.1181540857374668,-0.013929160056164255,-0.015905466239457017
1761466835574958800,3.421958740234375,0.10498597660660743,-0.02906123876183992,-0.014102259592257905
1761466835584941800,3.43194189453125,0.1411982767164707,-0.028833496703859415,-0.015005309379205573
1761466835594925600,3.441925537109375,0.12638415394425392,-0.024238780191587282,0.022354525931121316
1761466835604908800,3.45190869140625,0.12009879006445408,-0.030401711851672734,0.04122814181076828
1761466835614892800,3.461892822265625,0.13206979836523533,-0.010647431546822189,0.03723843285378534
1761466835624875800,3.471875732421875,0.12428805844783783,-0.007242139448248781,0.02095631760495016
1761466835634859800,3.48185986328125,0.12413783632218837,0.0030351139291771687,-0.002183403887110762
1761466835644842800,3.4918427734375,0.12308920405209063,0.007886828276666346,-0.012402125160465948
1761466835654826800,3.50182666015625,0.12084405547380447,0.013819764272891916,-0.02900871855673613
1761466835664810800,3.511810791015625,0.12054478026628493,0.024552787177357822,-0.043518074812274425
1761466835674793700,3.521793701171875,0.1127642093926668,0.0248474615582847,-0.04324758730782196
1761466835684777700,3.53177783203125,0.12787760737240314,0.019545507808821274,-0.040504640708654185
1761466835694760700,3.5417607421875,0.10962123519182204,0.020682507915538734,-0.012357212873082607
1761466835704744700,3.55174462890625,0.12952362101376055,0.019851865777675993,0.008742305744974874
1761466835714727700,3.561727783203125,0.13685644811987877,0.005928536099032498,0.015008910125377587
1761466835724711700,3.571711669921875,0.1093225445061922,0.003369880575186107,0.03926124848485924
1761466835734695700,3.58169580078125,0.12832593566179273,-0.010647997802402824,0.03158064683739794
1761466835744678700,3.5916787109375,0.12862521086931228,-0.009932957426313078,0.024819947930274065
1761466835754662700,3.60166259765625,0.12997194930315017,-0.025542019693704787,0.03745533842392033
1761466835764646000,3.61164599609375,0.12832535113990307,-0.027669448760012164,0.020913423744717146
1761466835774630000,3.6216298828125,0.11710194633603095,-0.03511143076245207,0.018431518684932962
1761466835784612600,3.631612548828125,0.12548106762468814,-0.025878126630140465,-0.0025935373242711645
1761466835794596600,3.6415966796875,0.13505787426531313,-0.014362424348806961,-0.02419180609456962
1761466835804580600,3.65158056640625,0.1212912147194147,-0.01764372017495334,-0.027806199482735244
1761466835814563800,3.661563720703125,0.11186404568254947,-0.01735497092802543,-0.01921696997419931
1761466835824547800,3.6715478515625,0.13625439057350158,-0.006683341088285669,-0.013936654951097444
1761466835834530800,3.68153076171875,0.11769932770729065,-0.01577724017483997,-0.016690141210588625
1761466835844514800,3.691514892578125,0.11904606614112853,-0.006219802671676734,-0.02549399528391659
1761466835854497800,3.701497802734375,0.13969605545997618,0.009608374247601022,-0.019658660743536893
1761466835864481800,3.711481689453125,0.11156360143125056,0.00807238315224531,-0.0027535867241909725
1761466835874464800,3.72146484375,0.11395721856951713,-0.00034209371922770514,0.0025489058813895097
1761466835884448800,3.73144873046875,0.13460720788836478,-0.004629719326994381,-0.0008431157436571083
1761466835894432800,3.741432861328125,0.12787351571917532,-0.008488775083544897,0.01055816866105888
1761466835904415700,3.751415771484375,0.1227858371913433,-0.009445575768168782,0.014889457597327418
1761466835914399700,3.761399658203125,0.13326046945452688,-0.0060461517213785555,0.008258986057306173
1761466835924382700,3.7713828125,0.11290917082130908,0.00363675363373477,-0.01064609582297271
1761466835934366700,3.78136669921875,0.1275736559897661,0.0012946474869968369,-0.028133821718615944
1761466835944349700,3.791349609375,0.12099018594622611,0.008459603787987725,-0.015625297591206618
1761466835954333700,3.801333740234375,0.10871931791603565,-0.0020435798578895626,-0.00892834581938805
1761466835964317000,3.81131689453125,0.11844634668231009,-0.0009974466471991035,0.013971493369038216
1761466835974301000,3.821301025390625,0.13385901986956594,-0.011401295821159146,0.01568727746111108
1761466835984284700,3.83128466796875,0.10797054537534713,-0.009413905413204337,0.004894373028993141
1761466835994267600,3.841267578125,0.13146364916563033,-0.017864554143178973,-0.014888998656312468
1761466836004251600,3.851251708984375,0.13745032235980034,-0.020540386897954156,-0.0239702357657603
1761466836014235000,3.86123486328125,0.11829670907855033,-0.023953076851693914,-0.013971479669306426
1761466836024219000,3.871218994140625,0.09794541044533252,-0.029420205984055064,-0.009410793290799482
1761466836034201900,3.881201904296875,0.13969430189430712,-0.03912035587655846,0.011248089437268209
1761466836044185600,3.891185546875,0.11575170077085495,-0.03667055613822304,0.025396042201621456
1761466836054168600,3.90116845703125,0.12293430575132369,-0.02485668604435632,0.018584193062572738
1761466836064152800,3.91115283203125,0.1295177757948637,0.0007907884764426853,-0.0032439138246700165
1761466836074136800,3.92113671875,0.12667407680153847,0.01630964371822192,-0.01385844318231102
1761466836084119800,3.931119873046875,0.12742226482033728,0.026119940595957448,-0.02703333139711758
1761466836094103800,3.941103759765625,0.11395488048195838,0.02576510612616548,-0.004804827015439514
1761466836104086500,3.95108642578125,0.11979016250669955,0.03919875030843541,-0.0016380403974559157
1761466836114070500,3.961070556640625,0.13131167347431183,0.03635022900952026,-0.0030349974814569574
1761466836124053800,3.9710537109375,0.1088654483884573,0.03621361300082644,0.0048216388696338975
1761466836134037800,3.981037841796875,0.13101239826679228,0.01475237465610844,-0.0006151065409067087
1761466836144020700,3.991020751953125,0.11485095253884792,0.0008292847227712627,0.018327722667029592
1761466836154004700,4.001004638671875,0.10467501096129417,-0.019327437761484177,0.02772998559150146
1761466836163987700,4.01098779296875,0.13161036415994168,-0.0269179910718929,0.02673498092149384
1761466836173970700,4.020970703125,0.12532500028014182,-0.04269978069933131,0.03080729469459038
1761466836183954700,4.03095458984375,0.10661913076639175,-0.0350962971254019,0.011517266334046143
1761466836193937700,4.040937744140625,0.1325058516949415,-0.024345062710810453,-0.015885058205667883
1761466836203922000,4.050921875,0.1299614279091358,-0.02857147791694151,-0.02107234520005295
1761466836213905000,4.06090478515625,0.1178407820045948,-0.020230672494811006,-0.025401586026418954
1761466836223888600,4.070888671875,0.13040975619852543,-0.00833718869293807,-0.02363278168903198
1761466836233872600,4.08087255859375,0.1299614279091358,-0.013494739277829649,-0.01709437006334774
1761466836243855600,4.090855712890625,0.1256213528782129,-0.005509758131112903,-0.0029891262128483504
1761466836253839600,4.100839599609375,0.12966215270161627,0.003075821540545439,0.0017919568841112776
1761466836263822800,4.11082275390625,0.12083353407979011,-0.0022779651441436725,0.012786423186759929
1761466836273806800,4.120806884765625,0.11050795489847659,0.0051392157771799245,-0.0007621206460287794
1761466836283789600,4.13078955078125,0.14492577280700206,0.007117366857687011,0.002283229266083799
1761466836293773600,4.140773681640625,0.12652034754455088,0.008432585633610141,0.019678379224159288
1761466836303756800,4.1507568359375,0.10931143859028816,-0.002366770230536349,0.0293243398275692
1761466836313740800,4.16074072265625,0.15091127695739268,0.004902016337687382,0.0028000425146892664
1761466836323724800,4.170724853515625,0.1242757834881544,-0.0030887244046025443,-0.01162965665035881
1761466836333707800,4.180707763671875,0.10856266604959965,-0.008538479993765941,-0.018340684896591117
1761466836343691800,4.19069189453125,0.14372808745503424,-0.009642108695488422,-0.03220423807885963
1761466836353674800,4.2006748046875,0.1194879646897316,-0.009555131381645333,-0.030663031952269375
1761466836363658800,4.21065869140625,0.1197878244191408,-0.003158758575154934,-0.020492958426498807
1761466836373641700,4.220641845703125,0.12248188580870628,-0.004263371374277631,0.001441864804807119
1761466836383625700,4.230625732421875,0.11963818681538105,-0.004012888903170824,0.02935217083269963
1761466836393608700,4.240608642578125,0.12218202607929705,-0.007818488306278595,0.019071346391853875
1761466836403592700,4.2505927734375,0.13145955751240251,-0.010514289561781333,-0.0001700319378171116
1761466836413577000,4.260576904296875,0.12352934903502463,-0.00822621858215425,-0.003429542907129507
1761466836423559700,4.2705595703125,0.12487608746886253,-0.019032386637933087,0.0035883661810541525
1761466836433543700,4.280543701171875,0.12487608746886253,-0.027963661916635463,0.023403934519353787
1761466836443526700,4.290526611328125,0.1271212360471487,-0.024644984089012723,0.04775592244458385
1761466836453510700,4.3005107421875,0.1301134036004543,-0.02172673115528887,0.042318772891955445
1761466836463494000,4.310493896484375,0.12098375620543957,-0.024649002677004317,0.014455778887798077
1761466836473478000,4.320477783203125,0.1283154142677784,-0.02285172801367007,-0.012313350898469798
1761466836483460600,4.330460693359375,0.1308598380535841,-0.016957628473779185,-0.029476032391097393
1761466836493444600,4.340444580078125,0.11574585555195807,-0.01649332972205593,-0.030416891154495532
1761466836503428600,4.3504287109375,0.12517302458882332,-0.015769582024769625,-0.017004239527904426
1761466836513411800,4.360411865234375,0.1290641868084669,-0.0029902689988084603,-0.007429823490476701
1761466836523395800,4.370395751953125,0.12247896319925784,-0.005307072882575448,-0.005786816940247081
1761466836533377800,4.380377685546875,0.1239753392368555,0.010283382865757447,-0.01322736275413772
1761466836543361800,4.39036181640625,0.1340010586887598,0.013281473269773414,-0.02235144349146867
1761466836553345000,4.400344970703125,0.12352584190368651,0.01696082507786341,-0.02434752181266667
1761466836563329000,4.4103291015625,0.11574410198628901,0.021234961016394664,-0.0052092408145777876
1761466836573312000,4.42031201171875,0.14163199195861814,0.014617571578588104,0.020449484610953368
1761466836583296000,4.4302958984375,0.11035714825093745,0.0014019038288213778,0.04795630385489203
1761466836593279700,4.44027978515625,0.12517185554504393,0.01271271063822205,0.04793312390870414
1761466836603263000,4.450262939453125,0.14462474403381348,0.019874305938347242,0.038471148419938976
1761466836613247000,4.4602470703125,0.1067652612388134,0.018407085213286337,0.03662414829678601
1761466836623230000,4.47022998046875,0.14821487748026846,0.008757956546900095,0.010010380318877287
1761466836633214000,4.4802138671875,0.14312661443054675,-0.0013975313310918864,0.007848884586186614
1761466836643197200,4.490197265625,0.12262626271545886,-0.012272177496220683,-0.00952857445157133
1761466836653181000,4.500180908203125,0.1146948851943016,-0.03114104299386963,-0.012232590979570522
1761466836663164000,4.510163818359375,0.11499416040182113,-0.030757649149873757,-0.02924531520802993
1761466836673148000,4.52014794921875,0.11319850915670394,-0.034573946901864834,-0.0339627995834453
1761466836683132000,4.5301318359375,0.12247545606791972,-0.059783072246238585,-0.03396674510620069
1761466836693115000,4.540114990234375,0.12008066988587379,-0.06387331896824762,-0.01822715978582855
1761466836703099100,4.55009912109375,0.1316039344191551,-0.05718159364410676,-0.03190920750490622
1761466836713082000,4.56008203125,0.10811083062887192,-0.05332288608907256,-0.03693806166772265
1761466836723065900,4.57006591796875,0.11619067671000957,-0.04000753224093932,-0.0338810258843936
1761466836733048800,4.580048828125,0.128911042073369,-0.011533648929977788,-0.025593028361734466
1761466836743032800,4.59003271484375,0.1272656129539013,0.000701982248405693,0.003436575436114799
1761466836753017900,4.600017822265625,0.103623456081748,0.00756577962875599,0.015849676365032792
1761466836763001900,4.610001953125,0.13130641277730465,0.021372739219001957,0.02203382434308296
1761466836772985000,4.619985107421875,0.11364800648987293,0.028486190236685797,0.028295741131925022
1761466836782969000,4.629968994140625,0.12127952428162098,0.03492402756472584,0.023719206447026225
1761466836792953000,4.639953125,0.1471668297320604,0.039732948516681785,0.01901197860414395
1761466836802935800,4.649935791015625,0.11753858418762683,0.045491548576019704,0.012228108883986715
1761466836812919800,4.659919921875,0.14043313756287096,0.04613717583606485,0.0017539150122203864
1761466836822903000,4.669903076171875,0.12681670014262197,0.02859328560666181,-0.008440660483855753
1761466836832887000,4.679886962890625,0.10332359635233879,0.019521382581139914,0.006773508156347088
1761466836842870000,4.6898701171875,0.12846212926208972,0.018080806692765326,0.0027727846150053664
1761466836852854000,4.69985400390625,0.1471668297320604,0.008043082850880455,-0.008121280919935088
1761466836862836700,4.709836669921875,0.11559271081686019,-0.008801558226608903,-0.008074886778229847
1761466836872820700,4.71982080078125,0.11723872445821762,-0.01647951925076777,-0.016738188453263136
1761466836882805000,4.729804931640625,0.13055647119283675,-0.02597846346576698,-0.03467293659719871
1761466836892788000,4.7397880859375,0.11349836888611316,-0.04453574112195056,-0.03158401468812953
1761466836902772000,4.74977197265625,0.11035597920715808,-0.04298384920456447,-0.023759132032038176
1761466836912755000,4.7597548828125,0.13759060761332512,-0.04551333114956505,-0.020093494797113816
1761466836922739000,4.769739013671875,0.11499532944560051,-0.03558579767539631,-0.0011981579927145504
1761466836932722000,4.779721923828125,0.10990706639587879,-0.03048310424152296,0.0110180412577698
1761466836942706000,4.789705810546875,0.12472118916809558,-0.03288182452988112,0.001176078591647092
1761466836952689000,4.79968896484375,0.1193348199546337,-0.01985584326647222,0.00714101487804437
1761466836962673000,4.8096728515625,0.13130582825541495,-0.00984527115134988,0.02759626935936976
1761466836972656000,4.81965625,0.1307072778403759,0.005574547587678534,0.03573342598516028
1761466836982640000,4.82964013671875,0.12681728466451167,0.019834231939574235,0.03563533590554725
1761466836992624000,4.8396240234375,0.1236743104636669,0.03302120103453053,0.017288803506770634
1761466837002606800,4.84960693359375,0.14671908596456051,0.03982772326120175,-0.005710870193783193
1761466837012590800,4.8595908203125,0.11469546971619128,0.01886685620365315,-0.0013194029023405164
1761466837022573800,4.86957373046875,0.13190379414856432,0.018195106980018316,-0.00015185467702103777
1761466837032558000,4.87955810546875,0.15479951656758784,0.002526901828846894,0.010189399280748329
1761466837042541000,4.889541015625,0.07893266693949699,-0.017020894976827548,0.02629848235050449
1761466837052525000,4.899525146484375,0.12472177368998527,-0.02135258463025093,0.007671381727966945
1761466837062507800,4.9095078125,0.14776654919087887,-0.03131090596832801,-0.012239936319098341
1761466837072491800,4.91949169921875,0.11664192760884762,-0.027720069268974475,-0.02015885393419303
1761466837082475800,4.929475830078125,0.10257540833353995,-0.01639547025459469,-0.02492172780431574
1761466837092459000,4.939458984375,0.13489771526753902,-0.01952542856859509,-0.03317933018871117
1761466837102443000,4.949443115234375,0.12023323009908199,-0.015046833266259637,-0.008905079108232166
1761466837112426000,4.959426025390625,0.1230775136142969,-0.013122547247860347,-0.006797832030139397
1761466837122410000,4.969409912109375,0.13280454238057135,-0.015616923630150267,0.001340381758287549
1761466837132393000,4.97939306640625,0.10586918918192385,-0.014760115004569524,0.014998633043246808
1761466837142377000,4.989376953125,0.10691548336446284,-0.01120543760563014,0.006633768608805257
1761466837152360000,4.99935986328125,0.13040800263285637,-0.0034779931502474937,-0.016547399138496257
1761466837162344000,5.009343994140625,0.12636778733134268,-0.00451063098348095,-0.030031008525891228
1761466837172328000,5.019327880859375,0.11723989350199698,0.0026617802548920735,-0.022920888826320877
1761466837182311200,5.029311279296875,0.13489713074564932,0.012077843375853261,0.0050401473083882585
1761466837192295200,5.039295166015625,0.13863865536153316,0.012394449885730864,0.03158172683292068
1761466837202278000,5.04927783203125,0.11544482677876948,0.013050520907976896,0.02525863845834974
1761466837212262000,5.059261962890625,0.11484569184184074,0.00617663139187498,0.0168911436754046
1761466837222244900,5.069244873046875,0.13774082973897456,0.0011919006402196827,-0.018694567235023715
1761466837232229000,5.07922900390625,0.12172960613667964,-0.002173169045819668,-0.017737401224218772
1761466837242212000,5.089212158203125,0.10915946289896965,-0.010300223261059727,-0.0008204678037203848
1761466837252196000,5.099196044921875,0.11888649166524409,-0.001042829292040551,0.011356785392574965
1761466837262178800,5.1091787109375,0.14193243620991705,-0.007240905330743407,0.0160074995585368
1761466837272162800,5.119162841796875,0.10975976687967777,-0.006890565514622722,0.01405356161232339
1761466837282146800,5.129146728515625,0.11679331877827644,-0.011537933521094964,-0.004107640814804471
1761466837292130000,5.139130126953125,0.1313081663429737,-0.00127763013682561,-0.02867806183026405
1761466837302114000,5.149114013671875,0.12472411177754401,-0.00453761488852906,-0.03422707882610848
1761466837312097000,5.159096923828125,0.14627192671895026,-0.010006817246967694,-0.03958681804426014
1761466837322080800,5.169080810546875,0.12128478497862816,-0.019781727717490864,-0.008189596915792208
1761466837332064000,5.17906396484375,0.10198153409361839,-0.011176401024102233,0.04102004745146259
1761466837342048000,5.189048095703125,0.13505144452452658,-0.009140510140679544,0.045335157004487696
1761466837352031000,5.199031005859375,0.1280184771478176,-0.011047532213735393,0.019760837909800464
1761466837362015000,5.209014892578125,0.13310615567564962,-0.009592049875529482,-0.018373888479871675
1761466837371999000,5.2189990234375,0.12382920876443386,-0.002267194871668471,-0.04508417335152626
1761466837381982000,5.22898193359375,0.12113573189675807,0.006591288023814559,-0.02569784957623342
1761466837391966000,5.238966064453125,0.11170914738178253,0.0024972932835167737,0.022787928362726233
1761466837401949000,5.248948974609375,0.12682254536151885,-0.00758874608745682,0.04184583531769458
1761466837411933000,5.258932861328125,0.11515081226825713,-0.0028464720473682973,0.028958166546432764
1761466837421916000,5.268916015625,0.12128478497862816,0.001040943295630859,-0.003991051530698314
1761466837431900000,5.27889990234375,0.139690794762969,-0.0052492257650941605,-0.04437436284804717
1761466837441883000,5.2888828125,0.11185878498554229,-0.005774708660633769,-0.05553776282668113
1761466837451867000,5.298866943359375,0.10946458332538604,-0.012139157667121616,-0.038456521672965024
1761466837461849900,5.308849853515625,0.12383096233010292,-0.008287736086110817,-0.009127998860622755
1761466837471833900,5.318833740234375,0.12966682887673378,-0.007155603950755903,0.022351537106302565
1761466837481817000,5.328817138671875,0.12173662039935589,-0.002848501890961779,0.0460142116100993
1761466837491801000,5.338801025390625,0.1337082132220268,-0.005153784300293773,0.04697863619546406
1761466837501785000,5.34878515625,0.12577625117897986,-0.012835430552304024,0.05355188623908907
1761466837511767800,5.358767822265625,0.13325754684507846,-0.02333262056552339,0.04686835335455834
1761466837521751800,5.368751708984375,0.13385551273822785,-0.028966890992294065,0.01862591787902638
1761466837531735800,5.37873583984375,0.10796703824400901,-0.02929074351864401,-0.018179879728134254
1761466837541719800,5.3887197265625,0.13609890775084496,-0.0265358096541604,-0.025278384338435714
1761466837551703000,5.398703125,0.13116145134866236,-0.026630737379018683,0.015375514948065392
1761466837561687000,5.40868701171875,0.1037766008168459,-0.02105045074536465,0.031605402252741624
1761466837571670000,5.418669921875,0.13220716100931168,-0.0039408134725817945,0.020710115158383266
1761466837581654000,5.428654052734375,0.12622165685892103,0.006925301184575073,-0.004205950090126134
1761466837591637000,5.438636962890625,0.1206856500416994,0.005267030849843286,-0.006118405248480848
1761466837601621000,5.44862109375,0.10856500413715839,0.006876884049142245,0.008039959312032443
1761466837611605000,5.45860498046875,0.1115577562123537,0.009562205009825993,0.015588438462826888
1761466837621588000,5.468587890625,0.12607260377705096,-0.004511579689907375,0.021072815557511056
1761466837631572000,5.478572021484375,0.12158289114236831,-0.008620472888526274,0.01785199034748366
1761466837641555000,5.488554931640625,0.1103594863384962,-0.0018703216332360169,-0.06849344391641207
1761466837651539200,5.498539306640625,0.12158289114236831,-0.01283885434360709,-0.06191204709894955
1761466837661522000,5.50852197265625,0.1250245560288429,-0.0017965577107039278,-0.06429585522925481
1761466837671506000,5.518505859375,0.08297697389423847,0.006752969975105952,-0.07120572138268035
1761466837681489000,5.528489013671875,0.13145955751240251,-0.0004351879633148201,-0.08242210735729895
1761466837691473000,5.538472900390625,0.12532558480203151,-0.0003748943020647857,-0.06344124769391492
1761466837701456100,5.5484560546875,0.13595160823464392,0.0023173062072659374,-0.022027451684512197
1761466837711440100,5.558440185546875,0.10527706850767135,0.006056186774914385,-0.005114498036098666
1761466837721424100,5.568424072265625,0.10557692823708056,0.0020501134883088522,-0.010345884467114229
1761466837731406800,5.57840673828125,0.12592939591407776,0.0035878444496018343,-0.03203746667720843
1761466837741390800,5.588390869140625,0.1450847627609968,0.007328222854592604,-0.034070283112488685
1761466837751374000,5.5983740234375,0.1346118840634823,0.002027329692698549,0.029723693859099874
1761466837761358000,5.608358154296875,0.1274304481267929,-0.009784010517364368,0.08854540341002866
1761466837771341000,5.618341064453125,0.14149638288021088,-0.016651350420026575,0.13296334967147558
1761466837781325000,5.628324951171875,0.1479307998418808,-0.027456077720678877,0.13112616083957254
1761466837791308000,5.63830810546875,0.11605682119727134,-0.02946219337870134,0.09170648865629918
1761466837801292000,5.6482919921875,0.13490999022722244,-0.021754776789550668,0.03862585492446087
1761466837811275000,5.65827490234375,0.13161679390072822,-0.00267905561667867,-0.003814523636724334
1761466837821259000,5.668259033203125,0.13056933067440987,0.004507533702452201,-0.014489786188676952
1761466837831243000,5.678242919921875,0.13490882118344305,0.008104063782008597,0.000016311813984066247
1761466837841226000,5.68822607421875,0.13191606910824774,0.021403625264321453,0.009038039571826811
1761466837851210200,5.698210205078125,0.11051613820493221,0.02047276502184104,0.025924799333058763
1761466837861193000,5.70819287109375,0.0910620806723833,0.03158344386597164,0.012861303637432864
1761466837871177000,5.718177001953125,0.14807342318296432,0.02787312723910436,-0.025142161055386532
1761466837881160000,5.728159912109375,0.13131401156187056,0.040832466157223093,-0.061475966369779776
1761466837891144000,5.73814404296875,0.11754676749408244,0.025183801390160805,-0.049716646324610335
1761466837901127200,5.748127197265625,0.11260931109189987,0.014639677237474825,-0.042430900630075485
1761466837911111200,5.758111083984375,0.13056640806496142,0.001315523594955448,-0.02250596048303414
1761466837921094000,5.768093994140625,0.12413316014707088,-0.01568528757506865,0.003438703461119439
1761466837931078000,5.778077880859375,0.11186287663877009,-0.020481503167434127,0.026947354163695127
1761466837941062000,5.788061767578125,0.12173895848691463,-0.029681064860348123,0.04055933003795799
1761466837951045000,5.798045166015625,0.14119184697568415,-0.038046516099967995,0.05147415751642547
1761466837961029000,5.808029052734375,0.11919395017921924,-0.031141106925951314,0.046040085836872455
1761466837971012000,5.81801220703125,0.12383096233010292,-0.027891877605346962,0.010868170758569613
1761466837980995800,5.827995849609375,0.1251771162420511,-0.014110874440264888,-0.027932798704202285
1761466837990979000,5.83797900390625,0.12457798130512236,-0.00657353545470396,-0.03966825838317163
1761466838000963000,5.847963134765625,0.11470189945697784,-0.008439529114338802,-0.023835594801732803
1761466838010946000,5.857946044921875,0.13460370075702666,-0.013701744508458067,0.010653722007002216
1761466838020930000,5.867929931640625,0.12188508895933628,-0.011683848222740925,0.00901198724854039
1761466838030913000,5.8779130859375,0.11739537632465362,-0.0020135009551013354,-0.006294204773381352
1761466838040896800,5.887896728515625,0.11934008065164088,0.00836500599833671,-0.0603160511783557
1761466838050881000,5.897881103515625,0.11305588581562041,0.01642349419761449,-0.09228586857998743
1761466838060864000,5.907864013671875,0.11170973190367221,0.019446445048251187,-0.0737299745967146
1761466838070848000,5.917847900390625,0.12652560824155806,0.020130285426834597,-0.013720502866210882
1761466838080831000,5.9278310546875,0.14164075978696344,0.0021715855851536614,0.05349678135125432
1761466838090815000,5.93781494140625,0.10468085618019103,-0.009738794552593025,0.09318544776821508
1761466838100798000,5.9477978515625,0.10482990926206111,-0.018914445646957028,0.09245735268937423
1761466838110782000,5.957781982421875,0.14568097508847713,-0.00791581462584436,0.05915988514686469
1761466838120765000,5.967764892578125,0.1414911221832037,-0.01246715322069358,0.02560455896932399
1761466838130749000,5.9777490234375,0.12128946115374564,-0.015776305168145335,-0.000046663569763768463
1761466838140732200,5.987732177734375,0.11650047331154345,-0.016420738268236163,-0.01564097008437384
1761466838150716200,5.997716064453125,0.11964227846860885,-0.01707047316452954,-0.02419732936976943
1761466838160699000,6.007698974609375,0.11799568030536174,-0.01880237841598573,-0.03456623395286733
1761466838170683000,6.017682861328125,0.12502864768207073,-0.01721386026566033,-0.048376913020294156
1761466838180665900,6.027665771484375,0.13789748160541057,-0.013616524185216985,-0.035499580696667546
1761466838190650000,6.037650146484375,0.13101415183246135,-0.0008456136614200659,-0.01976373768636258
1761466838200634000,6.047634033203125,0.1346060388445854,0.006450952537939883,0.0049526859373552725
1761466838210617000,6.0576171875,0.12517945432960986,0.004309424164332449,0.008549906711722724
1761466838220601000,6.06760107421875,0.09614975920021533,0.004410356938291806,0.030355963880650233
1761466838230583800,6.077583740234375,0.12383213137388228,0.02351620382136898,0.03795996576109901
1761466838240567800,6.08756787109375,0.15645371351540088,0.02353176215010462,0.01639534353207564
1761466838250551000,6.097551025390625,0.12128829210996626,0.020469721398095133,0.012941711929882875
1761466838260535000,6.10753515625,0.11320669246315955,0.0033333639401011165,-0.001955020225024782
1761466838270518000,6.11751806640625,0.1404413208693266,-0.006659770699741784,-0.01921264542553108
1761466838280502000,6.127501953125,0.1320621995806694,-0.022350511909706983,-0.006291839286359026
1761466838290485000,6.137485107421875,0.11141162573993206,-0.04828908860636875,0.005878744423843454
1761466838300469000,6.147468994140625,0.11829612455666065,-0.04858629972096532,0.0006328636765945702
1761466838310452000,6.157451904296875,0.10782207681536674,-0.05110212759994901,-0.024916483090328984
1761466838320436000,6.16743603515625,0.11141279478371142,-0.04587167960056104,-0.04616806873125024
1761466838330420000,6.177419921875,0.14807517674863338,-0.03764250872620614,-0.02702047876541037
1761466838340403200,6.1874033203125,0.11156360143125056,-0.03028229585624067,0.011956653265154453
1761466838350387200,6.19738720703125,0.11934534134864806,-0.006509498341742437,0.03891762267895974
1761466838360370000,6.207369873046875,0.14807634579241274,0.014057114409434142,0.03945060617765411
1761466838370354000,6.21735400390625,0.1057283194065094,0.030433337682508863,0.0439855553267058
1761466838380337000,6.2273369140625,0.12727613434791565,0.045291249364102254,0.0071502005482092495
1761466838390321000,6.23732080078125,0.1317658469825983,0.0573273770566564,-0.016669808525324334
1761466838400304000,6.24730419921875,0.12024316697120666,0.0507428658335004,-0.0018752695197006687
1761466838410288000,6.2572880859375,0.1166512799590826,0.0413216196473455,0.0064547519302228466
1761466838420270800,6.267270751953125,0.14238894780576228,0.014318219880899414,0.01157999968919903
1761466838430254800,6.2772548828125,0.13475626097023485,-0.0005660021355957724,0.022661509521061086
1761466838440238000,6.287238037109375,0.11215981375873088,-0.02252276777065126,0.016727294883201828
1761466838450222000,6.29722216796875,0.1473246506422758,-0.020492768913542386,-0.03428149187748786
1761466838460206000,6.3072060546875,0.1220364801287651,-0.03999637609268539,-0.04469433378372341
1761466838470189000,6.31718896484375,0.09749532859027385,-0.06405628345287405,-0.03803748569343006
1761466838480173000,6.327173095703125,0.14493103350400924,-0.06297829722412862,-0.010371671928919385
1761466838490156000,6.337156005859375,0.14044248991310596,-0.06451332020510453,0.028508630397357047
1761466838500140000,6.34714013671875,0.10961714353859424,-0.05461130476468242,0.05105594580408651
1761466838510123000,6.357123046875,0.1341582950770855,-0.04447508784274105,0.0568629013500642
1761466838520107000,6.36710693359375,0.1154530100852251,-0.031766367251402694,0.036997212543012574
1761466838530090200,6.37709033203125,0.12787410024106502,-0.017911901557887903,-0.0050170518438797445
1761466838540074200,6.38707421875,0.10423018980324268,-0.011440342340047937,-0.012554308631049935
1761466838550057200,6.39705712890625,0.12278525266945362,-0.006870426908892113,-0.009089452381944283
1761466838560041200,6.407041259765625,0.16962240716814994,0.006663320071919588,-0.0033423052983824163
1761466838570024200,6.417024169921875,0.11365735884010791,0.011890191299666184,0.036696839073661246
1761466838580008200,6.42700830078125,0.09824351660907268,0.03034873042226536,0.02574509081802098
1761466838589992200,6.4369921875,0.12413023753762245,0.041057977442210535,-0.015591899928392376
1761466838599975400,6.446975341796875,0.12472878795266151,0.05046855153730139,-0.05248955423720181
1761466838609959400,6.45695947265625,0.11754618297219276,0.04447605595712084,-0.06088672720578033
1761466838619942100,6.466942138671875,0.12981705100238322,0.036066557796509004,-0.025161114634317343
1761466838629926100,6.476926025390625,0.10991583422422409,0.014774401541537372,0.01292108926696237
1761466838639909400,6.486909423828125,0.12443068178892135,-0.0035598045235616152,0.04213370778178796
1761466838649893400,6.496893310546875,0.1190431435316801,-0.03932168713493738,0.036551523735281075
1761466838659876400,6.50687646484375,0.12053893504738807,-0.058602972783311266,0.00009975459702545777
1761466838669860400,6.5168603515625,0.12023965983986853,-0.07244467032679822,-0.008789492187835276
1761466838679843000,6.526843017578125,0.14029168326556682,-0.06166568482217844,-0.009862541946559212
1761466838689827300,6.536827392578125,0.12652560824155806,-0.04998039356102235,-0.01413577826936962
1761466838699810300,6.546810302734375,0.10662439146339893,-0.029863031547842544,-0.005779546949244104
1761466838709794300,6.556794189453125,0.13655191221535204,-0.01468422191538848,-0.005116719675937202
1761466838719778300,6.5667783203125,0.12203706465065478,0.002625552455818979,-0.0090055620743311
1761466838729761300,6.57676123046875,0.11694938612282275,0.014257909094984643,-0.014889263517793733
1761466838739745000,6.5867451171875,0.12308452787697315,0.02507075120343361,-0.0007682581258704886
1761466838749728300,6.596728271484375,0.13864800771176813,0.025220260943030006,0.01367951326869661
1761466838759712300,6.606712158203125,0.12637830872535705,0.0235307415200863,0.031109942319418767
1761466838769695200,6.6166953125,0.10991758778989315,0.03096645817852113,0.04848763425261713
1761466838779679200,6.62667919921875,0.1244324353545904,0.017588986321521224,0.0391669303980656
1761466838789662500,6.636662353515625,0.1205418576568365,0.012697965160239254,0.01880671552274143
1761466838799646200,6.646646240234375,0.11799626482725142,0.011868988681433256,-0.009326619855395983
1761466838809629200,6.656629150390625,0.1275736559897661,-0.00009125391345005481,-0.02227664295589784
1761466838819613200,6.66661328125,0.12383271589577197,-0.016203333799535174,-0.02338345113703981
1761466838829596200,6.67659619140625,0.12203706465065478,-0.02608653379998868,-0.04745025402889587
1761466838839580400,6.686580322265625,0.11440613138079643,-0.026638320180564185,-0.037274938072427176
1761466838849563400,6.6965634765625,0.122786421713233,-0.04477242225492373,-0.023708723868918605
1761466838859547100,6.706547119140625,0.12368541637957095,-0.02931519753988832,-0.005194636900490149
1761466838869531100,6.71653125,0.20659809286594388,-0.02509615735603729,0.003282631549995858
1761466838879514000,6.72651416015625,0.5874392384380102,0.028751494675944556,-0.11529113405440002
1761466838889498000,6.736498046875,-0.7883382428795099,-0.11417177463565022,0.2764657386118546
1761466838899481300,6.7464814453125,0.6793161426246166,0.045567486189329064,-0.13458627469819037
1761466838909465300,6.75646533203125,0.00010930559337139129,0.0013504099619574845,0.005800262085354188
1761466838919448000,6.766447998046875,-0.1347153444379568,0.0006681450525298714,0.006149809600319713
1761466838929432000,6.77643212890625,0.36686990336477754,0.05364633675662335,-0.10325529862279072
1761466838939415300,6.786415283203125,-0.09626607905626297,0.011364226630225311,0.04078138899053447
1761466838949399300,6.7963994140625,0.16274959878921508,0.042874297016020864,-0.013727350448817014
1761466838959382300,6.80638232421875,0.22529577907323836,0.05538155848481692,-0.024259425687394105
1761466838969366300,6.8163662109375,0.2205102983623743,0.05080945566315204,0.013729380292410496
