time,seconds_elapsed,z,y,x
1761467029706530600,0.115530517578125,0.11015548819899558,-0.02168399027539417,-0.01657518219456542
1761467029716512500,0.125512451171875,0.13095745320916174,-0.020676973223895764,-0.020669525136379523
1761467029726495500,0.13549560546875,0.11135551163852214,-0.015255071472749113,-0.0037115130701102315
1761467029736478500,0.145478515625,0.10312485890984535,-0.0065394619384547695,0.0009601183030055836
1761467029746461400,0.15546142578125,0.12242986336052417,0.0009550539688207209,0.018329405450751072
1761467029756444400,0.1654443359375,0.10956102943718432,0.010005768075841479,0.020802024375670587
1761467029766427400,0.175427490234375,0.1140495730280876,0.02330658194196876,0.030704578672209753
1761467029776410600,0.18541064453125,0.13110825985670088,0.02190127258815337,0.025372405597707256
1761467029786393300,0.195393310546875,0.10073124177157879,0.024544599304324947,0.03241059257222805
1761467029796376600,0.20537646484375,0.11629355256259441,0.01670584566979669,0.021805379032203927
1761467029806359600,0.215359619140625,0.13095745320916174,0.006598539748508483,0.0031586923597846177
1761467029816342300,0.22534228515625,0.11464520083367824,-0.012502247366961091,-0.01235605296245776
1761467029826324500,0.235324462890625,0.12242694075107574,-0.01619398715752177,-0.014666667992388829
1761467029836307500,0.245307373046875,0.11883680730462073,-0.012824487891537137,-0.014214133885339833
1761467029846290400,0.25529052734375,0.1189864449083805,-0.010970270293019712,0.0017769876438425852
1761467029856273400,0.2652734375,0.1293131931334734,-0.0051386141306255005,0.004410098926676437
1761467029866256400,0.27525634765625,0.12512334022819996,0.0033669511158717796,0.01985022637643851
1761467029876239600,0.285239501953125,0.10193009616732597,-0.0034009355838643383,0.027698336927779017
1761467029886222300,0.295222412109375,0.11719313175082206,0.0017571367324795573,0.021860022695735094
1761467029896205300,0.305205322265625,0.1080634843558073,0.008632890553749165,0.014759296445595099
1761467029906188500,0.3151884765625,0.12362462610304355,0.004902928511495702,0.018615209255344232
1761467029916171500,0.325171630859375,0.12826339181959628,0.014866971770883537,0.02307170460701454
1761467029926153500,0.335153564453125,0.11659224324822424,0.010186042846459895,0.023201468466524964
1761467029936136400,0.345136474609375,0.11419745706617832,0.004368465441768057,0.02116573398837354
1761467029946119400,0.355119384765625,0.12257774739861488,0.01632674212513957,0.014187939998158252
1761467029956102400,0.365102294921875,0.11389876638054847,-0.018571913536312056,0.0050825137289473785
1761467029966085400,0.37508544921875,0.10357318719923496,-0.025000471579353322,0.0042709370511583985
1761467029976068600,0.385068603515625,0.12841419846713542,-0.01699539863432292,-0.00694044852135703
1761467029986051600,0.395051513671875,0.10402268453240394,-0.027295779442298225,0.006889636216149665
1761467029996034300,0.405034423828125,0.1115057337641716,-0.02475438329721801,0.009155827582464552
1761467030006017500,0.415017578125,0.11420037967562675,-0.019723234429326837,0.006177560690348036
1761467030016000500,0.42500048828125,0.10058335773348807,-0.01646902297292836,0.011621436811285094
1761467030025983500,0.4349833984375,0.11958850245475769,-0.0025181568333879113,0.016265029400005005
1761467030035965400,0.44496533203125,0.1186900923103094,-0.002668415491655469,0.024896938139642586
1761467030045948400,0.454948486328125,0.1174918224364519,0.007733708657743409,0.02701264251882676
1761467030055931600,0.464931640625,0.11764146004021167,0.020580463180015794,0.019531036325474267
1761467030065914400,0.474914306640625,0.1034229650735855,0.009789010919467546,0.0159983412878355
1761467030075897300,0.4848974609375,0.14397534021437167,0.025041086717532014,-0.007251391333783976
1761467030085880600,0.494880615234375,0.1198842705309391,0.02049920550419483,-0.01101288102546241
1761467030095863600,0.504863525390625,0.09414426459670067,0.004516984234098345,-0.00028017321482766416
1761467030105846500,0.514846435546875,0.13529635919630525,0.0033128326087258756,0.009496297883475198
1761467030115829500,0.52482958984375,0.11135551163852214,-0.012612950332975015,0.010076623088656924
1761467030125812500,0.5348125,0.11120645855665207,-0.019028370333230123,0.005004196928883903
1761467030135794400,0.54479443359375,0.12198328863680362,-0.013887879339349455,-0.0019687290899688377
1761467030145777400,0.55477734375,0.10537351461946963,-0.013288415608857757,0.005206592199765146
1761467030155760600,0.5647607421875,0.11928981176912784,-0.013316627923189661,0.015283082857681438
1761467030165743400,0.574743408203125,0.11539864954948424,-0.014917642512195742,0.014316854474297723
1761467030175726300,0.584726318359375,0.12108487849235534,-0.011929338283254765,0.009203918207623065
1761467030185709600,0.59470947265625,0.11390344255566597,-0.00389143164770212,0.014176194761437362
1761467030195692500,0.604692626953125,0.13036416349112986,0.00994859452850651,0.011384961174288765
1761467030205675300,0.61467529296875,0.12168576699495315,0.009939233045116997,0.002834757635043934
1761467030215658500,0.624658447265625,0.12647475483715534,0.015781259904475882,0.0004889205946819856
1761467030225641500,0.634641357421875,0.11944120293855666,0.004312954128556885,0.0022090634847525504
1761467030235623400,0.64462353515625,0.1101630869835615,0.006507459364994429,-0.00044815475945360957
1761467030245606400,0.6546064453125,0.11569909380078315,0.011900714976969174,0.001018908418691717
1761467030255589400,0.66458935546875,0.126024088460207,-0.0021110008046031,0.0064994313221657645
1761467030265572600,0.674572509765625,0.11450199297070503,-0.007557580339279957,0.015010544960037803
1761467030275555300,0.684555419921875,0.11390402707755565,-0.008804155467427336,0.022415784281818195
1761467030285538600,0.69453857421875,0.1276706866234541,-0.01133192037937697,0.031776884078839794
1761467030295521500,0.704521484375,0.1284188746422529,-0.010554707195493392,0.028478253525402394
1761467030305504500,0.71450439453125,0.10761807867586612,-0.013658833523560315,0.021766750355134718
1761467030315487500,0.724487548828125,0.11809154189527034,-0.0081916130596539,0.0025098091301508246
1761467030325470500,0.734470458984375,0.12976444403231144,-0.01034096854669042,-0.020200925810518675
1761467030335453400,0.744453369140625,0.12003858430981636,0.0005932120862184092,-0.015491400979273021
1761467030345435400,0.754435302734375,0.11465163057446479,0.004973358832625672,-0.019778636144683694
1761467030355418400,0.76441845703125,0.1345551854401827,0.01392241636319086,-0.022258972585177977
1761467030365401600,0.774401611328125,0.10986556534171103,0.01583350154836662,-0.0059977334443014115
1761467030375384600,0.784384521484375,0.11480302174389362,0.016028951055230573,0.005360805513942614
1761467030385367300,0.7943671875,0.11974164718985557,0.013000397014291957,0.010383647777792066
1761467030395350500,0.8043505859375,0.12333294968008994,0.012008965690992772,0.015294814394670538
1761467030405333500,0.81433349609375,0.11120879664421081,0.0027658114515244957,0.022302971557108683
1761467030415316200,0.824316162109375,0.1408376267105341,0.0120625727414852,0.009539598169084638
1761467030425299500,0.834299560546875,0.13290800275504588,0.0057007323922589415,0.015756938313972204
1761467030435282400,0.844282470703125,0.0934019217967987,0.0025441041253972795,0.034231985613377765
1761467030445264600,0.8542646484375,0.12018705286979675,0.004749208387662657,0.020942766286921686
1761467030455247400,0.864247314453125,0.12722002024650572,0.004748642132082022,0.019468168256292117
1761467030465230600,0.874230712890625,0.10387538501620291,-0.0001592913480941206,0.023298741128807886
1761467030475213600,0.884213623046875,0.12482464954257011,0.003288209624122828,0.007645107925683259
1761467030485196300,0.8941962890625,0.12347732658684253,-0.005136390207498334,0.003591302490234375
1761467030495179500,0.904179443359375,0.1200362462222576,-0.009209612729470245,0.008087234803149476
1761467030505162500,0.91416259765625,0.11794248881340026,-0.020445397524302824,0.014474387690145522
1761467030515145500,0.9241455078125,0.11824117949903011,-0.02376787931078579,0.010670186801324599
1761467030525128400,0.93412841796875,0.11899053656160831,-0.03085196038680151,-0.0024655544298933818
1761467030535111400,0.944111328125,0.11255670412182807,-0.0223846813240787,-0.0101679363676114
1761467030545094400,0.954094482421875,0.12108604753613471,-0.00868186252831947,-0.01055198551544454
1761467030555076400,0.964076416015625,0.126024088460207,-0.009012496421905235,-0.012642117061954922
1761467030565059300,0.974059326171875,0.11016191793978214,0.0015345800229813902,-0.00900755995188374
1761467030575042600,0.98404248046875,0.11555004071891307,0.006799569612788036,-0.006260864192782901
1761467030585025500,0.994025634765625,0.11390461159944533,0.018691548727452753,0.009469866534275933
1761467030595008300,1.00400830078125,0.1257259822964668,0.02326848298786208,0.019090092191519213
1761467030604991500,1.013991455078125,0.1293167002648115,0.03970541205578484,0.014444965232838875
1761467030614974500,1.023974365234375,0.12183482007682322,0.045065537149715236,0.024743382412591015
1761467030624957400,1.03395751953125,0.11629705969393253,0.024184990478004327,0.010017842106125318
1761467030634940400,1.0439404296875,0.11061083075106143,0.020875925295520573,-0.012363857243000528
1761467030644923400,1.05392333984375,0.10926350779533385,0.01696200782137457,-0.031671062783920206
1761467030654905600,1.063905517578125,0.10791676936149597,0.0012272174071287735,-0.03893683426950592
1761467030664888300,1.073888427734375,0.137098440182209,-0.006292990063829347,-0.039125306046311745
1761467030674871600,1.08387158203125,0.114804190787673,-0.004577189988736063,-0.03360289392960258
1761467030684854500,1.0938544921875,0.11121522638499737,-0.0015887030967045575,-0.0156962348024128
1761467030694837200,1.103837158203125,0.12348843250274658,0.0010522033335175365,-0.012733252244396134
1761467030704820500,1.113820556640625,0.11555939306914806,-0.004437270061392337,-0.0025800202555721625
1761467030714803500,1.123803466796875,0.11825520802438258,0.0025300162345403806,0.012384260710212402
1761467030724786400,1.133786376953125,0.12080196989774704,-0.0006405537927057594,0.015861179573158732
1761467030734769400,1.143769287109375,0.11332067423164843,-0.0064739315547281875,0.027726613174192605
1761467030744752400,1.15375244140625,0.13307517601549623,0.002724616358033381,0.03983422606722452
1761467030754735400,1.1637353515625,0.12245090614855289,0.005039300208305939,0.06895192370705772
1761467030764717300,1.17371728515625,0.12320026321113109,0.005767984375613741,0.07039936430270317
1761467030774700300,1.1837001953125,0.12798866653144358,0.006750259711500257,0.05534197539309971
1761467030784683500,1.19368359375,0.11960837619900702,-0.006630382491764612,0.034692346833855844
1761467030794666500,1.20366650390625,0.10763678337633609,-0.02120432156624738,0.020558680606470443
1761467030804649500,1.2136494140625,0.11526713212430477,-0.026337853096378965,0.012865801716037094
1761467030814632400,1.223632568359375,0.12753741563260554,-0.021746534117590633,0.007936039996542967
1761467030824615400,1.233615478515625,0.12918401379585265,-0.012945118596521206,0.004150607740273699
1761467030834598400,1.243598388671875,0.12289864991605282,0.02437841699114069,0.0008728647112380713
1761467030844581400,1.253581298828125,0.11362053396105766,0.01879893635837361,-0.013662929743365384
1761467030854564400,1.263564453125,0.1190080722182989,0.023297416821401566,-0.031717372443946075
1761467030864546600,1.273546630859375,0.1263408993244171,0.02957171131791547,-0.03974934709563385
1761467030874529300,1.283529296875,0.11212591148912907,0.02133529100215528,-0.035180075551872136
1761467030884512500,1.293512451171875,0.1214046119660139,0.017692824580264277,-0.026983918747841378
1761467030894495500,1.30349560546875,0.13861410544216632,0.01272553929539863,-0.004824497547000647
1761467030904478200,1.313478271484375,0.10165361731350421,0.015022710321866906,0.033733557404833844
1761467030914461400,1.32346142578125,0.11437398267686366,0.0037817881276132536,0.0461465692854952
1761467030924444400,1.3334443359375,0.12215455355048178,-0.011174999084882438,0.05579572877627797
1761467030934427400,1.343427490234375,0.12185586286485195,-0.026768134272424502,0.06231069559429306
1761467030944410400,1.353410400390625,0.10734101530015468,-0.028387985992641186,0.06214464571184944
1761467030954393300,1.363393310546875,0.12963643373847006,-0.03549120102738961,0.05287690958697348
1761467030964375600,1.37337548828125,0.11347381896674633,-0.01913002234310843,0.0500955946056405
1761467030974358300,1.383358154296875,0.1375648886501789,-0.002454357182444073,0.04352524890515488
1761467030984341500,1.393341552734375,0.13112813360095024,-0.0025422181289875877,0.05490591293023899
1761467030994324500,1.403324462890625,0.12738485541939734,0.015599793257191776,0.0629075746420538
1761467031004307500,1.413307373046875,0.1460872178018093,0.027217353044380433,0.06584868786155712
1761467031014290400,1.42329052734375,0.17122049001455306,0.01886684592885431,0.09231898539829998
1761467031024273400,1.4332734375,0.14517361008822918,0.023135202863859013,0.09381770865661092
1761467031034256400,1.44325634765625,-0.020925299128890035,0.03763227274327073,0.05872296416747849
1761467031044239600,1.453239501953125,0.04147182807326317,-0.03804469403563998,0.03173594928025268
1761467031054222300,1.463222412109375,0.20816285796463488,-0.13510375923365353,-0.03561247105319053
1761467031064205300,1.473205322265625,0.18646306733191012,-0.10760901858657598,-0.15866959946658463
1761467031074187500,1.4831875,0.011087211203575134,-0.0077574183268938205,-0.19863387252110987
1761467031084170200,1.493170166015625,0.08979951339066028,0.001711005168966949,-0.1748487635143101
1761467031094153500,1.503153564453125,0.2264227372765541,0.014192931267106905,-0.12564215820422395
1761467031104136400,1.513136474609375,0.0915980872452259,0.07648880831818096,-0.07093688241261989
1761467031114119400,1.523119384765625,0.04252221390902996,0.11218800780675374,-0.04308020855139475
1761467031124102400,1.533102294921875,0.17136428239941595,0.08357310402332804,-0.027323352435813283
1761467031134085400,1.54308544921875,0.12392857748568058,0.07757392754061147,-0.025399133774428626
1761467031144068400,1.553068359375,0.11629998230338096,0.10134264253503643,-0.005951104123867117
1761467031154051300,1.56305126953125,0.09954349329173565,0.07764896553819998,0.049825897119054566
1761467031164034300,1.573034423828125,0.14398527708649633,0.03622189905527048,0.11952382145440205
1761467031174017500,1.583017578125,0.14144202234447,0.014761086543882265,0.1618505310576409
1761467031183999500,1.59299951171875,0.09535247134268283,-0.01831853243028745,0.14892758319373242
1761467031193982500,1.602982421875,0.10552490578889846,-0.07823931438047438,0.09976720991185865
1761467031203965400,1.61296533203125,0.1333557465225458,-0.1332082734764088,0.036796150712692176
1761467031213948400,1.622948486328125,0.12751871093213557,-0.13345773645914158,0.017218229338456875
1761467031223931400,1.632931396484375,0.0892103153258562,-0.12429642441738396,0.018862219986086712
1761467031233914400,1.642914306640625,0.1498129603266716,-0.12330807096716016,0.04984239616270642
1761467031243897300,1.6528974609375,0.11135492711663246,-0.083264987922227,0.05277569140193518
1761467031253880600,1.662880615234375,0.13125497485101223,-0.027579697250481695,0.04321991841618437
1761467031263863300,1.67286328125,0.10581716673374175,0.0019404574101325124,0.021486494941916314
1761467031273846300,1.68284619140625,0.12601765871942042,0.03990361064216122,-0.018386884958762676
1761467031283829500,1.69282958984375,0.12586743659377098,0.06487455016635357,-0.03478374687777832
1761467031293811200,1.702811279296875,0.12362345705926417,0.0954798971146345,-0.044651910280948504
1761467031303794400,1.71279443359375,0.10596563529372215,0.10286744094952009,-0.023485673969076012
1761467031313777400,1.72277734375,0.11898352229893207,0.08892143364818766,-0.027249072490050454
1761467031323760400,1.732760498046875,0.12047989833652972,0.08777136856392026,-0.019229669625568203
1761467031333743400,1.742743408203125,0.12437106055617332,0.056446132676140404,-0.031531174822617324
1761467031343726300,1.752726318359375,0.12556816138625143,0.012153187334118411,-0.041969548462331294
1761467031353709600,1.76270947265625,0.11449556322991847,-0.011216481872741131,-0.032138292136602103
1761467031363692500,1.772692626953125,0.12931202408969403,-0.02223141329139471,-0.03538967231509741
1761467031373675300,1.78267529296875,0.11898761395215987,-0.039179155125399115,-0.013834409286174923
1761467031383658500,1.792658447265625,0.11464987700879573,-0.03916430461613927,0.010487363880593329
1761467031393641500,1.802641357421875,0.12557517564892767,-0.044190274985413995,0.020401777578284964
1761467031403623400,1.81262353515625,0.1165986729890108,-0.043424875536910254,0.03220386818610132
1761467031413606400,1.8226064453125,0.12557751373648643,-0.03992965383229311,0.027099576450185847
1761467031423589400,1.83258935546875,0.1168997017621994,-0.01509340550447814,0.04453597858396824
1761467031433572600,1.842572509765625,0.13410861071646213,0.010249134677927941,0.05485584041054826
1761467031443555300,1.852555419921875,0.10807049861848354,0.04313316258133854,0.06233853801586665
1761467031453538300,1.862538330078125,0.11435469345450401,0.05726006114121992,0.05738699828940443
1761467031463521500,1.872521484375,0.12722177381217478,0.06303290435504168,0.043909046891238535
1761467031473504300,1.882504150390625,0.11899053656160831,0.05558362496213522,0.01655955080059357
1761467031483487500,1.892487548828125,0.12272972308993339,0.04084831674690358,-0.010837277863384225
1761467031493470500,1.902470458984375,0.11300269432365893,0.02711911683429498,-0.017583866046764887
1761467031503452400,1.912452392578125,0.13829203388094902,-0.004626778451236896,-0.027304734500311314
1761467031513435400,1.922435302734375,0.12213058815300463,-0.010497035891236737,-0.01933887018766254
1761467031523418400,1.93241845703125,0.1110568209528923,-0.01617924167953897,-0.006072465481213294
1761467031533401600,1.942401611328125,0.11973697101473807,-0.022736992759932764,0.008986603928823023
1761467031543384300,1.95238427734375,0.11943828032910823,-0.029876562316273336,0.021289985989127305
1761467031553367300,1.9623671875,0.1296124683409929,-0.040981322876270855,0.018984796052984892
1761467031563350500,1.9723505859375,0.11494739865064621,-0.013803123665344901,0.02057270913182292
1761467031573333500,1.98233349609375,0.11913725155591964,-0.017744162041856908,0.036615232054679654
1761467031583316200,1.992316162109375,0.11449731679558753,-0.023141865500085984,0.05524945197117049
1761467031593299500,2.002299560546875,0.12571955255568026,-0.05634377741336356,0.04995149169352371
1761467031603282400,2.012282470703125,0.11943360415399074,-0.03557816235821228,0.04031261613473761
1761467031613265400,2.022265380859375,0.13125497485101223,-0.023348475721781142,0.03132916314422619
1761467031623247400,2.032247314453125,0.11254968985915183,-0.023689909570594317,0.026173168620537035
1761467031633230300,2.042230224609375,0.1402314775109291,-0.017157201599911787,0.012821268454566596
1761467031643213600,2.052213623046875,0.10656184762120247,-0.005571374958124943,0.002193683252530172
1761467031653196300,2.0621962890625,0.1242190848648548,0.004979003122122958,-0.03233461385972332
1761467031663179300,2.07217919921875,0.12736205906569956,0.00672678750436753,-0.038229549083253364
1761467031673162200,2.082162353515625,0.11344693095982074,0.024795665155677122,-0.03090417463122867
1761467031683145200,2.092145263671875,0.11943477319777011,0.052370503567950796,-0.030065422252146524
1761467031693128200,2.102128173828125,0.1285632515490055,0.053813674413855185,-0.005016403389908373
1761467031703111200,2.112111083984375,0.11644319016635417,0.04984058779811021,0.005711925073130987
1761467031713094100,2.12209423828125,0.10342471863925456,0.042914770590304394,0.013430340263620019
1761467031723076000,2.132076171875,0.11853811661899089,0.02571892661359161,0.01941559781883843
1761467031733059000,2.14205908203125,0.11659165872633456,0.005787561292340979,0.03605388554460369
1761467031743042300,2.152042236328125,0.11539338885247706,-0.003944362844759598,0.048995711638918145
1761467031753025300,2.162025390625,0.1287111355870962,-0.013320861140312626,0.061487697906768876
1761467031763008000,2.172008056640625,0.12556757686436176,-0.017831570897251365,0.07782938187271356
1761467031772991200,2.1819912109375,0.1233218437641859,-0.0291627514911117,0.06418946311217733
1761467031782974200,2.19197412109375,0.13559095822870731,-0.03492831558077596,0.028017522412166
1761467031792957200,2.201957275390625,0.0996761797606945,-0.02701005326951854,-0.0061852188404183835
1761467031802940200,2.211940185546875,0.11688333514928817,-0.0075640283463755615,-0.0409627780060051
1761467031812923100,2.221923095703125,0.11403963615596294,0.018057899599568918,-0.06297638382825535
1761467031822906400,2.23190625,0.12361585827469825,0.04006650958629325,-0.04297641025020275
1761467031832889300,2.241889404296875,0.11299275745153427,0.04283388280724175,-0.01761202356216963
1761467031842871300,2.251871337890625,0.10117138675451279,0.04738766452092677,-0.0004295139910653233
1761467031852854300,2.261854248046875,0.12421674677729606,0.02902187258254271,0.000418714035837911
1761467031862837200,2.271837158203125,0.1327460901916027,0.009546361270011402,0.004693642275524325
1761467031872820200,2.2818203125,0.12975392263829708,-0.009043430416285992,0.01751295166844502
1761467031882803200,2.29180322265625,0.12706161481440068,-0.013561359931877813,0.028033140106406063
1761467031892786200,2.3017861328125,0.11763269221186637,-0.024245693989563732,0.04540081525237765
1761467031902769400,2.311769287109375,0.12436638438105582,-0.027904832985042594,0.04582205917201936
1761467031912752000,2.321752197265625,0.12391747156977653,-0.016858369350386784,0.02335686909079086
1761467031922735000,2.331735107421875,0.11299275745153427,-0.011397898287675342,0.008227826017350889
1761467031932718300,2.34171826171875,0.13843115009069443,-0.012470765383308753,-0.01434619016663637
1761467031942701000,2.351701171875,0.09817805015742778,-0.02628436477689538,0.012096146217524074
1761467031952684300,2.361684326171875,0.12242051101028918,-0.017338490150682628,0.02547845522149
1761467031962666200,2.371666259765625,0.1322965928584337,0.0011091622517211362,0.03874837162585463
1761467031972649200,2.381649169921875,0.11688333514928817,0.00806899589356035,0.06259915714685339
1761467031982632200,2.391632080078125,0.13139642914831637,0.02362799591606017,0.06542618813316803
1761467031992615200,2.401615234375,0.12855097658932207,0.019893535795202477,0.05329578801959287
1761467032002598400,2.411598388671875,0.11747604034543037,0.01869942150665447,0.008822357844398356
1761467032012581000,2.4215810546875,0.11492869395017623,-0.00960581810597796,-0.0396478001170326
1761467032022564000,2.431564208984375,0.11911620876789092,-0.0118215670598438,-0.07790790873533114
1761467032032547300,2.44154736328125,0.12794541191160677,0.009477314621792174,-0.09391200847709551
1761467032042530300,2.4515302734375,0.09248305338621139,0.02166610299225431,-0.07483931037837173
1761467032052513000,2.461512939453125,0.1448585527896881,0.03635156701665837,-0.04124590122974477
1761467032062496300,2.471496337890625,0.11717734965980052,0.032499197870865464,-0.01444814813719131
1761467032072478200,2.481478271484375,0.12465922984778881,0.019771804545097985,-0.0450831139056012
1761467032082461200,2.491461181640625,0.1499485694050789,-0.008873033152287825,-0.10494822014579548
1761467032092444200,2.501444091796875,0.13947802879512308,-0.021233296498982236,-0.12136838074200786
1761467032102427100,2.51142724609375,0.1165904896825552,0.02576772049164865,0.1762022239498794
1761467032112410400,2.521410400390625,0.08890402585566043,0.06933737936068791,0.5651693562997505
1761467032122393000,2.53139306640625,0.09682371293902396,0.010596071252343244,0.46622006604149935
1761467032132376300,2.541376220703125,0.1653489676326513,-0.09508223043340258,0.09895237726448103
1761467032142359300,2.551359375,0.11641104146242141,-0.15612663698550314,-0.18179847305435687
1761467032152342300,2.56134228515625,0.11955226209759712,-0.11564619456976652,-0.26668630380490793
1761467032162325200,2.5713251953125,0.12598901714682578,-0.019828019111207684,-0.10966585978483781
1761467032172308200,2.58130810546875,0.09411445398032665,0.10018555405493824,0.0875006801300682
1761467032182291200,2.591291259765625,0.11865151386559009,0.17592165344282984,0.14426013937196694
1761467032192274200,2.601274169921875,0.12283552155196666,0.17529626981979235,0.053537017463520166
1761467032202256100,2.611256103515625,0.12043605919480323,0.11189533586995676,-0.1303988329457119
1761467032212239400,2.6212392578125,0.11010989549160002,0.03748635233340319,-0.2828976713554934
1761467032222222300,2.631222412109375,0.11340426086187362,-0.025794384736288336,-0.30133813139870763
1761467032232205000,2.641205078125,0.11804711823165416,-0.036845013089408164,-0.18077698451951146
1761467032242188300,2.651188232421875,0.12239186943769455,-0.030863774122181345,-0.003787747510941699
1761467032252171300,2.661171142578125,0.12523849104046822,-0.02814655105273705,0.15144516463838517
1761467032262154000,2.671154052734375,0.13706219982504844,-0.03985323672837112,0.2255460092409514
1761467032272137200,2.68113720703125,0.13107669567465782,-0.07358910482130013,0.23840651372736318
1761467032282120200,2.6911201171875,0.11341653582155704,-0.10525584305655211,0.19580294167781248
1761467032292103200,2.701103271484375,0.11251520306766033,-0.12857377294301986,0.11939515357343479
1761467032302086100,2.711086181640625,0.12463234184086322,-0.11020983960158191,0.0793170905466657
1761467032312069000,2.721069091796875,0.1256751288920641,-0.07143320086246821,0.07120652966685592
1761467032322051300,2.73105126953125,0.12028349898159503,-0.0021183529939968137,0.06227635493327398
1761467032332034000,2.741033935546875,0.12626549600064754,0.05435434802866075,0.04103112596790306
1761467032342017300,2.751017333984375,0.12207038239836693,0.07774423347306438,-0.01652201810206752
1761467032352000300,2.761000244140625,0.1163806463241577,0.08470695775831118,-0.09112157404096796
1761467032361983200,2.770983154296875,0.12340952204763889,0.0818869867004454,-0.17761621893364934
1761467032371966200,2.78096630859375,0.10829495502412319,0.07363324992370325,-0.22380429840646682
1761467032381949200,2.79094921875,0.1237099662989378,0.07953687991034239,-0.2119382117848843
1761467032391932200,2.80093212890625,0.11398819822967052,0.07468722508919891,-0.13816928428411482
1761467032401915400,2.810915283203125,0.11638590702116489,0.06933141541078221,-0.03361196771862451
1761467032411898000,2.820898193359375,0.13329787885546684,0.05424622974537778,0.06564688167914282
1761467032421881000,2.830881103515625,0.12806056272387503,0.012590259010554291,0.11959211918395012
1761467032431864300,2.8408642578125,0.1199801321208477,-0.03141290047150105,0.1107291416347958
1761467032441846000,2.850845947265625,0.1373375096350908,-0.07207750838168431,0.10410249003665521
1761467032451829200,2.860829345703125,0.11324643995165824,-0.08936507662930525,0.09878670184137299
1761467032461812200,2.870812255859375,0.13030512678027154,-0.09873179331636056,0.09213050448833965
1761467032471795200,2.880795166015625,0.10202128158211707,-0.08259284254801459,0.10209998197467066
1761467032481778200,2.890778076171875,0.13359247788786888,-0.05275924715721048,0.08543105251546948
1761467032491761200,2.90076123046875,0.10949731655120849,-0.019496211607265286,0.03818451349828392
1761467032501744400,2.910744384765625,0.12924831120371819,0.003934531003911979,-0.013796643692208453
1761467032511727000,2.92072705078125,0.12326163800954817,0.02208778986989055,-0.04583060323807876
1761467032521710000,2.9307099609375,0.11323358047008514,0.030095470330538228,-0.07206253457483836
1761467032531693300,2.940693359375,0.13508008609712124,0.035811062365211546,-0.08044398481789976
1761467032541676300,2.95067626953125,0.11248480792939662,0.037237163345306176,-0.06921053811062593
1761467032551659000,2.960658935546875,0.11413257513642311,0.03147749927346594,-0.05005062295275274
1761467032561642200,2.970642333984375,0.11233692389130592,0.027788303066440857,-0.01997010816275142
1761467032571624200,2.980624267578125,0.10306056150197983,0.011187895099073648,0.010664875871967523
1761467032581607200,2.990607177734375,0.12071779874563217,0.0003924059842247516,0.0365770052364096
1761467032591590100,3.000590087890625,0.09557809679210186,-0.012581148688914254,0.062479923814511854
1761467032601573000,3.010572998046875,0.11952011339366435,-0.019883329495019277,0.06864488075161353
1761467032611556400,3.020556396484375,0.13568155912160873,-0.014585739110130816,0.05813209016881883
1761467032621539000,3.0305390625,0.11308511191010474,-0.0006455587613862008,0.052307192540774115
1761467032631522300,3.040522216796875,0.10455343040823936,-0.007431396676343865,0.042210960569349115
1761467032641505300,3.05050537109375,0.12894435982108116,0.006558687228732742,0.014355359853780827
1761467032651488300,3.06048828125,0.11083820976614951,0.01060617252124939,-0.000031039025657810266
1761467032661471200,3.07047119140625,0.10709668515026569,0.016817229055822825,-0.01686533794729039
1761467032671458600,3.08045849609375,0.12654782007336615,0.027014071857510133,-0.026987681607506236
1761467032681441500,3.090441650390625,0.11427812108695506,0.009725896255113184,-0.024245602658018468
1761467032691424500,3.100424560546875,0.12999006948173045,0.015420559666189364,-0.011786851939489133
1761467032701406500,3.110406494140625,0.12250935833752155,0.012123463482712395,0.006699324108706787
1761467032711389400,3.120389404296875,0.12265958046317099,0.007083765982184559,0.028424646474909967
1761467032721372700,3.13037255859375,0.10874269879162311,0.010507813013577833,0.039223460058006455
1761467032731355400,3.14035546875,0.11981529694795608,-0.0036467270384775473,0.050863998861983416
1761467032741338400,3.15033837890625,0.1332820967644453,-0.011166235823114401,0.032527707012719474
1761467032751321600,3.160321533203125,0.10933891111910342,-0.0230482095669955,0.015499118494847789
1761467032761304600,3.1703046875,0.13313187463879583,-0.022265621521673162,0.0014559663953958078
1761467032771287600,3.18028759765625,0.13178630524873733,-0.01875278652855195,-0.009171344812004826
1761467032781270500,3.1902705078125,0.10425357067883013,-0.0020079696883913128,-0.0002452982642687857
1761467032791253500,3.20025341796875,0.12056290044486521,0.008813137924904003,0.008437418213998899
1761467032801236700,3.21023681640625,0.12984043187797067,0.027867734111356547,0.015579864714015275
1761467032811219500,3.220219482421875,0.10709551610648631,0.030267452196846713,0.017119257909432053
1761467032821202400,3.230202392578125,0.1223585516899824,0.02643616693827789,-0.0024288208823883906
1761467032831184600,3.2401845703125,0.12445347814261913,0.0325411966819549,-0.012952237890474498
1761467032841167400,3.25016748046875,0.110686234074831,0.016698237752076236,-0.0031165656845318153
1761467032851150600,3.260150634765625,0.12849193987846375,-0.0010401384363882243,0.008387770385993644
1761467032861133600,3.270133544921875,0.12355389895439148,0.0003107373164501041,0.009278262085467576
1761467032871116500,3.280116455078125,0.12100947516858578,0.0030906823246041313,0.015565288199391215
1761467032881099500,3.290099609375,0.11846563590466976,-0.0015445853937650098,0.01588360146752093
1761467032891082500,3.30008251953125,0.1329822370350361,-0.009011592239607125,-0.01128496683195699
1761467032901065500,3.3100654296875,0.11831833638846874,-0.019935804034350437,-0.0005721190658397972
1761467032911048700,3.320048583984375,0.1198147124260664,-0.005756307637551799,0.025986445842823013
1761467032921031400,3.330031494140625,0.13073767297863959,0.008979772329237311,0.052516885202121916
1761467032931014700,3.3400146484375,0.11008476105034351,0.0010702276139752938,0.06212061181571334
1761467032940997600,3.34999755859375,0.11098024858534336,0.005527462751162238,0.03948687850085553
1761467032950980600,3.359980712890625,0.11636661779880524,0.0015366486824816093,0.0007733909587142988
1761467032960963600,3.369963623046875,0.11427052230238914,-0.010843264646176248,-0.02199345808336511
1761467032970945500,3.379945556640625,0.11816051547825336,-0.01259461552526336,-0.014792121002962812
1761467032980928800,3.3899287109375,0.12204992413222789,0.004416483001690358,0.0038864814779488365
1761467032990911500,3.399911376953125,0.12728607122004032,0.015553223302261903,0.020582595771597698
1761467033000894500,3.40989453125,0.105736502712965,0.020323332914058117,0.02764189859938342
1761467033010877700,3.419877685546875,0.1256359659254551,0.022800687379599546,0.015002877676812932
1761467033020860400,3.4298603515625,0.1323702426165342,0.014108655083714984,0.002734722193516791
1761467033030843400,3.439843505859375,0.10019757328629493,0.003387879739468917,0.0011175145215354858
1761467033040826600,3.44982666015625,0.11980009937882423,-0.008501076301047577,0.0027524770459160207
1761467033050809600,3.4598095703125,0.11456278324723243,-0.013384331997693516,0.004104654273274355
1761467033060792300,3.469792236328125,0.11381576427221297,-0.010089162909821607,0.010540792834572493
1761467033070775600,3.479775634765625,0.12324468687474727,0.004449924046988599,0.01189998889118433
1761467033080758500,3.489758544921875,0.1121720887184143,0.0004097863772884011,0.011236154687590896
1761467033090741800,3.49974169921875,0.12429507271051406,0.0012643254139693453,0.0013472224910277874
1761467033100724500,3.509724365234375,0.09197335029840469,0.003412356593599543,0.017099763191095553
1761467033110706700,3.519706787109375,0.11441899086236954,0.021238548062834886,0.02615572886196896
1761467033120689700,3.529689697265625,0.1314782622128725,0.02494787830901332,0.020944465053663586
1761467033130672400,3.53967236328125,0.10948036541640759,0.02363112858806271,0.03321825569330249
1761467033140655600,3.549655517578125,0.12414426606297492,0.02574355416477192,0.02911977999906521
1761467033150638600,3.559638671875,0.1145686284661293,-0.011916204807045869,0.01303550942686852
1761467033160621600,3.56962158203125,0.11351999619603156,-0.03190056525743566,0.005155757061671465
1761467033170604500,3.5796044921875,0.13581716820001602,-0.009631336139724589,-0.003965396499633789
1761467033180587500,3.58958740234375,0.11606441998183727,0.009537885702610946,-0.01256051232626196
1761467033190570500,3.599570556640625,0.09945523048639297,0.027235692418669348,-0.031068480081157757
1761467033200553700,3.6095537109375,0.11322422811985015,0.04359766568739432,-0.0659613909884123
1761467033210536400,3.619536376953125,0.1250479369044304,0.053313579404610206,-0.05447023405986838
1761467033220519400,3.62951953125,0.11337971094250679,0.06109562071610707,-0.046447068335721264
1761467033230502700,3.639502685546875,0.11233633936941623,0.055012537942756894,-0.03339729292148259
1761467033240485400,3.6494853515625,0.11533259857594966,0.042738555506872944,0.0001960659947944805
1761467033250467600,3.659467529296875,0.1323936234921217,0.027429762819199822,0.029410652704420497
1761467033260450600,3.669450439453125,0.13329378720223903,0.012066650694981217,0.055300250576646066
1761467033270433500,3.67943359375,0.11773030736744403,-0.016049254057742653,0.07669677937990053
1761467033280416500,3.68941650390625,0.1346416946798563,-0.04656057518017478,0.07344022526936606
1761467033290399500,3.6993994140625,0.14017887054085731,-0.06866185015272348,0.077094628724223
1761467033300382700,3.7093828125,0.127159814491868,-0.08177168975770473,0.0742070631897077
1761467033310365400,3.719365478515625,0.1041162080347538,-0.08250789507776499,0.061760770093952304
1761467033320348400,3.729348388671875,0.12416530885100364,-0.07357817700190934,0.051641846800106576
1761467033330331600,3.73933154296875,0.12581132249236107,-0.05101891086248215,0.028302677762787786
1761467033340314600,3.749314697265625,0.1145861641228199,-0.01978935390152037,-0.006478100839769467
1761467033350297300,3.75929736328125,0.10830138476490973,0.005886509888479486,-0.029299420015444045
1761467033360280600,3.769280517578125,0.12087094348073005,0.01805702738331165,-0.04475138403347227
1761467033370263600,3.779263671875,0.13044833464324473,0.032343550651427355,-0.04373923414913006
1761467033380246500,3.78924658203125,0.10411211638152598,0.0483625100356061,-0.028214314492745324
1761467033390228500,3.799228515625,0.11922551436126232,0.054612674737861376,0.0019056509582325814
1761467033400211500,3.80921142578125,0.1253612406373024,0.055914852510765195,0.002525321793113835
1761467033410194700,3.819194580078125,0.12072305944263935,0.04605188130594324,-0.0015196107827126978
1761467033420177400,3.829177490234375,0.12311784562468528,0.013590992451738565,-0.0019135876695159822
1761467033430160600,3.83916064453125,0.1325461837053299,0.0017438160266028716,0.002144519481714815
1761467033440143600,3.8491435546875,0.10860416710376739,-0.018508415279467588,0.01659415632309392
1761467033450126600,3.859126708984375,0.12596329818367957,-0.017418702080310322,0.021237232888583094
1761467033460109600,3.869109619140625,0.11204641651213168,-0.005982453676778823,0.04533956831812393
1761467033470092500,3.879092529296875,0.11144786609709262,-0.004095694648684002,0.06404787638413253
1761467033480075500,3.889075439453125,0.11698328839242457,-0.008205522853997536,0.062021982879983256
1761467033490058800,3.899058837890625,0.12207038239836693,-0.004883812819072045,0.05576716026891954
1761467033500041500,3.90904150390625,0.11443652651906012,-0.007825907852686942,0.026730944067193195
1761467033510024400,3.9190244140625,0.12715513831675052,-0.016613495777803473,0.0007722630141302943
1761467033520007700,3.929007568359375,0.116232762286067,-0.0015476267342222853,-0.015791009546932765
1761467033529989400,3.9389892578125,0.11084580855071544,-0.0008306375712854787,-0.021471913860714995
1761467033539972600,3.94897265625,0.13119710718393324,0.020693070408748463,-0.013135197808523662
1761467033549955600,3.95895556640625,0.12072072135508059,0.027234317878913134,0.0028780076883034777
1761467033559938300,3.968938232421875,0.12476152117848395,0.02819858263407368,-0.0033274502225453034
1761467033569921500,3.978921630859375,0.126259066259861,0.031126320348773148,-0.0069744603888131675
1761467033579904500,3.988904541015625,0.11653262201547622,0.023404941449640317,-0.006289661029004492
1761467033589886500,3.998886474609375,0.13239537705779075,-0.0015327899246942252,-0.0058949352235300465
1761467033599869400,4.008869384765625,0.11548632783293723,0.007043050379306077,0.010477038849401286
1761467033609852700,4.018852783203125,0.1105471178650856,-0.005425564146111719,0.025908978426130488
1761467033619835600,4.028835693359375,0.1313479138314724,-0.0033969215624500065,0.03776211423459463
1761467033629818400,4.038818359375,0.1802764876514673,0.010233576349192298,0.0797649256457109
1761467033639801600,4.048801513671875,0.17712357657849787,0.10144085134565829,0.19533280341541392
1761467033649784600,4.05878466796875,-0.07860358111560345,0.12243835719423368,0.060002825077297164
1761467033659767600,4.068767578125,0.055621933978796,-0.015451064402307382,-0.1420060677017085
1761467033669750000,4.07875,0.2884562918633222,-0.1668593904619105,-0.18005042381063102
1761467033679733000,4.08873291015625,0.17563363028168677,-0.056751189170475114,-0.09053332582423462
1761467033689716000,4.098716064453125,-0.034010406151413916,0.018290708275022917,-0.01704068538104184
1761467033699698000,4.108697998046875,0.10440788445770739,-0.018439427996752782,0.01993037437398452
1761467033709681200,4.11868115234375,0.3291664879143238,-0.05401175426922272,-0.010043634134507737
1761467033719663900,4.128663818359375,0.022108371433615683,-0.01003262411672622,-0.014232788353459909
1761467033729646800,4.138646728515625,0.051741877675056454,0.03233217987404205,0.02783190931272693
1761467033739630000,4.148630126953125,0.187017194083333,-0.02293312725338619,0.10373539202362299
1761467033749612800,4.15861279296875,0.1656155096143484,-0.004692276868922636,0.12923886752193792
1761467033759595800,4.168595703125,0.08630699509978294,0.04961279779106844,0.14893299002121202
1761467033769579000,4.1785791015625,0.10231529609262943,0.040420044864853844,0.16156791472397744
1761467033779562000,4.18856201171875,0.13956746064424513,-0.011640835631499067,0.08614997790716589
1761467033789544700,4.198544677734375,0.13148352290987966,-0.01268915280776564,-0.011775513128144666
1761467033799528000,4.20852783203125,0.10050620084404945,-0.007990642560878768,-0.03262630398240871
1761467033809511000,4.218510986328125,0.11486790367364882,-0.02043259284165688,-0.025915531464503146
1761467033819494000,4.228493896484375,0.1400052675396204,-0.009747386567713692,-0.029816676222044043
1761467033829476900,4.238476806640625,0.10843056410253048,0.0055328604454873125,-0.04478831394379958
1761467033839458800,4.248458740234375,0.1073836853981018,0.01157981245953124,-0.044605623453808946
1761467033849442000,4.258442138671875,0.12070201665461062,-0.0029249977683415635,-0.05011753700939007
1761467033859424800,4.2684248046875,0.12115151398777961,-0.009547621645336039,-0.07778371610008179
1761467033869408000,4.278407958984375,0.11890753445327282,0.0025180061363382264,-0.053290773917757904
1761467033879391000,4.288390869140625,0.11621639567315578,0.00894375573436264,-0.009099101559701376
1761467033889374000,4.2983740234375,0.12534604306817054,0.019719960193429142,0.03513658347001765
1761467033899357000,4.30835693359375,0.1263940908163786,0.03706822738603223,0.07311942321662791
1761467033909340000,4.31833984375,0.10948270350396633,0.046744905071402894,0.09531312571298331
1761467033919323000,4.328322998046875,0.11187456707656383,0.03835867362194694,0.09087275951220654
1761467033929306000,4.33830615234375,0.10902969903945922,0.01340936597425025,0.05548436127216555
1761467033939288800,4.348288818359375,0.1253384442836046,-0.0011237250666134059,0.014583757215598597
1761467033949271800,4.358271728515625,0.10692951188981532,-0.0077339095871429885,-0.017155018775979986
1761467033959255000,4.368255126953125,0.098996380802989,-0.0142593156007817,-0.025214383758092297
1761467033969237800,4.37823779296875,0.12967092052996157,-0.005430633046873845,-0.028809426275105215
1761467033979221000,4.388220947265625,0.1175491055816412,0.009119733355776406,-0.020139843273046427
1761467033989204000,4.398203857421875,0.12413374466896056,0.009569929375266656,-0.011209732471546158
1761467033999186000,4.40818603515625,0.10078969396054745,0.008831614296510816,-0.0040947265343042084
1761467034009169000,4.4181689453125,0.11260989561378955,0.010009330006106756,0.0005488386549521237
1761467034019152000,4.42815185546875,0.13745090688169,0.0005902483775746077,0.009948653894010931
1761467034029135000,4.438135009765625,0.11051730724871157,-0.005364792135893367,0.03208714190467726
1761467034039117800,4.448117919921875,0.1075228016078472,-0.0011056551203830168,0.02831317175733857
1761467034049100800,4.458100830078125,0.1266775839328766,0.003455825842567719,0.0042732751387171445
1761467034059084000,4.468083984375,0.10887129360735416,0.0031575233160052447,-0.011490106615773401
1761467034069067000,4.47806689453125,0.12099193951189517,0.0058670425696065644,-0.016145435308059678
1761467034079049700,4.4880498046875,0.11336100624203681,0.012807080099009908,-0.006011761969653889
1761467034089033000,4.498032958984375,0.12323825713396072,0.010833158810692838,0.0007902279290836304
1761467034099016000,4.508015869140625,0.1256312897503376,0.007041771737672388,0.027039580758102238
1761467034108999000,4.5179990234375,0.1135100593239069,0.005335264647309668,0.023449826337560077
1761467034118982000,4.52798193359375,0.11710194633603095,0.006612568273860961,0.018169269285863265
1761467034128964900,4.53796484375,0.12727788791358471,-0.0076162197579164054,0.020347860000538637
1761467034138950000,4.547949951171875,0.13281331020891665,-0.005757736976235174,0.028633430387382395
1761467034148932900,4.557932861328125,0.10916764620542525,-0.012893849633587523,0.029352255314378996
1761467034158916000,4.567916015625,0.144483874258399,-0.005543642134405672,0.017178317453176713
1761467034168898800,4.57789892578125,0.11575403885841369,-0.007247843103250488,0.01290182287748903
1761467034178881800,4.5878818359375,0.1260807870835066,-0.0026159181194379925,0.003897637626202777
1761467034188865000,4.597864990234375,0.12653028441667555,0.007915047440864145,0.009081570469588041
1761467034198848000,4.607847900390625,0.11695581586360931,0.018780012462195007,0.027786006078077477
1761467034208830700,4.617830810546875,0.12428805844783783,0.024901532116369342,0.04050823460496031
1761467034218814000,4.62781396484375,0.12249299172461033,0.02080817555524409,0.0392003257775912
1761467034228796000,4.6377958984375,0.12877718656063078,0.006617719373013824,0.028940884334780273
1761467034238779000,4.64777880859375,0.12398761419653892,-0.001992082566092722,0.020559918148908764
1761467034248761900,4.657761962890625,0.11695523134171962,-0.0035794293893501162,0.011937832116964272
1761467034258744800,4.667744873046875,0.1382014329880476,-0.0170262549968902,0.0021725582661107183
1761467034268728000,4.67772802734375,0.10572715036273002,-0.016113816327089442,-0.00841290939382743
1761467034278710800,4.687710693359375,0.13041677046120165,-0.012052128979284316,-0.024291003569168967
1761467034288694000,4.697694091796875,0.1015367129355669,-0.03200136788394302,-0.02952205892333295
1761467034298677000,4.707677001953125,0.13041618593931198,-0.02410840897730086,-0.03111929238636512
1761467034308660000,4.717659912109375,0.12577858926653862,-0.001687167635653168,-0.0324998508914141
1761467034318643000,4.727642822265625,0.11665186448097228,0.0012510229744017124,-0.015581992739019914
1761467034328626000,4.7376259765625,0.11380991905331611,0.01154983744637575,0.01836268209926784
1761467034338609000,4.74760888671875,0.11515899557471275,0.020687508317641913,0.039114022033894434
1761467034348591900,4.757591796875,0.11755495080053806,0.01711211121601518,0.035963841774128376
1761467034358574800,4.767574951171875,0.11261690987646579,0.003736241085990332,0.022352669617463832
1761467034368557800,4.777557861328125,0.13880349053442478,0.007574873967375606,0.023606829830445347
1761467034378540000,4.7875400390625,0.13865268388688565,0.010726912824087775,0.04399090278868097
1761467034388522800,4.797522705078125,0.09166413821876049,0.019243702717497944,0.047177346238493914
1761467034398506000,4.807506103515625,0.11425824734270572,0.009433379581943154,0.024747136139101348
1761467034408489000,4.817489013671875,0.12592939591407776,0.011527735212421975,-0.013216884742607361
1761467034418472000,4.827471923828125,0.1082721586704254,0.0017394732116255908,-0.04625265544189606
1761467034428455000,4.837454833984375,0.11186404568254947,0.019469387532421386,-0.05079985671774484
1761467034438438000,4.84743798828125,0.11890110471248626,0.030564389316807498,-0.027417935384088193
1761467034448421000,4.857421142578125,0.12743220169246197,0.034408045433182266,-0.008825750811304897
1761467034458403800,4.86740380859375,0.11935294013321399,0.029436367100989444,0.019197182994917964
1761467034468386800,4.87738671875,0.1304284608989954,0.014911810993030666,0.04878779537612572
1761467034478370000,4.8873701171875,0.1174094048500061,0.0016378303349018097,0.06471504418912809
1761467034488353000,4.89735302734375,0.11995090602636337,-0.017763464963948355,0.07654560283960309
1761467034498335700,4.907335693359375,0.14104805459082126,-0.030564416716271078,0.07323877071340103
1761467034508319000,4.917319091796875,0.1102197856068611,-0.03678567041787319,0.06288889277447014
1761467034518302000,4.927302001953125,0.12144085232317448,-0.028967164986929854,0.03944367867994587
1761467034528284000,4.937283935546875,0.13326163849830627,-0.0179893598414259,-0.00626621165475808
1761467034538267000,4.947266845703125,0.09824585469663143,-0.018783446528296915,-0.034497810642444525
1761467034548249900,4.957249755859375,0.12518179241716862,-0.00457931344716344,-0.05914932722023222
1761467034558233000,4.967233154296875,0.09794891757667064,0.00703901352500543,-0.04661109065786004
1761467034568215800,4.9772158203125,0.10812661271989345,0.025471477491431867,-0.04142035818092991
1761467034578198800,4.98719873046875,0.12758183929622172,0.03639949324503541,0.010600770260347054
1761467034588182000,4.99718212890625,0.11531214030981063,0.03824307985168416,0.04914051323735621
1761467034598165000,5.0071650390625,0.12264438289403914,0.024936854591500014,0.08264237164501101
1761467034608148000,5.01714794921875,0.13206979836523533,-0.0024386618563905357,0.09635784899294376
1761467034618131000,5.027130859375,0.10303893419206142,-0.02266296854249667,0.07029763922758865
1761467034628114000,5.037114013671875,0.11590484550595283,-0.04291717260994483,0.05130553665098268
1761467034638097000,5.047096923828125,0.1337087977439165,-0.058581980227632446,0.013503373533789999
1761467034648080000,5.057079833984375,0.12562544453144073,-0.03702405031758826,0.0005282936238450929
1761467034658062800,5.067062744140625,0.09584697686135768,-0.015675424909824504,-0.009720256532193161
1761467034668046000,5.077046142578125,0.1280184771478176,0.004349861205997877,-0.034478964378079395
1761467034678027800,5.08702783203125,0.13220716100931168,0.008400159510108642,-0.07007215990864206
1761467034688011000,5.097010986328125,0.10841595105528831,0.036428819804219525,-0.08325138865513726
1761467034697994000,5.106993896484375,0.11530161891579627,0.07240459861131385,-0.05447245341641828
1761467034707977000,5.11697705078125,0.1200929448455572,0.0627400588883087,-0.02953733869085554
1761467034717960000,5.1269599609375,0.12039338909685611,0.07106498860458377,-0.012807262762100435
1761467034727943000,5.13694287109375,0.10827508127987384,0.05154419511191081,0.010516991833876818
1761467034737926000,5.14692578125,0.11934943300187587,0.02895936527296435,0.011827453377936035
1761467034747909000,5.1569091796875,0.11994973698258399,0.008026312095881439,0.016694552524224852
1761467034757891800,5.166891845703125,0.1115706156939268,-0.013037157961260527,0.03213484893734567
1761467034767875000,5.176875,0.1150128651022911,-0.03635857214618008,0.046441017620847555
1761467034777858000,5.186858154296875,0.1263847384661436,-0.0329612258920446,0.05851603428537491
1761467034787840800,5.1968408203125,0.12668401367366314,-0.047569341230764985,0.048847494240687225
1761467034797824000,5.206823974609375,0.11979951485693455,-0.033685092320339755,0.046590618691989216
1761467034807807000,5.216806884765625,0.11142097809016704,-0.026990238890773614,0.036282063710712825
1761467034817789200,5.2267890625,0.1212958908945322,-0.03193674624909181,0.033310751715768125
1761467034827772000,5.23677197265625,0.11381401070654391,-0.0031134604119928554,0.021887691587372683
1761467034837755000,5.2467548828125,0.12608429421484468,0.004039676445396617,-0.003521420158375986
1761467034847738000,5.256738037109375,0.10453647927343845,0.007011403998872265,-0.014264453000202773
1761467034857720800,5.266720947265625,0.12862754895687104,0.020912713641952723,-0.027052038380876182
1761467034867703800,5.276703857421875,0.12084639356136322,0.021945577520760706,-0.0135474227380706
1761467034877687000,5.28668701171875,0.1061813238710165,0.02589224648703821,0.005337022779555991
1761467034887670000,5.296669921875,0.11366320405900478,0.02293184404517524,0.00964935128702782
1761467034897653000,5.306653076171875,0.11231646562516688,0.025004207039554603,0.010543628679052926
1761467034907636000,5.316635986328125,0.12593465661108494,0.02144450526398141,-0.0008594983395887538
1761467034917619000,5.326618896484375,0.10827800388932228,0.0028571612630970775,0.0033687823133543133
1761467034927602200,5.336602294921875,0.11994798341691493,0.006371484960406087,0.0009777726907050236
1761467034937585000,5.3465849609375,0.12473580221533774,-0.002400909962155856,0.006706900060386396
1761467034947567900,5.35656787109375,0.12294073549211025,-0.004768566108681261,0.008945020676264539
1761467034957551000,5.366551025390625,0.11067103650569915,0.00694147143466398,0.014837133755045941
1761467034967532800,5.37653271484375,0.12982581883072852,-0.0005559168497100472,0.020881263624341225
1761467034977516000,5.38651611328125,0.11636018805801868,-0.0194120176222641,0.009146603096392937
1761467034987499000,5.3964990234375,0.11127250953018665,-0.013260185028216801,0.011378088475507683
1761467034997482000,5.40648193359375,0.10693243449926376,-0.016884841798781417,0.013353964258893392
1761467035007465000,5.41646484375,0.12099895377457141,-0.03221262231471483,0.0023870823662029577
1761467035017448000,5.426447998046875,0.10693301902115344,-0.025229791389778256,0.014428909147181547
1761467035027431000,5.436430908203125,0.11860475211441517,-0.010609296060097403,0.009818789569800718
1761467035037414100,5.4464140625,0.10902794547379016,-0.0008036536662373692,-0.0031827490888070315
1761467035047396900,5.45639697265625,0.11800795526504516,-0.005022842263849451,-0.012675704237725585
1761467035057379800,5.4663798828125,0.11352058071792125,-0.0008710426469100639,-0.03425110587237868
1761467035067363000,5.476363037109375,0.11711422129571437,0.0034430257264990356,-0.04157478612423874
1761467035077345800,5.486345703125,0.11966039864718914,0.015366792785492725,-0.027766191699332556
1761467035087329000,5.4963291015625,0.11203121894299983,0.023545354567328466,0.014993027569656259
1761467035097312000,5.50631201171875,0.10919044255912304,0.029022027846169658,0.05004909314936958
1761467035107294000,5.5162939453125,0.13148761456310748,0.037790162152145056,0.06260221675361972
1761467035117277000,5.52627685546875,0.12101356682181358,0.026508268626686184,0.053912732607848006
1761467035127260000,5.536260009765625,0.10904255852103233,0.02098059581296984,0.04635021123196929
1761467035137243100,5.5462431640625,0.1051525653451681,0.004429406415345147,0.02147302810556721
1761467035147225900,5.556225830078125,0.12924538859426973,-0.018237041859026065,-0.016593297806568444
1761467035157208800,5.566208740234375,0.11233809293508529,-0.04469043392674066,-0.035599511106917635
1761467035167192000,5.576192138671875,0.11862579490244388,-0.0525115925390739,-0.036677369471499695
1761467035177175000,5.586175048828125,0.11174597226083278,-0.055781312091858125,-0.0343899480874883
1761467035187157800,5.59615771484375,0.11743512381315231,-0.053194898628117514,-0.028302915224805474
1761467035197141000,5.60614111328125,0.10980652863085269,-0.02960482356965076,-0.01893866905604955
1761467035207124000,5.6161240234375,0.10217851797044276,-0.02443996988607105,-0.021657673090626484
1761467035217107000,5.62610693359375,0.12881751857101917,0.005774733776808716,-0.004194999437849037
1761467035227090000,5.63608984375,0.13361001354455948,0.03708603703735862,0.02430456173706334
1761467035237073000,5.646072998046875,0.11251461854577063,0.053123532158648595,0.06502652129109483
1761467035247055000,5.65605517578125,0.12747896344363688,0.07498619890261907,0.09759431371903046
1761467035257037800,5.666037841796875,0.11924831071496009,0.08186890305448323,0.11953096358124166
1761467035267021000,5.67602099609375,0.11775076563358307,0.0660639380474342,0.09291643983479589
1761467035277004000,5.686004150390625,0.11071546016931533,0.053757290884386744,0.0533555462496588
1761467035286987000,5.695987060546875,0.1307645609855652,0.035764684206526724,0.02968203982459381
1761467035296970000,5.705969970703125,0.10801613808274269,0.009677289606723934,0.02280888895236421
1761467035306953000,5.715952880859375,0.13300211077928542,-0.0023377678983379155,0.0003541198004502803
1761467035316936000,5.72593603515625,0.11758768402636051,-0.017320981893455607,-0.03027766306360718
1761467035326919200,5.735919189453125,0.11609072346687316,-0.045937260216637514,-0.043609164328943004
1761467035336902000,5.74590185546875,0.12910977951586244,-0.044919575640652326,-0.058641774990316475
1761467035346884900,5.755884765625,0.10846212828457355,-0.044121506898407825,-0.034674879675824194
1761467035356868000,5.7658681640625,0.1298614746659994,-0.04625940484309103,-0.0242350081987679
1761467035366850800,5.775850830078125,0.12507424038946627,-0.02836526270417962,0.021912611399497836
1761467035376833800,5.785833740234375,0.13061316981613635,-0.009274453560030087,0.06072425751991104
1761467035386816000,5.79581591796875,0.11864274603724478,-0.000882226194627583,0.09024690096513367
1761467035396799000,5.805799072265625,0.11325403873622417,0.003729825044935569,0.0946354365139734
1761467035406782000,5.815781982421875,0.12417466120123863,-0.0077233014281606295,0.09154695984618738
1761467035416765000,5.825764892578125,0.11683949600756167,-0.009384129046159796,0.08948349711089394
1761467035426748200,5.835748046875,0.10247019439339637,0.003653001515637152,0.05548366715242155
1761467035436731000,5.84573095703125,0.09393734384775161,-0.010724684334383346,0.008396456015948206
1761467035446713900,5.8557138671875,0.10860007545053958,-0.008683926621242425,-0.06530152057388332
1761467035456697000,5.865697021484375,0.13284078273773192,-0.002803599878377281,-0.11088151918491349
1761467035466680000,5.87568017578125,0.11922434531748294,0.020846553070563822,-0.1307565603422001
1761467035476662800,5.885662841796875,0.11039806478321551,0.042874721707706336,-0.09441448723967187
1761467035486646000,5.89564599609375,0.11474106242358684,0.046415969944559037,-0.04900169385513291
1761467035496629000,5.90562890625,0.12447042927742004,0.02856315532987937,-0.01036420329180546
1761467035506612000,5.915612060546875,0.13150631926357745,0.02391827039979398,0.03105748832968529
1761467035516594000,5.925593994140625,0.12163140645921229,0.013642836803407407,0.08903855722183361
1761467035526577000,5.935576904296875,0.13180617899298666,0.0028156647755065932,0.1175842499602586
1761467035536560000,5.94556005859375,0.11519289784431457,-0.019363671268778852,0.13651704183137042
1761467035546542800,5.95554296875,0.11893149985074997,-0.029752945069759153,0.13151144296326675
1761467035556525800,5.96552587890625,0.11159516561329363,-0.025400170387467367,0.0993531035524793
1761467035566509000,5.975509033203125,0.10485621274709701,-0.028630498644779435,0.056141688103158956
1761467035576492000,5.985491943359375,0.13148644551932812,-0.015459252275340259,-0.012411230915528721
1761467035586475000,5.99547509765625,0.12998714687228202,0.00008434011547360569,-0.06121249312800355
1761467035596458000,6.0054580078125,0.10350012196302413,0.02566257048358675,-0.109688108149264
1761467035606441000,6.01544091796875,0.1162199028044939,0.04013817288328428,-0.1364403324665036
1761467035616424000,6.025423828125,0.12116028181612491,0.050233231244352645,-0.14658046294515953
1761467035626407000,6.035406982421875,0.10485270561575889,0.03979186192995403,-0.13792610491169616
1761467035636390000,6.045389892578125,0.09064064038991927,0.02969968964571599,-0.10182269027009606
1761467035646373000,6.055373046875,0.1279050799012184,-0.00994120580649469,-0.03855196313776541
1761467035656354800,6.065354736328125,0.13613923976123332,-0.02820594395662192,0.03701591267690528
1761467035666334500,6.07533447265625,0.11100129137337207,-0.05033580570283811,0.12474036879260092
1761467035676317400,6.0853173828125,0.1198316635608673,-0.05337532866236288,0.16638353484477847
1761467035686300400,6.095300537109375,0.11384674393236636,-0.06940465874350629,0.16727200811710208
1761467035696283600,6.10528369140625,0.11085282281339168,-0.06135174633506685,0.12637299322942272
1761467035706266400,6.115266357421875,0.13030454225838184,-0.030257181964581832,0.09146730047240853
1761467035716249300,6.125249267578125,0.12701076140999792,-0.005835944178444333,0.07348243870958686
1761467035726232600,6.135232666015625,0.11443944912850856,0.035380740089970636,0.059299645244004204
1761467035736215300,6.14521533203125,0.11623334680795669,0.054138084062631237,0.022529460089630447
1761467035746198500,6.155198486328125,0.11742810955047607,0.062289004352292975,-0.0032511609827866775
1761467035756181500,6.165181396484375,0.11951894434988498,0.05231870031547732,-0.0188985197087517
1761467035766164500,6.17516455078125,0.10500292774140835,0.02379480385032948,-0.05025630159268621
1761467035776147500,6.1851474609375,0.13403262287080286,0.007694509158516302,-0.07185799757922068
1761467035786130400,6.19513037109375,0.0982686510503292,-0.0015122448935871943,-0.0764811273352243
1761467035796112600,6.205112548828125,0.1250555356889963,-0.010305723703373224,-0.0755951200146228
1761467035806095400,6.215095458984375,0.10575228480398655,-0.013664413880975916,-0.05375532725616358
1761467035816078300,6.225078369140625,0.11877250989675521,-0.01595473960812669,-0.02998999609549064
1761467035826061600,6.2350615234375,0.12790274181365965,-0.007399170340597629,-0.006620728747430257
1761467035836044500,6.24504443359375,0.09857494052052497,-0.009090662524919024,0.01283612353040371
1761467035846027300,6.25502734375,0.144366385358572,-0.0005306225782493129,0.029092745861667206
1761467035856010500,6.265010498046875,0.13179799568653106,0.018496131186629645,0.049357014665403404
1761467035865993500,6.274993408203125,0.10875438922941684,0.020029980557248927,0.06578686553856823
1761467035875976400,6.2849765625,0.12312018371224402,0.03441934314533136,0.05338870416716672
1761467035885959400,6.29495947265625,0.1042640920728445,0.03439983016068581,0.04820668471965473
1761467035895942400,6.3049423828125,0.12521394112110137,0.03535596640831791,0.02917123162508942
1761467035905925600,6.314925537109375,0.12222060452401637,0.03395140597317368,-0.005225557195139117
1761467035915908600,6.32490869140625,0.1165332065373659,0.02306737549176905,-0.02284071342931129
1761467035925890600,6.334890625,0.13418985925912857,0.01998594961927738,-0.04677876624180935
1761467035935873500,6.34487353515625,0.11847791086435318,0.005010928063769825,-0.036420353369973596
1761467035945856500,6.3548564453125,0.09827624983489512,-0.009307474480220117,-0.017095237713027744
1761467035955839500,6.364839599609375,0.131796242120862,-0.019681463947100564,0.003784281478798948
1761467035965822500,6.374822509765625,0.11967676526010036,-0.022465308812237343,0.028298348647542295
1761467035975805400,6.384805419921875,0.1138408987134695,-0.03788283627112396,0.05219306920839008
1761467035985788400,6.394788330078125,0.12536299420297145,-0.0426949583937414,0.0540215176114114
1761467035995771400,6.404771484375,0.1093529396444559,-0.030517075009783727,0.060183816800545895
1761467036005754400,6.41475439453125,0.11129822849333286,-0.030816733809793367,0.04408283255556598
1761467036015737600,6.424737548828125,0.11683306626677513,-0.018485559560265392,0.02205835371285211
1761467036025720300,6.43472021484375,0.11653262201547622,0.008095427242759615,-0.005441419302369467
1761467036035703300,6.444703369140625,0.1256611003667116,0.02176100560093764,-0.021214582665357737
1761467036045686500,6.4546865234375,0.1114449434876442,0.025658515362977048,-0.0065135603122180325
1761467036055668500,6.46466845703125,0.10575929906666279,0.03541010774835013,0.004098457427928224
1761467036065651500,6.4746513671875,0.11294131952524185,0.03233883794369176,0.012215808808128349
1761467036075634400,6.484634521484375,0.1139893672734499,0.02383600807697512,0.0031225022349739445
1761467036085617700,6.49461767578125,0.11728022551238536,0.016275669525028204,0.0018103236578637734
1761467036095600400,6.504600341796875,0.11967267360687255,-0.0034286044755019248,0.009427388232573867
1761467036105583400,6.514583251953125,0.12401274863779545,-0.0031158989642513916,-0.00026209413544274864
1761467036115566600,6.524566650390625,0.12042144614756106,-0.01109830341974739,-0.0026577160011278466
1761467036125549600,6.534549560546875,0.11473580172657966,-0.016054259026423094,0.005824847395694814
1761467036135532300,6.5445322265625,0.12790449537932871,-0.017705647529219277,0.01958781258058734
1761467036145515500,6.554515625,0.12416297076344489,-0.013861849848949349,0.024119816287304273
1761467036155498500,6.56449853515625,0.11473463268280029,-0.011898180526588111,0.02967778377458453
1761467036165481500,6.5744814453125,0.12056874566376209,-0.012631152709946036,0.015256729140295647
1761467036175464400,6.58446435546875,0.12565700871348381,-0.011588621387071906,-0.00668710851452779
1761467036185447400,6.594447509765625,0.11503273884654044,-0.0018926818788051604,-0.019975163363781755
1761467036195429600,6.6044296875,0.12176760005950928,0.0036394798803608863,-0.015359714590734801
1761467036205412400,6.614412353515625,0.11728081003427505,0.02059092064194847,-0.007564663100615143
1761467036215395300,6.624395263671875,0.11204407842457294,0.00844469277157914,-0.001425119165983051
1761467036225378600,6.634378662109375,0.12147300102710723,0.006902577896113507,0.010097460380708799
1761467036235361500,6.644361572265625,0.12281857041716575,0.027801687704399225,0.035734905556193554
1761467036245344500,6.654344482421875,0.10890168874561786,0.010965603251056746,0.05642955600067507
1761467036255327500,6.664327392578125,0.11907646127939224,0.017924441379052587,0.06427407265570946
1761467036265310500,6.674310546875,0.13433949686288832,0.02803368352910038,0.05793375001854729
1761467036275293400,6.68429345703125,0.12281506328582763,0.03053204425005242,0.06130086553120054
1761467036285276400,6.6942763671875,0.11413432870209217,0.004945557510247453,0.05756444178211968
1761467036295259400,6.70425927734375,0.12430559410452842,0.002119316541799344,0.03309165647183545
1761467036305242600,6.71424267578125,0.0946738414287567,-0.005432126317638904,-0.003353616710263304
1761467036315225300,6.724225341796875,0.12819091110527514,-0.038964882187056356,-0.05132561589120887
1761467036325207600,6.73420751953125,0.11217910298109054,-0.03351872734406497,-0.09580876374281942
1761467036335190500,6.7441904296875,0.1157709899932146,-0.038560520903556605,-0.1193432041904889
1761467036345173200,6.75417333984375,0.10514964273571968,-0.02944044505448546,-0.1047163019529078
1761467036355156500,6.764156494140625,0.1278963120728731,-0.008976502659916877,-0.04661961189103313
1761467036365139500,6.774139404296875,0.11383329992890358,0.01589244236110244,0.008461826569470577
1761467036375122400,6.784122314453125,0.11981997312307358,0.034733167468011375,0.04869923574326094
1761467036385105400,6.79410546875,0.1261065060466528,0.04981654020224232,0.06732705788500606
1761467036395088400,6.80408837890625,0.11009469792246818,0.03854438261950854,0.06920634142612107
1761467036405071600,6.814071533203125,0.11443185034394264,0.03594599559018388,0.05553890903757419
1761467036415054600,6.8240546875,0.12924421955049037,0.019049983943416737,0.0337368362073088
1761467036425037300,6.834037353515625,0.12221183669567108,0.008427134282002225,0.022622536067408508
1761467036435020500,6.8440205078125,0.12415654102265834,-0.011175551640731281,0.007907371024484746
1761467036445003500,6.85400341796875,0.11158639778494835,-0.01742481216068845,0.004524765681754798
1761467036454985500,6.8639853515625,0.10889292091727257,-0.033613661918789145,-0.005058274336834438
1761467036464968400,6.873968505859375,0.12355799060761928,-0.033622763107274654,-0.017621480943681673
1761467036474951400,6.883951416015625,0.11458031890392303,-0.03513108987757005,-0.015415970256039873
1761467036484934700,6.8939345703125,0.12430851671397686,-0.027533131862129082,0.0038249285830184816
1761467036494917400,6.90391748046875,0.12221534382700919,-0.011826832323428243,0.014348007664387114
1761467036504900400,6.913900390625,0.11862345681488513,0.004500813984009437,0.01705823930404149
1761467036514883600,6.923883544921875,0.11967208908498286,0.012636112012853844,0.02916885700491257
1761467036524866300,6.9338662109375,0.1186252103805542,0.01930488115309272,0.03350471708502155
1761467036534849300,6.943849365234375,0.09917173736989497,0.018930485749593936,0.024731102886330333
1761467036544832500,6.95383251953125,0.11832593517303466,0.01686757100357208,0.018083764693187548
1761467036554815500,6.9638154296875,0.11877367894053459,0.022057974686939267,0.022941876815422438
1761467036564798500,6.973798583984375,0.10994506031870842,0.021989763722359203,-0.005879554991307668
1761467036574781400,6.983781494140625,0.10979600723683833,0.012450138153810984,-0.02681279996463563
1761467036584763600,6.993763671875,0.11907236962616442,0.024056477860664015,-0.031149039070657452
1761467036594746400,7.003746337890625,0.12715513831675052,0.017114088543970136,-0.04106601918477099
1761467036604729300,7.013729248046875,0.10875088209807872,0.011604714005347341,-0.01924555218128953
1761467036614712600,7.023712646484375,0.10635668043792247,0.0011488686410244555,-0.018073741056094876
1761467036624695600,7.033695556640625,0.13389292213916779,-0.027636692701303398,-0.01235250016534701
1761467036634678300,7.04367822265625,0.11474223146736622,-0.03417190315632615,0.022301117526739835
1761467036644661500,7.05366162109375,0.12836159149706364,-0.03521325630226638,0.043934268097463064
1761467036654644500,7.06364453125,0.11429565674364565,-0.03131245403802022,0.06521254081591032
1761467036664627500,7.07362744140625,0.11354571515917777,-0.023323135784547776,0.07690338960159569
1761467036674610400,7.0836103515625,0.12596505174934863,0.0008147824150277301,0.06941094692039769
1761467036684593400,7.093593505859375,0.1271609835356474,-0.006274417794100009,0.06598805066647473
1761467036694576400,7.103576416015625,0.12551496989428995,0.011927945477189495,0.03672465181248262
1761467036704559400,7.113559326171875,0.11234335363209247,0.015803608733601867,0.0012874962270027026
1761467036714541300,7.123541259765625,0.12416355528533458,0.015801850601355544,-0.02904628550459165
1761467036724524500,7.133524658203125,0.12655775694549082,0.018586814277921804,-0.0466373119445052
1761467036734507300,7.14350732421875,0.11952595861256123,0.01791961907346267,-0.05563704021638259
1761467036744490500,7.153490478515625,0.12281973946094513,0.010955611580004914,-0.035374529544892716
1761467036754473500,7.163473388671875,0.11219663863778113,0.008007406466011889,-0.023802640096913092
1761467036764456400,7.17345654296875,0.12342121248543261,0.0036712130257626993,-0.010212871487881057
1761467036774439400,7.183439453125,0.1132481935173273,-0.0031532718325732274,0.010946254663192666
1761467036784422400,7.19342236328125,0.12941080828905105,0.009799518613750115,0.041336502122646196
1761467036794405400,7.2034052734375,0.11684124957323073,0.0033242399187292902,0.07690112457927316
1761467036804388600,7.213388671875,0.11728899334073066,0.0074459914572769775,0.07566151804802938
1761467036814371300,7.223371337890625,0.11818681896328925,-0.004333818820072338,0.055379211264103646
1761467036824354300,7.233354248046875,0.11175240200161933,-0.014164390159212052,0.025995236504054626
1761467036834337500,7.243337646484375,0.1154921730518341,-0.015815714729926548,0.004909778377390466
1761467036844319200,7.2533193359375,0.12776187203824518,-0.010497259653522632,-0.007836461212742143
1761467036854302500,7.263302490234375,0.1017237599402666,-0.019164947526017204,-0.01312346627153456
1761467036864285400,7.273285400390625,0.1160895544230938,-0.01478248552493751,-0.028958602654561398
1761467036874268400,7.283268310546875,0.14437281509935854,-0.01838548301954288,-0.04288071305707562
1761467036884251400,7.29325146484375,0.12686521545946597,-0.014250794367608613,-0.020288005872350186
1761467036894234400,7.303234375,0.11684066505134105,-0.010641262100939639,0.0011894289802759886
1761467036904217600,7.313217529296875,0.12327625105679034,-0.0025134258593432603,0.02040843108135741
1761467036914200300,7.323200439453125,0.11340016920864582,-0.00019700670971069484,0.055358077144529665
1761467036924183300,7.333183349609375,0.12387421694993972,0.014941206050873733,0.06254190140112768
1761467036934166500,7.34316650390625,0.1292605861634016,0.02867888153088279,0.05432682526749558
1761467036944149500,7.3531494140625,0.10995324362516402,0.04034890672424808,0.051781054341397244
1761467036954132200,7.36313232421875,0.13239654610157012,0.05301866984495427,0.011545581396366468
1761467036964115500,7.373115478515625,0.1259586220085621,0.03713920569643378,-0.026851912698894736
1761467036974097400,7.383097412109375,0.1329910048633814,0.014179304600553586,-0.05569773916136473
1761467036984080400,7.393080322265625,0.12416297076344489,-0.012222001086897217,-0.06834022611607797
1761467036994063400,7.4030634765625,0.11503507693409919,-0.04074723555918317,-0.06182239605411887
1761467037004046300,7.41304638671875,0.13044891916513443,-0.0462084144413704,-0.03929129199667368
1761467037014029600,7.423029541015625,0.1238666181653738,-0.03802327678827569,-0.014399413624638691
1761467037024012300,7.43301220703125,0.11997779403328895,-0.038576709419954565,0.01010099947808776
1761467037033995300,7.442995361328125,0.13928338300585746,-0.03534239454069175,0.030742047438654115
1761467037043978500,7.452978515625,0.1324012222766876,-0.020653345753136088,0.059986627427744674
1761467037053961500,7.46296142578125,0.13314999481737613,-0.0021693114296765996,0.07008088663779198
1761467037063944400,7.4729443359375,0.12282500015795231,0.017737417207239193,0.07694615103108808
1761467037073927400,7.482927490234375,0.12880875074267387,0.019954042943939567,0.07345950079199393
1761467037083910400,7.492910400390625,0.142723294326663,0.03833420133439358,0.05614541899678297
1761467037093893600,7.5028935546875,0.13972878868579863,0.034998736768751405,0.02279580570850521
1761467037103876400,7.51287646484375,0.1300000063538551,0.029356963455537333,-0.0031324893394485114
1761467037113859300,7.522859375,0.12880056743621826,0.025427971709845586,-0.029265933304373173
1761467037123841500,7.532841552734375,0.1331383043795824,0.01747997184745036,-0.045951804765220726
1761467037133824300,7.54282421875,0.13672902234792708,0.030106726943491955,-0.0415973495824961
1761467037143807500,7.552807373046875,0.1271516311854124,0.011130214661662466,-0.03016749895371031
1761467037153790500,7.56279052734375,0.13777648557424543,0.0011686921529239043,-0.020572188542014917
1761467037163773400,7.5727734375,0.1413695416301489,-0.018075088196387513,-0.0052786893215961755
1761467037173756400,7.58275634765625,0.1286509298324585,-0.029788788134697822,0.00795138369614724
1761467037183739400,7.592739501953125,0.13957622847259044,-0.03837442374692764,0.016625501309428362
1761467037193722400,7.602722412109375,0.13059855676889418,-0.04623781406579073,0.015189938381244427
1761467037203705300,7.612705322265625,0.13658639900684355,-0.03398396110248286,0.016346369274216704
1761467037213688300,7.622688232421875,0.13658639900684355,-0.008916538933874108,0.03391430253291037
1761467037223671600,7.632671630859375,0.13404372878670692,0.008878019854659214,0.039295685044000855
1761467037233654500,7.642654541015625,0.13928046039640904,0.03310025533682201,0.05801959253794048
1761467037243637200,7.65263720703125,0.13703531181812287,0.03457709099031053,0.04590777839382645
1761467037253620500,7.662620361328125,0.1338917530953884,0.025333201531902886,0.030536592561006545
1761467037263603500,7.672603515625,0.13239245444834233,0.01138729926184751,0.010802882403437979
1761467037273586400,7.68258642578125,0.14705693961679936,0.0067999212392373005,-0.016516606708010657
1761467037283568400,7.692568359375,0.14256781150400638,-0.004431022983696312,-0.024394710538815704
1761467037293551400,7.70255126953125,0.13104513149261474,-0.0032414067737525326,-0.017173549946513957
1761467037303534600,7.71253466796875,0.13179331951141357,-0.00559697519026231,-0.02369633017822634
1761467037313517300,7.722517333984375,0.13418810569345951,0.00661384691549465,-0.01692994588240981
1761467037323500300,7.732500244140625,0.13688041351735591,0.003351045727264136,0.0016591745170298963
1761467037333483500,7.7424833984375,0.1373299108505249,0.004737664080341346,-0.0004109691207995638
1761467037343466500,7.752466552734375,0.12491057426035404,0.004421127210767008,0.004030689421342685
1761467037353449500,7.762449462890625,0.13957505942881107,-0.006394208248867653,0.012246190246660262
1761467037363432400,7.772432373046875,0.14960077888071535,-0.013817668213928118,0.020342517105140723
1761467037373415400,7.78241552734375,0.1195224514812231,-0.003511232124501839,0.023191654891986397
1761467037383398700,7.792398681640625,0.14076923764944077,-0.00372930902170483,0.013198367271805182
1761467037393381400,7.80238134765625,0.12954583284556864,-0.013674117857660166,0.007761309050722047
1761467037403364400,7.8123642578125,0.12206395265758037,-0.01172454099273309,0.00849906700705178
1761467037413347600,7.82234765625,0.14645546659231184,-0.007372538061998784,0.0065907948334701354
1761467037423330300,7.832330322265625,0.13478373349905012,-0.008528713226644322,0.007911745805502869
1761467037433313300,7.842313232421875,0.1314911216944456,0.005294147185632027,0.019041891968506388
1761467037443296500,7.852296630859375,0.15214228005707264,-0.002537742883269675,0.014239697584859094
1761467037453279500,7.862279541015625,0.14077040669322013,0.004538186852331273,0.011739409768301992
1761467037463262200,7.87226220703125,0.13194120354950428,0.014972496238281018,0.02590938485150691
1761467037473245400,7.882245361328125,0.14271394197642803,0.02198314675190486,0.0281156033586245
1761467037483228400,7.892228515625,0.14585516261160372,0.02161475639750715,0.020311934737209228
1761467037493211400,7.90221142578125,0.13328326580822467,0.01228861374943517,0.0035616014717146753
1761467037503194400,7.9121943359375,0.1458522400021553,0.016400282285385766,-0.016425964715913868
1761467037513177300,7.92217724609375,0.15213701936006546,0.0014758310064906255,-0.04458139319485053
1761467037523160600,7.93216064453125,0.12130991941988467,-0.0064849552722414956,-0.04308012178642675
1761467037533143600,7.9421435546875,0.14570201787650583,0.003518840042222291,-0.02562306502368301
1761467037543125500,7.95212548828125,0.1370236213803291,0.004952475874801166,-0.019214435523818244
1761467037553108500,7.9621083984375,0.13792203152477742,0.009095877556153573,-0.0007905247566057369
1761467037563091500,7.972091552734375,0.16321312464773655,0.012130998335196637,0.012955813520471565
1761467037573074400,7.982074462890625,0.13927110804617404,0.012573833032138645,0.0399354351191083
1761467037583055600,7.9920556640625,0.12176350840628146,0.005740096288267523,0.05117390506137162
1761467037593038300,8.002038330078125,0.13762509440481663,-0.002291330374148674,0.03626550530155655
1761467037603021300,8.012021240234375,0.13627835597097873,-0.009838019426655955,0.009371045802300795
1761467037613004500,8.022004638671875,0.14196458491384983,-0.016280295467795802,0.006180679662618786
1761467037622987500,8.031987548828125,0.13238777827322482,-0.02167320858647581,0.008121899691154249
1761467037632970200,8.04197021484375,0.13538053034842013,-0.020842589281499384,-0.01696653786601964
1761467037642953500,8.051953369140625,0.13627835597097873,-0.027959061090042814,-0.01959133341165725
1761467037652936400,8.0619365234375,0.14376140520274638,-0.02515244270409457,-0.023797927389177492
1761467037662919400,8.07191943359375,0.13942308373749254,-0.011299009057041258,-0.023164378725993445
1761467037672902400,8.08190234375,0.1350859313160181,0.0073294752384070305,0.007159831459657289
1761467037682885400,8.091885498046874,0.13882687141001224,0.02248631050107069,0.041111543393507595
1761467037692868400,8.101868408203124,0.2349193474650383,0.042702991003147325,0.030100114539614878
1761467037702851600,8.1118515625,0.27743337806761265,0.05337636070882436,-0.0061177476613549515
1761467037712834300,8.121834228515626,-0.15397241809368134,0.007043223909242078,0.09053149919332935
1761467037722817500,8.131817626953126,0.30003508597612377,0.03569171030186116,-0.03746250110035762
1761467037732800500,8.141800537109376,0.001654196947813034,-0.0014802423201268537,0.02707045082040131
1761467037742783200,8.151783203125,0.19004852460324764,0.0019560705377953125,-0.017634404357336462
1761467037752766500,8.161766357421875,0.06584288374185562,-0.012195702168438583,0.017851978931040503
1761467037762749400,8.17174951171875,0.1542740313887596,-0.009989159434335306,0.012978121250402182
1761467037772732400,8.181732421875,0.11131576415002345,-0.02948354441069532,0.02295636199850123
1761467037782715400,8.19171533203125,0.11115092897713184,-0.03164631193515379,0.012197706895857117
1761467037792698400,8.201698486328125,0.2286141098409891,-0.012317771345260553,-0.01613189997305162
