time,seconds_elapsed,z,y,x
1761466813811146500,0.109146484375,0.12269172916710376,0.005769212784897536,0.006995895902486517
1761466813821129500,0.11912939453125,0.1333165835559368,0.013513470236118883,-0.0017420213617384433
1761466813831113500,0.129113525390625,0.12134615977704524,0.0016497765010222792,0.005332858061091974
1761466813841096400,0.139096435546875,0.11969897709190845,0.0022256310270633546,0.011584411002835257
1761466813851080400,0.14908056640625,0.14438742814660072,0.016289903546357527,0.011763749625114723
1761466813861063400,0.1590634765625,0.13032207791507244,0.01930736993770115,0.022173372094379737
1761466813871047400,0.16904736328125,0.13047054647505282,0.0241123225340154,0.030163046540878712
1761466813881030700,0.17903076171875,0.12942191420495508,0.020738361722044647,0.029168820472294462
1761466813891014700,0.1890146484375,0.13076865263879298,-0.001427265457296744,0.02171464114198461
1761466813900997400,0.198997314453125,0.11520634184777737,-0.02604856042675674,0.008750183090753852
1761466813910981400,0.2089814453125,0.1325631348401308,-0.03976274999990128,-0.001946530957892537
1761466813920964400,0.21896435546875,0.12448153519332408,-0.03423387617636472,0.005473873966978862
1761466813930948600,0.228948486328125,0.1219400340169668,-0.023351083237398415,0.002110726809967309
1761466813940932600,0.2389326171875,0.12209142518639564,-0.0012222809371072799,-0.005261473325314
1761466813950915600,0.24891552734375,0.13152093231081963,0.008254289332590996,-0.003122689464641735
1761466813960899600,0.258899658203125,0.13721125290691852,0.00845674396897666,-0.006668600176880136
1761466813970882300,0.26888232421875,0.12958148868083952,-0.004952443908760324,-0.010080682775843888
1761466813980866600,0.278866455078125,0.1144680907011032,-0.003861461201123893,-0.006983958869520575
1761466813990849500,0.288849609375,0.13137421731650828,-0.0022976002847310156,-0.009863432429125532
1761466814000833500,0.29883349609375,0.11207096643149853,0.001948083594162017,0.007563786317780614
1761466814010816500,0.30881640625,0.1379565183162689,0.016971054210932923,0.011029526199586689
1761466814020800500,0.318800537109375,0.12808102099001406,0.02478738138452172,0.018391743796970693
1761466814030783500,0.328783447265625,0.13361644328534603,0.019578058371553197,0.019529817049345
1761466814040767500,0.338767578125,0.13660861083865164,0.007645436719246208,0.02090798266790807
1761466814050750500,0.34875048828125,0.12912614612877368,-0.007881912356242537,-0.0013806407034397125
1761466814060734500,0.358734375,0.1116185464888811,-0.022566554396739227,0.008693283538054675
1761466814070717700,0.3687177734375,0.11356325081586838,-0.0397751984895207,0.0030747038707602766
1761466814080701700,0.37870166015625,0.1135661734253168,-0.045280243912898,-0.008378235372668132
1761466814090684400,0.388684326171875,0.1201543196439743,-0.05973844765322282,-0.0037042750451480966
1761466814100668400,0.39866845703125,0.11881284190714358,-0.06228593104579486,-0.00847182280709967
1761466814110651400,0.4086513671875,0.1149298629939556,-0.07203755539720877,-0.004237760867341421
1761466814120635400,0.418635498046875,0.1134399166971445,-0.07460901332041248,-0.0052213057117071
1761466814130619600,0.42861962890625,0.1245201136380434,-0.04638523687957786,-0.0053571385524002835
1761466814140602600,0.4386025390625,0.12706979812085628,0.0032978177026845514,0.012945990812778472
1761466814150586600,0.448586669921875,0.12961889808177948,0.04289646318205632,0.010758193878340535
1761466814160569300,0.4585693359375,0.1374035606086254,0.06871277662236243,0.038981892687361686
1761466814170553300,0.46855322265625,0.13725684561431406,0.08121085927085951,0.061216639580158515
1761466814180536600,0.47853662109375,0.14219313297271727,0.10396900898325256,0.06318654228048398
1761466814190520600,0.4885205078125,0.13725216943919658,0.09409289973564446,0.06202483242419548
1761466814200503600,0.498503662109375,0.13126608076691626,0.07030496858409606,0.05101025719856843
1761466814210487600,0.508487548828125,0.13245967446565626,0.023115237788064406,0.01599786636380013
1761466814220470500,0.518470458984375,0.12093407184481621,-0.02163999587004073,-0.0033500776128843426
1761466814230454500,0.52845458984375,0.12198036602735518,-0.051612086416082455,-0.020790662731439806
1761466814240437500,0.5384375,0.11584580879509448,-0.08736900744126178,-0.032984775730990804
1761466814250421500,0.54842138671875,0.122581254529953,-0.06491946702031419,-0.04545598863887135
1761466814260404500,0.558404541015625,0.11196049179434775,-0.054270400638831776,-0.03885065838997252
1761466814270388500,0.568388427734375,0.12333704133331774,-0.04435698245498351,-0.04116048340203706
1761466814280371500,0.578371337890625,0.11825228541493416,-0.014475912926951422,-0.032664352704165504
1761466814290355500,0.58835546875,0.11331716710031031,-0.0006731591543648392,-0.01101185811215546
1761466814300339500,0.59833935546875,0.1395072548896074,0.01884846545537002,0.01734618483337108
1761466814310322400,0.608322509765625,0.13397183259427548,0.03829146273778751,0.027734846712998112
1761466814320306400,0.618306396484375,0.1341179630666971,0.05014971311278641,0.04782488232783507
1761466814330289700,0.62828955078125,0.1374082367837429,0.04874469601991586,0.051383547490369524
1761466814340273700,0.638273681640625,0.14159692064523696,0.030295888273464515,0.046799484802852384
1761466814350256400,0.64825634765625,0.1267810443073511,-0.001717918966943398,0.033648061945312654
1761466814360240400,0.658240478515625,0.11795067211985587,-0.015534454669710247,0.04125170991602353
1761466814370223600,0.6682236328125,0.12902210123240948,-0.03753658011672087,0.03410252314796671
1761466814380207600,0.67820751953125,0.11465689127147197,-0.042667768992716446,0.027587907956400884
1761466814390190600,0.688190673828125,0.12393325366079806,-0.0058965106926858425,0.02451304882201366
1761466814400174600,0.698174560546875,0.13171265549063682,0.05703075959710404,0.0176286824360257
1761466814410157600,0.708157470703125,0.14023907629549504,0.07007509621782228,0.006128460851614363
1761466814420141600,0.7181416015625,0.13694354188144206,0.05875582069088704,-0.018457283313851804
1761466814430124500,0.72812451171875,0.1331996791779995,0.017650853168638424,-0.04259576320243068
1761466814440108500,0.738108642578125,0.13574118035435676,-0.0006345350438728928,-0.0377073290071683
1761466814450091500,0.748091552734375,0.14082476722896098,-0.028341219674888996,0.004982706616283394
1761466814460075500,0.758075439453125,0.10850070672929286,0.006968322908971458,0.055409597269212824
1761466814470059500,0.7680595703125,0.08635317232906818,0.025770857730228452,0.04012976581454277
1761466814480042500,0.77804248046875,0.14620704478919505,-0.02670267695393413,0.010969283912330865
1761466814490026500,0.788026611328125,0.15233751036822796,-0.0822396908619441,-0.009973391043045558
1761466814500009500,0.798009521484375,0.12569675620198248,-0.09896551987384446,-0.03242428317086305
1761466814509992200,0.8079921875,0.09546996024250984,-0.06116805119807832,-0.03216929006306454
1761466814519975200,0.81797509765625,0.14080781609416007,-0.011912373448722063,-0.00231366550354287
1761466814529959200,0.827959228515625,0.13062953642904757,0.03059267012979835,0.017665804142598062
1761466814539942100,0.837942138671875,0.10788403613567352,0.03083242456926964,-0.0039034554456360638
1761466814549926100,0.847926025390625,0.1138712938517332,-0.012737882753740996,-0.001522825653105974
1761466814559909000,0.8579091796875,0.1307803430765867,-0.07954042357429862,-0.006839974688412622
1761466814569893000,0.86789306640625,0.11611702695190906,-0.09315727198650128,-0.028058722072234376
1761466814579876000,0.8778759765625,0.09636720134317875,-0.06880812675561755,-0.034113784327497704
1761466814589860000,0.887860107421875,0.12136135734617709,-0.0157680624961853,-0.02198658081800677
1761466814599843000,0.897843017578125,0.15039105247557163,0.023500793906394393,-0.013935074915364384
1761466814609827000,0.9078271484375,0.13049042021930218,0.05752660768949426,-0.011270193954510614
1761466814619811000,0.91781103515625,0.10610065985023975,0.037344208482932295,-0.014441800594795495
1761466814629794000,0.9277939453125,0.13303718209266663,0.014991561698354779,-0.002168548811273649
1761466814639778000,0.937778076171875,0.14126666577756403,-0.012461148171592502,0.003503596807317808
1761466814649761300,0.94776123046875,0.12675181821286677,-0.02229181084227748,0.006443924575531855
1761466814659745300,0.957745361328125,0.11343407147824763,-0.0004645122392103076,0.013998404208850115
1761466814669728000,0.96772802734375,0.13064298043251038,-0.0024279395329765974,0.026672793272323903
1761466814679712000,0.9777119140625,0.13812486062049864,0.01204783639665693,0.04467136390008963
1761466814689695200,0.9876953125,0.1375257256835699,0.021116136392718178,0.049183900287933645
1761466814699679200,0.99767919921875,0.12076572954058647,0.017739791827416047,0.04408267729193903
1761466814709662200,1.007662109375,0.14351006079018117,0.005200472986232489,0.039370316616212944
1761466814719646200,1.017646240234375,0.12854337780475616,-0.0019862693132366984,0.03358333984576165
1761466814729629000,1.02762890625,0.12883973040282726,0.0004953001031186431,0.027683623415837064
1761466814739613200,1.03761328125,0.12868717018961906,0.0010252057287376372,0.012343851068010553
1761466814749596200,1.04759619140625,0.11297229918539524,0.009881735270796343,0.006036284489557147
1761466814759580200,1.057580078125,0.12314707171916961,0.01694547224510461,-0.007384639491746202
1761466814769563100,1.067563232421875,0.13242460315227508,-0.0008181936482433229,-0.023435975908720864
1761466814779547100,1.077547119140625,0.12314707171916961,0.00009915865869261323,-0.031534544956637545
1761466814789531100,1.08753125,0.1336211194604635,-0.01881153097846545,-0.04831152876703999
1761466814799514000,1.09751416015625,0.12239771465659141,-0.022687541294749824,-0.046193714629160235
1761466814809498000,1.107498046875,0.120302203682065,-0.009572705854242667,-0.039620647248625754
1761466814819481000,1.117481201171875,0.14154840532839297,-0.008909995028655976,-0.025239856126066294
1761466814829465000,1.127465087890625,0.13630933563113212,0.010280717126280068,0.001388650479959324
1761466814839448300,1.1374482421875,0.12927461468875406,0.01726027381531894,0.017039589402498678
1761466814849432300,1.147432373046875,0.13929682700932025,0.034412210151646284,0.018876029315730555
1761466814859415000,1.1574150390625,0.13764438362717626,0.03110383452232927,0.03622747027953155
1761466814869399000,1.16739892578125,0.13419745804369448,0.025928295047953725,0.018827879325067624
1761466814879382000,1.177382080078125,0.12326806775033473,0.01367484394344501,0.018399360847845672
1761466814889366300,1.1873662109375,0.13164251286387443,0.003177515791263431,0.012119759988551958
1761466814899349200,1.197349365234375,0.1256535015821457,-0.031101459902152417,-0.00860201592487283
1761466814909333200,1.207333251953125,0.09692074357271194,-0.08008421159479767,-0.007822747781220824
1761466814919317200,1.217317138671875,0.11682371391654015,-0.10626694719470106,-0.01213528635124676
1761466814929300000,1.227300048828125,0.11817279043793677,-0.11776678518662229,-0.0030074016550555825
1761466814939284000,1.237283935546875,0.11024433552622795,-0.10060856523998081,0.010866572456527501
1761466814949267200,1.24726708984375,0.11773030736744403,-0.07402861961657181,0.014225856289174407
1761466814959251200,1.257251220703125,0.12491758852303027,-0.06035674394834786,0.018706618432421235
1761466814969234200,1.267234130859375,0.12582125936448574,-0.04188115779282525,0.03331880715806037
1761466814979218200,1.27721826171875,0.12777005534470082,-0.051490359732555224,0.03323601511227898
1761466814989201200,1.287201171875,0.10817395899295806,-0.19823714655479416,0.003923100861022249
1761466814999185200,1.29718505859375,0.10638239940106868,-0.06155463936286978,0.05045519886538386
1761466815009168100,1.307168212890625,0.15546820960938929,0.20017843508198857,0.09530744489086791
1761466815019152100,1.317152099609375,0.17162673272788523,0.3260437893165275,0.10317846139376051
1761466815029135000,1.327135009765625,0.16563421431481837,0.2560082944567315,0.02527490003998391
1761466815039119400,1.337119384765625,0.13734569294154644,0.08581215165439061,-0.061164772395603355
1761466815049102000,1.34710205078125,0.12087795774340629,-0.05184823325951583,-0.10538880352014675
1761466815059086000,1.357086181640625,0.11862754846811294,-0.08535749408891424,-0.07391822717781178
1761466815069070000,1.367070068359375,0.12475450691580772,-0.01044358867094852,0.0036205377178732305
1761466815079053000,1.377052978515625,0.13327683606743812,0.03945956580224447,0.05476804796266369
1761466815089037000,1.387037109375,0.1250426762074232,0.019677335761254654,0.07423756792582571
1761466815099020300,1.397020263671875,0.12159808871150016,-0.0724208738926798,0.058796180100739
1761466815109004000,1.407004150390625,0.10768179156184196,-0.18005301762651651,0.03623928858148865
1761466815118987000,1.416987060546875,0.09227145646214485,-0.2439289669432677,0.0027577560092322526
1761466815128971000,1.426970947265625,0.10379881264865398,-0.21764617763552813,-0.0006042951692361385
1761466815138954200,1.436954345703125,0.11173486634492874,-0.08488750195698812,0.026948641938483342
1761466815148938200,1.446938232421875,0.13567922103404997,0.0727803000559099,0.03171931780586019
1761466815158921200,1.456921142578125,0.16096914511322974,0.1728227375794202,0.039507131271017716
1761466815168905000,1.466905029296875,0.138370359814167,0.1780660450603813,-0.00008128507528454065
1761466815178888200,1.47688818359375,0.1311854167461395,0.0902809767646715,-0.06003030673926696
1761466815188872200,1.4868720703125,0.12205518482923507,-0.021437961358763278,-0.09304567397134378
1761466815198856200,1.496856201171875,0.11457213559746741,-0.054794945102743804,-0.08751435246239415
1761466815208839200,1.506839111328125,0.12714110979139803,-0.0156706756694708,-0.04986167168533429
1761466815218823200,1.5168232421875,0.11906009466648101,0.039603613915434106,0.0010394991155713797
1761466815228806100,1.52680615234375,0.13791326369643211,0.05209821683205664,0.04867460819208063
1761466815238790100,1.5367900390625,0.14045534939467907,0.02699524842603132,0.0706554351227358
1761466815248773000,1.546773193359375,0.12324819400608539,-0.044863361074542626,0.07374703532936983
1761466815258757000,1.556757080078125,0.11696283012628554,-0.11907879023379646,0.054592316936422136
1761466815268740000,1.566739990234375,0.11397007805109023,-0.13768801270634867,0.03925043482990004
1761466815278724000,1.57672412109375,0.10648761334121226,-0.09136499087540433,0.035050389324175195
1761466815288707000,1.58670703125,0.12698796505630017,-0.01805305902766995,0.0325909130086191
1761466815298691000,1.596691162109375,0.1325233873516321,0.061960909475665536,0.02406798106878996
1761466815308674000,1.606674072265625,0.13073065871596334,0.09884958361028694,-0.0023444168348331004
1761466815318658000,1.616657958984375,0.1326759475648403,0.08111470542000607,-0.041161794009711594
1761466815328642000,1.62664208984375,0.14329729482233525,0.030776474864641204,-0.07449178014891222
1761466815338625300,1.636625244140625,0.15302257002294062,0.007290750663215294,-0.08003204301614314
1761466815348609300,1.646609375,0.12383973015844821,0.01961473712013103,-0.06267936907648108
1761466815358592000,1.656592041015625,0.12563187427222727,0.055056920507177705,-0.027600475177029148
1761466815368576000,1.666575927734375,0.14163783717751502,0.08064560833722352,0.01846132016815245
1761466815378559200,1.676559326171875,0.1372948395371437,0.03982925763116218,0.03839697807203047
1761466815388543200,1.686543212890625,0.12292553792297839,-0.022379370394721626,0.027252766851056365
1761466815398526200,1.696526123046875,0.11185060167908668,-0.10001312009748071,0.013336624965025112
1761466815408510200,1.70651025390625,0.11080255393087864,-0.13143558298177085,-0.009357382603129372
1761466815418493000,1.716492919921875,0.11678688903748989,-0.10777985424199141,-0.008794414958124979
1761466815428477000,1.726476806640625,0.11050269420146941,-0.05754176872600801,0.01842645891732536
1761466815438460200,1.736460205078125,0.11619184575378894,-0.018836409691395238,0.027262886386271563
1761466815448444200,1.746444091796875,0.12636837185323238,-0.017561147324880583,0.02418800898557529
1761466815458428200,1.75642822265625,0.11754033775329589,-0.03404239959171973,0.01861137789702043
1761466815468411100,1.7664111328125,0.1212830314129591,-0.03342262372556142,0.015099086326593533
1761466815478395100,1.77639501953125,0.12607318829894065,-0.0036933563589118417,0.02304185289144516
1761466815488378000,1.786378173828125,0.12158347566425799,0.053600109294988214,0.03687552239210345
1761466815498362000,1.796362060546875,0.1381914961159229,0.09638037135200575,0.04646222023908048
1761466815508346000,1.80634619140625,0.139983640229702,0.09529078601701184,0.04571866272962652
1761466815518330000,1.816330078125,0.13937924459576606,0.04318759161573835,0.02762220295164734
1761466815528312800,1.826312744140625,0.13713058888614177,-0.005354841564036906,0.0020960132980253547
1761466815538296800,1.836296875,0.13548048359155654,-0.035228440171666445,-0.008316157321352512
1761466815548280000,1.846280029296875,0.13098843286931514,-0.02615713536776602,-0.010478541253320872
1761466815558264000,1.85626416015625,0.12410276500880718,-0.009694304673606529,0.0030283165789209304
1761466815568248000,1.866248046875,0.12799100461900234,0.01351054762667045,0.014601046277116983
1761466815578231000,1.87623095703125,0.12379939814805983,0.002655482944846153,0.017272795370174572
1761466815588215000,1.886215087890625,0.12050561729967593,-0.04304035603161901,0.008951496082823723
1761466815598198000,1.896197998046875,0.13112754907906055,-0.06457503749681637,-0.001604841380752623
1761466815608182000,1.90618212890625,0.12274550518095492,-0.05697081870394759,-0.01687134756296873
1761466815618165000,1.9161650390625,0.12603577889800072,-0.025005910372873766,-0.01676882790341042
1761466815628149000,1.92614892578125,0.13501286607980728,0.015163255870295688,-0.005794630353944376
1761466815638132000,1.936132080078125,0.13815174862742424,0.05019212748240679,0.01352469488303177
1761466815648116200,1.9461162109375,0.12931786930859088,0.06534362898282706,0.014332586332969367
1761466815658099000,1.956098876953125,0.12452771242260932,0.04836976176030002,0.013368161747604608
1761466815668083000,1.9660830078125,0.12706746003329752,0.013417818708764389,0.009962198362173512
1761466815678066000,1.97606591796875,0.11718787105381488,-0.020317953486042095,0.004375511670485138
1761466815688050000,1.9860498046875,0.13049977256953715,-0.02388351874682121,-0.01555007236395031
1761466815698034200,1.9960341796875,0.12555880903601646,-0.015472550148330627,-0.009194775919942185
1761466815708017200,2.00601708984375,0.14455810853838919,-0.001599379754345864,0.004979441513540223
1761466815718001200,2.016001220703125,0.14246025947630406,-0.0058133624538779256,0.012795832619210704
1761466815727983900,2.02598388671875,0.12001169630289077,-0.03156423684200272,0.024608024495933203
1761466815737967900,2.0359677734375,0.13152911561727523,-0.040824661876680324,0.030395832383446394
1761466815747951000,2.045951171875,0.11731003612875937,-0.041533075007516886,0.027581003291578962
1761466815757935000,2.05593505859375,0.11251871019899845,-0.056376515205763277,0.022656844762386753
1761466815767918000,2.06591796875,0.10458441006839275,-0.06612849575020373,0.01887664123708382
1761466815777902000,2.075902099609375,0.1132569613456726,-0.026829107212042434,0.028367596225161103
1761466815787885000,2.085885009765625,0.1297135906279087,0.008221409976296126,0.027517564400238916
1761466815797869000,2.095869140625,0.13360183023810385,0.034845770130166785,0.023433226829208433
1761466815807853000,2.10585302734375,0.1451192495524883,0.040716004737280306,0.018592974590649826
1761466815817836000,2.1158359375,0.1317968266427517,0.02263621296631172,-0.0053539921806659545
1761466815827820000,2.125820068359375,0.13433540520966053,-0.011953134717373177,-0.025318867045873775
1761466815837803000,2.135802978515625,0.12894494434297085,-0.016840386169124394,-0.023891519390186293
1761466815847787000,2.145787109375,0.13672083904147148,0.008661847220174967,-0.019856482587289063
1761466815857770000,2.15577001953125,0.13267360947728157,0.04269860252239741,-0.005744589800294488
1761466815867754000,2.16575390625,0.1349117437928915,0.04438017153432593,-0.0011617920546792447
1761466815877737000,2.175737060546875,0.12996844217181205,-0.0058529181461315595,-0.009812012769142165
1761466815887721000,2.185720947265625,0.10168108984231948,-0.05147991140377708,-0.014897088347934186
1761466815897704200,2.1957041015625,0.10691372979879378,-0.05525912854839116,-0.025611018392862752
1761466815907688000,2.20568798828125,0.1049655183404684,-0.024890439900197087,-0.020971750352811066
1761466815917672000,2.215671875,0.1233697745591402,0.006095832657068968,-0.01907917807186022
1761466815927655000,2.225655029296875,0.12830372382998464,0.01853554531498812,-0.01643070938969031
1761466815937639000,2.235638916015625,0.12740239107608795,0.019385385343665257,-0.010045839791325851
1761466815947622100,2.2456220703125,0.11797463751733302,-0.006657430328894406,-0.005670300721377134
1761466815957606100,2.255606201171875,0.13218728726506232,-0.02409324337420985,-0.0010213698038365692
1761466815967588900,2.2655888671875,0.12754559893906114,-0.029375120166735724,0.00948001346895471
1761466815977572900,2.27557275390625,0.11213000314235687,-0.03687638090862892,0.021454282305901868
1761466815987556000,2.28555615234375,0.12065642394721507,-0.04165292939436622,0.010243115929095074
1761466815997540000,2.2955400390625,0.15701660809516907,-0.052684081295458596,0.01576361464993097
1761466816007523000,2.305523193359375,0.11960720715522766,-0.041529202549997715,0.029013858239445835
1761466816017507000,2.315507080078125,0.1281365505695343,0.0024738793002441525,0.04189565210905857
1761466816027491000,2.325490966796875,0.1089700778067112,0.029639159664092585,0.04534852337613701
1761466816037473800,2.335473876953125,0.07693126398921013,0.015992226640880108,0.03749783727522008
1761466816047458000,2.3454580078125,0.21804186242222784,0.0008065671425312757,-0.03165442674295045
1761466816057441000,2.35544091796875,0.10895137310624121,-0.017324626022111624,-0.00156650953120552
1761466816067425000,2.365425048828125,0.06539747806191444,-0.027959736943477764,0.01377934549753554
1761466816077408000,2.375407958984375,0.19199030632078645,-0.00038806773582473396,-0.012760469044884665
1761466816087392000,2.38539208984375,0.1334866794258356,-0.01557912492849864,-0.008575639374600723
1761466816097375000,2.395375,0.14830723193883896,-0.020957265169732273,-0.03231383136659861
1761466816107359000,2.40535888671875,0.11719020914137362,-0.025500826883502303,-0.028156081499485296
1761466816117342000,2.415342041015625,0.12049451138377189,-0.026846487605106086,-0.031055584066966548
1761466816127326000,2.425325927734375,0.13516250368356703,-0.019579163483250884,-0.031161556058935818
1761466816137310000,2.43531005859375,-0.06056815820932388,-0.044776742237014694,0.020520170660410075
1761466816147293200,2.445293212890625,0.28405834916532036,-0.006568199409171939,-0.05706521898913197
1761466816157277200,2.455277099609375,0.15686872405707836,-0.033491378112835805,-0.007626220562122762
1761466816167260000,2.465260009765625,0.06170096163153648,-0.03373848474170081,0.007810271892137825
1761466816177244000,2.475243896484375,0.2498059509515762,-0.017949890914140267,-0.011229341354314238
1761466816187227100,2.48522705078125,0.0721919605076313,-0.269968704742752,0.2851418700857088
1761466816197211100,2.495211181640625,0.045858080333471295,-1.1805871368464083,0.6135604257095605
1761466816207194000,2.505194091796875,0.12801672358214855,-1.7706950830370187,0.6860827872153371
1761466816217178000,2.51517822265625,0.17860183243751523,-1.6554393490895627,0.9270135039243846
1761466816227160800,2.525160888671875,0.25614392180144785,-1.3482546836197375,1.3048283604778348
1761466816237144800,2.535144775390625,0.4233294572114944,-0.8193285705573856,1.5360874318696558
1761466816247129000,2.545129150390625,0.04522738121449947,-0.30140635606301946,2.0403383917503057
1761466816257112000,2.555112060546875,0.015022212564945221,-0.08409624198144301,1.9723339460603893
1761466816267096000,2.565095947265625,-0.03464636596739292,-0.24859166152467949,1.4074692352630198
1761466816277079000,2.5750791015625,0.10377835438251495,-0.776007607486099,0.3868217178190127
1761466816287063000,2.58506298828125,0.06278466521501541,-1.5335696038298308,-0.7706614972177892
1761466816297046000,2.5950458984375,0.14823475122451782,-1.4211312653906643,-1.6564968953184782
1761466816307030000,2.605030029296875,0.2242699431568384,-1.6984755038700996,-1.5684621996432542
1761466816317013000,2.615012939453125,0.16548282314538953,-1.4713485638469457,-0.9089937169786542
1761466816326997000,2.6249970703125,0.17240706945061682,-0.7244691434286534,0.00962206598788034
1761466816336981000,2.63498095703125,0.09327741863429546,-0.00026568346517160535,0.9691405810359864
1761466816346964200,2.644964111328125,0.06111936235129833,0.3913845687551424,1.4803285736382006
1761466816356948000,2.654947998046875,0.12516776389181614,0.46715844287015496,1.559607569797337
1761466816366931000,2.664930908203125,0.08384148176908493,0.12462077013407834,1.3756919949911535
1761466816376915000,2.6749150390625,0.043699440994858736,-0.23446658046254887,0.7905399176422506
1761466816386898000,2.68489794921875,0.08881459400653839,-0.5084070566467941,0.2730173151910305
1761466816396882200,2.694882080078125,0.10609306106567382,-0.6113094684449956,0.039337044534273446
1761466816406865200,2.704865234375,0.18428806138038634,-0.47241475596316157,0.025837237497325985
1761466816416849000,2.714848876953125,0.3163993607997894,-0.24814528773035852,0.09299239114783704
1761466816426833000,2.7248330078125,0.05391571458280086,-0.01914805347343208,0.19684534513652324
1761466816436816000,2.73481591796875,0.2649550047665834,0.03476809950078605,0.06697813484948129
1761466816446800000,2.7447998046875,0.275056712064147,0.04921114448788576,-0.2552545352136716
1761466816456783000,2.754783203125,0.05887187568545341,0.12064316260684281,-0.5314940638542175
1761466816466767000,2.76476708984375,0.028375030612945554,0.4258911243930459,-0.6224563374139368
1761466816476749800,2.774749755859375,0.20307985561192035,0.8572581229139119,-0.6966390333473682
1761466816486733800,2.78473388671875,0.13325754684507846,1.0284834352340548,-0.723446230121702
1761466816496717000,2.794717041015625,0.004760930791497231,1.077424210948497,-0.7335152041934431
1761466816506700800,2.80470068359375,0.22809446988105772,1.1276990848109125,-0.6675930446702987
1761466816516683800,2.814683837890625,0.010665770921111106,0.9831704946279525,-0.40834991474449633
1761466816526667800,2.824667724609375,-0.0629763883948326,1.1015925105866045,-0.1405259578123223
1761466816536651800,2.83465185546875,0.3597703004926443,1.1133519219633192,0.08203967477781697
1761466816546635000,2.844635009765625,-0.12375380544066428,1.1300868567302822,0.26990966803189365
1761466816556618800,2.85461865234375,0.26336978140175343,1.0114659571986644,0.38357349314540623
1761466816566601700,2.864601806640625,0.11087854177653789,0.8253232078623026,0.46608372631073
1761466816576585700,2.874585693359375,0.00820785637497902,0.5977766176549717,0.4395326597219333
1761466816586569000,2.88456884765625,0.2396890460848808,0.25382830180283633,0.22404819016493854
1761466816596553000,2.894552978515625,-0.00739478642642498,0.09146962029365822,-0.0563611349735409
1761466816606536000,2.904535888671875,0.24935996074974534,0.08355491077951155,-0.13478769728811457
1761466816616519700,2.914519775390625,-0.028870120653510092,0.210318921753671,0.24822332140263167
1761466816626502700,2.924502685546875,0.2537847914546728,0.48825314374919976,0.6433843399565666
1761466816636486700,2.934486572265625,0.12764087600708007,0.6595758885618299,0.7590601990122348
1761466816646471000,2.944470947265625,0.18527824146151542,0.3562143250441179,0.48426706978771833
1761466816656454000,2.954453857421875,0.14700316360294818,0.019329764432599768,0.015479966269806026
1761466816666438000,2.96443798828125,0.15526421146988867,-0.19525774715151636,-0.4849576458677649
1761466816676420600,2.974420654296875,-0.04379413354098797,-0.23028679229356347,-0.4965169680951163
1761466816686404600,2.984404541015625,0.03472176929116249,-0.07805766507009976,-0.13607456789403222
1761466816696387800,2.994387939453125,0.31783845369219776,0.1035481806221418,0.19716971825268118
1761466816706371800,3.004371826171875,0.11164075832068919,0.09038898545010014,0.42961186194922774
1761466816716355800,3.01435595703125,0.1144984858393669,0.0060145955308456905,0.6825763134643436
1761466816726338800,3.0243388671875,0.2736240489125252,0.014295268263574688,0.8836240056615322
1761466816736322800,3.03432275390625,0.16010931341350076,0.11020869795726612,0.8148679378867149
1761466816746305800,3.044305908203125,0.10196575200259685,0.18073573919367045,0.6241672329850495
1761466816756289800,3.054289794921875,0.23582594091594217,0.10405329886637628,0.4497546323982998
1761466816766272800,3.064272705078125,0.05272562801539898,0.14245584816266782,0.4342254566919058
1761466816776256800,3.0742568359375,0.06832417916357517,0.05882917362146545,0.4164416704591363
1761466816786239700,3.08423974609375,0.08839315372407436,0.1033771805699449,0.3911489699009806
1761466816796224000,3.09422412109375,0.07343465404510498,0.10773640782590956,0.27092953086523336
1761466816806208000,3.1042080078125,0.18253215762376784,0.09078245088024996,0.10798538675145246
1761466816816190700,3.114190673828125,0.08556757490932941,-0.08256612807102501,0.026906236702017486
1761466816826174700,3.1241748046875,0.16143968523442745,-0.17025144405299797,-0.02562947649816051
1761466816836157700,3.13415771484375,0.08391805413663386,-0.1986363750054501,0.1696710503491573
1761466816846141700,3.1441416015625,0.1223673195183277,-0.1982952516838908,0.3590163768528029
1761466816856125000,3.154125,0.07849427552223205,-0.11425561699420213,0.5456241133524105
1761466816866109000,3.16410888671875,0.2427963644504547,0.03340735765777062,0.9612376989569514
1761466816876091600,3.174091552734375,-0.0866267285734415,0.1537358693914488,1.424354611351341
1761466816886075600,3.18407568359375,0.07072422604262829,0.08253585166377014,1.0102086506139487
1761466816896059000,3.194058837890625,0.333925665140152,-0.06092857988639734,-0.08800390781131573
1761466816906043000,3.20404296875,0.2746913858830929,-0.03218657227471704,0.014802478000195697
1761466816916027000,3.21402685546875,0.05203472314178943,-0.03763570909266127,0.06243776060664095
1761466816926009900,3.224009765625,0.06594283698499202,-0.040436530208773906,0.0630777207443025
1761466816935993900,3.233993896484375,0.16440613382458685,-0.02427880167472176,0.03804705952266231
1761466816945976800,3.243976806640625,0.1512462080001831,-0.029728511598112524,0.059717888922384006
1761466816955960800,3.2539609375,0.097675945854187,-0.0510895923453616,0.09297921200585552
1761466816965943800,3.26394384765625,0.11622633254528045,-0.05829571063215844,0.08527841010387055
1761466816975927800,3.273927734375,0.13612579575777053,-0.06420247785737737,0.059591431264812124
1761466816985911800,3.283911865234375,0.14435878657400608,-0.07377970918968785,0.038061727368831635
1761466816995894800,3.293894775390625,0.11083645620048045,-0.0893278042256832,0.025205323668802154
1761466817005878800,3.303878662109375,0.11891279515028,-0.08180164650455117,0.023116808690642938
1761466817015861800,3.31386181640625,0.1163636951893568,-0.07253145812768488,0.02271597280479036
1761466817025845800,3.323845703125,0.15033260028660297,-0.05253156674802303,0.04706899962634779
1761466817035828700,3.333828857421875,0.14420155018568037,-0.03059694216282805,0.08034521888485179
1761466817045812700,3.343812744140625,0.11666881561577319,-0.017304099257313646,0.10482357085281982
1761466817055796000,3.3537958984375,0.10274667324721813,-0.007245587214082479,0.09685224491376429
1761466817065779700,3.36377978515625,0.1322229431003332,-0.004283200594398659,0.0716257688590791
1761466817075763700,3.373763671875,0.1552712257325649,-0.01227734115346102,0.05842450637728907
1761466817085746700,3.38374658203125,0.14824468809664249,-0.00791502689126646,0.058314652794646094
1761466817095730700,3.393730712890625,0.10424889450371265,-0.01671806811384158,0.05839525288334116
1761466817105714000,3.4037138671875,0.1290904902935028,-0.03306443738805828,0.05704174678199924
1761466817115698000,3.413697998046875,0.16441197904348373,-0.05848865765468217,0.04337573459898121
1761466817125680600,3.4236806640625,0.08495265788137912,-0.09088946405183523,0.05388441526223905
1761466817135664600,3.43366455078125,0.1235568215638399,-0.10432714737169443,0.05161777637135237
1761466817145647900,3.44364794921875,0.16216858403086662,-0.10446218106136657,0.048508037719829006
1761466817155631900,3.4536318359375,0.12071838326752185,-0.1074638836279977,0.06513875406049191
1761466817165615900,3.463615966796875,0.11009294435679912,-0.08924930476252921,0.06385497959395871
1761466817175598800,3.473598876953125,0.15424188268482683,-0.07683642531260848,0.04471143104899675
1761466817185582800,3.483582763671875,0.1286591131389141,-0.06434948967921082,0.05631974351722747
1761466817195565800,3.49356591796875,0.0924438904196024,-0.0469586026210105,0.07335472980984487
1761466817205549800,3.5035498046875,0.12506313447356224,-0.03487459208256332,0.07155282235387712
1761466817215532800,3.51353271484375,0.15439444289803503,-0.03253509116815403,0.06317862383550964
1761466817225516800,3.523516845703125,0.11369301467537879,-0.036092105513007844,0.05871062070913612
1761466817235499800,3.533499755859375,0.12461480618417262,-0.04665365115795284,0.05304220141759142
1761466817245483800,3.54348388671875,0.1165337910592556,-0.051444844656973146,0.04772972855740226
1761466817255467800,3.5534677734375,0.1407809280872345,-0.07541202309925574,0.04203959975754842
1761466817265450800,3.56345068359375,0.12552490676641465,-0.0883641285589896,0.050940278968587514
1761466817275434800,3.573434814453125,0.12911737830042838,-0.08748784804795869,0.06780314183100127
1761466817285417700,3.583417724609375,0.11984160043299197,-0.06600103344563395,0.08154693195796571
1761466817295401700,3.593401611328125,0.13450842368900776,-0.041345283650723284,0.09027327751540579
1761466817305385000,3.603385009765625,0.1193961947530508,-0.025038988375279587,0.09819854495618492
1761466817315369000,3.613368896484375,0.11026713187992572,-0.013925912078085821,0.12464763987469486
1761466817325351700,3.6233515625,0.1374953305453062,-0.010113114607566967,0.1111197575207334
1761466817335335700,3.633335693359375,0.12207856570482253,0.01158007275443524,0.06378034345516935
1761466817345319700,3.643319580078125,0.12881050430834293,0.023155798127315937,0.019861788950068876
1761466817355303000,3.653302978515625,0.12477145805060863,-0.0022306565453414804,0.014956645648600532
1761466817365287000,3.663286865234375,0.11878946103155612,-0.03334811088435817,0.007129157760180533
1761466817375270000,3.673269775390625,0.12283201442062854,-0.040812957739154804,0.005610798219637945
1761466817385254000,3.68325390625,0.1267255147278309,-0.0508313113019336,0.02043548805164173
1761466817395236600,3.693236572265625,0.13286533265709877,-0.06705716403559782,0.0300364062202163
1761466817405220900,3.703220947265625,0.11206804382205009,-0.08288514915863052,0.02947136534913443
1761466817415204900,3.713204833984375,0.10817921968996524,-0.08622295181183144,0.015753723443578928
1761466817425187800,3.723187744140625,0.11775427276492118,-0.08373457819535396,0.038333557446999476
1761466817435171800,3.733171875,0.1182020165324211,-0.08915457568378188,0.06267411751262843
1761466817445154800,3.74315478515625,0.17881401388347148,-0.07089361865962855,0.052072954526636746
1761466817455138600,3.753138671875,0.14006722685992717,-0.057757338572293516,0.07598502351450734
1761466817465121800,3.763121826171875,0.07227788522541523,-0.05503249845197424,0.11492114083138294
1761466817475105800,3.773105712890625,0.12150631877481936,-0.04416849241186865,0.14428988605625925
1761466817485088800,3.7830888671875,0.14245382973551748,-0.03134610971244983,0.08401450938158668
1761466817495072800,3.79307275390625,0.11836100648641586,-0.015214259971748105,-0.0003985982629936188
1761466817505056800,3.803056884765625,0.12659516634643078,-0.00695619179647183,-0.028758102513244375
1761466817515043000,3.81304296875,0.11058978796303272,-0.023149201706459278,-0.006318855157447978
1761466817525027000,3.823027099609375,0.13543664444983006,-0.027919829624774864,0.0326513562252745
1761466817535010000,3.833010009765625,0.11104863764643669,-0.05612268657516688,0.05693088855235837
1761466817544994000,3.842994140625,0.13439502644240856,-0.08346167040495202,0.07314992795274593
1761466817554977300,3.852977294921875,0.14607202023267746,-0.10742285749786533,0.06458177776485681
1761466817564961300,3.862961181640625,0.11988894670605658,-0.11952836976535618,0.05019669405966997
1761466817574944000,3.872944091796875,0.1088169330716133,-0.11152619203031063,0.04421375632570125
1761466817584928000,3.882927978515625,0.12407938413321971,-0.09685672929263674,0.05420538171175867
1761466817594912000,3.892912109375,0.1353039579808712,-0.07214729938199743,0.09335949829402379
1761466817604895200,3.902895263671875,0.12333353420197964,-0.044383779130363836,0.0742076568447519
1761466817614879200,3.912879150390625,0.1296218206912279,0.0008899733929545619,0.053069116823980585
1761466817624862200,3.9228623046875,0.10552899744212627,0.051084491478558626,0.08203456021128222
1761466817634846200,3.93284619140625,0.11076222192049026,0.13356664932686835,0.04987687838762067
1761466817644829000,3.942828857421875,0.17197043159902095,0.125179682658473,0.004134058464271948
1761466817654813000,3.95281298828125,0.1362146430850029,0.09212863219166174,0.06877346643419005
1761466817664797200,3.962797119140625,0.08084639160633086,0.07158896681291517,0.10214686245685442
1761466817674780200,3.9727802734375,0.10074585481882095,0.04446318277581594,0.060606837118742984
1761466817684764200,3.98276416015625,0.14564005855619908,0.003119307914178353,0.003564752410026267
1761466817694747100,3.9927470703125,0.11197568936347961,-0.03741934237864334,-0.013325053258240223
1761466817704731100,4.002731201171875,0.1217056407392025,-0.054635050966450945,0.016099833467509598
1761466817714712000,4.012712158203125,0.11916355504095553,-0.09417542691994459,0.032212161090411244
1761466817724696000,4.022696044921875,0.12679974900782107,-0.12028229340519755,0.03857961376309395
1761466817734680000,4.03268017578125,0.13668226059675215,-0.12045504702306352,0.020993085401784628
1761466817744663300,4.042663330078125,0.10286474666893482,-0.11420915663712658,0.005960643703769892
1761466817754647000,4.05264697265625,0.10451309839785099,-0.09623962944075465,-0.006310671850992366
1761466817764630000,4.062630126953125,0.15973989557921886,-0.08945617984570563,-0.024858446459891274
1761466817774614000,4.072614013671875,0.12907412368059157,-0.07364990423098206,-0.0039218222193885596
1761466817784597200,4.08259716796875,0.09720715929865836,-0.0801753696101252,0.02501652309843339
1761466817794581200,4.092581298828125,0.1385147367209196,-0.07623772876709699,0.04569350088890642
1761466817804564200,4.102564208984375,0.15842939750254154,-0.11639027266902849,0.1296889493769966
1761466817814548000,4.1125478515625,0.1488543444275856,-0.17143966745687647,0.2062268484007567
1761466817824532000,4.122531982421875,0.06116086340546607,-0.13716138588320462,0.11973557364209554
1761466817834515200,4.13251513671875,0.15947452264130116,-0.07536459462780039,-0.00784304165057838
1761466817844499200,4.142499267578125,0.14616495921313763,-0.049100204059854144,0.02837119925462175
1761466817854482200,4.152482177734375,0.1274655194401741,-0.04336106675281189,0.165163089671731
1761466817864466200,4.162466064453125,0.14991116000413893,-0.050942114732647314,0.29443017864115534
1761466817874449200,4.17244921875,0.13135083644092083,-0.022909828576189464,0.244631215194799
1761466817884433200,4.18243310546875,0.11877543250620365,-0.017706085920636543,0.09994385425355284
1761466817894417200,4.192417236328125,0.15588322015106676,-0.08575754452347754,0.10186535123488866
1761466817904400100,4.202400146484375,0.14615326877534388,-0.1655046696510166,0.12682939522741363
1761466817914384100,4.212384033203125,0.13701894520521163,-0.22064890311546623,0.14989453766290098
1761466817924367000,4.2223671875,0.135513216817379,-0.261875213728752,0.1257339829398319
1761466817934351000,4.23235107421875,0.13460428527891635,-0.2784769688364118,0.07625957527272403
1761466817944334000,4.242333984375,0.1417781224310398,-0.2570142748951912,0.06075525087979622
1761466817954318000,4.252318115234375,0.11602934866845607,-0.2062598008222878,0.07128731241864152
1761466817964302000,4.262302001953125,0.10075053099393844,-0.10687994626020081,0.0069332424624357365
1761466817974285000,4.27228515625,0.11540332572460174,0.017837180937419178,-0.09464914537891746
1761466817984269000,4.28226904296875,0.12991232807040215,0.12987268104660324,-0.11889351506107486
1761466817994252300,4.292252197265625,0.08920680819451808,0.19078681228253988,-0.07377252596365287
1761466818004236300,4.302236328125,0.11943301963210105,0.22886351802479474,-0.058426543070748446
1761466818014219000,4.312218994140625,0.13200433191359043,0.25638790489146485,-0.03798755702092312
1761466818024203000,4.322203125,0.12497136453688144,0.25676282088477165,-0.027446024400833994
1761466818034186200,4.332186279296875,0.11554594906568527,0.23632817308334633,-0.011340911970008164
1761466818044170200,4.342170166015625,0.13664835832715033,0.17454139633188023,-0.0071615895919036115
1761466818054154200,4.352154296875,0.1360568221747875,0.09367282942635938,-0.019292482895823193
1761466818064137200,4.36213720703125,0.1182628068089485,-0.0032758250665850933,0.0006150448921136558
1761466818074121200,4.372121337890625,0.08684533976018428,-0.12948064038855955,0.07408676127828658
1761466818084104000,4.38210400390625,0.12066869890689849,-0.23121112233055754,0.16278719085324556
1761466818094088200,4.392088134765625,0.1939975544899702,-0.27300350586138666,0.22464306905185802
1761466818104071200,4.4020712890625,0.1060071363478899,-0.301644987124484,0.24968038834314793
1761466818114055200,4.41205517578125,0.1052484269350767,-0.2931130133616738,0.17481942782197146
1761466818124039200,4.4220390625,0.16240648443996905,-0.25058394958674907,0.07742166872150265
1761466818134022100,4.432022216796875,0.16510229939520357,-0.20007004280406981,0.056998492162162434
1761466818144006100,4.442006103515625,0.11497136404812336,-0.1422030150459148,0.07898876277459785
1761466818153989000,4.451989013671875,0.11406827772855758,-0.07578827709970064,0.08371114252083935
1761466818163973000,4.46197314453125,0.11391221038401127,-0.019953408189699984,0.07211390856904909
1761466818173956000,4.4719560546875,0.11569967832267283,0.021272765426267867,0.03806359053235501
1761466818183940000,4.481940185546875,0.11958207271397113,0.06395477757346817,-0.009757761831255629
1761466818193923300,4.49192333984375,0.12062719785273074,0.07458886558152734,-0.03882907674582675
1761466818203907300,4.5019072265625,0.12841186037957666,0.06445575393212494,-0.05558109051175415
1761466818213891000,4.51189111328125,0.10776011749505995,0.04750663299178704,-0.03851537115415558
1761466818223874000,4.5218740234375,0.11643851399123668,0.027993267037032636,-0.015108100750111042
1761466818233858000,4.531858154296875,0.13918927498161793,0.019436359762365463,0.007051635544560849
1761466818243841300,4.54184130859375,0.11555062524080276,-0.00683695389755303,0.032205977944796904
1761466818253825300,4.5518251953125,0.10657587614655493,-0.04275964852725155,0.04236250243582763
1761466818263808300,4.561808349609375,0.11600362970530986,-0.06234234654130414,0.046442556557385245
1761466818273792000,4.5717919921875,0.11270926433503627,-0.05724352556494996,0.02743428829726763
1761466818283776000,4.58177587890625,0.15775661280751227,-0.06850676918886602,0.033314286246569826
1761466818293760000,4.591760009765625,0.15656886432766914,-0.06628314745579846,0.11331010717186145
1761466818303744000,4.601743896484375,0.09671557638943194,-0.07040325959310867,0.17486706635598093
1761466818313727200,4.611727294921875,0.11017828455269336,-0.06260440414412878,0.152184000306949
1761466818323711200,4.621711181640625,0.15641630411446095,-0.042368091926397754,0.10478359503545798
1761466818333694200,4.631694091796875,0.134867904651165,-0.04576415497232228,0.07492166859931312
1761466818343678200,4.64167822265625,0.08892682220935821,-0.05065466696023941,0.05436830805535428
1761466818353662200,4.651662109375,0.1360655900031328,-0.04199435411002487,0.01487048346879892
1761466818363645200,4.661645263671875,0.12439619499742983,-0.04336276551955379,0.010666455907700583
1761466818373629200,4.671629150390625,0.1112269168227911,-0.04186161740871612,0.041022568202111864
1761466818383612200,4.681612060546875,0.13008242394030092,-0.061064755220385264,0.049607980052055786
1761466818393596200,4.69159619140625,0.12394845122992992,-0.05383754391320981,0.034660951615171506
1761466818403579100,4.7015791015625,0.11751520331203937,-0.06224464005418121,0.011989219810906797
1761466818413563100,4.711563232421875,0.11661971577703951,-0.06872562697078101,-0.007521262350305914
1761466818423546000,4.721546142578125,0.12500059063136576,-0.07089035812346264,-0.011285080996388568
1761466818433530000,4.731530029296875,0.13338380357325078,-0.0811112896202132,0.006901824410865083
1761466818443514000,4.74151416015625,0.12770283532738685,-0.07714300704374909,0.028635773041518403
1761466818453497000,4.7514970703125,0.12860475260317325,-0.07774846212361007,0.04323909347411245
1761466818463481000,4.761481201171875,0.14821253939270973,-0.06602530480378772,0.042086471106577664
1761466818473464300,4.77146435546875,0.1242757834881544,-0.09113225069860927,0.037934712588833644
1761466818483448000,4.781447998046875,0.1239794308900833,-0.09361850542323663,0.09037082873890176
1761466818493431000,4.79143115234375,0.12757073338031769,-0.10224618551232852,0.14709994764146395
1761466818503415000,4.8014150390625,0.14433014500141142,-0.09967303795553743,0.1455409546964336
1761466818513396500,4.811396484375,0.12801789262592791,-0.08433226096071303,0.1266890277754981
1761466818523379200,4.821379150390625,0.13280512690246105,-0.08361601158329285,0.08797749472842552
1761466818533363500,4.831363525390625,0.12786474789083002,-0.08966155709153972,0.06207407839340157
1761466818543346400,4.841346435546875,0.10152560701966284,-0.09343208860619924,0.02603057724549435
1761466818553330400,4.851330322265625,0.13100421496033668,-0.09355197952566668,-0.013916863405238835
1761466818563313400,4.8613134765625,0.12232757202982902,-0.08643571777967736,-0.023366253407066686
1761466818573297400,4.87129736328125,0.11963292611837387,-0.10488715587463229,-0.003361841115914285
1761466818583281200,4.88128125,0.12846505187153814,-0.10237868018504231,-0.0033979079431388525
1761466818593264400,4.891264404296875,0.13654665151834486,-0.08542005619741976,-0.002527856243494898
1761466818603248400,4.901248291015625,0.1070697971433401,-0.08593589676506817,0.03130185957876965
1761466818613231400,4.9112314453125,0.11305822390317916,-0.06191166350645944,0.052509665443468835
1761466818623215400,4.92121533203125,0.13281272568702698,-0.03415515751750208,0.05956506384769454
1761466818633198600,4.931198486328125,0.11470657563209533,-0.004060755766043439,0.062483271115645764
1761466818643182300,4.941182373046875,0.14104220937192438,0.02459518099738052,0.028138682840112596
1761466818653166300,4.951166259765625,0.1308686058819294,0.061062901190016415,0.025203944562468675
1761466818663149300,4.9611494140625,0.12279402049779892,0.08568497247761114,0.059142344923596823
1761466818673133300,4.97113330078125,0.1403057117909193,0.0966589325650595,0.08262416926803998
1761466818683116500,4.981116455078125,0.12369710681736469,0.10745141687206923,0.07093760393182746
1761466818693100500,4.9911005859375,0.12205226221978664,0.10731600872306153,0.06828848679568618
1761466818703083300,5.001083251953125,0.13941490043103694,0.09153798195528798,0.058321237799059594
1761466818713067300,5.0110673828125,0.1334340724557638,0.05394818751371931,0.07654069376904517
1761466818723051300,5.02105126953125,0.11458090342581272,0.032661341046460436,0.09163314029229805
1761466818733034500,5.031034423828125,0.14570610952973365,-0.010520466999174095,0.09393506969227455
1761466818743018500,5.0410185546875,0.1406184310019016,-0.04699008003808558,0.10407375713251531
1761466818753001500,5.05100146484375,0.14600830734670162,-0.06554700150124262,0.07797944873473607
1761466818762985500,5.0609853515625,0.11308569643199443,-0.08043684269106015,0.04983443661853671
1761466818772968200,5.07096826171875,0.10620002857148647,-0.10907638772539793,0.03479439613595605
1761466818782952200,5.0809521484375,0.14855097756683824,-0.13181424356843344,0.022372977186553178
1761466818792935400,5.090935302734375,0.11907529223561286,-0.13702956706392577,0.048317926541785704
1761466818802919400,5.10091943359375,0.10650456447601318,-0.14505727196587248,0.06162679585020523
1761466818812903400,5.1109033203125,0.12595686844289303,-0.15054313776474446,0.06784074302818625
1761466818822886400,5.120886474609375,0.14436463179290293,-0.158662110279873,0.0742265076756943
1761466818832870400,5.130870361328125,0.12251520355641841,-0.15300307073802685,0.0691021412661299
1761466818842853400,5.140853271484375,0.10395604903697966,-0.13226128408303484,0.06024113647835329
1761466818852837400,5.15083740234375,0.1425619662851095,-0.12552841389775277,0.07022022204324603
1761466818862820400,5.1608203125,0.12430442506074904,-0.11626571470759808,0.10826003897436894
1761466818872804400,5.170804443359375,0.10993161631524562,-0.09306657062890007,0.06783917212560772
1761466818882788400,5.180788330078125,0.11441489920914172,-0.06603203137209639,0.01597716606906615
1761466818892771600,5.190771484375,0.16933423787653445,-0.03748861735572573,0.015851904854737222
1761466818902755600,5.200755615234375,0.13177578385472297,-0.015298611503664869,0.047821233632601795
1761466818912738300,5.21073828125,0.09121756349503994,0.004593136476539075,0.05143184361150488
1761466818922722300,5.220722412109375,0.1491238090187311,0.042552412684471345,0.011855072037223725
1761466818932705300,5.230705322265625,0.1347580145359039,0.05202885052342899,-0.021756370525015518
1761466818942689500,5.240689453125,0.1096188971042633,0.05729356155202258,-0.04111060267859138
1761466818952673500,5.250673583984375,0.12174363466203213,0.060604686260852025,-0.03654516705973074
1761466818962656500,5.260656494140625,0.13521803326308726,0.03796665579678956,0.0038138409334234893
1761466818972640300,5.27064013671875,0.1207072773516178,-0.00019508874726016073,0.06863858800814486
1761466818982623200,5.280623291015625,0.13612053506076335,-0.030430586319707797,0.09634841444431803
1761466818992607200,5.290607177734375,0.13148293838799,-0.03628934511815896,0.07196749496883713
1761466819002590500,5.300590576171875,0.12699264123141765,-0.06257598633382003,0.046148012323910366
1761466819012574500,5.310574462890625,0.12714812405407427,-0.08409910065880977,0.06031339799696579
1761466819022558500,5.320558349609375,0.12026596332490444,-0.08779717885861173,0.07971562487757765
1761466819032541200,5.330541259765625,0.12520283520519732,-0.13134380391193554,0.11180222335956058
1761466819042525200,5.340525146484375,0.16410978122651576,-0.13806656369515694,0.10588055082615465
1761466819052508400,5.35050830078125,0.11996610359549521,-0.12077753870938904,0.08391602657632902
1761466819062492400,5.360492431640625,0.11831716734468936,-0.10018970964024775,0.05941283242804929
1761466819072475400,5.370475341796875,0.14704466465711594,-0.06109218665000517,0.04293863095650449
1761466819082459400,5.38045947265625,0.14614625451266763,-0.03431783041605958,0.042458711085608225
1761466819092443400,5.390443359375,0.13267828565239906,-0.055119774876628065,0.06169461408914066
1761466819102426400,5.40042626953125,0.11771218718886375,-0.051823318013967945,0.039028471775446084
1761466819112410400,5.410410400390625,0.13132862460911274,-0.02067488173150923,0.009782110821222887
1761466819122393300,5.420393310546875,0.1334264736711979,-0.0011882964691147207,-0.015835319046117364
1761466819132377300,5.43037744140625,0.13343173436820507,0.006547928372700698,-0.013287324196891858
1761466819142360600,5.440360595703125,0.12460662287771701,-0.01666539264511084,0.018005333728692494
1761466819152344600,5.450344482421875,0.11742577146291733,-0.040405920441378834,0.04272879673126154
1761466819162328600,5.46032861328125,0.13987375011444092,-0.03771917470858898,0.07657625370619353
1761466819172311300,5.470311279296875,0.12595628392100333,-0.018156117543345316,0.0969326532062143
1761466819182295300,5.48029541015625,0.11772563119232654,-0.0013021001410903408,0.08751132938824593
1761466819192278300,5.4902783203125,0.13388824596405027,-0.010550916936364955,0.07177890446102246
1761466819202262500,5.500262451171875,0.11608137111663817,-0.005901862721238285,0.08419822278488427
1761466819212245500,5.51024560546875,0.1572328811943531,-0.023230050673615187,0.09274225231166928
1761466819222229500,5.5202294921875,0.1410720199882984,-0.015424639902974012,0.10813591027120127
1761466819232213500,5.530213623046875,0.13403729904592038,-0.037506114196509587,0.12943715743985956
1761466819242196200,5.5401962890625,0.13612988741099832,-0.07273865287126972,0.12368745307303033
1761466819252180200,5.55018017578125,0.12131108846366405,-0.08913312190379948,0.07179739909893833
1761466819262163500,5.56016357421875,0.11547054574191569,-0.10050470300670712,0.005986965455114841
1761466819272147500,5.5701474609375,0.12145488084852694,-0.09385688075637444,-0.04470936695607379
1761466819282130400,5.58013037109375,0.11980769816339015,-0.1081556744175963,-0.05996931553333997
1761466819292114400,5.590114501953125,0.12010872693657874,-0.11766780005786567,-0.0224365804746747
1761466819302098200,5.60009814453125,0.12385258964002131,-0.11776388997663743,0.023187727635540067
1761466819312081400,5.610081298828125,0.1256482408851385,-0.1331932037714403,0.05443416723264381
1761466819322065400,5.6200654296875,0.11861351994276045,-0.13094811912523582,0.05417549803014844
1761466819332048400,5.63004833984375,0.12295008784234523,-0.10260198581321164,0.05033332605138421
1761466819342032400,5.640032470703125,0.13267653208673,-0.08972130618845112,0.048508247782383114
1761466819352015600,5.650015625,0.13537059347629546,-0.07882968148905783,0.05276483664778061
1761466819361999400,5.659999267578125,0.10379296742975712,-0.05563563371058553,0.05034951913435943
1761466819371983400,5.6699833984375,0.1416512811809778,-0.04051434468533843,0.051997834330657494
1761466819381966300,5.67996630859375,0.13521861778497696,-0.02927660996201448,0.07356603447296656
1761466819391950300,5.689950439453125,0.11980243746638297,-0.005838222900498658,0.11226814210456795
1761466819401933300,5.699933349609375,0.12099544664323329,0.007392603602493181,0.11244685967233962
1761466819411917600,5.70991748046875,0.15660744277238844,0.01798071987724397,0.09056741075692698
1761466819421900300,5.719900390625,0.10901683955788612,0.023926300725911277,0.07135698012136854
1761466819431884300,5.72988427734375,0.1061678798675537,0.031625374178402124,0.016640406617615372
1761466819441868300,5.739868408203125,0.14971417612731455,0.036638656312751115,-0.035167156704794617
1761466819451851300,5.749851318359375,0.12008768414855002,0.01392394388328539,-0.029080566800106317
1761466819461835300,5.759835205078125,0.09808920283019543,-0.005925983382342383,-0.0014379421149380504
1761466819471818500,5.769818603515625,0.13639993652403354,-0.02832347167235566,0.02932531707510352
1761466819481802500,5.779802490234375,0.1323626438319683,-0.038785045807855204,0.05559817864387296
1761466819491785200,5.78978515625,0.10662263789772987,-0.03571487198174,0.07234190863864495
1761466819501769200,5.799769287109375,0.12727087365090847,-0.04070964806172996,0.031187302421545608
1761466819511752200,5.809752197265625,0.14178864382505416,-0.04987262233761139,-0.017159644718747584
1761466819521736000,5.81973583984375,0.12862170373797416,-0.04641372775512281,0.00601406352459453
1761466819531720000,5.829719970703125,0.127726800724864,-0.07326040258989669,0.046632663168851285
1761466819541703000,5.839702880859375,0.14239420850276946,-0.091880228654854,0.08667605674103833
1761466819551687000,5.84968701171875,0.12503741551041603,-0.1189269058740232,0.08939815691499971
1761466819561670100,5.859670166015625,0.1302753161638975,-0.11808093830286524,0.07278845596290193
1761466819571654100,5.869654052734375,0.14089900150895118,-0.12376729510989971,0.05904291227026842
1761466819581636900,5.879636962890625,0.12264146028459072,-0.13015957169658504,0.046069311931356785
1761466819591620900,5.889620849609375,0.11081892054378986,-0.12081350507191381,0.04335086501920595
1761466819601604900,5.89960498046875,0.13281623281836508,-0.12394270647573284,0.053785914190672336
1761466819611588000,5.909588134765625,0.12862637991309164,-0.10410615243162027,0.07591885380996391
1761466819621572000,5.919572021484375,0.10872165600359439,-0.08639980621607973,0.07767473016711883
1761466819631555000,5.92955517578125,0.11829437099099159,-0.06488092510821297,0.05132981714229099
1761466819641539000,5.9395390625,0.1383452253729105,-0.04821172165437601,0.0031971612066496163
1761466819651522000,5.94952197265625,0.14598083481788635,-0.03183620620077709,-0.025035803187638518
1761466819661506000,5.959506103515625,0.11051964533627033,-0.019725444652722215,-0.017219813940767197
1761466819671490000,5.969489990234375,0.10648059907853603,-0.01899418265254935,0.020806284992257132
1761466819681473000,5.97947314453125,0.14329612577855586,-0.020318268579873254,0.051861357602570206
1761466819691457000,5.98945703125,0.13836334555149077,-0.010260057930741459,0.06574425480612553
1761466819701440000,5.99943994140625,0.10514321299493312,0.005918950853357091,0.06268046505502425
1761466819711424000,6.009424072265625,0.11082768837213515,0.0067347927143098785,0.0364632609299384
1761466819721407000,6.019406982421875,0.15362696565687656,0.014764107334741856,0.018083572896942495
1761466819731391000,6.029390869140625,0.14899462968111038,0.004660493491170928,0.052642543708672745
1761466819741375000,6.039375,0.08674363295137882,-0.015555136698135174,0.09880878580901771
1761466819751358000,6.04935791015625,0.12415186484754084,-0.03516886460469104,0.13081114920680412
1761466819761342000,6.059342041015625,0.15587795945405958,-0.04470415649141651,0.14635006998907774
1761466819771325200,6.0693251953125,0.10724106205701828,-0.048292906264960765,0.13135898321475833
1761466819781309200,6.07930908203125,0.11022679986953735,-0.06026735776499845,0.06781397375226952
1761466819791292000,6.0892919921875,0.1486830795139074,-0.0354258487401763,-0.007529610053543001
1761466819801276000,6.09927587890625,0.1298316640496254,-0.03674270805898122,-0.04005836281245574
1761466819811260000,6.109260009765625,0.11471943511366843,-0.049513935959897934,-0.028051625611167398
1761466819821243100,6.1192431640625,0.1364186412245035,-0.07421668953457847,0.026457935812091455
1761466819831227100,6.12922705078125,0.11965981412529944,-0.07907465095976367,0.06096098431865685
1761466819841210000,6.139210205078125,0.11397183161675929,-0.08459604472974315,0.04874070483138784
1761466819851193900,6.14919384765625,0.1340226859986782,-0.0942980851852335,0.02366737351180054
1761466819861177000,6.159177001953125,0.14150631975233555,-0.0930974954901263,0.012356664883811026
1761466819871161000,6.1691611328125,0.12474983074069022,-0.09591992336655966,0.02906954308259301
1761466819881145000,6.17914501953125,0.10948854872286319,-0.08852668044324964,0.043810125694563606
1761466819891128000,6.189128173828125,0.11188099681735038,-0.08995942579326219,0.08461946213794871
1761466819901112000,6.199112060546875,0.12415128032565116,-0.0822632544006221,0.10135009518912992
1761466819911094800,6.2090947265625,0.12384966703057289,-0.06879172361008823,0.08866186026339419
1761466819921079000,6.2190791015625,0.12743746238946915,-0.06719212466003373,0.045313744323700667
1761466819931062000,6.22906201171875,0.13521744874119757,-0.04237137986202724,-0.004514819676475599
1761466819941046000,6.2390458984375,0.1109738188445568,-0.03374846727959811,-0.006391792529495432
1761466819951030000,6.249030029296875,0.14105214624404908,-0.02182558157001622,-0.0011335706071928142
1761466819961013000,6.259012939453125,0.12848551013767717,-0.02589453205895843,0.01646819185586646
1761466819970997000,6.2689970703125,0.11501987936496734,-0.01178712136754766,0.045351025860477234
1761466819980980000,6.27897998046875,0.13133271626234053,-0.014805944032338448,0.07588819381021894
1761466819990964000,6.2889638671875,0.12804244254529476,-0.004773564227495808,0.06784323637937195
1761466820000948000,6.298947998046875,0.1132265662074089,-0.013932809893041848,0.05367441664021462
1761466820010931000,6.308930908203125,0.1368675540357828,-0.010124152024812065,0.018566479309368878
1761466820020915000,6.3189150390625,0.14899229159355162,-0.011300849387678316,0.009446439992915839
1761466820030898200,6.328898193359375,0.1097884084522724,-0.0303796849662438,0.021925507413689045
1761466820040882200,6.338882080078125,0.11293138265311717,-0.04197986892694607,0.0324449012672063
1761466820050865000,6.348864990234375,0.13897066379487513,-0.045429488791013134,0.0305271854118444
1761466820060849000,6.358848876953125,0.11607552589774131,-0.057385865778243166,0.043481414330005644
1761466820070833000,6.3688330078125,0.11039105052053928,-0.05764281794768758,0.033058626418490895
1761466820080816000,6.378816162109375,0.1273047759205103,-0.05655741559746675,0.012928277059574611
1761466820090800000,6.388800048828125,0.12685761667490006,-0.047213769258745014,0.011059208951797336
1761466820100783000,6.398783203125,0.13449205707609652,-0.054792981474520636,0.016579890335723758
1761466820110767000,6.40876708984375,0.10935527773201464,-0.0560511785418028,0.03855161151131615
1761466820120749800,6.418749755859375,0.1355471190869808,-0.054594280564645305,0.0566355862670578
1761466820130734000,6.428734130859375,0.12596972792446612,-0.042956878999248146,0.08614354816637933
1761466820140717000,6.438717041015625,0.08496551736295223,-0.023872584077564533,0.03422137288781814
1761466820150701000,6.448701171875,0.1642775390088558,-0.0332308845627238,-0.002933788429573178
1761466820160685000,6.45868505859375,0.14288579141199587,-0.04137041352540254,0.053660735174734145
1761466820170668000,6.46866796875,0.11774842754602431,-0.05966804473155644,0.11644269697600974
1761466820180651800,6.47865185546875,0.11071721373498439,-0.059933810395118775,0.12983233990306034
1761466820190635000,6.488635009765625,0.15141864195764063,-0.06979530202890746,0.10472348061236553
1761466820200619000,6.498618896484375,0.11011690975427627,-0.0636507439924404,0.062186498392466455
1761466820210602000,6.50860205078125,0.1301665950924158,-0.05611186378705315,0.021785222160164267
1761466820220586000,6.5185859375,0.13031740173995493,-0.04929840264623053,0.0277032870975323
1761466820230570000,6.528570068359375,0.12927110755741594,-0.05647697990555316,0.035020651773037384
1761466820240553000,6.538552978515625,0.1306195995569229,-0.05042009101938456,0.03972274678307585
1761466820250537000,6.548536865234375,0.11580489226281643,-0.05428115949486382,0.028680589430779217
1761466820260520000,6.55852001953125,0.11505728876590728,-0.046927869556029324,0.0202321611989988
1761466820270504000,6.56850390625,0.11326046847701073,-0.049929494490846986,0.0014791509081609547
1761466820280487200,6.578487060546875,0.1265799687772989,-0.043365957557060755,-0.03252586668208241
1761466820290471200,6.58847119140625,0.12748071700930594,-0.050477931286999955,-0.024371722388872877
1761466820300455200,6.598455078125,0.1325724871903658,-0.06210345061835833,0.027676883147796615
1761466820310438000,6.60843798828125,0.13018237718343734,-0.0647249764946755,0.07710569810750893
1761466820320422000,6.618421875,0.11477028851807117,-0.0519622789600864,0.10256444854810834
1761466820330405000,6.628405029296875,0.14035714971721172,-0.043746586338523775,0.09189271367709152
1761466820340389000,6.63838916015625,0.12359832261800766,-0.02952778312793234,0.06730101012829691
1761466820350372000,6.6483720703125,0.14574468797445297,-0.024092304942582268,0.05034818112722132
1761466820360356000,6.658356201171875,0.12704057202637195,-0.03217591160009615,0.04612331627407111
1761466820370340000,6.668340087890625,0.11387070932984351,-0.03375563223932404,0.034340460089687254
1761466820380322800,6.67832275390625,0.13572072208821773,-0.03443710941417375,0.035783105779206376
1761466820390307000,6.68830712890625,0.1508370426774025,-0.04509191369998734,0.05025371234337799
1761466820400290000,6.6982900390625,0.11462649613320827,-0.041079243992525154,0.04691851720579434
1761466820410274000,6.708274169921875,0.11941431493163109,-0.03778726922544883,0.05566592381757218
1761466820420257000,6.718257080078125,0.13288169927000998,-0.05396741737057455,0.05579276963421143
1761466820430241000,6.728240966796875,0.11986322774291037,-0.0497152991843177,0.038386899636010635
1761466820440225000,6.73822509765625,0.12420388729572296,-0.05245133655208628,0.01864143967514392
1761466820450208000,6.7482080078125,0.13393208510577678,-0.03835599760767072,0.01412874802367296
1761466820460192000,6.75819189453125,0.11792203054726123,-0.03702051807007519,0.0312732682385249
1761466820470175000,6.768175048828125,0.12839900089800357,-0.023067332109285053,0.02652338856400456
1761466820480159000,6.778158935546875,0.11523381437659264,-0.01334061843684176,0.016560021158051677
1761466820490142200,6.78814208984375,0.10910334879755973,-0.008329665256896986,0.017696459575765766
1761466820500126200,6.798126220703125,0.11404898850619792,-0.005986588712490629,0.01378115386213176
1761466820510110000,6.80810986328125,0.1412894621312618,-0.007254752334649674,0.018342881420254708
1761466820520092200,6.818092041015625,0.12139350605010986,-0.021374485934805124,0.04583567213884089
1761466820530076200,6.828076171875,0.11660685629546641,-0.037710187684535046,0.07132335641297977
1761466820540059400,6.838059326171875,0.12438976525664329,-0.056344841425865884,0.08345334096802398
1761466820550043400,6.84804345703125,0.134867904651165,-0.06590229034547228,0.0834538341583684
1761466820560027400,6.85802734375,0.11736205857694149,-0.08456042542709037,0.09038553311768918
1761466820570010000,6.868010009765625,0.10688567274808883,-0.09252056325185112,0.07284661132434848
1761466820579994000,6.877994140625,0.12514146040678023,-0.0905111687913537,0.04641248107952997
1761466820589977300,6.887977294921875,0.12499182280302047,-0.09983891430804505,0.021114547223830594
1761466820599961300,6.89796142578125,0.1225982056647539,-0.08962125248061492,0.0010286945937667041
1761466820609944300,6.9079443359375,0.121700964564085,-0.08524021525164134,0.00008036719325464219
1761466820619928300,6.91792822265625,0.13352467334866522,-0.07878202468873932,0.007509284218144603
1761466820629912300,6.927912353515625,0.11945932311713695,-0.07755138691524044,0.022579678739793597
1761466820639895300,6.937895263671875,0.11661562412381171,-0.06512137366742826,0.03455197481536306
1761466820649879300,6.94787939453125,0.1341226392418146,-0.05065065750540234,0.03125789257287979
1761466820659862300,6.9578623046875,0.14160685751736163,-0.036131012751290104,0.01670748507103417
1761466820669846300,6.96784619140625,0.12125614340603351,-0.02734716485295212,0.02795618414636701
1761466820679829200,6.977829345703125,0.11137889251410961,-0.02847427603660617,0.048054809493036005
1761466820689813200,6.987813232421875,0.15567454583644866,-0.023814839708071665,0.06959995755332056
1761466820699797500,6.997797607421875,0.13861761257350444,-0.025273068842501377,0.07603689526563975
1761466820709780200,7.0077802734375,0.09297638986110687,-0.032345795124152206,0.06608824593820609
1761466820719764200,7.01776416015625,0.12544658083319662,-0.03534831739140209,0.045066541796713135
1761466820729747200,7.027747314453125,0.1326291858136654,-0.052001396260922775,0.05784990765999536
1761466820739731200,7.037731201171875,0.14579963303208351,-0.045118778874026606,0.06627960379184224
1761466820749714400,7.04771435546875,0.12185703190863131,-0.056147396324737926,0.07089854599649552
1761466820759698400,7.057698486328125,0.12544716535508632,-0.06334152277964167,0.03192423839396797
1761466820769682400,7.067682373046875,0.12963643373847006,-0.07558490001470781,-0.024872525217593647
1761466820779665200,7.0776650390625,0.1297872403860092,-0.07830727418330498,-0.01929094852586277
1761466820789649200,7.087649169921875,0.12814181126654148,-0.07958239041934721,0.012256442212616092
1761466820799632400,7.09763232421875,0.12170856334865092,-0.08301513221384957,0.029685601754859087
1761466820809616400,7.107616455078125,0.11736907283961773,-0.07676481224796734,0.032211873396043665
1761466820819599400,7.117599365234375,0.1348772570014,-0.06831669911001809,0.03113759066145867
1761466820829583400,7.127583251953125,0.14026713334619997,-0.0511232114871731,0.028666702469321896
1761466820839567000,7.137567138671875,0.11856909627914428,-0.04284286069814115,0.04722432261880021
1761466820849550300,7.14755029296875,0.12216039876937866,-0.03829575760370353,0.06014520638978574
1761466820859534300,7.157534423828125,0.13921791655421256,-0.047740651810215785,0.06783044996303506
1761466820869517300,7.167517333984375,0.1296393563479185,-0.047478137549664824,0.06596177458090241
1761466820879501300,7.177501220703125,0.11347674157619475,-0.042078790123621,0.07078077396887819
1761466820889484300,7.187484375,0.11108020182847976,-0.020709937061870003,0.06328404327163006
1761466820899468300,7.19746826171875,0.12679215022325516,-0.017321539015881716,0.035716748844995164
1761466820909452300,7.207452392578125,0.1278401979714632,-0.016102703561319504,0.007194674444175325
1761466820919435300,7.217435302734375,0.1182628068089485,-0.007398476220853626,-0.0012690929206321015
1761466820929419300,7.227419189453125,0.11916121695339679,0.002675879562192131,-0.002346161267347634
1761466820939402200,7.23740234375,0.11946166120469569,-0.006116480436164419,0.014094836620916611
1761466820949386200,7.24738623046875,0.13936696963608264,-0.008470507632847875,0.01793307677665725
1761466820959369200,7.257369140625,0.1338350544720888,-0.021203490449185482,0.025094556770706548
1761466820969353200,7.267353271484375,0.11857201888859271,-0.04697274531079456,0.06044414823716506
1761466820979337200,7.277337158203125,0.11557809776961803,-0.052248329359851776,0.056035912474012
1761466820989320200,7.2873203125,0.13877309539616106,-0.0671644603349734,0.056112032750411885
1761466820999304200,7.29730419921875,0.11707505832910536,-0.07973306920272298,0.06461966665640939
1761466821009287400,7.307287353515625,0.13383213186264037,-0.07949149726550095,0.0532087901561521
1761466821019271400,7.317271484375,0.13383213186264037,-0.07265932229105383,0.029324833017913624
1761466821029254100,7.327254150390625,0.13697452154159545,-0.07435128483283333,0.03486565300757065
1761466821039238100,7.337238037109375,0.11377893939316272,-0.06185591016465332,0.05017396620463114
1761466821049222100,7.34722216796875,0.12694704852402208,-0.047094965184666215,0.037810127227939666
1761466821059205400,7.357205322265625,0.12589958529770373,-0.03818663923999993,0.02519986660897266
1761466821069189400,7.367189453125,0.14206278459131716,-0.03204999279864132,0.010386780449794604
1761466821079172400,7.37717236328125,0.1266512804478407,-0.023397911203943658,-0.003116168392309919
1761466821089156400,7.38715625,0.11078969444930553,-0.016451236154488288,0.02608604289293289
1761466821099140400,7.397140380859375,0.12979367012679577,-0.02377137045910349,0.06030227381475269
1761466821109123300,7.407123291015625,0.13278817576766014,-0.02474803347153356,0.06655986833821516
1761466821119107300,7.417107421875,0.13084288691878318,-0.007170282071724068,0.06319170707936864
1761466821129090300,7.42709033203125,0.11767302422225474,-0.020272637056570966,0.04616256600564811
1761466821139074300,7.43707421875,0.123657359328866,-0.02471089578194078,0.01881532580417115
1761466821149057300,7.447057373046875,0.13907061703801155,-0.039823097318434156,-0.0016121616041054948
1761466821159041300,7.457041259765625,0.1275485215485096,-0.0540812164759729,0.007389283700822852
1761466821169025300,7.467025390625,0.11003975286483764,-0.06813081201594323,0.018367947362852282
1761466821179008300,7.47700830078125,0.13024258293807506,-0.07471390760014765,0.04209454481517896
1761466821188992300,7.4869921875,0.14535773448348044,-0.08750603215862066,0.07704085271037184
1761466821198975200,7.496975341796875,0.11288462090194225,-0.08922470917738974,0.0930087394944392
1761466821208959200,7.506959228515625,0.12141045718491077,-0.07384305218290538,0.05849943934360053
1761466821218942500,7.5169423828125,0.13966449127793312,-0.053492949992930514,0.0002175791402813047
1761466821228926500,7.526926513671875,0.11706862858831882,-0.04442874165009707,-0.05384854023125954
1761466821238910200,7.53691015625,0.11662146934270858,-0.04059852497060783,-0.07682491753790527
1761466821248893200,7.54689306640625,0.11617372557520866,-0.04161450621327385,-0.02712556027481332
1761466821258877200,7.556877197265625,0.1279968498378992,-0.04828978729269001,0.0505985528588295
1761466821268860400,7.5668603515625,0.1438601894021034,-0.049550221982831134,0.09600140023808926
1761466821278844400,7.576844482421875,0.09537468317449092,-0.033329696161544416,0.11259046026095747
1761466821288827400,7.586827392578125,0.124850953027606,-0.020396663011750204,0.07932522818734869
1761466821298811100,7.59681103515625,0.14145838895738125,-0.014522601612890138,0.03934308154941536
1761466821308795100,7.606795166015625,0.12933598948717118,-0.018120402342570015,0.025988473403127862
1761466821318778400,7.6167783203125,0.13681903871893883,-0.012752500367560423,0.029176990079018285
1761466821328762400,7.626762451171875,0.13307868314683435,-0.012421208886848762,0.031216263654548673
1761466821338745300,7.636745361328125,0.11961012976467608,-0.007613194400479551,0.025511709037120453
1761466821348729300,7.646729248046875,0.1389116270840168,-0.005466065119858831,0.03278225259594619
1761466821358712300,7.65671240234375,0.12679098117947576,-0.017364489958330523,0.031768230414926074
1761466821368696300,7.6666962890625,0.13127952477037905,-0.020212650497641878,0.013489221710851415
1761466821378680300,7.676680419921875,0.11062719736397265,-0.019944681460550055,-0.0039023731668246906
1761466821388663300,7.686663330078125,0.12574176438748835,-0.03531185098866699,-0.02766518814342562
1761466821398647300,7.696647216796875,0.13846388331651688,-0.0430334376670653,-0.00409109153880272
1761466821408630300,7.70663037109375,0.1296352646946907,-0.04271945808075834,0.0314492047607433
1761466821418614300,7.7166142578125,0.12813947317898272,-0.057504085330432275,0.06040217682553921
1761466821428598500,7.7265986328125,0.12155658765733242,-0.05708628917662426,0.07299433553223497
1761466821438581200,7.736581298828125,0.10419745657742023,-0.06644302332578227,0.05249503869649488
1761466821448565200,7.746565185546875,0.13262684772610664,-0.06396370066544041,0.009438695077877491
1761466821458548200,7.75654833984375,0.11332184327542781,-0.07108817311734893,-0.010974818603973835
1761466821468532200,7.7665322265625,0.12813771961331366,-0.08552050263090058,-0.008334446463291532
1761466821478515500,7.776515380859375,0.13487374987006187,-0.07854719301955775,0.03248223303633276
1761466821488499500,7.78649951171875,0.11841361345648765,-0.06581837035510689,0.05793641689966898
1761466821498483500,7.7964833984375,0.13218027300238608,-0.04945361147425137,0.0644461458535632
1761466821508466200,7.806466064453125,0.14310557164251803,-0.04840535366348922,0.0660158337225439
1761466821518454300,7.816454345703125,0.11901391743719578,-0.02815931691947626,0.0731305839314591
1761466821528437500,7.8264375,0.10404781897366046,-0.019840211872500367,0.07254992536613718
1761466821538421200,7.836421142578125,0.12529402061998843,-0.018476748349436092,0.04228869741410017
1761466821548404200,7.846404296875,0.12933423592150212,-0.012485832804988604,0.008841560301790013
1761466821558388200,7.85638818359375,0.12723930946886539,0.00544280297528021,-0.018801662604999728
1761466821568372200,7.866372314453125,0.10973112530708312,-0.0001241903519607149,-0.02877550573919434
1761466821578355200,7.876355224609375,0.13936170893907546,-0.010840225589007605,-0.01615733124183025
1761466821588339500,7.88633935546875,0.13457447466254233,-0.017238728703791274,-0.00906263744025491
1761466821598322200,7.896322265625,0.11856325106024741,-0.038608456265088166,0.021903711140411904
1761466821608306200,7.90630615234375,0.12050795538723467,-0.053085328173264855,0.04372786337174475
1761466821618289200,7.9162890625,0.1377174488633871,-0.06910685854044277,0.03826345591943245
1761466821628273200,7.926273193359375,0.12410101144313812,-0.06899540208918042,0.021861433768109416
1761466821638257200,7.936257080078125,0.11272796903550625,-0.06075449282797053,0.03266356725287624
1761466821648240400,7.946240478515625,0.13053601292669773,-0.06691920773647725,0.035934985572402364
1761466821658224400,7.956224365234375,0.12769523654282092,-0.06187855582130141,0.05735602776240557
1761466821668207000,7.96620703125,0.1131786354124546,-0.058044475817447524,0.09214895346048288
1761466821678191000,7.976191162109375,0.12798925105333328,-0.03756560071522835,0.10709277616012841
1761466821688174300,7.98617431640625,0.14429974986314772,-0.03209012159634148,0.07221161962274927
1761466821698158300,7.996158447265625,0.12065642394721507,-0.016157589253445622,0.011577625069022178
1761466821708142300,8.006142333984375,0.10853343995511532,-0.010590424679557326,-0.02016834328174591
1761466821718124000,8.0161240234375,0.12843757934272287,-0.00936472794265719,-0.0020157876686658707
1761466821728108300,8.0261083984375,0.14205752389430998,-0.022341641333373262,0.02934785770047456
1761466821738091300,8.03609130859375,0.17592589122653007,-0.02118114390334813,0.03499521593768149
1761466821748075300,8.0460751953125,0.7735211974978446,0.03496019257336156,-0.16036082222284748
1761466821758058200,8.056058349609375,-0.8475403734326362,-0.13361706433985382,0.2575709406635724
1761466821768042200,8.066042236328125,0.5546013831973076,-0.007351598021958489,-0.12328821548921987
1761466821778026200,8.076026123046875,0.10778934358954428,-0.06720325797540136,0.00011262092846445739
1761466821788009200,8.08600927734375,-0.15214520266652107,-0.08998262400575913,0.0699686538683949
1761466821797993200,8.0959931640625,0.31577275333404536,-0.04450306726163253,-0.0475539609985426
1761466821807976200,8.10597607421875,-0.022426351341605186,-0.08458003430985846,0.06098273492616135
1761466821817960200,8.115960205078125,0.12135785021483897,-0.06179144836000632,0.020711249952833168
1761466821827944200,8.125944091796875,0.11430033291876315,-0.05810257181338965,0.03247856607479043
1761466821837927400,8.135927490234375,0.07057400391697884,-0.05750393919995986,0.05249687446055468
1761466821847911400,8.145911376953125,0.14940437952578067,-0.03578727278095903,0.04994501628696452
1761466821857894100,8.15589404296875,0.2692652691811323,-0.011365313475613948,0.02713459753121715
