time,seconds_elapsed,z,y,x
1761466840641430000,0.123429931640625,0.12710954560935497,0.023289436727634165,0.09681141971303149
1761466840651414000,0.1334140625,0.12052549104392528,0.046247970133624035,0.07175862885797396
1761466840661397000,0.14339697265625,0.12112345693707466,0.06828297037035226,0.06589198814716656
1761466840671381000,0.153381103515625,0.1280062021881342,0.09049240015880204,0.03351039790713694
1761466840681364000,0.163364013671875,0.13728373362123966,0.0825651508234907,0.011513414426124654
1761466840691347700,0.17334765625,0.11812778225243091,0.06810562734233681,-0.015503497842443174
1761466840701331000,0.1833310546875,0.09807458978295326,0.056228590068477205,-0.047762443516915665
1761466840711315000,0.19331494140625,0.14551146374046803,0.04583161245165392,-0.07109199077594093
1761466840721299000,0.203298828125,0.1573334189593792,0.025517444658163004,-0.06769975908834021
1761466840731282000,0.213281982421875,0.08834989910423754,0.0014660825056780594,-0.03552137696994468
1761466840741266000,0.223265869140625,0.11827917342185973,-0.01129869624649873,-0.042762607669318095
1761466840751249000,0.233248779296875,0.13713468053936959,-0.01763810442656395,-0.05146097380786668
1761466840761233000,0.24323291015625,0.11663491334617138,-0.03429794297207845,-0.028955721144308333
1761466840771216000,0.2532158203125,0.1069090536236763,-0.04871351086378563,0.011309448252664878
1761466840781200000,0.263199951171875,0.12696224609315396,-0.06529671653460245,0.03712821851153858
1761466840791183000,0.27318310546875,0.13100421496033668,-0.07277311682987492,0.04524148280508816
1761466840801167000,0.2831669921875,0.12860942877829074,-0.06832372707242611,0.04349867599206045
1761466840811149800,0.29314990234375,0.09344283832907677,-0.06473245654823258,0.029647274471889248
1761466840821133800,0.3031337890625,0.12531623245179652,-0.03820991508431034,-0.010520802642602939
1761466840831116800,0.31311669921875,0.15030629680156707,-0.01766882607510197,-0.027722804648755116
1761466840841101000,0.32310107421875,0.104817049780488,-0.0011534591928182634,-0.012667014041193761
1761466840851084000,0.333083984375,0.10915770933330059,0.01322562859642203,-0.005118831717921421
1761466840861068000,0.343068115234375,0.12756371911764144,0.024046209911687762,0.003964209189545363
1761466840871050800,0.35305078125,0.12127893975973128,0.03796602104254998,-0.002621354629669804
1761466840881034800,0.36303466796875,0.13265256668925285,0.04227565526943654,-0.021720589108869898
1761466840891018000,0.37301806640625,0.13070844688415525,0.03761296982117928,-0.019984739476302638
1761466840901002000,0.383001953125,0.11529694274067878,0.03595620189036708,0.008999993133358657
1761466840910985000,0.39298486328125,0.12038579031229019,0.03505376859134994,0.04610961654228158
1761466840920969000,0.402968994140625,0.12652093206644058,0.015629302479466423,0.06796971686983015
1761466840930952000,0.412951904296875,0.11649521261453628,-0.002937964564480353,0.06346910838179756
1761466840940936000,0.42293603515625,0.14747019659280777,-0.0018502777839836198,0.046780428475933146
1761466840950919000,0.4329189453125,0.11843874789774417,-0.01163247993675177,0.02443423883160576
1761466840960903000,0.44290283203125,0.14866495933532714,-0.023959839952620677,0.026073843281774315
1761466840970886000,0.452885986328125,0.14088321941792964,-0.033942996621143535,0.03886286028441973
1761466840980870000,0.462869873046875,0.08835925145447254,-0.016928611300204646,0.04232783754782285
1761466840990852900,0.472852783203125,0.10841010583639145,-0.027826057243964166,0.0283402584103751
1761466841000836900,0.4828369140625,0.1573416022658348,-0.03181410625011194,0.0076260150661459185
1761466841010820900,0.49282080078125,0.1248684886842966,-0.0407666891783243,-0.002354061446012929
1761466841020803800,0.502803955078125,0.09808218856751919,-0.04532604668284766,-0.0008992640943964943
1761466841030787800,0.512787841796875,0.14866028316020966,-0.047997635945701035,-0.030058677417528813
1761466841040771000,0.52277099609375,0.1389338389158249,-0.06278186133657582,-0.04755702060530893
1761466841050755000,0.532755126953125,0.09553834930360317,-0.04922304042165633,-0.06341372949932701
1761466841060737800,0.54273779296875,0.0961380687624216,-0.03404146344338078,-0.0634496958618518
1761466841070721800,0.5527216796875,0.12292436887919903,-0.030807102898345328,-0.06340548226078972
1761466841080705000,0.562705078125,0.14103168797791002,-0.031012900269287637,-0.021280526324326636
1761466841090689000,0.57268896484375,0.11634206787943839,-0.03273428526837378,0.04127488072905689
1761466841100672000,0.582672119140625,0.1259182899981737,-0.025892474815901366,0.08391036402052268
1761466841110656000,0.592656005859375,0.09673837274312973,-0.009998560875275871,0.067286661942536
1761466841120638700,0.602638671875,0.1356435651987791,-0.007650381180777912,0.03282973358304007
1761466841130623000,0.612623046875,0.12412146970927715,-0.00466700200541527,0.007833961011690553
1761466841140606000,0.62260595703125,0.12471943560242651,0.006877925228758249,-0.012836947797599713
1761466841150590000,0.63258984375,0.10571545992493629,0.005294954328163294,0.0025237097913399335
1761466841160573000,0.642572998046875,0.15060849461853504,0.014639162355888401,-0.013381174209516029
1761466841170557000,0.652556884765625,0.12501754176616667,0.014523169010115088,-0.014824281123338732
1761466841180540000,0.662539794921875,0.0662093789666891,0.0010317656169761902,-0.03057846579122124
1761466841190524000,0.67252392578125,0.16167992373108864,0.007879447546164738,-0.08617466482385061
1761466841200507000,0.6825068359375,0.12382336354553698,0.016636112893343668,-0.08874892662549391
1761466841210491000,0.692490966796875,0.0949438905417919,0.0013502866643713787,-0.04577025591954589
1761466841220474000,0.70247412109375,0.1326549047768116,-0.011273193054128204,0.00029912222718121484
1761466841230458000,0.7124580078125,0.14522680158019066,-0.013763383026712107,0.04760328459956217
1761466841240440800,0.72244091796875,0.11155834073424338,-0.024236775464168747,0.090260354101751
1761466841250424800,0.7324248046875,0.12083587216734885,-0.011691291743679904,0.09135041436078026
1761466841260407800,0.74240771484375,0.13924129742980002,-0.005662248704017838,0.03644816610879498
1761466841270392000,0.75239208984375,0.11844108598530292,-0.010509253768704365,0.00013340342158917336
1761466841280375000,0.762375,0.11874153023660182,0.0013995634579739998,-0.02445166489044204
1761466841290359000,0.772359130859375,0.14043898278176783,-0.0017849323466361965,-0.027520991616474928
1761466841300341800,0.782341796875,0.11934008065164088,-0.00341025368476985,-0.007483690835873131
1761466841310325800,0.79232568359375,0.11275777965188026,0.0005795660117117222,0.0043254140346194615
1761466841320309800,0.802309814453125,0.13655074317157267,0.012595794843841577,0.0009500375836971215
1761466841330293000,0.81229296875,0.11784604270160197,0.0013346404290234203,0.006360027418052777
1761466841340277000,0.822277099609375,0.12458031939268112,-0.0008633730803965591,-0.007113046875596046
1761466841350260000,0.832260009765625,0.12622691755592821,0.00039312407849938604,0.0063209443665458815
1761466841360244000,0.842243896484375,0.11575345433652401,-0.006510927680425811,0.020019890704785936
1761466841370227000,0.85222705078125,0.13969605545997618,-0.02054431415440049,0.029229496584390287
1761466841380211000,0.8622109375,0.12727613434791565,-0.012131331695336848,0.03145597242824733
1761466841390194000,0.87219384765625,0.1148562132358551,-0.020949926680070348,0.03930905141565017
1761466841400178000,0.882177978515625,0.12503157029151915,-0.012540590632951352,0.03436906056308653
1761466841410161000,0.892160888671875,0.1301186642974615,-0.011884302698285318,0.028551690937660166
1761466841420145200,0.902145263671875,0.11949497895240783,-0.005108763556700432,0.027531650007807183
1761466841430127900,0.9121279296875,0.13520692734718323,-0.0020047045856481415,0.015436003830493428
1761466841440111900,0.92211181640625,0.12158932088315486,0.001953501838084776,0.01639912237476092
1761466841450094800,0.9320947265625,0.11186170759499073,-0.005385272093274398,0.004802575692848768
1761466841460078800,0.942078857421875,0.11694997064471244,-0.01723264488123241,-0.008833774287556297
1761466841470062000,0.95206201171875,0.14343641103208063,-0.008996186891209798,-0.007253412044222932
1761466841480046000,0.962046142578125,0.12353460973203181,-0.023936404278106053,-0.0010565621315152384
1761466841490028800,0.97202880859375,0.10198679479062557,-0.028720295820082536,0.0006858062900952063
1761466841500012800,0.9820126953125,0.12637889324724674,-0.023572895594802683,-0.019471472174942026
1761466841509996000,0.99199609375,0.13700433215796948,-0.03075923603547271,-0.008258476883941329
1761466841519980000,1.00197998046875,0.3069897274196148,-0.10235021214238367,0.13112172212647275
1761466841529963000,1.011962890625,-0.14431962360739706,-0.04345955412464682,0.17928769580982623
1761466841539946500,1.021946533203125,0.011602174988389015,0.04242060756492428,-0.05542255721548572
1761466841549929700,1.0319296875,0.17859715626239775,-0.018706862744304817,-0.212576144362241
1761466841559913700,1.041913818359375,0.39482700082659716,-0.029592662774398922,-0.1857509918061085
1761466841569896400,1.051896484375,-0.01787175677716732,0.0670951259923866,-0.06692159148980863
1761466841579880400,1.06188037109375,-0.038971243429183955,0.05225088664311915,0.01279303787392564
1761466841589863400,1.071863525390625,0.16917758601009844,-0.023482854107616004,0.031003372105828018
1761466841599847700,1.08184765625,0.378221318462491,-0.011241413101309444,0.009857737907278352
1761466841609830700,1.09183056640625,-0.10765256546735763,0.06922300029997713,0.050976245331112294
1761466841619814700,1.101814697265625,0.056202948737144466,0.04237264023735188,0.04750171935465187
1761466841629797400,1.11179736328125,0.2990641951173544,-0.028398537069407755,0.030363325203198472
1761466841639781400,1.121781494140625,0.16349194158911703,-0.012378241961379535,0.09676518768481909
1761466841649764600,1.1317646484375,-0.006196516552567481,0.02519835507189855,0.1666301665496081
1761466841659748600,1.14174853515625,0.14328794247210025,-0.0239325980359572,0.11978190613500773
1761466841669731600,1.151731689453125,0.1841372547328472,-0.056046716995816676,0.04848572085674386
1761466841679715600,1.161715576171875,0.1777016687273979,-0.01828640770088532,-0.046113027775497174
1761466841689698600,1.171698486328125,0.17814532084167004,0.02600973082028795,-0.32957532444354143
1761466841699682600,1.1816826171875,-0.1568839216262102,0.0891613068186678,-0.3829562380298972
1761466841709665500,1.19166552734375,0.2553741064727306,0.031097617127385454,-0.1299283293571323
1761466841719649500,1.2016494140625,-0.030884383085370063,-0.07996185472360812,0.04807762411304284
1761466841729632500,1.211632568359375,0.29652503202855585,-0.12531093522217124,0.20278710147673262
1761466841739616500,1.221616455078125,0.11696107656061648,-0.06507163450787774,0.21075318498509005
1761466841749599500,1.231599609375,0.0021849428236484524,-0.06807261555530131,0.2633830792747438
1761466841759583500,1.24158349609375,0.08209142323136329,-0.11618657592362723,0.1740270353352651
1761466841769566500,1.25156640625,0.4277525343507528,-0.11262191484514623,0.0802567094843369
1761466841779550500,1.261550537109375,-0.03687690149843693,-0.030150319490046238,0.11351952127199619
1761466841789533700,1.27153369140625,0.016990882289409637,-0.010119190438615623,0.06602654234622604
1761466841799517700,1.281517578125,0.2775070278257131,-0.021105277071986346,-0.05566744905437808
1761466841809500400,1.29150048828125,0.1518079335361719,0.004501355123415123,-0.08843877383093349
1761466841819484400,1.301484375,0.000824175864458084,0.06989310898073017,-0.10159903758205473
1761466841829468400,1.311468505859375,0.1331038175880909,0.07719132143119349,-0.19771111338669434
1761466841839451600,1.32145166015625,0.16257950291931628,0.03697850099267671,-0.22226704236920922
1761466841849435600,1.331435546875,0.29695348657369613,0.06123028907959815,-0.41111316891275346
1761466841859418600,1.341418701171875,-0.18725860162377356,0.12915873322412372,-0.5252460728427395
1761466841869402600,1.351402587890625,0.2003103908985853,0.05134258529231883,0.19222696462087333
1761466841879385300,1.36138525390625,0.02657762580215931,-0.08108231925405561,0.5863503472227602
1761466841889369600,1.37136962890625,0.3237543997377157,-0.08977170293512754,0.5199247682221233
1761466841899352600,1.3813525390625,0.12323942617774009,0.011435751788254128,0.3020440329120494
1761466841909336600,1.391336669921875,0.04587152433693409,0.031307070043426935,0.0650409105760511
1761466841919319600,1.401319580078125,0.06397592082619667,-0.019137810640630776,-0.15902197483452035
1761466841929303600,1.411303466796875,0.3524807280063629,-0.040298984901607035,-0.17597548425560816
1761466841939286500,1.42128662109375,0.07026245374977588,-0.026166729746595955,0.013267952776141463
1761466841949270500,1.4312705078125,-0.06261866099834441,-0.053083254947187374,0.18785956319160757
1761466841959253500,1.44125341796875,0.22603169213235377,-0.0973235156873241,0.13403296079752033
1761466841969237500,1.451237548828125,0.24054186352193355,-0.07882576336576604,-0.007466534205095377
1761466841979220700,1.461220703125,-0.035541853502392765,-0.013413193907641107,-0.17942582563888282
1761466841989204700,1.471204833984375,0.05723579891622066,0.018589332745282443,-0.369173723327741
1761466841999187500,1.4811875,0.22079496052265166,0.0006827238504425622,-0.41862548077162354
1761466842009171500,1.49117138671875,0.3656464990496635,0.006287064929830376,-0.1546922385345213
1761466842019154400,1.501154541015625,-0.10391337893903255,0.14576700940411538,0.24792958088675512
1761466842029138700,1.511138671875,-0.1001730233669281,0.18705953538771716,0.3201974013758823
1761466842039121700,1.52112158203125,0.13385785082578658,0.03115681138515938,0.2246971921255812
1761466842049105700,1.531105712890625,0.5423673400461674,-0.035750404519424774,0.10972289633485488
1761466842059088400,1.54108837890625,0.03569441371560097,0.07453475620753597,0.0748097874563653
1761466842069072400,1.551072265625,0.19535130718648433,0.011419628345582168,0.2199834432103671
1761466842079055600,1.5610556640625,-0.2923217351198196,-0.11730906801437958,0.2781844886958599
1761466842089039600,1.57103955078125,0.48189971960186956,-0.09528992750048637,-0.16933995523126794
1761466842099022600,1.581022705078125,-0.07370528768002986,-0.06383347101504915,-0.2850588679773733
1761466842109006600,1.591006591796875,0.154940970864892,-0.13729428241471758,-0.13566008707531726
1761466842118989600,1.600989501953125,0.1392296069920063,-0.15450212278990075,-0.03522928727174876
1761466842128973600,1.6109736328125,0.14012509452700614,-0.13633007702506147,0.02065518608377315
1761466842138956500,1.62095654296875,0.07697802574038505,-0.12722397490241563,0.0957403746817261
1761466842148940500,1.6309404296875,0.16944997321069238,-0.09318291788441128,0.02942815182849299
1761466842158923500,1.640923583984375,0.06440086823999881,-0.02875439901908394,-0.09273627922860905
1761466842168907500,1.650907470703125,0.11408347529768943,0.00885914504918619,-0.134442317916546
1761466842178890500,1.660890380859375,0.18845453341007232,0.03734777497977484,-0.11220176233747042
1761466842188874500,1.67087451171875,0.07592763990461826,0.07419644133099354,0.0016071520688477902
1761466842198857500,1.680857421875,0.14596037655174732,0.09358589092842302,0.11312331589548848
1761466842208841500,1.690841552734375,0.14924948122501372,0.10554643263411707,0.13547633713940158
1761466842218824700,1.70082470703125,0.07741992428898811,0.11439757361500523,0.10655896154437214
1761466842228808700,1.71080859375,0.12380699693262576,0.12114563223626464,0.005153565104585141
1761466842238791400,1.72079150390625,0.14909575196802616,0.11188331663860007,-0.09722571786865591
1761466842248775400,1.730775390625,0.11019172855615615,0.08025615236191079,-0.1185092832501512
1761466842258758700,1.740758544921875,0.1389250710874796,0.03884249791640322,-0.09241144945472478
1761466842268742700,1.75074267578125,0.1315951665908098,-0.005722575472953031,0.0010069165867986156
1761466842278725600,1.7607255859375,0.1060065518260002,-0.05887600387129932,0.09396564749362878
1761466842288709600,1.770709716796875,0.11423603551089763,-0.11529926256192848,0.1418331953528337
1761466842298692400,1.7806923828125,0.15658172380924223,-0.1384888168283738,0.11971320654666051
1761466842308676600,1.790676513671875,0.12350830624699592,-0.1489314647844061,0.07280414215580094
1761466842318659600,1.80065966796875,0.08609715174138545,-0.1382330063032452,0.004120358732482418
1761466842328643600,1.8106435546875,0.11961597498357296,-0.11707893991977907,-0.08408513606553897
1761466842338626600,1.82062646484375,0.10704583174586295,-0.09590626016738824,-0.12847153641125186
1761466842348610600,1.830610595703125,0.10959025553166865,-0.08192195754912682,-0.10795267179193906
1761466842358593500,1.840593505859375,0.12246025849878787,-0.058100375289726065,-0.05133676747288555
1761466842368577500,1.85057763671875,0.1091436808079481,-0.032257171559205745,0.015938656123005785
1761466842378560500,1.860560546875,0.129194535189867,-0.003990956774220103,0.04881627711851615
1761466842388544500,1.87054443359375,0.1318874275356531,0.031119440800126175,0.036911749049532226
1761466842398527700,1.88052783203125,0.1321849491775036,0.08472475827648304,0.006840024920762516
1761466842408511700,1.89051171875,0.13338146548569202,0.11374821546133607,0.006646383778494782
1761466842418494500,1.900494384765625,0.1335305185675621,0.1260509947334416,0.019164965792326256
1761466842428478500,1.910478515625,0.12215747615993022,0.11468796226317063,0.052824736441741696
1761466842438461400,1.92046142578125,0.11721885071396827,0.09635612282673828,0.07448570203457493
1761466842448445400,1.930445556640625,0.12574644056260584,0.06726849153160583,0.04843805948984809
1761466842458428700,1.9404287109375,0.1221539690285921,0.041860589928831904,0.004920359136909246
1761466842468412700,1.95041259765625,0.11601882727444171,0.008637625523548922,-0.033366126031661406
1761466842478395400,1.9603955078125,0.11601882727444171,-0.018471080085408174,-0.05573349089475814
1761466842488379400,1.97037939453125,0.13352642691433428,-0.041965785602666436,-0.0377481039755512
1761466842498362600,1.980362548828125,0.14145721991360186,-0.08758444942338392,0.0057191904975567006
1761466842508346600,1.9903466796875,0.1091354975014925,-0.10858113328805193,0.024974483188148586
1761466842518329600,2.00032958984375,0.11227730265855788,-0.10685840114867313,0.03430509194878396
1761466842528313600,2.010313720703125,0.11048048236966132,-0.11401530543230473,0.010979946870240382
1761466842538296300,2.02029638671875,0.1493856748253107,-0.10904936272115447,-0.03696836547444109
1761466842548280300,2.0302802734375,0.11571662945747375,-0.08900966905406675,-0.04491204992132261
1761466842558263300,2.04026318359375,0.11975742928087711,-0.05667534288871102,-0.032586122669070024
1761466842568247300,2.050247314453125,0.12873510098457336,-0.019801606028317473,-0.009542940903641283
1761466842578230000,2.06022998046875,0.08399462650418281,0.007398715395337785,-0.006323526765988208
1761466842588214300,2.07021435546875,0.1630056193768978,0.03742046575665008,-0.011630250305403024
1761466842598197200,2.080197265625,0.1806646101862192,0.04368720713437069,0.024629473709338344
1761466842608181200,2.09018115234375,0.13891513421535492,0.04971602070352528,0.10075493317442014
1761466842618164200,2.100164306640625,0.10509411315619945,0.06330076151099055,0.17120014134626835
1761466842628148200,2.110148193359375,0.09102467127144336,0.04523817660314962,0.1304053174854256
1761466842638131200,2.120131103515625,0.14713760363757608,0.04063800759762525,0.03683181111454032
1761466842648115200,2.130115234375,0.14728665671944619,0.022434333718661218,-0.04238554538469761
1761466842658098200,2.14009814453125,0.1290297000169754,-0.009688591885450296,-0.06607666053168941
1761466842668082200,2.150082275390625,0.09416413834095001,-0.022660146397748028,-0.04434771686971653
1761466842678065400,2.1600654296875,0.1559644686937332,-0.041247052007215096,-0.01645593972906936
1761466842688049400,2.17004931640625,0.09685586164295673,-0.06029801319816615,0.0013644384873099625
1761466842698032000,2.1800322265625,0.1104728835850954,-0.050542849749373266,-0.04181438073350582
1761466842708016000,2.19001611328125,0.12109890701770781,-0.044022868829523214,-0.0938798780394718
1761466842717999000,2.1999990234375,0.15416940197050572,-0.04266780552533455,-0.1092840391267091
1761466842727983400,2.2099833984375,0.08997603900134563,-0.04696252531087957,-0.054840999034442936
1761466842737966300,2.21996630859375,0.1469897195994854,-0.03966120302130002,0.005058516365429386
1761466842747950300,2.229950439453125,0.13741349748075007,-0.033319967068685216,0.07801758878803812
1761466842757933000,2.23993310546875,0.12963117304146288,-0.025592092213395517,0.10928921762532554
1761466842767917000,2.2499169921875,0.10957798057198524,-0.011245027547213248,0.09799556972999125
1761466842777900300,2.259900390625,0.11301847641468048,0.018797765031305605,0.06618605745660606
1761466842787884300,2.26988427734375,0.11660860986113547,0.029776752920320722,0.013446496813977136
1761466842797867300,2.2798671875,0.12902794645130633,0.03296085828257492,-0.02021707779429853
1761466842807851300,2.289851318359375,0.10792904432117939,0.022064283413428348,-0.021156760664051397
1761466842817834200,2.299834228515625,0.14159925873279572,0.013664577136113075,-0.021341460448037832
1761466842827818200,2.309818359375,0.11780687973499297,0.0033211551957880144,-0.010394749127118848
1761466842837801200,2.31980126953125,0.11226853483021258,-0.01778780824569403,-0.024847623671777546
1761466842847785200,2.32978515625,0.12932722165882587,-0.009683406536967958,-0.06132274400286842
1761466842857768200,2.339768310546875,0.13456570683419702,0.001628041876538191,-0.067996869738237
1761466842867752200,2.349752197265625,0.10254501319527626,-0.004261805038276361,-0.04486621518533211
1761466842877735200,2.359735107421875,0.1047913308173418,-0.016275283649249468,-0.031074270501127464
1761466842887719200,2.36971923828125,0.12020517304837702,-0.029450747252791187,-0.0056442803641315546
1761466842897702100,2.3797021484375,0.1523790114223957,-0.0402882123458432,0.03834906554338522
1761466842907686100,2.38968603515625,0.11033142928779124,-0.04099392662951722,0.06572223933713976
1761466842917669400,2.39966943359375,0.10629121398627757,-0.049735095296753566,0.08448356079859659
1761466842927653400,2.4096533203125,0.13906243373155594,-0.04515979587100446,0.0780865532378666
1761466842937636000,2.419635986328125,0.1387625740021467,-0.04897048586611636,0.07261590327443554
1761466842947620000,2.4296201171875,0.1076361988544464,-0.038694591045426205,0.043920888026081954
1761466842957603300,2.439603271484375,0.1116752451121807,-0.017605660036753398,-0.003994969653990119
1761466842967587300,2.44958740234375,0.12888356954455374,0.0015947338328027398,-0.03170201047803275
1761466842977570300,2.4595703125,0.11362111848294734,0.0036350366006838155,-0.030066691760625687
1761466842987554300,2.46955419921875,0.11586509801745414,0.014907137101201805,-0.010162945098662748
1761466842997537000,2.479537109375,0.11002864694893359,0.009761252979573327,-0.008645905298949218
1761466843007521300,2.489521240234375,0.12559095773994922,0.016308357085078024,-0.022617238837783223
1761466843017504300,2.499504150390625,0.12274842779040336,0.01851883050056058,-0.03251513979209121
1761466843027488300,2.50948828125,0.1466921979576349,0.009940259383356896,-0.020915535786701366
1761466843037471200,2.51947119140625,0.11152853011786937,0.0012976871149876386,-0.004532976387673989
1761466843047455200,2.529455322265625,0.1270902563869953,-0.01512319100467721,0.03311596436260734
1761466843057438200,2.539438232421875,0.11377309417426586,-0.03272485528632533,0.0739626828074688
1761466843067422200,2.549422119140625,0.13726561344265936,-0.04802084785792976,0.079645564449206
1761466843077405200,2.5594052734375,0.1068868417918682,-0.04372023718771524,0.053480053978739304
1761466843087389200,2.56938916015625,0.11092705709338188,-0.04114218969352077,0.006208312021638266
1761466843097372400,2.579372314453125,0.13187632161974905,-0.04585847305911593,-0.026410479941172522
1761466843107356400,2.5893564453125,0.11736088953316211,-0.04197720661240164,-0.02670265868762508
1761466843117339100,2.599339111328125,0.09955459920763969,-0.022610818230151198,-0.01759032318701502
1761466843127323100,2.6093232421875,0.11496668787300586,-0.01792948402199545,-0.018347954887594095
1761466843137306000,2.61930615234375,0.10404314279854297,-0.0018312214570643845,-0.003156002645776607
1761466843147290000,2.6292900390625,0.14714052624702453,-0.0035643345682066863,-0.011361858859914354
1761466843157273300,2.6392734375,0.1281365505695343,0.006536626664796494,-0.0004134168062126264
1761466843167257300,2.64925732421875,0.10853285543322562,0.004707223276305012,0.012219133276375941
1761466843177240000,2.659239990234375,0.1221498773753643,0.004286597557060304,0.03514773048511706
1761466843187224000,2.66922412109375,0.13262450963854788,0.0015624310068873455,0.04504544420975726
1761466843197207300,2.679207275390625,0.125740595343709,-0.004332352948770858,0.04107453585136681
1761466843207191300,2.68919140625,0.12199848620593547,-0.004124738650899963,0.0309275966060115
1761466843217174300,2.69917431640625,0.12259528305530547,0.0011745693378616125,0.01191229581690859
1761466843227158300,2.709158203125,0.14264613743722437,0.0054190841729752715,0.0007869673929177224
1761466843237141200,2.719141357421875,0.13381693429350852,-0.005231587931237299,-0.0021563697497127576
1761466843247125200,2.729125244140625,0.09401333169341086,-0.01772102091157576,-0.008861835904838517
1761466843257108200,2.739108154296875,0.1248380935460329,-0.03289994470846141,-0.023773085208865813
1761466843267092200,2.74909228515625,0.11256839455962181,-0.03892420768337324,-0.03160516707401257
1761466843277075200,2.7590751953125,0.11406593964099883,-0.04373037955581676,-0.04680819326569326
1761466843287059200,2.76905908203125,0.12618658554553985,-0.049791017601918425,-0.026355589682469142
1761466843297042200,2.779042236328125,0.12738368637561798,-0.042662937553972005,0.009561887632706201
1761466843307026200,2.789026123046875,0.12528992896676064,-0.030316447004303335,0.02546334441732615
1761466843317009200,2.799009033203125,0.12154898887276648,-0.02589122814030852,0.06160206326774787
1761466843326993200,2.8089931640625,0.12184651051461697,-0.008781311164668295,0.06734250204931012
1761466843336976400,2.818976318359375,0.13651099568307398,0.010089876437518979,0.05766006134343333
1761466843346960400,2.82896044921875,0.1320183604389429,0.028625619256973732,0.06386892135434317
1761466843356943000,2.838943115234375,0.10119009145498276,0.04388629620331339,0.05018928250477183
1761466843366927000,2.848927001953125,0.1397954241812229,0.04439895386660937,0.029912775273970328
1761466843376910300,2.858910400390625,0.12527999209463594,0.049956199834682045,0.0006826759013812989
1761466843386894300,2.868894287109375,0.10388123023509979,0.03852461390653625,-0.040453974533919246
1761466843396877300,2.878877197265625,0.12408172222077846,0.011406765439076115,-0.08171150226937607
1761466843406861300,2.888861328125,0.1393459268480539,-0.0065779587556055044,-0.09433976890249177
1761466843416844000,2.898843994140625,0.12333411872386932,-0.018054591114341746,-0.06002516477326862
1761466843426828000,2.908828125,0.10133914453685283,-0.054356425821315495,-0.024402533085667526
1761466843436811300,2.918811279296875,0.1427893453001976,-0.061379081866564225,0.0023513351993868126
1761466843446795300,2.928795166015625,0.14413666825592517,-0.07767359765595756,0.03542596290460787
1761466843456778200,2.9387783203125,0.12573065847158432,-0.06637327799124178,0.06470157735277898
1761466843466762200,2.94876220703125,0.11121522638499737,-0.06351614869418554,0.10133182888007722
1761466843476745200,2.9587451171875,0.11884557513296604,-0.05420925873585511,0.1124444576526992
1761466843486729200,2.968729248046875,0.10477671777009963,-0.024830686236708425,0.07917791953799315
1761466843496712200,2.978712158203125,0.09055822280347346,-0.0013654454175964928,0.026445587787171824
1761466843506696200,2.9886962890625,0.1287158117622137,0.020417351890041027,-0.04494239482723642
1761466843516679200,2.99867919921875,0.14068623554110526,0.030713204936659893,-0.08146874302206561
1761466843526663400,3.008663330078125,0.11240355938673019,0.030182207899075,-0.08435394306955858
1761466843536650000,3.01864990234375,0.11988660861849784,0.034003832563443574,-0.07443888091789558
1761466843546634000,3.028634033203125,0.12856675868034362,0.030082544633594804,-0.06134771861392073
1761466843556616700,3.03861669921875,0.10716975038647651,0.00699590617728536,-0.033826245223544535
1761466843566600700,3.0486005859375,0.12677403004467486,0.009152705185260856,-0.017765405759285202
1761466843576584000,3.058583984375,0.12498071688711643,0.0012369122506584972,-0.0031111177578568455
1761466843586568000,3.06856787109375,0.0980465327322483,-0.023233313493069726,0.017266479793819598
1761466843596551000,3.078551025390625,0.13830021718740462,-0.050652876861952245,0.03604181608089711
1761466843606535000,3.088534912109375,0.14114391618072986,-0.052973346565617245,0.06885318974005059
1761466843616518000,3.098517822265625,0.11720248410105705,-0.07380558798303827,0.09019868704238906
1761466843626502000,3.108501953125,0.13770225129425526,-0.09968891137810423,0.07474569097789935
1761466843636484900,3.11848486328125,0.12168927412629127,-0.12984999429075977,0.06962962660579941
1761466843646468900,3.12846875,0.12737433402538298,-0.11098222134672105,0.037325901074684226
1761466843656451800,3.138451904296875,0.13994272369742392,-0.08183013281351886,-0.01788199504339136
1761466843666435800,3.148435791015625,0.11181026966869831,-0.052714741295203565,-0.021257809885730967
1761466843676418800,3.158418701171875,0.1270733052521944,-0.013382348961516981,-0.04731773652329575
1761466843686402800,3.16840283203125,0.1188432370454073,0.01414270805036649,-0.0365320381500991
1761466843696385800,3.1783857421875,0.10747194820344448,0.046127814352675336,-0.009523318321141413
1761466843706369800,3.188369873046875,0.1430862824201584,0.07525450358313973,-0.007770332607394084
1761466843716353000,3.19835302734375,0.12258417713940142,0.0918536146425642,0.002643194285430945
1761466843726337000,3.2083369140625,0.11435469345450401,0.10670111909457482,0.02104027184464503
1761466843736319700,3.21831982421875,0.15909809054434298,0.10242722290134988,0.03448780070508364
1761466843746303700,3.2283037109375,0.09580138415396212,0.08083159589599817,0.06515539923461619
1761466843756287000,3.238286865234375,0.12662556148469448,0.04168526989454403,0.06598600940643809
1761466843766271000,3.24827099609375,0.13051730822622776,0.03685958275416633,0.05382393094638828
1761466843776254000,3.25825390625,0.12542787613272666,0.013574571039900183,0.03955735905433539
1761466843786238000,3.268238037109375,0.09834054724276066,-0.01770909072847571,0.03763791703276802
1761466843796220700,3.278220703125,0.12826806799471377,-0.052999298424203874,0.019586657236539757
1761466843806204000,3.288203857421875,0.13844342505037785,-0.07092335621076636,-0.0358018287459854
1761466843816188000,3.29818798828125,0.12063596568107604,-0.09079233295344748,-0.05826603701310232
1761466843826172000,3.308171875,0.11884031443595885,-0.11926908864150755,-0.07382457124472129
1761466843836155000,3.31815478515625,0.12168518247306347,-0.10844485748936422,-0.049905670657265
1761466843846139000,3.328138916015625,0.12153671391308307,-0.11924738826635294,-0.033909439128125086
1761466843856121900,3.338121826171875,0.13290858727693558,-0.11940571150006726,-0.008574433798203244
1761466843866104800,3.348104736328125,0.11031389363110065,-0.09474809397505596,0.029625825258484107
1761466843876088800,3.3580888671875,0.15460837790966034,-0.06073440902116708,0.04076940172521863
1761466843886071800,3.36807177734375,0.1122597670018673,-0.039608276390819805,0.06105718840186018
1761466843896056000,3.37805615234375,0.09115911130607128,-0.01749030258686398,0.06254856860393192
1761466843906038800,3.388038818359375,0.14607552736401558,0.019125702361017464,0.03999719807659276
1761466843916022800,3.398022705078125,0.15699848791658877,0.033159063718817196,0.020922253221855498
1761466843926005800,3.408005859375,0.11539806502759456,0.03621161283998517,0.019213946900051085
1761466843935989800,3.41798974609375,0.10866378833651542,0.04758849345580674,0.003688698450103402
1761466843945973000,3.427972900390625,0.11524725838005542,0.04687347705424763,-0.021803913160902445
1761466843955957000,3.43795703125,0.13559914153516292,0.03222193128246581,-0.05770327486407477
1761466843965939700,3.447939697265625,0.1367974114090204,0.016774396844382863,-0.06355428874748759
1761466843975923700,3.457923828125,0.09759294374585151,0.010185894432698841,-0.04654879341083579
1761466843985907000,3.467906982421875,0.12138649178743362,-0.004134992043911188,-0.022044485017703844
1761466843995891000,3.477890869140625,0.12946867595613,-0.013074557087401626,0.015617685106908901
1761466844005874000,3.4878740234375,0.13695230970978736,-0.03510776151762111,0.06688191706654616
1761466844015858000,3.49785791015625,0.13994447726309298,-0.03489509373118635,0.08792570974226109
1761466844025840600,3.507840576171875,0.1188432370454073,-0.03558291388185462,0.11951832329537719
1761466844035825000,3.517824951171875,0.11076163739860057,-0.026773315054329578,0.09785954052647575
1761466844045807900,3.527807861328125,0.10312778151929378,-0.03092888666408835,0.03912568050564732
1761466844055791900,3.5377919921875,0.12976210594475268,-0.024732543641456866,-0.025520225703716277
1761466844065774800,3.54777490234375,0.13350363056063652,-0.026552833854197523,-0.06230162637184839
1761466844075758800,3.5577587890625,0.14233400274813174,-0.03360323413960868,-0.05857224885148461
1761466844085741800,3.567741943359375,0.12273147665560245,-0.03271898723454215,-0.022975678620324468
1761466844095725800,3.577725830078125,0.12512450927197932,-0.04390020143107976,0.02485940544111654
1761466844105708800,3.587708740234375,0.11599544639885424,-0.04134365338264033,0.02606132857678458
1761466844115692800,3.59769287109375,0.1432294902831316,-0.02087308716775151,-0.017863902264274655
1761466844125676000,3.607676025390625,0.11898819847404957,-0.002663302066765027,-0.04392899826730136
1761466844135660000,3.617659912109375,0.05853636012077331,-0.001966679695716448,-0.04930319755235687
1761466844145642800,3.627642822265625,0.15864625512361524,0.00005622798043041257,-0.03368078147140331
1761466844155626800,3.637626708984375,0.12228665549755095,-0.011089746795600512,0.03948501533733215
1761466844165609700,3.647609619140625,0.12722411189973354,-0.02797609213994583,0.08610058580748736
1761466844175593700,3.65759375,0.12258417713940142,-0.032704611649317664,0.10712085147714241
1761466844185577000,3.667576904296875,0.15759762285351753,-0.037083931845240295,0.08038413525628857
1761466844195561000,3.67756103515625,0.13021277232170103,-0.03153198767337016,0.042301387932314534
1761466844205543700,3.687543701171875,0.0996849475890398,-0.01982572668942157,0.0041017590632895
1761466844215527700,3.697527587890625,0.12527297783195973,-0.0038216903089167316,-0.03252054205299355
1761466844225511000,3.707510986328125,0.13260580493807791,0.009836232753301737,-0.040262511649006044
1761466844235495000,3.717494873046875,0.10926233875155449,0.022846649979753417,-0.004536990409088321
1761466844245478000,3.727477783203125,0.14577449859082697,0.02882051849127747,0.03458004556579981
1761466844255462000,3.7374619140625,0.1158446397513151,0.034810322074161376,0.0489130748567637
1761466844265444900,3.74744482421875,0.08501753981113433,0.037503424482501574,0.04313403936417307
1761466844275428900,3.757428955078125,0.13409984288811683,0.023769137402821796,-0.03258099440280348
1761466844285411800,3.767411865234375,0.14936404751539228,0.024221527662687002,-0.06278988024624996
1761466844295395800,3.777395751953125,0.11075813026726246,0.02014156030609738,-0.06038933104369789
1761466844305378800,3.78737890625,0.09818974059522151,0.0006645023509292513,-0.02933913097132463
1761466844315362800,3.79736279296875,0.14443009824454783,-0.01527661658427678,0.003845048922440037
1761466844325345800,3.807345703125,0.13814648793041706,-0.03397569103105925,0.029631067689182236
1761466844335329800,3.817329833984375,0.11914134320914745,-0.05991417411288712,0.0579988054782385
1761466844345312800,3.827312744140625,0.11704700127840041,-0.06616983240759,0.06061361391940154
1761466844355296800,3.837296875,0.15026654931306838,-0.07882627482241951,0.05278614429729059
1761466844365280000,3.847280029296875,0.11944120293855666,-0.07364107703713234,0.018668661042209714
1761466844375264000,3.857263916015625,0.13171382453441619,-0.0722421471917536,0.01049794464011211
1761466844385246700,3.867246826171875,0.1246808571577072,-0.06508211480269674,0.0016488175197970122
1761466844395229700,3.877229736328125,0.11420447132885456,-0.05717224129387177,0.0005192426677094772
1761466844405214000,3.8872138671875,0.11764730525910853,-0.03244517069526482,-0.012914056737977079
1761466844415198000,3.897197998046875,0.1502694719225168,-0.016104719705181195,-0.02443391003804281
1761466844425181000,3.907180908203125,0.10657412258088587,-0.02078445903622778,-0.02149925395878963
1761466844435164000,3.917163818359375,0.11540391024649142,-0.014463255516422214,-0.010713235925184562
1761466844445147600,3.927147705078125,0.13560615579783916,-0.0026268225351203,0.001588977091340348
1761466844455131000,3.937130859375,0.11824760923981666,0.001450996532278077,0.038162269700434986
1761466844465115000,3.947114990234375,0.11196166083812713,0.0024937681712806806,0.03754543927661143
1761466844475097900,3.957097900390625,0.12438099742829799,-0.0008690183688326214,0.021405666524358092
1761466844485081900,3.967081787109375,0.12228314836621283,-0.0025784499238157878,-0.006511925477557815
1761466844495065000,3.977065185546875,0.09654548051953316,-0.0016221993690465752,-0.0046972772710258135
1761466844505048800,3.987048828125,0.1403922210305929,0.005965318166420911,0.011073109612986444
1761466844515030800,3.99703076171875,0.11749825217723846,-0.0019536675192161055,0.031484778397623446
1761466844525014000,4.007013916015625,0.09804477916657924,0.006580505193251884,0.03134458904222119
1761466844534996700,4.016996826171875,0.11809563354849814,0.00994786159285577,0.010568393227551131
1761466844544977700,4.026977783203125,0.12512801640331744,0.0072861007459170644,0.0030057713869726284
1761466844554960600,4.036960693359375,0.12916764718294144,-0.007073306807785411,-0.013945628275419585
1761466844564944600,4.046944580078125,0.13141045767366885,-0.015371736105380113,-0.010700454075424932
1761466844574928000,4.056927978515625,0.11195815370678901,-0.011506851112953154,-0.0005126211306778714
1761466844584911600,4.06691162109375,0.1311123515099287,-0.021003791742178146,0.000006603270722553134
1761466844594894600,4.07689453125,0.10956395204663276,-0.037335079894983206,0.0011566774881444871
1761466844604878600,4.086878662109375,0.13679916497468947,-0.0383169990378432,-0.011180542909679934
1761466844614861800,4.09686181640625,0.1427846691250801,-0.054788419463834725,-0.008677341616828925
1761466844624845800,4.106845703125,0.09714519997835158,-0.06096914479222614,-0.014800144479214213
1761466844634828800,4.116828857421875,0.1278220777928829,-0.058195346397068345,-0.011319243560894391
1761466844644812500,4.1268125,0.1456295371621847,-0.06730869111125357,-0.014828324827505275
1761466844654795500,4.13679541015625,0.12632628627717493,-0.057761850350629536,0.022674124690750613
1761466844664779800,4.14677978515625,0.11435586249828338,-0.05555095566839445,0.05555828045832459
1761466844674762800,4.1567626953125,0.11031330910921096,-0.03639374849083833,0.07538332672773394
1761466844684746800,4.166746826171875,0.09923837286531925,-0.014145389772864291,0.09151987090986222
1761466844694729700,4.176729736328125,0.13545008845329284,0.006403100516443373,0.035956087725935504
1761466844704713500,4.18671337890625,0.12946399978101253,0.019237149679125286,-0.016337459881976248
1761466844714696700,4.19669677734375,0.1067167459219694,0.02696242386866361,-0.049842428128747264
1761466844724680700,4.2066806640625,0.10701602112948894,0.022526226952928118,-0.04314698104413692
1761466844734663700,4.21666357421875,0.1574468162059784,0.04068889753464609,-0.051085747287306
1761466844744647700,4.226647705078125,0.12662263887524605,0.040494215212762356,-0.012997725566592998
1761466844754631000,4.236630859375,0.08142974445223808,0.017243772488378453,0.02543999550777953
1761466844764614700,4.24661474609375,0.11450082392692565,0.009688161485543242,0.029492316805617882
1761466844774597600,4.25659765625,0.15535422784090042,0.013369083054567453,0.022649040481843984
1761466844784581600,4.26658154296875,0.09400047221183776,-0.009656790241389535,0.05362150827604346
1761466844794564600,4.276564697265625,0.10073416438102721,-0.028385565706691703,0.0419691877027275
1761466844804548900,4.286548828125,0.1620861664444208,-0.0172670003836276,0.03134780847919173
1761466844814531800,4.29653173828125,0.11973755553662777,-0.04239265554549638,0.03321966676567681
1761466844824515600,4.306515625,0.10222995589673518,-0.05493553631694521,0.035922651247214527
1761466844834498600,4.31649853515625,0.12407470795810221,-0.05631294845025986,-0.01853777380469255
1761466844844482600,4.326482666015625,0.10447159734368323,-0.059270236486429345,-0.04564616374899633
1761466844854465800,4.3364658203125,0.1258709437251091,-0.0524016795909265,-0.06274753437528852
1761466844864449800,4.34644970703125,0.13365443720817566,-0.03342534312232164,-0.06161929296376183
1761466844874432800,4.356432861328125,0.11360358282625675,-0.016411199829977702,-0.013545285579911432
1761466844884416500,4.36641650390625,0.08681903627514839,-0.01394242938804673,0.021854698066646232
1761466844894399700,4.376399658203125,0.11704700127840041,-0.0096649918141542,0.03009413688997738
1761466844904383700,4.3863837890625,0.13754852203726767,0.001843838339220383,0.05284785702242516
1761466844914366700,4.39636669921875,0.13889467594921587,-0.0006749222813050437,0.06941233972646296
1761466844924350700,4.406350830078125,0.11150865637362002,-0.009349262087111128,0.07098949394926894
1761466844934333700,4.416333740234375,0.11899053656160831,-0.014558575966925126,0.055479493300803005
1761466844944317700,4.426317626953125,0.1534071854263544,-0.010212663708615581,0.017700048905494623
1761466844954300700,4.43630078125,0.11330372309684753,-0.014846543187496716,0.0005186398795107379
1761466844964283600,4.44628369140625,0.10507307036817073,-0.020466232533066068,-0.006579191160644404
1761466844974267600,4.456267578125,0.12078501876294612,-0.024008083558117503,-0.01206579217845574
1761466844984251000,4.4662509765625,0.1113572652041912,-0.020985217189160174,-0.015805837223306297
1761466844994235000,4.47623486328125,0.11614683756828308,-0.026107772950839714,-0.028140217210073024
1761466845004217600,4.486217529296875,0.13574994818270206,-0.020451923163211903,-0.043456097225658595
1761466845014201600,4.49620166015625,0.12288111425936221,-0.01667139997750055,-0.017492123509547673
1761466845024184600,4.5061845703125,0.11854337731599807,-0.009391836286935722,-0.013445268404693341
1761466845034168800,4.5161689453125,0.1230342589944601,0.0004139727869944181,-0.016516104384511707
1761466845044151800,4.52615185546875,0.11839490875601767,0.005626447879918851,0.003413553036842495
1761466845054135800,4.5361357421875,0.10881985568106174,0.010583024541102349,0.012547360583744012
1761466845064118500,4.546118408203125,0.136354343816638,0.008016559599313768,0.016982415855163708
1761466845074102500,4.5561025390625,0.11256313386261463,0.00824771688626497,0.015374428102676755
1761466845084085800,4.566085693359375,0.10732640225291251,0.012787808001314988,0.0008696498408447951
1761466845094069800,4.57606982421875,0.12797756061553955,0.00016805147034028778,-0.027225591149763202
1761466845104053800,4.5860537109375,0.13127251050770283,-0.008577867864305153,-0.014940256202802992
1761466845114037800,4.596037841796875,0.13711013062000274,-0.02022967241439037,0.024937694841716436
1761466845124020700,4.606020751953125,0.11197159771025181,-0.04701444729436189,0.05124587888561655
1761466845134004500,4.61600439453125,0.1005997243463993,-0.06558251577261835,0.045918199323141014
1761466845143987700,4.62598779296875,0.1118237136721611,-0.08479308340549468,0.0037309301566332575
1761466845153971700,4.6359716796875,0.09566402150988579,-0.07335804971151519,-0.05197425709224771
1761466845163954700,4.64595458984375,0.11392331629991531,-0.06358993544960394,-0.11435028214086777
1761466845173938700,4.655938720703125,0.118864279833436,-0.05376666150093078,-0.14455966117465868
1761466845183922000,4.665921875,0.09776888483464717,-0.05175947269725147,-0.13369217540267855
1761466845193905700,4.67590576171875,0.13683014463484286,-0.04873861333900131,-0.10781009411662816
1761466845203888600,4.685888671875,0.10840367609560489,-0.040587003496172835,-0.07043481007541995
1761466845213872600,4.69587255859375,0.12277414675354957,-0.03970128386993892,-0.023155784427584147
1761466845223855600,4.705855712890625,0.11858838550150394,-0.04060591825919691,0.05295911254428792
1761466845233839900,4.71583984375,0.20523206520974635,-0.03705842294464819,0.1581047503917478
1761466845243822800,4.72582275390625,0.13415420342385767,-0.023667241081059907,0.28399123874586074
1761466845253806600,4.735806640625,0.10542202993631362,0.011380528169410535,0.32742190926931797
1761466845263789600,4.74578955078125,0.1307072778403759,0.036242976092628665,0.27728005066942424
1761466845273772800,4.755772705078125,0.15479600943624972,0.05410692630596459,0.17952672873008996
1761466845283756800,4.7657568359375,0.13399345990419387,0.0671416046157712,0.08208017118498682
1761466845293739800,4.77573974609375,0.11872808623313903,0.08460696798255667,0.012704784201737493
1761466845303723800,4.785723876953125,0.11707973450422286,0.061668611998204136,-0.02813252252738457
1761466845313706800,4.795706787109375,0.1263549278497696,0.03465228653481463,-0.057536654159473254
1761466845323690800,4.805690673828125,0.10750000525414943,0.008629810968207311,-0.09017725152871571
1761466845333673700,4.815673828125,0.10615268229842185,-0.020162274300563148,-0.11073666735412552
1761466845343657700,4.82565771484375,0.09956862773299216,-0.03764830599604174,-0.12958108682204036
1761466845353640700,4.835640625,0.12890052067935465,-0.05819592178580351,-0.13752985386941582
1761466845363624700,4.845624755859375,0.13698387389183045,-0.06471245493981986,-0.10108055753274821
1761466845373607700,4.855607666015625,0.08685644567608833,-0.08286490095504559,-0.031452912821481
1761466845383591700,4.865591796875,0.1233697745591402,-0.08868642844907007,0.039929343305039215
1761466845393574700,4.87557470703125,0.15823650527894495,-0.08401151370690203,0.08990790566857904
1761466845403558700,4.88555859375,0.10885551151633262,-0.06434088168106973,0.13851124785589053
1761466845413542000,4.8955419921875,0.10601181252300738,-0.05325167944980785,0.12638298490047453
1761466845423526000,4.90552587890625,0.13893208535015583,-0.028006606009218376,0.08888463616860098
1761466845433508600,4.915508544921875,0.12501403463482855,-0.005587048022114322,0.054443272987706584
1761466845443492600,4.92549267578125,0.11109656844139099,0.024364230918872635,0.025421432371204717
1761466845453475800,4.935475830078125,0.12605915977358817,0.03837250121789984,0.01187823828367982
1761466845463459800,4.9454599609375,0.12979893082380295,0.041325405339896676,0.02380778662948869
1761466845473442800,4.95544287109375,0.12336392934024333,0.0386508889010176,0.021390217793476766
1761466845483426800,4.9654267578125,0.12695406278669832,0.01996698919048067,-0.0015578330344054848
1761466845493409500,4.975409423828125,0.11513210756778716,0.020668301293672992,-0.019858286385308017
1761466845503393500,4.9853935546875,0.10001812506616115,-0.01664033355237916,-0.06537786917914636
1761466845513376800,4.995376708984375,0.13757716360986233,-0.026201951757026835,-0.08681217727609909
1761466845523360800,5.00536083984375,0.11722820306420326,-0.040538908304437064,-0.07985820255288854
1761466845533343700,5.01534375,0.14386603462100028,-0.0440159869975876,-0.05541678506182506
1761466845543327500,5.025327392578125,0.12157120070457458,-0.04909754174530972,0.013745621324446983
1761466845553310700,5.035310791015625,0.130250181722641,-0.04755359567236155,0.08591393152843228
1761466845563293400,5.04529345703125,0.12650865710675716,-0.03398959397553699,0.15382603189293295
1761466845573277400,5.05527734375,0.14925123479068278,-0.030434324063197706,0.2135798780446872
1761466845583260400,5.065260498046875,0.132637369120121,-0.01816719149320852,0.23259117851210756
1761466845593244700,5.07524462890625,0.13323065883815288,-0.00948320036906225,0.18551796850152313
1761466845603227600,5.0852275390625,0.1140717848598957,0.014078158339107175,0.11199908850537613
1761466845613211600,5.095211669921875,0.12469079402983188,0.01815585268186405,0.01455798345352523
1761466845623194400,5.1051943359375,0.10538111340403557,0.020470415517839135,-0.09346367105455138
1761466845633178400,5.115178466796875,0.08263385954499244,0.014028705732279921,-0.18700011508436873
1761466845643161600,5.12516162109375,0.10597907929718493,0.004531043013025191,-0.23917017330992965
1761466845653145600,5.1351455078125,0.13575930053293706,-0.013593843137595103,-0.24834274653121827
1761466845663128600,5.145128662109375,0.10014730440378189,-0.014528293851448687,-0.20505743929520248
1761466845673112600,5.155112548828125,0.10538871218860149,-0.022604406755673698,-0.14892617668793537
1761466845683095600,5.165095458984375,0.12170388717353343,-0.04673415078194812,-0.09608822913817129
1761466845693079600,5.17507958984375,0.11287819116115569,-0.0663078206727514,-0.024472730511357076
1761466845703062500,5.1850625,0.10674655653834342,-0.0834016747128684,0.06790830553879496
1761466845713046500,5.195046630859375,0.1405669930756092,-0.09174671106883324,0.12432997962711378
1761466845723029500,5.205029541015625,0.1374251879185438,-0.0910326536484994,0.1734303846163675
1761466845733013500,5.215013427734375,0.13951836080551147,-0.07644891469920985,0.19636344337109476
1761466845742996500,5.22499658203125,0.12619944502711294,-0.03417976223579608,0.1913714437700808
1761466845752980500,5.23498046875,0.1163198560476303,-0.0016174910851827007,0.16556913145566357
1761466845762963500,5.24496337890625,0.12005787353217601,0.006396642805371084,0.12062468623523599
1761466845772947500,5.254947509765625,0.13501754225492477,0.02684548752468545,0.0694229752849089
1761466845782930700,5.2649306640625,0.11062252118885517,0.027120158013910985,0.01978843601949047
1761466845792914700,5.274914794921875,0.12438567360341549,0.02087497088087257,-0.051621219570608806
1761466845802897700,5.284897705078125,0.11914718842804431,0.01521686748736538,-0.10997421334795653
1761466845812881400,5.29488134765625,0.11525719525218009,-0.0008444860022471403,-0.15859141966383902
1761466845822864600,5.30486474609375,0.10119126049876212,-0.0030048840439281773,-0.14955332300979643
1761466845832847600,5.31484765625,0.11211655913889408,-0.03010773844035575,-0.1177843939085491
1761466845842831600,5.32483154296875,0.11690671602487564,-0.046021796694933434,-0.06332345739998854
1761466845852814600,5.334814697265625,0.13531564841866492,-0.045406107915425674,-0.005173479948029853
1761466845862798600,5.344798583984375,0.11272095477283,-0.04333788680662401,0.05359140996530186
1761466845872781600,5.354781494140625,0.13381985690295695,-0.03718376407407922,0.06687769754915497
1761466845882765600,5.364765625,0.12618717006742952,-0.030772088667179922,0.08141674797334708
1761466845892748500,5.37474853515625,0.12738427089750767,-0.01207991203535348,0.08759285192554817
1761466845902732500,5.384732666015625,0.15012918666899203,0.008597057192787179,0.07916312382766046
1761466845912715800,5.3947158203125,0.1160106439679861,0.02095594086232595,0.08956888297256081
1761466845922699800,5.40469970703125,0.11780395712554455,0.016361759781237925,0.07481658252333291
1761466845932682500,5.4146826171875,0.12094576228260993,0.024890389667847193,0.032973738313745705
1761466845942666500,5.42466650390625,0.12663023765981196,0.0052816062228230294,0.00247685214204248
1761466845952649500,5.4346494140625,0.09026829994618892,-0.0074420801838510665,-0.013487262649205512
1761466845962633700,5.4446337890625,0.11795125664174556,-0.007614205897343344,-0.027891562511515804
1761466845972616700,5.45461669921875,0.131717916187644,-0.02444069140527863,-0.03194233573966194
1761466845982600700,5.4646005859375,0.12094517776072025,-0.04370277459626086,-0.016524214625731108
1761466845992583400,5.47458349609375,0.1145119298428297,-0.04655516835269518,0.0036519694691756737
1761466846002567400,5.4845673828125,0.10448562586903572,-0.04989944184587802,0.03011860917753074
1761466846012550700,5.494550537109375,0.12603344081044196,-0.060626295304461376,0.05857237214907072
1761466846022534700,5.50453466796875,0.125134446144104,-0.0549567069691373,0.046526325850700954
1761466846032517600,5.514517578125,0.1149567510008812,-0.0587269188233884,0.0336288092555711
1761466846042500600,5.52450048828125,0.1519172391295433,-0.04367959921665024,0.015452032516687177
1761466846052484600,5.534484619140625,0.12348492537140845,-0.02344558855385985,-0.00045526948682963846
1761466846062467600,5.544467529296875,0.11435586249828338,-0.021088483484101014,0.024577309697261077
1761466846072451600,5.55445166015625,0.13066460774242877,-0.014984773481253068,0.0446279266171623
1761466846082434600,5.5644345703125,0.1219838731586933,-0.013092625891987699,0.05547804112923331
1761466846092418600,5.57441845703125,0.13290566466748713,-0.01087543504135101,0.021284953620983288
1761466846102401500,5.584401611328125,0.12078443424105643,-0.01628318382791476,-0.003618802418513223
1761466846112385500,5.594385498046875,0.13320493987500667,0.0074186958833306555,-0.0448610823524883
1761466846122368500,5.604368408203125,0.10761749415397644,-0.000208596861186561,-0.06603677604587282
1761466846132352500,5.6143525390625,0.11674480346143246,-0.009232661386561812,-0.05829177424255758
1761466846142335700,5.624335693359375,0.10791676936149597,-0.03329004228787962,-0.0349054552949965
1761466846152319700,5.63431982421875,0.1359007548302412,-0.05310008278440218,0.000036820312472991644
1761466846162302500,5.644302490234375,0.12018997547924518,-0.037381597334274555,0.002607593249087222
1761466846172286500,5.654286376953125,0.10028817417919635,-0.014555941051844273,0.015041209526360034
1761466846182269700,5.664269775390625,0.12737316498160361,0.001797755010180117,0.030663753471476957
1761466846192253700,5.674253662109375,0.12078969493806362,0.006809378620749339,0.03362675886237994
1761466846202236700,5.684236572265625,0.12049100425243377,0.007500129943198408,0.0609456497522071
1761466846212220700,5.694220703125,0.12288345234692095,0.0017322878450075222,0.08498142731813714
1761466846222203400,5.704203369140625,0.11734569196403026,-0.01265167490816675,0.0664727197777247
1761466846232187400,5.7141875,0.1429331376850605,-0.023483561927091796,0.038323437911784275
1761466846242170600,5.724170654296875,0.11659516585767268,-0.033371019119198896,0.02144687988415826
1761466846252154600,5.734154541015625,0.10986030464470385,-0.04223571598469279,0.005961264758277684
1761466846262137600,5.7441376953125,0.11898702943027019,-0.035668754117959174,-0.007730726682790554
1761466846272120600,5.75412060546875,0.12153086869418621,-0.04310617410971317,-0.013806228937883861
1761466846282104600,5.7641044921875,0.136344991466403,-0.04711208984940313,-0.02820507630694192
1761466846292087600,5.774087646484375,0.12377601727247238,-0.048319707506918344,-0.022305560806416904
1761466846302071600,5.784071533203125,0.12168225986361503,-0.03593150812381646,-0.02800532051771879
1761466846312054500,5.794054443359375,0.12931494669914245,-0.03340443276503356,-0.013109369247523135
1761466846322038500,5.80403857421875,0.10402619166374207,-0.0335337787827244,0.016544503928511402
1761466846332021500,5.814021484375,0.10193126521110533,-0.028503155071218495,0.03850962183338124
1761466846342005500,5.824005615234375,0.14143734616935252,-0.02559691680227406,0.052540161046432325
1761466846351988500,5.833988525390625,0.12258183905184268,-0.015585531836398877,0.05369225825758185
1761466846361972500,5.843972412109375,0.11779343573153019,-0.008066384953010129,0.040529724917560815
1761466846371955700,5.853955810546875,0.13530103537142277,0.0024097551369035497,0.01720798650565557
1761466846381939700,5.863939697265625,0.10657003092765807,0.0028576841361937113,-0.00536120280616451
1761466846391922400,5.87392236328125,0.1183896480590105,0.0072793644736317215,-0.03281939713540487
1761466846401906400,5.883906494140625,0.10612053359448909,0.00004477165107418841,-0.050348637784947636
1761466846411889700,5.8938896484375,0.1390419754654169,0.0053007213444245275,-0.05171314933749381
1761466846421873700,5.903873779296875,0.10911679280102252,0.001208087872267788,-0.01052218403222505
1761466846431856600,5.913856689453125,0.13306056296825408,-0.009817490378569346,0.019666430774750186
1761466846441840600,5.923840576171875,0.1186941839635372,-0.01773742976532667,0.04287512813308276
1761466846451823400,5.9338232421875,0.10926818397045135,-0.0010607556051454594,0.04690091761702206
1761466846461806600,5.943806640625,0.14263736960887907,0.00820519862701185,0.041623611968336624
1761466846471790600,5.95379052734375,0.11914485034048557,0.014241001342667732,0.03735588522099424
1761466846481773600,5.963773681640625,0.11300970858633518,0.02347049923283048,0.04373674993109889
1761466846491757600,5.973757568359375,0.12168810508251189,0.021502322698710486,0.04644315021242946
1761466846501740500,5.983740478515625,0.1186947684854269,0.022504229750251396,0.04543543447460979
1761466846511724500,5.993724609375,0.13814824149608612,0.0264542094850447,0.03336961033011321
1761466846521707500,6.00370751953125,0.12527940757274628,-0.004164783823153993,0.020551337550231256
1761466846531691500,6.01369140625,0.11390694968700409,-0.015719447856285842,0.009217448976053855
1761466846541674000,6.023674072265625,0.13784955081045627,-0.029627722671336957,0.0005372304155491293
1761466846551658000,6.033657958984375,0.13455693900585175,-0.05176156418963801,0.014693218072596936
1761466846561641000,6.043640869140625,0.09669687168896197,-0.08216918290900066,0.021733478273195213
1761466846571624700,6.053624755859375,0.12258300809562206,-0.09045622373372315,0.030686476759938523
1761466846581608000,6.06360791015625,0.11734452292025088,-0.10316661569233983,0.03626693007366266
1761466846591592000,6.073592041015625,0.1312602355480194,-0.10501723026139662,0.003554368013329804
1761466846601575000,6.083574951171875,0.12123217800855636,-0.10316027728309854,-0.012971043055644258
1761466846611559000,6.093558837890625,0.1180892038077116,-0.08271463316362351,-0.018649741712608373
1761466846621542000,6.1035419921875,0.12661854722201824,-0.06380526783387176,-0.026868987131281753
1761466846631525600,6.113525634765625,0.10791501579582691,-0.04608391127886716,-0.025787872797111047
1761466846641508900,6.1235087890625,0.12736848880648613,-0.03238868441780796,-0.021226350734964945
1761466846651492900,6.133492919921875,0.1061199490725994,-0.010196651005442254,-0.00392103220152203
1761466846661475800,6.143475830078125,0.13230828329622746,0.0049471923449076706,0.008816352795297279
1761466846671459000,6.153458984375,0.13155951075553893,0.025156970465451012,0.028108890490047632
1761466846681443000,6.163443115234375,0.11839140162467957,0.032668798267131205,0.04589888270131778
1761466846691425800,6.17342578125,0.12347849563062191,0.032956878510490055,0.049130896025639956
1761466846701409800,6.183409912109375,0.12542319995760917,0.04278040818748995,0.05121241957400925
1761466846711392800,6.193392822265625,0.1421826115787029,0.039655234504817054,0.05661922878730111
1761466846721376800,6.203376708984375,0.12317571329176426,0.021649238622421397,0.05311741294511593
1761466846731360000,6.213360107421875,0.11688918036818503,0.011126291971793397,0.037303250851458865
1761466846741344000,6.223343994140625,0.1297580142915249,0.005980708673442131,0.000020604396611452103
1761466846751326700,6.23332666015625,0.12167699916660785,-0.01965124005548423,-0.019120240734610706
1761466846761310700,6.243310791015625,0.11763561482131481,-0.03222200206441339,-0.02727065413419623
1761466846771294000,6.2532939453125,0.12257482478916644,-0.04667453868235461,-0.026060186932468785
1761466846781278000,6.26327783203125,0.14247837965488433,-0.04600764030541759,-0.019043271074839867
1761466846791261000,6.273260986328125,0.11195172396600246,-0.05859141934283543,0.0025684759482508526
1761466846801245000,6.283244873046875,0.11943477319777011,-0.07777453727978281,0.018976831942237912
1761466846811228000,6.293227783203125,0.12975859881341456,-0.06562017633530777,0.01783380395353306
1761466846821212000,6.3032119140625,0.10626666406691074,-0.06594015640413854,0.019439800678333265
1761466846831195000,6.31319482421875,0.13350129247307777,-0.03471878959949826,0.0041653714845655485
1761466846841177900,6.323177734375,0.12452303624749182,-0.029546704740822313,0.028197714984393676
1761466846851161900,6.333161865234375,0.11509586721062659,-0.018243771852267672,0.035767716413829476
1761466846861144800,6.343144775390625,0.135895494133234,-0.008247117522999179,0.03339646637099795
1761466846871128800,6.35312890625,0.11120295142531395,-0.005652126885514008,0.061132413629116485
1761466846881111800,6.36311181640625,0.11299626458287239,-0.011817313293123152,0.03860589441524353
1761466846891095800,6.373095703125,0.13753741612136364,0.0009255065014614956,-0.004897480584820732
1761466846901079000,6.3830791015625,0.12945757004022598,0.00881276175310195,-0.0173638666205341
1761466846911063000,6.39306298828125,0.10716098255813121,-0.005414336645088042,-0.017299614878441207
1761466846921045800,6.403045654296875,0.1236222880154848,0.0021332281913149925,-0.010884007648518308
1761466846931029800,6.41302978515625,0.12526888617873191,0.002311430592089164,0.007471637355186976
1761466846941012700,6.4230126953125,0.12063070498406886,0.0008751738295723043,0.021158486830256878
1761466846950997000,6.4329970703125,0.11793781263828276,-0.008361298508421168,0.034818448298401194
1761466846960980000,6.44297998046875,0.12706570646762846,-0.01454393894515233,0.025217064338945782
1761466846970964000,6.4529638671875,0.11644260564446449,-0.018767401859082745,0.029091334789292884
1761466846980946700,6.46294677734375,0.1296124683409929,-0.021935065259900875,0.019843846868001856
1761466846990930700,6.4729306640625,0.13649638263583183,-0.021979027699213474,0.01951753752308432
1761466847000914000,6.482913818359375,0.10267711514234543,-0.038529413379239846,0.03583543875464238
1761466847010897000,6.49289697265625,0.135748194617033,-0.03206298699424369,0.031854995382926424
1761466847020881000,6.502880859375,0.12646949414014816,-0.037882955002132804,0.022132629092037677
1761466847030864000,6.51286376953125,0.09953297189772128,-0.025823275187343824,0.019724124911893157
1761466847040848000,6.522847900390625,0.14113281026482583,-0.036292856816074345,-0.009870053966157137
1761466847050830800,6.532830810546875,0.12093173375725745,-0.036082170924171805,-0.020734585162648
1761466847060814800,6.54281494140625,0.1103074638903141,-0.03093762024310417,-0.015587084472668357
1761466847070797800,6.5527978515625,0.12437398316562175,-0.01976528803934343,-0.0040120029871817675
1761466847080781800,6.56278173828125,0.10731471181511879,-0.015609193556488024,0.025277274660160765
1761466847090764800,6.572764892578125,0.11853694757521152,-0.008447882525797467,0.020795590068306773
1761466847100748800,6.582748779296875,0.11973346388339996,-0.005675865095772314,0.03423671658742242
1761466847110731800,6.592731689453125,0.13155541910231114,-0.0042272389025049045,0.03276085818146821
1761466847120715800,6.6027158203125,0.1173392622232437,-0.001231193896986224,0.045338212044676765
1761466847130699000,6.612698974609375,0.1314040279328823,-0.0031407967997234662,0.04315780839882791
1761466847140683000,6.62268310546875,0.11973229483962058,0.0027900933698882,0.011728112056152894
1761466847150665700,6.632665771484375,0.1206295359402895,-0.0030008743036800296,0.0028848575541982426
1761466847160649700,6.642649658203125,0.12766250331699847,-0.009490931013546651,-0.010343525829957798
1761466847170633000,6.652633056640625,0.12781272544264793,-0.02158328354700934,-0.0123646792269079
1761466847180617000,6.662616943359375,0.12377251014113426,-0.025987687951838596,0.00392975893067196
1761466847190600000,6.672599853515625,0.11763795290887355,-0.01643230540844379,0.0020721940310206265
1761466847200583000,6.6825830078125,0.12153028417229651,-0.0191565336074098,-0.006265010644937865
1761466847210566700,6.692566650390625,0.13080898464918136,-0.010075035061413655,0.003996266561932861
1761466847220550000,6.7025498046875,0.1052227079719305,-0.029303872428275642,0.022502891743113287
1761466847230534000,6.712533935546875,0.13380407481193543,-0.03145183054266963,0.036313358464697375
1761466847240516900,6.722516845703125,0.11090776787102222,-0.03363813648963114,0.0473857511250535
1761466847250500900,6.7325009765625,0.11300094075798987,-0.0426649103153497,0.03486858475017361
1761466847260484000,6.742484130859375,0.14053484437167643,-0.028767103237030096,0.01829672702385578
1761466847270467800,6.7524677734375,0.13649346002638338,-0.025906599239376372,0.0026375043301610276
1761466847280450800,6.762450927734375,0.11120353594720363,-0.032863781983114314,-0.00631570878571365
1761466847290434800,6.772434814453125,0.12018062312901019,-0.027919704043900127,0.0020927801613230255
1761466847300417800,6.782417724609375,0.12511924857497214,-0.02200455486611463,0.013686379117611796
1761466847310401800,6.79240185546875,0.1203325988203287,-0.017563505962037016,0.019955106956441884
1761466847320385000,6.802385009765625,0.12946224621534347,-0.006767571035082801,0.02049120942740701
1761466847330368800,6.81236865234375,0.11285247219800948,-0.014661755496897967,0.016433869461156426
1761466847340351700,6.822351806640625,0.11868833874464034,-0.0128544103890541,-0.0013000908470945432
1761466847350335700,6.832335693359375,0.13514964420199393,-0.0048717610508523645,0.007048352175508626
1761466847360319000,6.842319091796875,0.12287760712802409,-0.014854365734348538,0.027314401944377457
1761466847370303000,6.852302978515625,0.11434943275749683,-0.02098103877096437,0.026669395738840102
1761466847380286000,6.862285888671875,0.13829261840283869,-0.011338110374857205,0.02678552379864268
1761466847390269000,6.87226904296875,0.11779109764397144,-0.021403732578887138,0.019135584434214977
1761466847400253000,6.8822529296875,0.10267769966423511,-0.012021459846384823,0.00853942185032647
1761466847410236000,6.89223583984375,0.13320493987500667,-0.01049857140284148,0.0034723614188376813
1761466847420220000,6.902219970703125,0.12632219462394714,-0.018672124791063834,0.013858644111710599
1761466847430203000,6.912202880859375,0.11779226668775081,-0.015902510522323426,0.016957838536333293
1761466847440187000,6.922186767578125,0.10582008934319019,-0.022121717255667316,0.023828454958181828
1761466847450169900,6.932169921875,0.13200783904492855,-0.02792787136733532,0.02753746554395184
1761466847460153900,6.94215380859375,0.1429331376850605,-0.019612577129085547,0.0050986063472228125
1761466847470136800,6.95213671875,0.10013561396598815,-0.018592956324340774,0.018353813806222752
1761466847480120800,6.962120849609375,0.1255734220832586,-0.016874197107180952,0.011447317786817438
1761466847490104000,6.97210400390625,0.12033552142977713,-0.019671931217063683,0.009699181778123601
1761466847500088000,6.982088134765625,0.13320493987500667,-0.01517222348639625,0.0022832886315882206
1761466847510070800,6.99207080078125,0.12796762374341486,-0.018326125506631798,-0.010281269682128913
1761466847520054800,7.0020546875,0.10627017119824886,-0.017716165498300688,0.005324834584840573
1761466847530037800,7.012037841796875,0.13260697398185728,-0.01103186542878975,0.01202897643256001
1761466847540025300,7.022025390625,0.125574591127038,-0.006766799283525324,0.013736314639984629
1761466847550009300,7.03200927734375,0.12318097398877143,-0.002202379157283576,0.0031375947728287425
1761466847559992300,7.041992431640625,0.13485212256014345,-0.007913152882122085,-0.007729480007197707
1761466847569976300,7.051976318359375,0.10253098466992377,-0.016734515783499226,0.003463867585128173
1761466847579959300,7.061959228515625,0.13455576996207236,-0.006896324539373745,0.005592458845349028
1761466847589943300,7.071943359375,0.12722294285595417,-0.005570485046380781,0.018467535279807632
1761466847599926300,7.08192626953125,0.10118541527986526,-0.0152440979875857,0.037187182157160714
1761466847609910300,7.09191015625,0.14143968425691128,-0.013165307535708416,0.02675632967019919
1761466847619893200,7.101893310546875,0.12887012554109095,-0.027312529647699556,0.03960160462143831
1761466847629877200,7.111877197265625,0.11285890193879604,-0.02898455679643666,0.041287023257999676
1761466847639860500,7.121860595703125,0.12542846065461635,-0.034592450672935225,0.025120901354937813
1761466847649844500,7.131844482421875,0.12707388977408407,-0.021174759828334208,0.01381049868762493
1761466847659827200,7.1418271484375,0.10253215371370315,-0.01886870452580042,0.01977786895970348
1761466847669811200,7.151811279296875,0.1165986729890108,-0.016434241637203376,0.011027635636599734
1761466847679794400,7.16179443359375,0.12363280940949917,-0.020633659238554536,0.0019604498853906987
1761466847689777400,7.17177734375,0.11390636516511439,-0.0017044846674572909,0.001410780113376677
1761466847699761400,7.181761474609375,0.12483049476146697,-0.005129121358139673,0.0014722553764935581
1761466847709744000,7.191744140625,0.12168927412629127,0.004327046871402126,-0.005293083173129707
1761466847719728000,7.20172802734375,0.1309679746031761,0.008565246415571891,-0.00036321642235852774
1761466847729711400,7.21171142578125,0.10956979726552962,0.004857146291143726,0.011071543276985176
1761466847739695400,7.2216953125,0.11316051523387431,-0.0005151528696536843,0.017249830053118056
1761466847749678300,7.23167822265625,0.13545768723785875,-0.002490726545412326,0.02192924744046759
1761466847759662300,7.241662353515625,0.1269289283454418,-0.007804246293439064,0.016941097464086487
1761466847769645300,7.251645263671875,0.10268705201447009,-0.021064330856956075,0.003199430795549415
1761466847779629300,7.26162939453125,0.1303711777538061,-0.017571265718451468,0.002577837431640364
1761466847789612300,7.2716123046875,0.13620762882232665,-0.037013487824378535,0.01203606376047246
1761466847799596300,7.28159619140625,0.12288871304392814,-0.04505758217212278,0.027514541326090693
1761466847809579300,7.291579345703125,0.12513210805654526,-0.02765618970292853,0.023519544272636993
1761466847819563300,7.301563232421875,0.13052023083567618,-0.04011505686917808,0.01862634713728912
1761466847829546200,7.311546142578125,0.11480886696279048,-0.021376755523704924,0.006003688261052593
1761466847839530200,7.3215302734375,0.12498305497467517,-0.02450681087747216,0.026257344339229164
1761466847849513200,7.33151318359375,0.10912029993236064,-0.028199948040675372,0.04116572583273519
1761466847859496400,7.341496337890625,0.13231354399323464,-0.02525078851203434,0.04642412128497381
1761466847869480400,7.35148046875,0.12228665549755095,-0.03358702507361304,0.0539870171201881
1761466847879463400,7.36146337890625,0.11016484054923056,-0.032341162331518715,0.031501396172284146
1761466847889447200,7.371447265625,0.12901917862296103,-0.012482311973918695,-0.0005129453576635569
1761466847899430400,7.381430419921875,0.1197533376276493,-0.014876700863742735,-0.02838924180138856
1761466847909414400,7.391414306640625,0.2836222958356142,0.003637778830330353,-0.09677914314493537
1761466847919397400,7.4013974609375,-0.03242868991792202,-0.03236691782728303,-0.021939741435018367
1761466847929381400,7.41138134765625,-0.07566577409803867,-0.042722389823361295,0.010331040807720272
1761466847939364400,7.4213642578125,0.4358084150344133,0.020192591807013376,-0.10405008399598299
1761466847949348000,7.43134814453125,0.008888239854574202,-0.011028531827387632,0.026465571129275483
1761466847959331300,7.441331298828125,0.011435586249828338,-0.008396611279575153,0.06516276969031896
1761466847969315300,7.4513154296875,0.2652256384015083,0.01142393006136408,0.004598483938514255
1761466847979298300,7.46129833984375,0.0799737004250288,-0.0010732312801701482,0.039680821037222626
1761466847989282300,7.4712822265625,0.09164075734317302,-0.004333813111850758,0.03326043716748245
1761466847999265500,7.481265625,0.0953758522182703,-0.023229500401054974,0.04790772917254362
1761466848009249300,7.491249267578125,0.12020517304837702,-0.017263755830482112,0.04536583070396445
1761466848019232300,7.501232177734375,0.08443184887766837,-0.007882694382598856,0.051509155764570456
1761466848029215200,7.51121533203125,0.16418869168162345,-0.017620362132252192,0.03450097528048791
