time,seconds_elapsed,z,y,x
1761466868674278700,0.124278564453125,0.11617021844387054,0.016959222209244035,-0.004543981838878244
1761466868684261600,0.13426171875,0.12440087117254733,0.02108551749216858,-0.018350183377298525
1761466868694244600,0.14424462890625,0.12036065587103366,0.019137745566904778,-0.026573639180208556
1761466868704228600,0.154228515625,0.11228022526800632,0.014010093504999531,-0.01733630732675083
1761466868714211600,0.164211669921875,0.11692016002833842,0.012670113605511141,-0.0032032484541414303
1761466868724194800,0.17419482421875,0.13143559211492536,0.002840203278430272,0.0011855702224886045
1761466868734177500,0.184177490234375,0.11662146934270858,-0.008387285187159432,0.011235195706365629
1761466868744161500,0.19416162109375,0.12694704852402208,-0.014987240574619498,0.01906175201302394
1761466868754144800,0.204144775390625,0.130837626221776,-0.012645410705805988,0.0164730232946109
1761466868764127700,0.214127685546875,0.12095979080796242,-0.006885513738525332,0.014758620592160149
1761466868774111700,0.22411181640625,0.10913725106716156,-0.016090822468925035,0.013887322216923348
1761466868784094500,0.234094482421875,0.12754267632961272,-0.004939178001810796,0.012266004625405185
1761466868794077700,0.24407763671875,0.12829144887030125,-0.005764661049010465,0.010652582645975052
1761466868804061700,0.254061767578125,0.1124292783498764,0.007590382063761353,0.003512629497144371
1761466868814044700,0.264044677734375,0.10809037236273288,0.002356817375391256,-0.01767665433017537
1761466868824027600,0.274027587890625,0.13382862473130225,0.013940052484581246,-0.028652454748260787
1761466868834011600,0.28401171875,0.12275602657496928,0.013339515608432701,-0.02794861732784193
1761466868843994600,0.29399462890625,0.12066110012233257,-0.003562180285382783,-0.006591794913890771
1761466868853977600,0.3039775390625,0.12275602657496928,-0.0027586784578394145,0.014814985855319537
1761466868863961600,0.313961669921875,0.12769406749904155,-0.011501324412820394,0.01292110296669416
1761466868873944800,0.32394482421875,0.11078501827418803,-0.003848575461731525,0.022967477047559803
1761466868883927600,0.333927490234375,0.12036124039292335,-0.0012117823759792371,0.010371153622400014
1761466868893911600,0.34391162109375,0.11452420480251312,-0.0027178281409316694,0.01031693465055432
1761466868903894800,0.353894775390625,0.11542203042507171,-0.013295400188781786,0.005958164052315988
1761466868913877800,0.363877685546875,0.1414595580011606,-0.00028247362812398934,-0.0005322893789503723
1761466868923861800,0.37386181640625,0.11886486435532569,0.0017720363324449863,0.012408308306080288
1761466868933844500,0.383844482421875,0.1079413192808628,0.008345923413598211,0.0024524072539526967
1761466868943827700,0.39382763671875,0.12469956185817718,0.009557700081355869,0.002403759506368078
1761466868953810700,0.403810791015625,0.10330021547675132,0.009375398892076918,-0.002578189058089629
1761466868963794700,0.413794677734375,0.13143208498358724,0.010399988132884027,-0.01435481643108651
1761466868973777400,0.42377734375,0.1411591137498617,0.008149452135071624,-0.013348283436778
1761466868983760600,0.4337607421875,0.09746493345201016,-0.004308138672832865,-0.012705469188326969
1761466868993744600,0.44374462890625,0.11467325788438319,0.001811223273584619,-0.02326647369386628
1761466869003727600,0.4537275390625,0.11242869382798672,-0.0036392389934102537,-0.025895977380662225
1761466869013710800,0.4637109375,0.12619535337388516,0.0018767856233520431,-0.01776110404350329
1761466869023694800,0.47369482421875,0.12754267632961272,-0.0009263701553863938,-0.0013826134648174046
1761466869033677600,0.483677490234375,0.12469956185817718,-0.008794756309775402,0.028025481956335713
1761466869043660500,0.49366064453125,0.11826456037461756,-0.0053696646738331764,0.03921434973636642
1761466869053644500,0.50364453125,0.11571955206692218,-0.004622815803816774,0.04516529403002932
1761466869063627800,0.513627685546875,0.11796353160142897,-0.008098040466598467,0.03959627542577218
1761466869073610500,0.523610595703125,0.1109299797028303,-0.0038446630466612984,0.029617696750955654
1761466869083594500,0.533594482421875,0.12559388034939764,-0.01345087958650547,0.027341267118416723
1761466869093577700,0.54357763671875,0.1329255384117365,-0.0011433499324019067,0.019996238117851315
1761466869103560700,0.553560791015625,0.12559329582750797,0.009790009858243865,0.00034110505525022743
1761466869113544700,0.563544677734375,0.1208037234634161,0.012410647535283351,-0.03991101306390483
1761466869123527700,0.573527587890625,0.11661387055814265,0.019146073862188494,-0.07784962094314396
1761466869133510700,0.5835107421875,0.1006038159996271,0.01875144281319226,-0.06619507188012358
1761466869143493600,0.59349365234375,0.13756547317206858,0.01136169446313288,-0.045078460563370025
1761466869153477600,0.6034775390625,0.11197744292914867,-0.011281819318578344,0.006910441542160697
1761466869163460600,0.613460693359375,0.12769114488959313,-0.004307684298395179,0.02893998928563669
1761466869173443600,0.623443603515625,0.14475041624009607,-0.006665384164842544,0.024333107411535455
1761466869183427600,0.633427490234375,0.10090659833848475,-0.012490300059196305,0.019084429635712875
1761466869193410600,0.64341064453125,0.12829027982652186,-0.009736883440008386,0.012931962287425994
1761466869203393800,0.653393798828125,0.12948738065659998,-0.013792894532275385,0.016467557101626878
1761466869213377800,0.663377685546875,0.12739245420396328,-0.010428859175986144,0.033324182019499125
1761466869223360500,0.673360595703125,0.11691782194077968,-0.014734893798345,0.03423149242303334
1761466869233343500,0.683343505859375,0.12574527151882647,-0.010437649837217759,0.018790926581854
1761466869243327700,0.69332763671875,0.12020868017971514,-0.01434284058221383,0.011331011630501597
1761466869253310700,0.703310791015625,0.11302665972113608,0.0009804749628005082,-0.008307453425088897
1761466869263293700,0.713293701171875,0.1401098969578743,-0.0022004486367455684,-0.015050292448536493
1761466869273277700,0.723277587890625,0.09611585693061352,-0.00255867493179976,-0.0016325376718537882
1761466869283260700,0.7332607421875,0.14564648829698562,0.0036727679453208107,-0.00752710756920278
1761466869293243600,0.74324365234375,0.10000585010647774,0.0037544788539351425,0.0049891683231107885
1761466869303227600,0.7532275390625,0.10524199719429016,0.0035451857680978715,-0.007813998219184578
1761466869313210600,0.763210693359375,0.12738953159451483,0.009070557026873574,-0.02661185686532408
1761466869323193600,0.773193603515625,0.13068272792100905,0.011083409528003539,-0.014799733487260528
1761466869333177600,0.783177490234375,0.11078034209907055,0.005752537928021047,-0.019488676754781043
1761466869343160600,0.79316064453125,0.10225099868476391,-0.004508476700657047,-0.001178829954448156
1761466869353143800,0.803143798828125,0.12963643373847006,0.0049126370547572145,0.015981207489944062
1761466869363126800,0.813126708984375,0.1226028818398714,-0.00015523736912873573,0.027659443389228544
1761466869373110500,0.823110595703125,0.10733867721259593,-0.00007349221118493005,0.0477964553843718
1761466869383093500,0.833093505859375,0.1366682320713997,0.010888348180206958,0.03089299108351115
1761466869393076700,0.84307666015625,0.1344236680150032,0.019524131660652345,0.013161967084440403
1761466869403060700,0.853060791015625,0.1184118598908186,0.02263288849806413,0.003294758095918223
1761466869413043700,0.863043701171875,0.09656418522000312,0.035107469256676266,-0.011595841145724988
1761466869423026700,0.873026611328125,0.1053928038418293,0.038608643494755956,-0.008667208381881937
1761466869433010700,0.8830107421875,0.13786416385769842,0.02957658842243254,-0.035233559304778464
1761466869442993700,0.89299365234375,0.13008300846219062,0.02181389569879975,-0.039648969160811974
1761466869452976600,0.9029765625,0.12754150728583336,-0.001375487320998218,-0.03683029501088895
1761466869462960600,0.912960693359375,0.13547288480699063,-0.018971896613860735,-0.003306608363916166
1761466869472943600,0.922943603515625,0.10749065290391445,-0.039860808113473464,0.023411512754322027
1761466869482926600,0.932926513671875,0.129037883323431,-0.029644004802568815,0.028879399938508868
1761466869492910600,0.94291064453125,0.11018237620592117,-0.030328447969350962,0.03305333375544287
1761466869502893600,0.9528935546875,0.12365034506618976,-0.03414113812530413,0.03588987235561944
1761466869512876800,0.962876708984375,0.1508838044285774,-0.01072165669365786,0.0317934881537687
1761466869522859500,0.972859619140625,0.10599135425686836,-0.0074797316133859565,0.037041111050243485
1761466869532843500,0.982843505859375,0.12694061878323554,0.0045860639900027304,0.016486828057677483
1761466869542826800,0.99282666015625,0.1420528477191925,0.0011769599410588853,0.012719575345492921
1761466869552809700,1.002809814453125,0.12334697820544242,0.018456710208405273,-0.0053504530832869926
1761466869562789600,1.01278955078125,0.12828501912951468,0.019240645394020248,-0.00764151402937714
1761466869572772600,1.022772705078125,0.12484335424304008,0.01423652838023845,-0.002333616879605688
1761466869582755600,1.032755615234375,0.09775719439685344,0.01423167753354064,0.001391705520148389
1761466869592739600,1.042739501953125,0.11526537855863571,0.023588175362325273,-0.005401740312529727
1761466869602722600,1.05272265625,0.14923369913399218,0.016596521810116244,-0.0158546356679406
1761466869612705500,1.06270556640625,0.12035247256457805,0.015630887081776745,-0.02014981211121194
1761466869622689500,1.072689453125,0.09506371752917767,0.01850600412667263,-0.007204118125955574
1761466869632672500,1.082672607421875,0.14085282427966594,0.0013036116781644522,-0.010959776298468931
1761466869642655500,1.092655517578125,0.09895487974882125,-0.006516730658482993,-0.004076104032224975
1761466869652639700,1.1026396484375,0.14010638982653617,-0.008456080673629185,-0.007678900597430765
1761466869662622500,1.11262255859375,0.10958031865954398,-0.01014003229724476,0.018965648394520394
1761466869672605400,1.12260546875,0.11930676290392875,-0.013625889093539444,0.03097791115429718
1761466869682589400,1.13258935546875,0.12993044824898242,-0.012562091220350702,0.03430287259223405
1761466869692572700,1.14257275390625,0.12663842096626757,-0.01728517650277936,0.0145415803079959
1761466869702555600,1.1525556640625,0.12589081746935843,-0.021244406981463543,-0.0020130340225761757
1761466869712538400,1.162538330078125,0.11721125192940235,-0.023263576200592797,-0.014037375379214062
1761466869722522600,1.172522705078125,0.09850713598132133,-0.021811169452173634,-0.010189307949203067
1761466869732505600,1.182505615234375,0.13636603425443172,-0.021551933994097633,-0.02085463134574238
1761466869742488600,1.192488525390625,0.11661328603625297,-0.026181584822433067,-0.005446337506081909
1761466869752472600,1.20247265625,0.11182546723783016,-0.017357070411922176,0.0043879921261454
1761466869762455600,1.21245556640625,0.1450455997943878,-0.01003798756172182,0.012937757273972965
1761466869772438500,1.2224384765625,0.11586568253934383,-0.006622671826055739,0.027988972171116618
1761466869782422500,1.232422607421875,0.11736264309883117,0.014081207671074661,0.020325885630748233
1761466869792405500,1.242405517578125,0.13412147019803522,0.010710531369800446,0.012715547624346799
1761466869802388700,1.252388671875,0.11421849985420703,0.007632922014256473,0.020660487879975698
1761466869812372700,1.262372802734375,0.1122720419615507,0.011211938128364272,0.01755665381285362
1761466869822355500,1.27235546875,0.12858254077136516,0.011723548903822665,0.0008851488040760159
1761466869832338700,1.282338623046875,0.11466565909981727,0.006893972181261051,-0.007241367696691304
1761466869842322700,1.29232275390625,0.12244622997343539,0.007730336240434553,-0.00573533334818203
1761466869852305700,1.3023056640625,0.12199614811837672,0.014373696944781113,0.0011446993559831753
1761466869862288400,1.312288330078125,0.12468904046416282,0.018375632912386208,-0.010310039118886925
1761466869872271600,1.322271728515625,0.12319383347034453,0.01952962981967721,-0.03253089448364917
1761466869882255600,1.332255615234375,0.12409165909290314,0.022734106683102436,-0.042526556724007236
1761466869892238600,1.342238525390625,0.10808160453438759,0.01864804408751079,-0.020690261963731606
1761466869902221600,1.3522216796875,0.11032675311267376,0.010687499837373616,0.006734664850146509
1761466869912205600,1.36220556640625,0.12962941947579384,0.0019496590633178129,0.029852523853559975
1761466869922188500,1.3721884765625,0.11017711550891399,-0.004241623050061752,0.04590946802741382
1761466869932171500,1.382171630859375,0.13501871129870413,-0.0013678223210619761,0.03065634191657882
1761466869942155500,1.392155517578125,0.13411971663236616,-0.015251756137656046,0.021423425943334587
1761466869952138800,1.402138671875,0.0844394476622343,-0.020918947019916957,0.019170400019269434
1761466869962121500,1.41212158203125,0.1344195763617754,-0.012146451632655224,0.005877801425638608
1761466869972105500,1.42210546875,0.1365145028144121,-0.0037603800134034825,0.012098593902937136
1761466869982088400,1.43208837890625,0.08773147494494915,-0.009933636704680974,0.014793098250497131
1761466869992071700,1.44207177734375,0.12199790168404578,-0.006320210289250826,0.001715201853471808
1761466870002055700,1.4520556640625,0.12873100933134554,0.002249538200680399,0.007768236548430286
1761466870012038400,1.462038330078125,0.11660977890491485,-0.004756385905476054,-0.007327338080247864
1761466870022021600,1.472021728515625,0.12962883495390415,0.004833793956664158,-0.03096751762444619
1761466870032004600,1.482004638671875,0.13097498886585235,0.009379691474704304,-0.03391236173757352
1761466870041988600,1.491988525390625,0.1032926166921854,-0.0002957726427586749,-0.010193294571153819
1761466870051971600,1.5019716796875,0.13292203128039837,0.009241610736353323,-0.0030159137550741432
1761466870061954600,1.51195458984375,0.12065233229398727,0.0005934038824634626,-0.007906955465953797
1761466870071938600,1.5219384765625,0.10060030886828898,-0.006535799543489701,0.00813245305120945
1761466870081921500,1.531921630859375,0.12723638685941696,-0.006737254099454731,0.01078554767614696
1761466870091904800,1.54190478515625,0.13771101912260056,0.00036017508190125223,0.0060000441323965785
1761466870101888800,1.551888671875,0.1209516075015068,0.002326158517290605,0.0022346134845400226
1761466870111871500,1.56187158203125,0.12663842096626757,-0.001214838557812618,0.012679795890953392
1761466870121854500,1.5718544921875,0.12409458170235156,0.002368344558047829,0.029668139163404703
1761466870131838500,1.58183837890625,0.11900631865262984,0.004306436481158016,0.023244837250793352
1761466870141821700,1.59182177734375,0.11391864012479781,0.010807838281412841,0.0020379355683922767
1761466870151804400,1.601804443359375,0.12648819884061813,0.009583408769703237,-0.010672438123915344
1761466870161787400,1.611787353515625,0.11556406924426554,0.018406713037239387,-0.008604961367207578
1761466870171771600,1.621771728515625,0.12678688952624798,0.012380080008727963,-0.011237346564256585
1761466870181754600,1.631754638671875,0.13292261580228804,-0.003966149984882213,-0.00042675577839836477
1761466870191737600,1.641737548828125,0.11152443846464156,-0.01470004396396107,0.013178776655346154
1761466870201721600,1.6517216796875,0.11900631865262984,-0.023600989178125746,0.01968706713740248
1761466870211704600,1.66170458984375,0.11421791533231734,-0.02963216823430266,0.027668562844023106
1761466870221687600,1.6716875,0.11092530352771282,-0.01049618536622147,0.027814853146648964
1761466870231671600,1.681671630859375,0.1161626196593046,-0.0049330998874735086,0.013879061278654261
1761466870241654500,1.691654541015625,0.13426876971423626,0.0013240939188341144,-0.002784548118035309
1761466870251637500,1.701637451171875,0.09820493816435337,0.002913284497661516,-0.0015007005862658844
1761466870261621500,1.71162158203125,0.11406652416288852,0.003511518677225103,-0.013129731615539639
1761466870271604500,1.7216044921875,0.11945347789824008,0.006290560644725337,-0.020869139361707492
1761466870281587700,1.731587646484375,0.11915595625638961,0.014941694674640894,-0.010609670519432984
1761466870291571700,1.74157177734375,0.13427052327990532,0.0189500717994757,0.01099870636963751
1761466870301554700,1.7515546875,0.10479191533923149,0.030209680427890268,0.015410928754741326
1761466870311537400,1.761537353515625,0.08818272584378718,0.02838310203825822,0.0008089189298218116
1761466870321520600,1.771520751953125,0.14265139813423156,0.011189841602632077,-0.011153727967990561
1761466870331504600,1.781504638671875,0.12005611996650695,0.003561802401114255,-0.021331016685836948
1761466870341487600,1.791487548828125,0.13053075222969054,-0.0027887402359629047,-0.0222438526478596
1761466870351470600,1.801470703125,0.12065467038154601,-0.01247820091273752,0.01776330056716688
1761466870361454600,1.81145458984375,0.12619184624254703,-0.02383021309042815,0.03772258594180457
1761466870371437600,1.8214375,0.12170330265164375,-0.02214212528945645,0.02523016128253657
1761466870381420500,1.831420654296875,0.12589374007880688,-0.017388394848658936,-0.0028860768303275107
1761466870391404500,1.841404541015625,0.10778700550198554,-0.008526516702980734,-0.005982572407787665
1761466870401387500,1.851387451171875,0.1296352646946907,-0.007848754438734612,0.0012054257004288956
1761466870411370500,1.86137060546875,0.11362345657050608,0.005598297214379999,0.013183891221880913
1761466870421353500,1.871353515625,0.10075403812527656,0.007646018957847263,0.012502731424150988
1761466870431337500,1.88133740234375,0.13262743224799634,0.02144738220765721,-0.00570058626178652
1761466870441320700,1.89132080078125,0.12813830413520336,0.013224880819395183,-0.026868576139328068
1761466870451303400,1.901303466796875,0.11616963392198085,0.0007511220446904189,0.007240920172119513
1761466870461287400,1.911287353515625,0.12619476885199546,0.012995671748468884,0.05639195023691281
1761466870471270700,1.921270751953125,0.11781389399766921,0.017624171799334,0.043537528431415555
1761466870481253600,1.931253662109375,0.12349895389676094,0.014145308716117869,0.004766675545694306
1761466870491237600,1.941237548828125,0.11511866356432437,0.013392678559286286,-0.028567763006337916
1761466870501220400,1.951220458984375,0.11781214043200015,0.017498182215931593,-0.047430037791351784
1761466870511203600,1.96120361328125,0.11257482430040835,0.007894151924952165,-0.027367584303184412
1761466870521187600,1.9711875,0.12933423592150212,-0.003361796591785969,0.008713522608485073
1761466870531170600,1.981170654296875,0.12469547020494937,-0.01750970254872227,0.010812691411399282
1761466870541153800,1.99115380859375,0.12050503277778625,-0.01818941131652682,0.007040616393624804
1761466870551137500,2.001137451171875,0.11392156273424625,-0.01945810352000408,-0.0012019048693589864
1761466870561120500,2.01112060546875,0.12529460514187812,-0.01721765509136603,-0.024610038356506263
1761466870571107000,2.021107177734375,0.11287409950792789,-0.006443957683217013,-0.014287605546927078
1761466870581090300,2.03109033203125,0.12694061878323554,-0.0015965370599995367,-0.008761741097806952
1761466870591074300,2.04107421875,0.14085691593289373,-0.00036418453673832114,0.03133272507449146
1761466870601057000,2.05105712890625,0.11960837619900702,0.002398333270935109,0.04782090940561611
1761466870611040000,2.0610400390625,0.11242577121853828,0.0049116974814853165,0.043230028818245045
1761466870621024300,2.071024169921875,0.1032967083454132,0.01183995438319398,0.018688493687263687
1761466870631007200,2.08100732421875,0.12140285840034484,0.026637457097461445,-0.00889589800464455
1761466870640990200,2.090990234375,0.13487082726061345,0.02738633010284975,-0.021205718938889912
1761466870650974000,2.100973876953125,0.14474690910875795,0.01672224310710444,-0.01111378868324682
1761466870660957200,2.110957275390625,0.09701192898750305,0.007838323234621202,0.010766934307222253
1761466870670940200,2.120940185546875,0.1202063420921564,0.0007230250364344101,0.006956573105673305
1761466870680924200,2.130924072265625,0.14040858764350414,-0.0023280228224582967,-0.020275452351453713
1761466870690907100,2.1409072265625,0.10793839667141437,-0.010029904719965997,-0.02754625620518345
1761466870700890000,2.15089013671875,0.12918693640530107,-0.01187100710858358,-0.031463831507717255
1761466870710873000,2.160873046875,0.13472294322252273,-0.025620315944170576,-0.00722771819725167
1761466870720857000,2.170857177734375,0.11197861197292804,-0.026082700158376246,0.013727496579289436
1761466870730840300,2.18084033203125,0.14849018729031085,-0.019899643592291977,0.022641866388963535
1761466870740823000,2.190822998046875,0.10284954909980297,-0.025399435168527995,0.05203362259666901
1761466870750807000,2.20080712890625,0.13771569529771804,-0.015956359601410803,0.04460639977194369
1761466870760790000,2.2107900390625,0.14714286433458326,-0.005549610650888644,0.038641235156683246
1761466870770773200,2.220773193359375,0.12963409565091133,-0.0015781839859788304,0.028231694885808973
1761466870780757200,2.23075732421875,0.11107786374092102,0.01018811493089306,0.009800952519010753
1761466870790740200,2.240740234375,0.13023089250028133,0.02866217470796546,-0.002086624415172264
1761466870800723200,2.25072314453125,0.11317220567166805,0.029016995478025637,-0.011102527503715827
1761466870810707200,2.260707275390625,0.13935878632962703,0.03583187225779984,-0.02576211273476947
1761466870820690200,2.270690185546875,0.11646423295438289,0.029304762910841962,-0.019395696675125508
1761466870830673200,2.280673095703125,0.12439561047554015,0.03489931781515479,-0.012300514249783009
1761466870840657200,2.2906572265625,0.1264899524062872,0.017489351597148924,-0.011516387267922982
1761466870850640100,2.30064013671875,0.11661387055814265,0.015675811927247558,-0.016919173326645977
1761466870860623000,2.310623046875,0.11855915940701961,0.005543719766219146,-0.0050947064902400595
1761466870870606000,2.320606201171875,0.12664075905382632,0.0018069078580709172,0.007228512781695462
1761466870880590000,2.330590087890625,0.1380132169395685,-0.00816483008400537,0.007469354066555388
1761466870890573300,2.3405732421875,0.11017945359647273,-0.0256257387546706,0.029566172059695233
1761466870900556000,2.35055615234375,0.12005436640083789,-0.022448720720328854,0.04041202138860244
1761466870910540000,2.3605400390625,0.13022972345650197,-0.026768495032028293,0.01826430432528723
1761466870920523300,2.370523193359375,0.12633973028063775,-0.022515123320312705,-0.008119730566954239
1761466870930506200,2.38050634765625,0.10060089339017868,-0.015266212779626948,-0.010577028625155799
1761466870940490200,2.390490234375,0.11287176142036914,-0.009208024702226975,-0.014123395995120518
1761466870950473000,2.400472900390625,0.13337211313545702,-0.0014027634869911707,-0.008104797859303653
1761466870960456200,2.410456298828125,0.11960603811144828,0.0006403049142449163,0.01242268845788203
1761466870970439200,2.420439208984375,0.12065291681587695,0.010769681103446055,0.01875489628724754
1761466870980423200,2.430423095703125,0.10583879404366016,0.01319513185181422,0.01341589617973659
1761466870990406100,2.44040625,0.12574117986559868,0.013467585267778486,0.006887078932882286
1761466871000389000,2.45038916015625,0.1375613815188408,0.014137570650945416,0.001042668320192024
1761466871010373000,2.460373046875,0.08758183734118938,0.012104886646405792,0.01285077311026398
1761466871020356000,2.470356201171875,0.14983108050525187,0.014702915199415292,-0.006914186135516502
1761466871030339300,2.48033935546875,0.11301906093657016,0.005810496926645282,-0.0056532673881854855
1761466871040323300,2.4903232421875,0.11316928306221961,-0.010831151799985672,-0.00808782845819369
1761466871050306000,2.50030615234375,0.1314256552428007,-0.005424755861936137,-0.013787565336609258
1761466871060289000,2.5102890625,0.09820552268624305,-0.006656870923179667,0.002974682128964923
1761466871070273300,2.520273193359375,0.12992986372709273,-0.00921365871692542,0.005782679621246643
1761466871080256300,2.53025634765625,0.1366629713743925,-0.016418228934030048,0.011811790017923339
1761466871090239000,2.540239013671875,0.11945464694201946,-0.015301534113113302,0.005509456737013534
1761466871100222200,2.55022216796875,0.1266378364443779,-0.009553711176116485,-0.009496046721725724
1761466871110206200,2.560206298828125,0.13157646189033984,-0.0059304506365500855,-0.011881457720650359
1761466871120189200,2.570189208984375,0.11736030501127243,-0.01513751179097453,0.003239036720152944
1761466871130172200,2.580172119140625,0.09640987144112587,-0.018693371933425077,0.012424209128110668
1761466871140156000,2.590156005859375,0.1369634156256914,0.0003278893806505948,0.015809184524440207
1761466871150139100,2.60013916015625,0.14803776734769344,0.003725282442203024,0.02483222060666885
1761466871160122000,2.6101220703125,0.11915712530016899,-0.0015361223844520282,0.03902956775398925
1761466871170106000,2.620106201171875,0.11107494113147258,0.0027818013218115084,0.019547507969662547
1761466871180089300,2.63008935546875,0.12319558703601359,0.00717265669190092,-0.008164496723865159
1761466871190072000,2.640072021484375,0.15297347018420696,0.006742748833546647,-0.019075027053127996
1761466871200056000,2.65005615234375,0.11346855826973914,0.012939678661356447,-0.00860792507585138
1761466871210039000,2.6600390625,0.11870528987944125,0.01119006878985092,0.00671689629801549
1761466871220022300,2.670022216796875,0.14204934058785437,0.012152936172368935,0.013404744598059914
1761466871230005200,2.680005126953125,0.11870528987944125,0.006310961828648578,0.016182196255028248
1761466871239989000,2.689989013671875,0.10463993964791297,0.006329382259683916,0.001593274240544997
1761466871249972200,2.69997216796875,0.12409341265857218,0.010810088462359271,-0.007857869326951913
1761466871259955200,2.709955078125,0.11541326259672641,0.005009257838135817,0.0010259866134496405
1761466871269939200,2.719939208984375,0.11361702682971954,0.0107212114523747,0.015425952793937176
1761466871279922200,2.729922119140625,0.10748188507556915,-0.005292172140965704,0.023745215387828648
1761466871289905200,2.7399052734375,0.16150106003284453,-0.0090950989547302,0.034931557850632816
1761466871299889200,2.74988916015625,0.11451368340849875,-0.00194205685381894,0.028524412488378583
1761466871309872000,2.7598720703125,0.10792904432117939,-0.0008262194077833555,0.0020254140135366468
1761466871319855000,2.769855224609375,0.11720657575428485,-0.0023336419957806355,-0.02281196225886233
1761466871329838000,2.779838134765625,0.11825345445871352,-0.004482289663341361,-0.05059839759520255
1761466871339822000,2.789822021484375,0.10673194349110125,-0.0002913932951632887,-0.04994744570606854
1761466871349805000,2.79980517578125,0.11765490404367446,0.012230686716851777,-0.03184445115602575
1761466871359788300,2.809788330078125,0.11316460688710211,0.01182442002898897,0.019131383183132854
1761466871369772300,2.819772216796875,0.11630816560983658,0.011506273440929362,0.027238436931604517
1761466871379755300,2.82975537109375,0.13621113595366477,0.020735137718496843,0.021182625757670027
1761466871389738000,2.839738037109375,0.1130173073709011,0.010326147720182779,0.023463316006795503
1761466871399722000,2.849721923828125,0.10793021336495875,-0.0011134890836779958,0.012510321075562388
1761466871409705200,2.859705322265625,0.13232172729969024,-0.003571118218731135,0.0033209291502134873
1761466871419688200,2.869688232421875,0.12049977208077907,-0.002380864971259143,-0.008096390790562145
1761466871429672200,2.879672119140625,0.09640753335356712,-0.0031225958498078397,0.0033998213390121234
1761466871439655200,2.8896552734375,0.1234919396340847,-0.006107098403177223,0.01631637599475216
1761466871449638100,2.89963818359375,0.14099953927397726,-0.020038476674247067,0.02175712401026394
1761466871459621000,2.90962109375,0.11092238091826438,-0.02311474459771998,0.03486621926315129
1761466871469605000,2.919605224609375,0.11765548856556415,-0.017712957477773305,0.023510347186028957
1761466871479588000,2.929588134765625,0.1288777243256569,-0.024678678579349068,0.0020405156845459712
1761466871489571000,2.939571044921875,0.12723112616240978,-0.01381905188683886,-0.012646121950214728
1761466871499555000,2.94955517578125,0.11989888357818126,-0.00022437649053754283,-0.023472864719852805
1761466871509538000,2.9595380859375,0.11511048025786876,0.022189044587546957,-0.02460731667645741
1761466871519521300,2.969521240234375,0.12797931418120861,0.022765835261926985,-0.015429857217497192
1761466871529505300,2.97950537109375,0.11286416263580322,0.03437654974979814,-0.0025189925170270725
1761466871539488000,2.989488037109375,0.10687982752919196,0.039732583190500735,0.0041453790093073616
1761466871549471200,2.99947119140625,0.14204583345651625,0.03497099937845487,0.012966184217436238
1761466871559454200,3.0094541015625,0.12034721186757087,0.03467662639162736,0.013937107042246497
1761466871569435600,3.019435546875,0.11795301020741462,0.0221322911653202,0.025225261345133185
1761466871579418400,3.02941845703125,0.13351473647654055,0.022035557359154335,0.015188796736928634
1761466871589401600,3.039401611328125,0.11615560539662838,0.004466582920844666,0.011820968838222324
1761466871599385600,3.049385498046875,0.11151683968007564,-0.008687559333455283,0.014617878680909052
1761466871609368600,3.05936865234375,0.12483458641469478,-0.011468236135615734,-0.003980552969570271
1761466871619351600,3.0693515625,0.13441197757720946,-0.026785405067633834,-0.03231323314497713
1761466871629335600,3.07933544921875,0.1263315469741821,-0.01951713794757379,-0.03950573389837518
1761466871639318500,3.089318603515625,0.10657996779978275,-0.028062311401963233,-0.03365531823658384
1761466871649301500,3.099301513671875,0.12857728007435798,-0.03730546792472014,-0.018492181097296997
1761466871659285500,3.109285400390625,0.11271569407582283,-0.03836541845656465,0.008738451553764752
1761466871669268700,3.119268798828125,0.11705518458485603,-0.055248465590481646,0.026769833039166403
1761466871679251500,3.12925146484375,0.11989888357818126,-0.03814917732342146,0.04029840951287188
1761466871689235500,3.1392353515625,0.12483633998036384,-0.015623500643053557,0.04634398698715959
1761466871699218400,3.149218505859375,0.10119301406443118,-0.010889852867415175,0.04861998279485851
1761466871709201700,3.15920166015625,0.11406009442210197,-0.0027542625776259227,0.04990235075559467
1761466871719184600,3.1691845703125,0.13411153332591055,0.005221806893561734,0.03801094702966511
1761466871729168400,3.17916845703125,0.13037000871002674,0.01073665904161171,0.01257234432795085
1761466871739151400,3.1891513671875,0.10178981091380118,0.024123585996835027,-0.00012863134834915397
1761466871749134600,3.199134521484375,0.14024667508006095,0.04606098249442875,-0.018722345724515616
1761466871759118600,3.20911865234375,0.11241349625885486,0.051307180618797424,-0.02909139872137457
1761466871769101600,3.2191015625,0.11031798528432846,0.057682190976850685,-0.04070994488925207
1761466871779084500,3.22908447265625,0.12932254548370836,0.054503789269598195,-0.029595941576873883
1761466871789068500,3.239068603515625,0.12318915729522704,0.04257870703635271,-0.004451951607293449
1761466871799051500,3.249051513671875,0.13620821334421634,0.035197250448958946,-0.00488658016489353
1761466871809034500,3.259034423828125,0.10717793369293212,0.006096275615063496,-0.00040574952298775316
1761466871819017500,3.269017578125,0.1128647471576929,-0.0076876090602716425,0.02040677798038814
1761466871829001500,3.27900146484375,0.11989771453440189,-0.020007035789790097,0.03845417901882901
1761466871838984400,3.288984375,0.1103203233718872,-0.0409010698474478,0.04954816245648544
1761466871848967700,3.2989677734375,0.12094459323883056,-0.041943587470590134,0.013473763846815564
1761466871858951700,3.30895166015625,0.11959843932688236,-0.03177312121917494,-0.002243079918785952
1761466871868934700,3.3189345703125,0.12468611785471438,-0.03736868077048566,-0.00919752956603188
1761466871878917400,3.32891748046875,0.12408639839589596,-0.017273379892064258,-0.025307153775193728
1761466871888901400,3.3389013671875,0.08892214603424071,-0.003166726110834861,-0.025634189205896107
1761466871898884600,3.348884521484375,0.12199205646514892,0.008219650702405488,-0.028148701910628005
1761466871908867600,3.35886767578125,0.11436112319529056,0.0038449553076061417,-0.02074608837077394
1761466871918850300,3.368850341796875,0.13965163179636,0.013204226190433837,-0.01430783548420295
1761466871928834600,3.37883447265625,0.12274375161528586,0.011206469652091619,0.011812118811486288
1761466871938817500,3.388817626953125,0.12229483880400657,0.002699034392205067,0.0271806742958026
1761466871948800500,3.398800537109375,0.11211831270456313,0.0036154459842247886,0.03892940444829873
1761466871958784500,3.408784423828125,0.11900105795562267,0.0033730714710487517,0.04400618712278083
1761466871968767700,3.418767822265625,0.14443886607289314,0.0010767601027502677,0.058187231589271686
1761466871978750500,3.42875048828125,0.12289105113148689,0.00792593073612661,0.05652126657185144
1761466871988734500,3.438734375,0.11944880172312258,0.00769127944674692,0.05244191113661509
1761466871998717400,3.448717529296875,0.12288871304392814,0.024715649588871746,0.03591955967440735
1761466872008700700,3.45870068359375,0.12019406713247298,0.024575209071720016,0.017482935556094162
1761466872018684700,3.4686845703125,0.11839783136546611,0.020681774979887994,0.0041559734685579315
1761466872028667400,3.47866748046875,0.11136369494497775,0.020121818992588667,-0.01804861574799288
1761466872038650600,3.488650634765625,0.11645137347280979,0.020403832538053394,-0.031011201502545736
1761466872048633600,3.498633544921875,0.11854746896922588,0.012111613214714451,-0.044209354145219544
1761466872058617600,3.50861767578125,0.10508066915273666,0.019267353021143935,-0.05017852364873979
1761466872068600300,3.518600341796875,0.12288754400014877,0.006843489811260951,-0.036456347131961955
1761466872078583600,3.52858349609375,0.11615502087473868,0.0057847048982628615,-0.009097352560609579
1761466872088567600,3.538567626953125,0.1195966857612133,0.0011463730065501294,0.006796683535957708
1761466872098550500,3.548550537109375,0.12154255913197994,-0.009856425016315187,0.021129228769731705
1761466872108533500,3.558533447265625,0.12588204964101313,-0.01648952690484002,0.01604007523744367
1761466872118517800,3.568517822265625,0.12318915729522704,-0.022892923107161185,0.005243581475596875
1761466872128500500,3.57850048828125,0.12094517776072025,-0.038159114195546136,0.014476200621319003
1761466872138483500,3.5884833984375,0.13605974478423594,-0.04581907263048924,0.03286837367655244
1761466872148466700,3.598466796875,0.12199322550892829,-0.04398231305684894,0.050940813258127306
1761466872158450700,3.60845068359375,0.12064531803131102,-0.04223838286581449,0.03805393222144339
1761466872168433400,3.618433349609375,0.11301263119578361,-0.03682608006007503,0.020643235351075418
1761466872178416400,3.62841650390625,0.11076806713938712,-0.01925395925003104,0.0008368755158269778
1761466872188400400,3.638400390625,0.13470949921905995,0.0014332122825377153,0.008229547616979107
1761466872198383600,3.648383544921875,0.10912088445425033,0.0051164593810332,0.020833255197573453
1761466872208366600,3.65836669921875,0.12019465165436267,0.013829694295150692,0.022942639433825386
1761466872218350300,3.668350341796875,0.12154022104442119,0.03245606883190339,0.009086137046851217
1761466872228333600,3.67833349609375,0.10073942507803439,0.027141716825170442,-0.002420290516060777
1761466872238316500,3.688316650390625,0.12004209144115448,0.035110480914381334,-0.01503561090263538
1761466872248300500,3.698300537109375,0.11854513088166713,0.02454786669035675,-0.020770259264227934
1761466872258283500,3.708283447265625,0.11300795502066611,0.007924472856335341,-0.026441350003471597
1761466872268266500,3.7182666015625,0.13246201255321502,0.012023768251191358,-0.01624529721965082
1761466872278249500,3.72824951171875,0.12767360923290252,-0.005437211201421451,0.0053301637805067
1761466872288233500,3.7382333984375,0.09161036220490931,-0.01920474981344305,0.024559568544593638
1761466872298216700,3.748216796875,0.11704933936595915,-0.02356705037590582,0.004255803414108231
1761466872308199400,3.758199462890625,0.12602701106965541,-0.01834550035231514,-0.009324023756221867
1761466872318183400,3.768183349609375,0.10717208847403525,-0.01072671874455409,0.003529420801741071
1761466872328166400,3.77816650390625,0.11974340075552463,-0.0024239791688451078,-0.008196225302689708
1761466872338149600,3.788149658203125,0.13381108907461164,-0.0008391268384177237,-0.003545243991957977
1761466872348133600,3.798133544921875,0.125281745660305,-0.0030556749433046206,0.04671511272133794
1761466872358116600,3.80811669921875,0.12363514749705791,-0.002125860447017476,0.06442218502266332
1761466872368099300,3.818099365234375,0.12123977679312228,0.00024689542466658164,0.0564829392888816
1761466872378082600,3.82808251953125,0.12138882987499236,0.01515822007721872,0.030985642369603737
1761466872388066600,3.838066650390625,0.12138824535310268,0.021163242920476475,-0.02490187460966408
1761466872398049500,3.848049560546875,0.1351554894208908,0.014035854708985425,-0.03179433297056239
1761466872408032500,3.858032470703125,0.10163608165681362,-0.007651933817047392,-0.0015974024263909086
1761466872418016500,3.8680166015625,0.11764788978099823,0.007486955938616301,0.007525253538833931
1761466872427999500,3.87799951171875,0.1285714348554611,-0.00008589731832034885,0.007621978211845271
1761466872437982500,3.887982421875,0.11241057364940643,0.004587124577572104,-0.004544009238341823
1761466872447966500,3.897966552734375,0.1276747782766819,-0.0030868361249042206,-0.021616468863980845
1761466872457949700,3.90794970703125,0.11705050840973853,0.0007096084324351977,-0.015790475257392973
1761466872467932400,3.917932373046875,0.10448153421580791,0.0014977985264151357,-0.0017911805659765376
1761466872477915600,3.92791552734375,0.13366262051463126,-0.005612583751347847,-0.00805430521450471
1761466872487899600,3.937899658203125,0.10867255616486073,-0.006593372666335199,0.004635660444013774
1761466872497882600,3.947882568359375,0.11166413919627666,-0.009153959852363914,0.021226140672410836
1761466872507865300,3.957865234375,0.12348609441518783,-0.007573526827082969,0.022502562949550338
1761466872517849300,3.967849365234375,0.12902327027618885,-0.010671819352696184,0.022857943125325252
1761466872527832600,3.97783251953125,0.10852233403921127,-0.011260955768707207,0.022305085882381535
1761466872537815600,3.987815673828125,0.12333645681142806,-0.01168306505474029,0.015580252873082644
1761466872547799600,3.997799560546875,0.12348492537140845,-0.0011506381897139362,0.008623067846056074
1761466872557781500,4.007781494140625,0.11301087763011455,0.01060309693146264,-0.0056250687735853715
1761466872567764200,4.01776416015625,0.12139116796255112,0.011471488680271431,0.008317111736000514
1761466872577748200,4.027748291015625,0.11271160242259502,0.013932138606184162,0.012103900265716947
1761466872587731500,4.0377314453125,0.11375906564891337,0.016575500713329527,0.01771327371324878
1761466872597714200,4.047714111328125,0.12812369108796118,0.014925916008552302,0.005218424201454036
1761466872607698200,4.0576982421875,0.12737608759105204,0.004598561570327729,-0.0035407504799310117
1761466872617681200,4.06768115234375,0.1306681148737669,0.0059957241503056135,-0.015084386514383367
1761466872627664400,4.077664306640625,0.09879355170726775,0.009182913093856769,-0.007088798350328579
1761466872637647400,4.0876474609375,0.12902151671051978,0.006643414361629402,-0.007120933354529552
1761466872647631000,4.097631103515625,0.13575520887970924,0.0009970607714203652,-0.01395321336025372
1761466872657614300,4.1076142578125,0.10567746600210666,0.006783741855993866,-0.00647305933847092
1761466872667597300,4.117597412109375,0.11091536665558814,0.009962963263865095,-0.0007428999223280698
1761466872677581300,4.127581298828125,0.15476035360097884,0.02283342288871063,0.004076515024178661
1761466872687564300,4.137564208984375,0.10373334619700908,0.03614283333653584,0.011281678896327502
1761466872697547300,4.14754736328125,0.10582768812775611,0.022203392773307858,0.026785473566292784
1761466872707531300,4.15753125,0.12692717477977275,0.02863700373409083,0.024736843073950146
1761466872717514200,4.16751416015625,0.12543079874217508,0.018575199188652913,0.01621564186690375
1761466872727497200,4.177497314453125,0.10597732573151587,0.011550131990609225,0.012135601445077918
1761466872737480200,4.187480224609375,0.13650339689850807,0.008643574061256367,0.007764788782596587
1761466872747464200,4.197464111328125,0.11301087763011455,0.008176792233146261,-0.014320064778113737
1761466872757447200,4.207447265625,0.13306290105581284,0.0019845888128038496,0.007338311565411277
1761466872767430400,4.217430419921875,0.12752689423859118,-0.015786568550544323,0.0521505543740699
1761466872777414400,4.227414306640625,0.12947101404368877,-0.024816783292230683,0.0733471218921244
1761466872787397400,4.2373974609375,0.09864508314728736,-0.016630589618143857,0.03600573555394076
1761466872797380000,4.247380126953125,0.13096680555939674,-0.003491004470514599,-0.030587468798295592
1761466872807364400,4.2573642578125,0.1267763681322336,-0.0026544623148278333,-0.09739100969927385
1761466872817347300,4.267347412109375,0.11390928777456283,-0.010150779736833647,-0.07989415064910427
1761466872827330300,4.277330322265625,0.10149053570628165,-0.015579892113478853,-0.0004582879944005981
1761466872837313300,4.287313232421875,0.10912146897614002,-0.016149445904541062,0.06286800981664564
1761466872847297300,4.29729736328125,0.12483283284902572,-0.016955095165042438,0.055430777054559434
1761466872857280300,4.3072802734375,0.12273732187449932,0.007179180047521367,-0.004050910225464031
1761466872867263200,4.31726318359375,0.10732523320913315,0.015533597294829086,-0.048473263233969915
1761466872877247200,4.327247314453125,0.14114566974639892,0.009355090181343256,-0.024592667096597142
1761466872887230200,4.337230224609375,0.12513503066599369,0.006586278488556854,0.01641633837104309
1761466872897213200,4.347213134765625,0.12079612467885016,-0.004496028211037628,0.056945300670200955
1761466872907197200,4.357197265625,0.1351601655960083,0.0008451033464109059,0.0756524762250483
1761466872917180400,4.367180419921875,0.11241408078074455,0.004165038124425337,0.04604150147582404
1761466872927163400,4.377163330078125,0.1175005902647972,-0.003259593167703133,0.015629517108597793
1761466872937147400,4.3871474609375,0.12872341054677963,0.016529397690924815,-0.019864474097499623
1761466872947130000,4.397130126953125,0.12453238859772682,0.0058645252438902385,-0.05257075711409561
1761466872957113300,4.40711328125,0.1293219609618187,0.003115248226991389,-0.04850638005228247
1761466872967096300,4.417096435546875,0.12498305497467517,0.009182949626474873,-0.022847764224605632
1761466872977080300,4.427080322265625,0.11106734234690666,-0.011713084592024097,0.0038024518897291273
1761466872987063300,4.437063232421875,0.13500994347035883,-0.006216176809329772,0.030330005172197704
1761466872997046300,4.44704638671875,0.12408639839589596,-0.016908802629681304,0.04177065118963364
1761466873007030300,4.4570302734375,0.105980832862854,-0.01863094339730451,0.035259785158000885
1761466873017013200,4.46701318359375,0.13905074329376219,0.00037910925287869756,0.02130732984957285
1761466873026996500,4.47699658203125,0.12423545147776603,0.0014920754634600597,0.015758353952923788
1761466873036980500,4.48698046875,0.11271277146637439,0.0015770754493481943,0.0031311193662695584
1761466873046963200,4.496963134765625,0.13261340372264385,0.007989051108702551,0.0007963334428844973
1761466873056946200,4.5069462890625,0.12303659708201885,0.010254429624264594,-0.020403974101948552
1761466873066929400,4.516929443359375,0.12992109589874742,0.008987091410945867,-0.0422578638844192
1761466873076913400,4.526913330078125,0.11600538327097892,0.018428479627764317,-0.04473315425703767
1761466873086896000,4.536896240234375,0.10418459709584713,0.023062393355974927,-0.018979010199592448
1761466873096879400,4.54687939453125,0.11361351969838142,0.01902084918047767,-0.003787414150801487
1761466873106863400,4.55686328125,0.1405494574189186,-0.0006692866968456655,0.014437909870967268
1761466873116846300,4.566846435546875,0.12693185095489024,-0.023412873594346455,0.04049467187048867
1761466873126829300,4.576829345703125,0.10987374864816665,-0.02820197331769159,0.041455009369202885
1761466873136813000,4.58681298828125,0.1239402679234743,-0.023430354452109895,0.028640298519586212
1761466873146798300,4.59679833984375,0.10927578275501727,-0.03518674275467638,0.0157949733359972
1761466873156781300,4.60678125,0.11690730054676532,-0.03298615483732428,0.015398192570754326
1761466873166764300,4.616764404296875,0.12274316709339618,-0.0382158539180411,0.02563116156517062
1761466873176748300,4.626748291015625,0.12139642865955828,-0.03245584963619476,0.02829726180215366
1761466873186731300,4.636731201171875,0.13037526940703392,-0.021958473534951915,0.0036748069220688194
1761466873196714200,4.64671435546875,0.10703121869862078,-0.00684575940016075,-0.005168968169693835
1761466873206697200,4.656697265625,0.10284195031523703,0.012907553931954316,-0.010265866617020218
1761466873216681200,4.66668115234375,0.13830781597197056,0.034554742161184544,-0.019867698101047427
1761466873226664200,4.676664306640625,0.1263368076711893,0.030965138437692073,-0.0043920472467551
1761466873236647400,4.6866474609375,0.10748246959745883,0.021987096841237508,0.01700973768692929
1761466873246631400,4.69663134765625,0.1327718091547489,0.031961332701076754,0.021548746523167937
1761466873256614100,4.7066142578125,0.10867840138375759,0.03197923140065977,0.0291591804276919
1761466873266597400,4.716597412109375,0.10104629907011985,0.02061562125836499,0.012190820497344247
1761466873276581400,4.726581298828125,0.13501403512358665,0.026147586654708718,-0.0007764322991715744
1761466873286564400,4.736564453125,0.10718085630238056,0.002833596582774771,0.01192171209922526
1761466873296547000,4.746547119140625,0.11331599805653095,-0.0066337560507177835,0.0030819464622996746
1761466873306531000,4.756531005859375,0.11361527326405048,0.0008473535273573361,-0.011859816711000165
1761466873316514300,4.766514404296875,0.12768179253935813,-0.013588201131386448,-0.006528675682959146
1761466873326497300,4.776497314453125,0.10912731419503688,-0.025734003168425987,-0.005311755907558836
1761466873336480300,4.786480224609375,0.12483984711170196,-0.009057630188285839,-0.011852829847787506
1761466873346464300,4.79646435546875,0.10703238774240016,-0.011396645903860917,-0.007764948612800799
1761466873356447200,4.806447265625,0.1161626196593046,-0.0027113002187339587,-0.013074576495354994
1761466873366430200,4.81643017578125,0.14010638982653617,-0.0030579879146884195,-0.013740662021539174
1761466873376414200,4.826414306640625,0.11152443846464156,-0.0036463548624305984,0.009030255840881726
1761466873386397400,4.8363974609375,0.12110182962715625,-0.001013236729730852,0.02731879042512737
1761466873396380200,4.846380126953125,0.14639058466255664,0.009887664971372577,0.017910362621350213
1761466873406363100,4.856363037109375,0.10254559771716594,0.0015591356505698058,0.02599204903312493
1761466873416347400,4.866347412109375,0.12110066058337687,-0.002451890089077642,0.00837518489905633
1761466873426330400,4.876330322265625,0.13187456805408,0.0016063928753777873,0.006277504800329916
1761466873436313300,4.886313232421875,0.11840601467192172,-0.004658678276708815,0.003918831111281179
1761466873446297000,4.896297119140625,0.11122282516956329,0.009375608954631024,0.003026800475269556
1761466873456280300,4.9062802734375,0.11990239070951939,0.00393343160043587,0.008599613905232398
1761466873466263300,4.91626318359375,0.1350157886892557,0.006262760463991435,0.0020984381505521014
1761466873476247300,4.926247314453125,0.10164601852893829,0.008890065343835157,0.007758327075769193
1761466873486230300,4.936230224609375,0.11840601467192172,0.0013676316664612386,0.0025454192996490744
1761466873496213200,4.946213134765625,0.13082710482776164,-0.005020564683439443,0.008929891605791634
1761466873506196200,4.9561962890625,0.11346855826973914,-0.002725068449182436,0.02138957390608266
1761466873516180200,4.96618017578125,0.12364391532540321,-0.010476972634030971,0.01905180144116748
1761466873526163500,4.97616357421875,0.12648761431872843,0.00714632694904576,0.012143154563871212
1761466873536146200,4.986146240234375,0.12409341265857218,-0.006232720377109945,0.0012212397574912757
1761466873546130200,4.996130126953125,0.122297761413455,-0.002653975974349305,-0.002923796758521348
1761466873556113200,5.006113037109375,0.12439268786609171,-0.000056848178704967716,-0.005655011820700019
1761466873566095000,5.01609521484375,0.13756021247506142,0.0020855615443142596,-0.009577815854200162
1761466873576079000,5.0260791015625,0.11795710186064243,0.00563395875787246,0.006376955719967372
1761466873586062000,5.03606201171875,0.11257014812529087,0.00402897809651331,0.0036905844465130937
1761466873596045300,5.04604541015625,0.12573825725615023,0.0016424517110921442,-0.008590119991102256
1761466873606028000,5.056028076171875,0.10882979255318641,-0.00015726721272221766,-0.014481872310279868
1761466873616012000,5.066011962890625,0.10479016177356243,-0.004549386383069213,-0.01410389214362949
1761466873625995300,5.075995361328125,0.11676117007434367,-0.02001771016414277,-0.0023910050560720262
1761466873635978200,5.085978271484375,0.1175093580931425,-0.0067428241820714895,0.001065236345026642
1761466873645962200,5.095962158203125,0.1122720419615507,-0.005677088938478846,0.004555224752100184
1761466873655945000,5.105945068359375,0.12603870150744914,-0.0052512145094922745,0.0051609675263287495
1761466873665928200,5.11592822265625,0.12469137855172156,0.011731355467654065,0.014035425450722686
1761466873675912200,5.125912109375,0.12379413745105265,0.011507495000347262,0.023408421181514857
1761466873685895200,5.135895263671875,0.12977847255766392,0.008333506890019634,0.03030493922960013
1761466873695878100,5.145878173828125,0.11212065079212188,0.0031578247101046145,0.029004820983042006
1761466873705861000,5.155861083984375,0.12064940968453883,0.00867409363875049,0.028984801108320243
1761466873715845000,5.16584521484375,0.12079846276640892,0.02235350073452573,-0.0014821283165365458
1761466873725828000,5.175828125,0.12603519437611102,0.015216988501662853,-0.0193327738070162
1761466873735811300,5.185811279296875,0.11900222699940204,0.009577622916310792,-0.03460781492213719
1761466873745795300,5.19579541015625,0.1157101997166872,0.010492191894404822,-0.04100498687964864
1761466873755778000,5.205778076171875,0.11286825428903102,-0.0033441513372410555,-0.04123363083663862
1761466873765761000,5.215760986328125,0.11541326259672641,-0.004860387419356266,-0.025841237819008527
1761466873775745300,5.225745361328125,0.11870470535755157,-0.00888779803822399,0.003009671243955381
1761466873785728300,5.235728271484375,0.10389058258533478,-0.01108093101819395,0.016421589934895744
1761466873795711000,5.2457109375,0.13486615108549593,-0.008801062752975848,0.014275810077856294
1761466873805694200,5.255694091796875,0.12783318370878696,-0.014658767813723533,0.016012178016942925
1761466873815678200,5.26567822265625,0.09999942036569118,-0.01820973943521385,0.008614532913151196
1761466873825661200,5.2756611328125,0.11466449005603789,-0.0072718518832116386,0.020470965790399347
1761466873835644200,5.28564404296875,0.12738310185372828,-0.006444055864628171,0.01443949447327759
1761466873845628200,5.295628173828125,0.11660919438302517,0.001026293715770589,0.03406302225464024
1761466873855611100,5.305611083984375,0.1161591125279665,0.005366006845445372,0.03819838676000945
1761466873865594000,5.315593994140625,0.13037351584136486,0.010213396644266322,0.02692202792619355
1761466873875577000,5.3255771484375,0.12423778956532477,0.011805832917883527,0.004151196828740648
1761466873885561300,5.335561279296875,0.132167413520813,0.022033890558453277,-0.013367326063965446
1761466873895544000,5.3455439453125,0.11256488742828369,0.021147152585489673,-0.012246678870427422
1761466873905527000,5.355527099609375,0.13007248706817626,0.01867045684871846,-0.01730159220639616
1761466873915511000,5.365510986328125,0.12453531120717524,0.0067500724818324665,-0.02059709008783102
1761466873925494300,5.375494384765625,0.09251344852447509,0.004105434016342042,-0.014362269085180013
1761466873935477200,5.385477294921875,0.1345627842247486,0.006170170826691901,-0.015316373205929993
1761466873945461000,5.3954609375,0.12768003897368907,-0.006237374860985437,-0.012095534296170808
1761466873955444200,5.4054443359375,0.10703004965484142,0.002456232904054923,0.0036486450009280812
1761466873965427200,5.41542724609375,0.11855331418812275,0.0011021559805551077,0.021109944113949314
1761466873975410200,5.42541015625,0.13501461964547634,-0.016955011825007384,0.03583426971086301
1761466873985394200,5.435394287109375,0.12319149538278579,-0.0234064004710759,0.04470078635739628
1761466873995377200,5.445377197265625,0.10658055232167243,-0.04314104906027205,0.03758578955330886
1761466874005360000,5.455360107421875,0.13531155676543713,-0.041402269968390464,0.015889387320913374
1761466874015344000,5.46534423828125,0.10059446364939212,-0.034080409497569776,0.004881972488434985
1761466874025327000,5.4753271484375,0.12124562201201915,-0.029619893274619242,-0.002728982005896978
1761466874035310300,5.485310302734375,0.12962532782256603,-0.02653389854157576,-0.0005039583336096257
1761466874045294000,5.495294189453125,0.11615735896229744,-0.01233621346753789,0.012837164710019715
1761466874055277000,5.505277099609375,0.12962474330067633,-0.009091664888628292,0.016320810141274705
1761466874065260300,5.51526025390625,0.12423720504343509,-0.0013503003641031682,0.01789063044099603
1761466874075243300,5.5252431640625,0.11645312703847885,0.00788768793483614,0.0084196222624043
1761466874085227300,5.535227294921875,0.13051906179189682,0.02030369663182646,-0.006479306416166946
1761466874095210000,5.5452099609375,0.13889876760244368,0.02076118090862874,-0.02786540515695233
1761466874105193200,5.555193115234375,0.1031353803038597,0.021694392938399688,-0.023069361952878533
1761466874115177200,5.56517724609375,0.12273849091827868,0.024840479261649305,-0.023613364602508954
1761466874125160200,5.57516015625,0.11899755082428455,0.0026856200714944862,-0.00718443161137402
1761466874135143200,5.58514306640625,0.13081892152130603,0.007147386394970817,0.009633528096810914
1761466874145126100,5.595126220703125,0.13351239838898182,0.003087022212927695,0.010595733325625769
1761466874155110100,5.605110107421875,0.1225894378364086,0.006914722708344925,0.007123823997937142
1761466874165093000,5.615093017578125,0.10867255616486073,0.0012584847616497427,0.011206882927333935
1761466874175076400,5.625076416015625,0.10972001939117908,-0.00011247708128066732,0.023604729204904286
1761466874185060400,5.635060302734375,0.12468319524526596,-0.002194789505872177,0.0313510872816667
1761466874195043000,5.64504296875,0.11914543486237525,-0.00601336597991758,0.03303251472970005
1761466874205026000,5.655026123046875,0.13231354399323464,-0.006629545666481135,0.025435584194143303
1761466874215010000,5.665010009765625,0.12797288444042204,-0.005905773994664195,0.011411607152619399
1761466874224993300,5.6749931640625,0.11420447132885456,-0.011169837710930733,0.002174234199966304
1761466874234976000,5.68497607421875,0.12587678894400595,-0.011486285532248439,-0.010771085325954482
1761466874244959200,5.694959228515625,0.12722294285595417,-0.013719298431457718,-0.020398658606014215
1761466874254943200,5.704943115234375,0.10507657749950886,-0.011392098734551109,-0.031159816192998548
1761466874264926200,5.71492626953125,0.1321621528238058,-0.0034372889638121704,-0.029803369215899145
1761466874274909200,5.7249091796875,0.1260275955915451,0.0008194494569906965,-0.01761831630563829
1761466874284893000,5.734892822265625,0.11286007098257542,-0.009293701683194376,0.007835803625616245
1761466874294876200,5.744876220703125,0.12498188593089579,-0.004046463520854013,0.023303841995610853
1761466874304859100,5.754859130859375,0.11839783136546611,0.00020728835841873658,0.03258457003280055
1761466874314842000,5.764842041015625,0.11929507246613502,-0.008905310862028273,0.03859465606859885
1761466874324826400,5.774826416015625,0.11435586249828338,0.00019231112663983365,0.038422546338126994
1761466874334809000,5.78480908203125,0.1342570792764425,0.002732726599252783,0.03692935777145903
1761466874344792000,5.7947919921875,0.12662497696280478,-0.0020542850566387643,0.024129511130833996
1761466874354776000,5.804776123046875,0.11689853271842002,0.004411048774747178,0.001901394908223301
1761466874364759300,5.81475927734375,0.1022334630280733,-0.0029445381524506953,-0.02511046215931419
1761466874374742000,5.824741943359375,0.11525193455517291,0.0014635720298276282,-0.049110396660305554
1761466874384726000,5.83472607421875,0.12078911041617393,0.002559923890681239,-0.06393734694805461
1761466874394709000,5.844708984375,0.11645078895092009,0.007114376891223947,-0.04539588334893342
1761466874404692200,5.854692138671875,0.11929507246613502,0.00045380361552815884,-0.018488486736291086
1761466874414675200,5.86467529296875,0.1218400807738304,0.00742431619829731,0.016419274680223316
1761466874424659200,5.8746591796875,0.12303835064768791,0.01231111898383242,0.020004243327793665
1761466874434642200,5.88464208984375,0.11974749240875243,0.0161770679887617,0.04399497617559973
1761466874444625200,5.894625244140625,0.10867372520864009,0.014948218030261341,0.0487769588882802
1761466874454609200,5.904609130859375,0.10837503452301024,0.00794993951608776,0.047397679024864914
1761466874464592100,5.914592041015625,0.13890110569000244,0.004945276665745769,0.04340976929932367
1761466874474575000,5.9245751953125,0.11241349625885486,-0.00368970880532288,0.0392369588603964
1761466874484558000,5.93455810546875,0.1175005902647972,-0.014345907038846053,0.029307813384453766
1761466874494542000,5.9445419921875,0.13321253865957258,-0.029247801709349732,0.009833315852074883
1761466874504525300,5.954525390625,0.11570318545401095,-0.022706529123010112,-0.0028929860617266964
1761466874514508300,5.96450830078125,0.10343231742382049,-0.022575463788979684,-0.015351864644419401
1761466874524492300,5.9744921875,0.13605214599967003,-0.008775965985981748,-0.03116391241280362
1761466874534475000,5.98447509765625,0.10073708699047565,0.0021958946175698654,-0.020388128078845328
1761466874544458200,5.994458251953125,0.12303367447257041,-0.0000649561366357375,-0.006663951401226222
1761466874554442200,6.004442138671875,0.1323106213837862,0.01238671752877999,0.00257679625202436
1761466874564425200,6.01442529296875,0.1204892506867647,0.020469406304263974,0.012536067438172175
1761466874574409000,6.024408935546875,0.1234831718057394,0.03166142958918353,0.005059575811354443
1761466874584392000,6.034391845703125,0.11779869642853737,0.03125648835037136,-0.011044358442537486
1761466874594376000,6.0443759765625,0.12124094583690166,0.03715226610740646,-0.007007330611953511
1761466874604359000,6.05435888671875,0.1218400807738304,0.034103546061273665,0.00424604007191956
1761466874614342000,6.064341796875,0.12139058344066142,0.011775845346640562,0.029651959780161267
1761466874624326000,6.074325927734375,0.12961948260366915,0.013922521394467912,0.04708664944746997
1761466874634308900,6.084308837890625,0.12408230674266814,-0.005590174415073124,0.04452845743121579
1761466874644291800,6.094291748046875,0.1239320846170187,-0.013347806229454,0.026195960407657547
1761466874654274800,6.10427490234375,0.12034195117056369,-0.019859259066265074,0.018756398691167124
1761466874664259000,6.114259033203125,0.13605448408722876,-0.025654572123510296,0.010173142265691422
1761466874674241800,6.12424169921875,0.12542962969839572,-0.018322320406127253,0.00790927528720349
1761466874684224800,6.134224853515625,0.11016600959300994,-0.01191429369446123,0.006272011207882315
1761466874694208800,6.144208740234375,0.120790863981843,-0.019386702801205684,0.002084816050576046
1761466874704192000,6.15419189453125,0.12168927412629127,-0.014714419549185549,0.009007738048397005
1761466874714175000,6.164175048828125,0.11106325069367885,0.0012094168889569118,0.014119336307933553
1761466874724159000,6.174158935546875,0.11450550010204315,0.008905394202063325,-0.004327544342912733
1761466874734142000,6.184141845703125,0.12213760241568088,0.015454400286998134,-0.020798193017346783
1761466874744125000,6.194125,0.11450550010204315,0.02279288309905678,-0.018100537731475196
1761466874754108000,6.20410791015625,0.10388123023509979,0.01328529092836543,-0.025878254494303837
1761466874764092000,6.214091796875,0.14293839838206768,0.010269241317617707,-0.02586562334159389
1761466874774075000,6.224074951171875,0.10657646066844463,0.011678799871576483,-0.01652174410743173
1761466874784057900,6.234057861328125,0.11181436132192611,0.004357358384219696,0.004134770850325003
1761466874794041900,6.244041748046875,0.13560790936350822,0.0031259408676531163,0.0016450455269776283
1761466874804024800,6.25402490234375,0.12647943101227282,-0.007709279752674047,0.030141122403438202
1761466874814008000,6.264008056640625,0.11944763267934322,-0.013010771136189578,0.053996611499018035
1761466874823990800,6.27399072265625,0.13291501701772213,-0.006916220545687247,0.05967898168410174
1761466874833974800,6.283974853515625,0.11869769109487532,-0.01030211724897963,0.06661163049149327
1761466874843958000,6.2939580078125,0.12513210805654526,-0.016817740512476302,0.05274989937355276
1761466874853941000,6.30394091796875,0.13291267893016337,-0.019601119586732236,0.029972583736386147
1761466874863925000,6.313925048828125,0.10074000959992409,-0.010761730692430865,0.00012677275140304117
1761466874873907700,6.32390771484375,0.1345586925715208,-0.007681438472744775,-0.01897009624077473
1761466874883891000,6.333890869140625,0.12453238859772682,-0.00578181996307685,-0.028555054221814497
1761466874893875000,6.343875,0.10478022490143775,-0.005775716732564615,-0.037088014365313574
1761466874903858000,6.35385791015625,0.12168985864818095,0.0017111181917542125,-0.04074917635452002
1761466874913841000,6.3638408203125,0.12273849091827868,0.003485797430790262,-0.03137672861299943
1761466874923823900,6.373823974609375,0.10986965699493885,0.006826886877976357,-0.008440409322106279
1761466874933807900,6.383807861328125,0.11645429608225821,0.01813849740497535,0.016415420489013195
1761466874943790800,6.393790771484375,0.113161099755764,0.02018230330843944,0.04109053257151972
1761466874953774000,6.403774169921875,0.11600362970530986,0.022910458763851782,0.03848523174421861
1761466874963758000,6.413758056640625,0.1384498547911644,0.01898838994929101,0.02576533673831727
1761466874973740800,6.42374072265625,0.12124036131501197,0.011190383883682079,0.03429800918744877
1761466874983723800,6.433723876953125,0.1276747782766819,0.014514642068720421,0.03382065573297441
1761466874993707000,6.44370703125,0.13321078509390352,-0.0053661301430314775,0.013588307304307818
1761466875003691000,6.45369091796875,0.11510405051708221,-0.010791705705586355,-0.000505159343429841
1761466875013673700,6.463673828125,0.13141454932689667,-0.01736422167191631,-0.017015952798584474
1761466875023657000,6.473656982421875,0.10253507632315158,-0.017839093191648135,-0.03618803788486402
1761466875033641000,6.483640869140625,0.12124153035879134,-0.016060888554964913,-0.035283882986218665
1761466875043624000,6.4936240234375,0.1118149458438158,-0.014417549786239396,-0.012375506581598892
1761466875053607000,6.50360693359375,0.10927110657989979,-0.024991747133492025,0.020932961845537647
1761466875063591000,6.5135908203125,0.12348667893707752,-0.022135168108996003,0.03806580532232765
1761466875073574000,6.523573974609375,0.10926935301423073,-0.007321773705852683,0.057116159158502704
1761466875083556900,6.533556884765625,0.12183832720816135,-0.0107238931748725,0.03428954275320284
1761466875093539800,6.543539794921875,0.13994447726309298,0.016485573390574427,0.010668949258886277
1761466875103524000,6.553524169921875,0.10971826582551002,0.02644556495428551,-0.0006197028009220958
1761466875113506800,6.5635068359375,0.12782383135855196,0.02965646242534276,0.0025196912033483383
1761466875123489800,6.57348974609375,0.1282715751260519,0.021856415099697185,-0.0052535594469169155
1761466875133473800,6.583473876953125,0.11031506267488002,0.02933924970233347,-0.01239189146081917
1761466875143457000,6.59345703125,0.11570201641023159,0.025249473337782546,-0.0012583614640636369
1761466875153440000,6.60343994140625,0.12034136664867401,0.019130053167504955,0.010037939612660557
1761466875163422700,6.613422607421875,0.11824644019603729,0.013095239115826551,0.00861329993729014
1761466875173406700,6.62340673828125,0.11136427946686744,0.012492076457751682,0.016651293337810784
1761466875183390000,6.633389892578125,0.12228957810699939,0.0036662537228548896,0.005223894961015321
1761466875193373000,6.643373046875,0.12363631654083727,-0.009590952755342004,0.00469875227548182
1761466875203357000,6.65335693359375,0.1088210247248411,-0.011095918524771695,0.012912307738885282
1761466875213340000,6.66333984375,0.12617898676097392,-0.021298721851431765,0.013621661584638059
1761466875223323000,6.673322998046875,0.12288754400014877,-0.027848766832693946,0.02478323949894402
1761466875233307000,6.683306884765625,0.110167763158679,-0.020307984647876583,0.030606895017973146
1761466875243289900,6.693289794921875,0.1258791270315647,-0.011404504983330843,0.0101714708984131
1761466875253273000,6.703273193359375,0.13545534915030003,0.0007485202372947241,-0.014085128077655098
1761466875263255800,6.713255859375,0.12049100425243377,0.00718289267483633,-0.03045741267784033
1761466875273239800,6.72323974609375,0.12707505881786346,0.009448547468322794,-0.023621333279833196
1761466875283223000,6.73322314453125,0.12168985864818095,0.011463718649058137,-0.0031802694373531267
1761466875293206000,6.7432060546875,0.13575579340159893,0.009883438604115507,0.01646396320532076
1761466875303190000,6.75318994140625,0.10567863504588604,0.018314492151053855,0.03051719374079257
1761466875313172700,6.7631728515625,0.10897066232860088,0.012938348645728546,0.018099313888768665
1761466875323156000,6.773156005859375,0.13156652501821517,0.011232572207727935,-0.004600251203915104
1761466875333139000,6.783138916015625,0.11076631357371806,0.006086112697364297,-0.00945155912602786
1761466875343123000,6.793123046875,0.12842471986114978,-0.0003693470523343421,-0.004455554636754095
1761466875353105700,6.803105712890625,0.13186638474762438,-0.012220101390755734,0.026950966326310298
1761466875363089000,6.8130888671875,0.11854922253489493,-0.019103330699005164,0.03589524265048094
1761466875373073000,6.823072998046875,0.12468377976715564,-0.014135330744797829,0.028376528450287878
1761466875383056000,6.833055908203125,0.11420914750397204,-0.012986045403598108,0.01627561929267831
1761466875393039000,6.8430390625,0.12647943101227282,-0.00012230549719533882,-0.002762139923404902
1761466875403021800,6.853021728515625,0.10732581773102283,0.010579513984831283,-0.008174803488748147
1761466875413005800,6.863005859375,0.10642740758657455,0.006246492032491369,-0.017858737465390004
1761466875422988800,6.87298876953125,0.1330646546214819,0.013148118938889819,-0.018557862178073262
1761466875432972000,6.882971923828125,0.12453589572906494,0.006628644909115974,-0.013261628066631965
1761466875442956000,6.8929560546875,0.11436112319529056,0.0017469235824304633,0.000050520044262520967
1761466875452938800,6.902938720703125,0.12259177592396736,-0.007771822453226196,0.02508983036323916
1761466875462922000,6.912921875,0.1254348903954029,-0.00794241265511373,0.02284051706648897
1761466875472905000,6.922905029296875,0.11511048025786876,-0.0025787770049122624,0.02042125403031241
1761466875482889000,6.932888916015625,0.1393523565888405,-0.00956508880336769,0.01879894549152814
1761466875492872000,6.942871826171875,0.11421265463531016,-0.0032389351138088383,0.01738570399300661
1761466875502855000,6.95285498046875,0.12244330736398697,-0.00501192015268025,0.011758420429448597
1761466875512839000,6.9628388671875,0.1369587394505739,0.010672540871903766,-0.0024307160119526085
1761466875522822000,6.97282177734375,0.10044657961130142,0.007312294633098645,-0.006417945317481644
1761466875532804900,6.982804931640625,0.11540975546538829,0.019147181257174815,-0.013356215581484138
1761466875542788900,6.992788818359375,0.12199381003081798,0.024949275681655853,-0.01994786893147975
1761466875552771800,7.002771728515625,0.12169453482329845,0.02157024140234571,-0.005955401273071766
1761466875562754800,7.0127548828125,0.12064824064075946,0.0172145372607396,0.010440707160695456
1761466875572741600,7.02274169921875,0.1222936697602272,0.018753816291724797,0.01710586870489642
1761466875582725400,7.032725341796875,0.10972411104440688,0.01118114912281162,0.02893576063509099
1761466875592708400,7.042708251953125,0.130074825155735,0.005543366998125566,0.025072198808426035
1761466875602691300,7.05269140625,0.1270809040367603,-0.012014676195860373,0.023162940254155544
1761466875612675300,7.06267529296875,0.11630641204416751,-0.021117981289932503,0.016205431000143287
1761466875622658600,7.072658447265625,0.12094517776072025,-0.03158538466130849,0.015553890022542326
1761466875632641300,7.082641357421875,0.13620762882232665,-0.019912181130168027,0.02368303230523597
1761466875642624300,7.092624267578125,0.09730068280100822,-0.032270629262400326,0.014534639110555872
1761466875652608500,7.1026083984375,0.12917349240183829,-0.027472944373800417,-0.0025650921144988385
1761466875662591500,7.112591552734375,0.12663023765981196,-0.02299659811076708,-0.004447124735126272
1761466875672574200,7.12257421875,0.11810147876739502,-0.011063374811905669,-0.0017151927203172817
1761466875682558200,7.13255810546875,0.11136720207631587,-0.0046294590320903805,0.005656500524887815
1761466875692541400,7.14254150390625,0.11241466530263423,0.006861691046587657,0.004132126802089624
1761466875702524400,7.1525244140625,0.13007248706817626,0.01745462734363973,0.002774825875042006
1761466875712508400,7.16250830078125,0.11391162586212157,0.016727308582933618,0.007686243653669953
1761466875722491400,7.172491455078125,0.11869944466054438,0.012886438078689388,0.01988585024566855
1761466875732474400,7.182474365234375,0.12842588890492915,0.020340347980940712,0.012703779554739593
1761466875742457300,7.192457275390625,0.12707856594920158,0.020175613272748888,0.01138209336376749
1761466875752441300,7.20244140625,0.10598024834096431,0.015334716005151858,0.002659770960896276
1761466875762424600,7.212424560546875,0.12752806328237057,0.00338953740701545,0.007664260150725022
1761466875772407300,7.2224072265625,0.10089198529124259,0.0034967355249798855,0.028650262791174462
1761466875782391300,7.232391357421875,0.13845160835683346,-0.002006875993136782,0.016810159994219427
1761466875792374300,7.242374267578125,0.10538169792592525,0.0016970896664017345,0.009180016742227598
1761466875802357500,7.252357421875,0.09655366382598876,-0.00284549137490103,0.008005616367724724
1761466875812340500,7.262340576171875,0.14174597372710704,-0.007692803541908506,0.0018289598596747964
1761466875822324500,7.272324462890625,0.10448504134714603,-0.008052984332031337,-0.0013299471292411908
1761466875832307500,7.282307373046875,0.10134265166819095,-0.00615936516324291,-0.006313987186085433
1761466875842290400,7.29229052734375,0.14369009353220463,-0.002452091018477222,-0.019788860711175946
1761466875852274400,7.3022744140625,0.12423720504343509,-0.009981385978189063,-0.013275766189838759
1761466875862257400,7.31225732421875,0.11301438476145267,-0.016622279589169193,0.003598791676945984
1761466875872240400,7.322240478515625,0.12079612467885016,0.0009983279966108967,0.01966903829036746
1761466875882223400,7.332223388671875,0.1297743809044361,0.004922779422858729,0.027145429452485402
1761466875892207400,7.342207275390625,0.10912322254180908,0.002052988148696022,0.022342965640779585
1761466875902190300,7.3521904296875,0.12917466144561768,-0.00011927214824827388,0.019795605545793658
1761466875912173600,7.362173583984375,0.1160059677928686,0.004144683747919043,0.01697475770509336
1761466875922157300,7.3721572265625,0.11256371838450431,0.004835392258706269,0.02105149649155792
1761466875932140300,7.382140380859375,0.11555647045969962,0.010552886272809701,0.016122520223353056
1761466875942123500,7.39212353515625,0.12887421719431877,0.014264059132913825,0.009121368190436624
1761466875952107500,7.402107421875,0.13530980319976807,0.016367071852239314,-0.018370449847192504
1761466875962090500,7.412090576171875,0.099994159668684,0.019438631634553893,-0.02461249060849659
1761466875972073200,7.4220732421875,0.11121697995066641,0.004747127170074964,-0.01495303348598536
1761466875982056400,7.432056396484375,0.1317173316657543,-0.000044487595697864886,0.003469566673552617
1761466875992040400,7.44204052734375,0.11989654549062251,0.004095014228671789,0.0228957863511052
1761466876002023400,7.4520234375,0.1287251641124487,-0.00946371421305812,0.031876207134313876
1761466876012006400,7.46200634765625,0.1261801558047533,-0.021870028066518714,0.0203798351745354
1761466876021990400,7.471990478515625,0.11166530824005604,-0.016854671564447924,0.0025875322751700877
1761466876031973400,7.481973388671875,0.1269289283454418,-0.012207604952075053,-0.0035332384603330865
1761466876041956400,7.491956298828125,0.12154255913197994,-0.009484361992153571,-0.00911669201531913
1761466876051939600,7.501939697265625,0.11540800189971923,-0.0011710074075963347,-0.0029568907439475878
1761466876061923600,7.511923583984375,0.11675474033355712,-0.0012525025454349814,-0.006141658259904943
1761466876071906300,7.52190625,0.11226561222076416,0.0041881427220883775,-0.007513165808818303
1761466876081889300,7.53188916015625,0.12169395030140875,0.015288550192309775,0.009243323202827013
1761466876091873300,7.541873291015625,0.12184300338327884,0.020927221657917834,0.01613692777461838
1761466876101856500,7.5518564453125,0.10194003303945064,0.012153110843949252,0.024909742822288534
1761466876111839200,7.561839111328125,0.12513386162221432,0.006983924620191101,0.007240655310638248
1761466876121822500,7.571822509765625,0.13096914364695547,0.0055424924985796676,0.008451565470360219
1761466876131806500,7.581806396484375,0.11869827561676502,0.002433503907371778,0.025128207878558895
1761466876141789400,7.59178955078125,0.12423486695587635,-0.012138465830666245,0.015604565330431796
1761466876151772400,7.6017724609375,0.13051847727000712,-0.012607174754381412,0.01010004963001702
1761466876161756400,7.61175634765625,0.11869593752920626,0.004366026889509521,0.004849070299253798
1761466876171739400,7.621739501953125,0.11405717181265354,0.007233629631518851,-0.011880092314048669
1761466876181722400,7.631722412109375,0.12049217329621315,0.008948711612337502,-0.02673371141301468
1761466876191706400,7.641706298828125,0.129321376439929,0.0050766753599164076,-0.01820129469220992
1761466876201689600,7.651689697265625,0.10403262140452861,0.0002319044931558892,-0.00038591687793377785
1761466876211672300,7.66167236328125,0.11465806031525135,0.0032514680851076262,0.012200113482074811
1761466876221655300,7.6716552734375,0.1231868192076683,-0.0020874269911262673,0.02144728174295742
1761466876231639300,7.681639404296875,0.10388356832265853,-0.008615023820206989,0.025800695746066048
1761466876241622500,7.69162255859375,0.13186755379140377,-0.012471023394924122,0.013998011483205482
1761466876251605500,7.70160546875,0.1321668289989233,-0.014665024024574085,0.005030514113651588
1761466876261589200,7.71158935546875,0.10089256981313229,-0.014137514710373942,0.013081261964468285
1761466876271572200,7.721572265625,0.1347106682628393,-0.02298729599288199,0.015470399290439672
1761466876281555500,7.731555419921875,0.12543196778595447,-0.017215311295585706,0.028789821958914396
1761466876291538400,7.741538330078125,0.11241291173696517,-0.00897460182213108,0.013943865576595998
1761466876301522400,7.7515224609375,0.12677812169790267,-0.001782123901619343,-0.010633850546041502
1761466876311505400,7.76150537109375,0.11735095266103744,0.008600812631763982,-0.02046777375289239
1761466876321488400,7.77148828125,0.10373393071889876,0.005039036488468991,-0.015136495727533474
1761466876331472400,7.781472412109375,0.12169044317007065,0.016311463499261297,-0.009984501525526865
1761466876341455400,7.791455322265625,0.11615385183095932,0.017042657000775216,-0.0030348650507163255
1761466876351438300,7.801438232421875,0.12303776612579821,0.011154382130183512,0.014833215631754137
1761466876361421300,7.81142138671875,0.10493103154897689,0.0184448142746347,0.03079490100389812
1761466876371405300,7.8214052734375,0.11136544851064681,0.014783430806430986,0.019523277710704133
1761466876381388500,7.831388427734375,0.13515782750844954,0.00020838662025053054,0.011907181250373832
1761466876391371500,7.84137158203125,0.11600304518342018,-0.014664925843162927,0.019504262482980265
1761466876401355500,7.85135546875,0.10837094286978244,-0.0188322723723948,0.015470234893658197
1761466876411338200,7.861338134765625,0.12827215964794159,-0.01685117470790865,0.008320952227478846
1761466876421321500,7.871321533203125,0.12662556148469448,-0.0048974143694504165,0.0013164620265830307
1761466876431304400,7.881304443359375,0.11540332572460174,0.0004919710682937875,-0.010538281217077746
1761466876441288400,7.891288330078125,0.1371025318354368,-0.011201348235690965,-0.02024340411222074
1761466876451271200,7.901271240234375,0.10268588297069071,-0.0008898363956366665,-0.011354387939511797
1761466876461254400,7.91125439453125,0.11645254251658915,0.007506626470177434,-0.011875174110336228
1761466876471238400,7.92123828125,0.12408522935211658,0.015393737874634097,-0.0006672043376136571
1761466876481221400,7.931221435546875,0.11914718842804431,0.006986787864135112,0.02098339969140943
1761466876491204600,7.94120458984375,0.12752689423859118,0.0009478753093630075,0.04108455948845949
1761466876501187300,7.951187255859375,0.1252829147040844,0.004714687346841674,0.027648396838828918
1761466876511171300,7.96117138671875,0.12378653866648673,0.010336433935468084,0.02463573905334342
1761466876521154300,7.971154296875,0.11181377680003643,-0.004814384861651342,0.027616453630873
1761466876531137500,7.981137451171875,0.10792319910228251,0.0025897904476267285,0.028383629477932115
1761466876541121500,7.99112158203125,0.1411415780931711,0.0015281982312561012,0.0058172440445516255
1761466876551104300,8.001104248046875,0.1064250694990158,0.00020700523062841964,0.007127997849555686
1761466876561085400,8.01108544921875,0.12498071688711643,0.0036566821769112717,-0.006899956680764444
1761466876571066400,8.02106640625,0.1342576637983322,0.01303270554842893,-0.016187703547207638
1761466876581049000,8.031049072265626,0.10253390727937221,0.005624596132838632,-0.016457428433257155
1761466876591032300,8.0410322265625,0.11450608462393283,0.002436307785811368,-0.01895505850184709
1761466876601016300,8.051016357421876,0.13261281920075416,0.004535593036445789,-0.014933068410190754
1761466876610999300,8.060999267578126,0.10926818397045135,0.00040182911640731616,-0.0004308793976670131
1761466876620982300,8.070982177734376,0.11929390342235564,-0.019280507046950515,-0.004900421460578218
1761466876630965200,8.08096533203125,0.11585282305777073,-0.009936483965604566,0.007214251360902563
1761466876640949200,8.09094921875,0.11450666914582251,-0.007798204711719881,0.03304815982340369
1761466876650932200,8.10093212890625,0.12498188593089579,0.000677851312502753,0.04498574991177302
1761466876660915500,8.11091552734375,0.11914543486237525,0.0010086359031382017,0.04066664003706537
1761466876670899500,8.1208994140625,0.12692600573599339,0.007064289530157111,0.015335507164662704
1761466876680882200,8.130882080078125,0.12438158195018767,0.008958485229325014,0.016169971527694723
1761466876690865200,8.140865234375,0.13141454932689667,0.008832621226797345,0.01768440381179098
1761466876700848400,8.150848388671875,0.11375555851757525,0.010566091672610491,0.016545622739940882
1761466876710832400,8.160832275390625,0.10612345620393752,0.001702404020691756,0.004746372543182224
1761466876720815000,8.170815185546875,0.13081424534618855,-0.0006626948425662704,-0.005758773589273914
1761466876730798300,8.18079833984375,0.11375555851757525,-0.004171746426424943,-0.010252696608193218
1761466876740782300,8.1907822265625,0.11689794819653034,-0.00006354392261710018,-0.009635770286247134
1761466876750765300,8.200765380859375,0.12423019078075885,0.0021011073149624277,-0.0096987479532836
1761466876760748300,8.210748291015625,0.1206377192467451,-0.008050380241347011,-0.01531940084665548
1761466876770731300,8.220731201171875,0.11539981859326362,-0.0013150760703836567,0.004303505880199373
1761466876780715300,8.23071533203125,0.1362011990815401,0.0009370913371560164,0.00409186785693746
1761466876790698200,8.2406982421875,0.14069032719433308,0.00005666209068149328,0.02953543899471406
1761466876800681500,8.250681396484374,0.09729425306022167,0.008960926064872182,0.04852911704047583
1761466876810665500,8.26066552734375,0.1263227791458368,0.005353042332595214,0.03304209997537546
1761466876820648200,8.270648193359374,0.11270517268180846,-0.0007443703602068126,0.01403491399406921
1761466876830631200,8.280631103515624,0.11090952143669128,0.009366047683486249,0.00422013387910556
1761466876840614400,8.290614501953126,0.12362871775627135,0.0016860602406668476,-0.01591543051104527
1761466876850598400,8.300598388671874,0.11135668068230152,-0.00021892399728531018,-0.0231232247316977
1761466876860581000,8.3105810546875,0.11719371627271175,0.016044479701214004,-0.019047248563636092
1761466876870564000,8.320564208984376,0.13290566466748713,0.018874647926108445,-0.008794620454101823
1761466876880548400,8.33054833984375,0.11060966170728206,0.014207907357241492,0.011906336433580144
1761466876890531300,8.34053125,0.11524842742383479,0.0028153154323459603,0.00342534850591328
1761466876900514300,8.350514404296876,0.11524901194572448,-0.0023481317454366944,-0.004462450168421492
1761466876910497300,8.360497314453125,0.12707038264274598,0.006463964999851305,-0.0044670076125301415
1761466876920481300,8.370481201171875,0.12108546301424503,-0.008817649703240022,0.011418918242817743
1761466876930464300,8.38046435546875,0.1367974114090204,-0.011876681080833076,0.03335800665728748
1761466876940447200,8.390447265625,0.1282674834728241,-0.024882069364073684,0.05365899530879687
1761466876950431200,8.40043115234375,0.1140501575499773,-0.02789513814151287,0.05784937337045557
1761466876960414200,8.410414306640625,0.12003507717847824,-0.01994555596009595,0.034807762507605366
1761466876970397200,8.420397216796875,0.12781506353020666,-0.001391267128731124,0.012892032135836779
1761466876980380400,8.43038037109375,0.11853694757521152,0.0020208725524484177,-0.011738231591368093
1761466876990364400,8.440364501953125,0.13888766168653965,0.010836572327197064,-0.03886702500288375
1761466877000347400,8.450347412109375,0.12122983992099762,0.010745686023216693,-0.031352196959941646
1761466877010330000,8.460330078125,0.10940788470208644,0.008140558725851588,-0.015948031306127087
1761466877020314000,8.470314208984375,0.13709201044142244,0.016682014986348803,0.00017377653117291628
1761466877030297300,8.48029736328125,0.12212941910922527,0.007690641267574392,0.010840127407596446
1761466877040280300,8.4902802734375,0.10791443127393723,0.012498616938036866,0.00943132005559746
1761466877050263000,8.500262939453124,0.11330138500928878,0.017050884831359144,0.00009312164355069398
1761466877060247300,8.510247314453125,0.12467442741692066,0.004430121084686834,-0.0021482138427207243
1761466877070230300,8.520230224609374,0.12512392475008963,0.0050421063700341615,0.012320593490009196
1761466877080213200,8.530213134765624,0.13110884437859058,0.003944732737517915,0.020230740993469953
1761466877090197200,8.540197265625,0.12572130612134932,-0.0025516914935200473,0.024320727420574985
1761466877100180500,8.550180419921874,0.12497370262444019,-0.0022552955129649488,0.014719955382472834
1761466877110163200,8.5601630859375,0.11734218483269214,-0.00927546505689388,0.01058124357596971
1761466877120147200,8.570147216796874,0.11120704307854175,-0.01760848218150204,0.009340842460282146
1761466877130130200,8.580130126953126,0.133351654869318,-0.004398269208276178,-0.0010660720286658034
1761466877140113400,8.590113525390626,0.08801087640821934,-0.002157068436034024,0.028267665814911015
1761466877150099200,8.60009912109375,0.13679507332146168,-0.0011600179394125006,0.020981710057822053
1761466877160082400,8.61008251953125,0.0905570537596941,-0.006629852768802084,0.032842933274619276
1761466877170066400,8.62006640625,0.13500000659823416,0.008553183230909053,0.017366177308629265
1761466877180049200,8.630049072265624,0.20174188500642776,0.0202706300458638,-0.003127767498558387
1761466877190032100,8.6400322265625,0.6296019713848829,0.0666139822787838,-0.15857350041465834
1761466877200016400,8.650016357421874,-1.0153776507496832,-0.11548733247993513,0.32739805346969514
1761466877209999400,8.659999267578126,0.9650760350108146,0.08170039635347202,-0.2088249203362502
1761466877219982300,8.669982421875,-0.12411971614360809,-0.018721295411745085,0.07127411501035094
1761466877229965300,8.67996533203125,-0.14642916310727597,-0.03310328754412476,0.06676998112467117
1761466877239949300,8.68994921875,0.47487318196594713,0.030624807417287955,-0.10288541499762795
1761466877249932300,8.699932373046876,-0.16692659221291542,-0.03367065965289948,0.06495711844984907
1761466877259915300,8.709915283203125,0.24337621016502378,0.010370164958422537,-0.04942428491506725
1761466877269899300,8.719899169921876,0.06754910313785076,-0.012695171556598507,0.003822097305115312
1761466877279882200,8.72988232421875,0.07981178786158562,-0.010447712290217168,0.0055861752350348974
1761466877289865200,8.739865234375,0.1190086567401886,-0.004919000580173452,0.01294558438740205
1761466877299848200,8.74984814453125,0.12393676079213618,0.0034185443057911467,0.011752040921011939
1761466877309832400,8.75983251953125,0.20264087967276573,0.00926250967719825,-0.012163909657532349
