time,seconds_elapsed,z,y,x
1761467039749237500,0.110237548828125,-0.0006170235574245453,-0.0012957029975950718,-0.0004974014591425657
1761467039759221500,0.120221435546875,0.0027105961926281452,-0.0002807723358273506,-0.0022556204348802567
1761467039769204500,0.13020458984375,0.0007281084544956684,0.0007921436335891485,0.00028318981640040874
1761467039779187500,0.1401875,0.0027627632953226566,0.002020127372816205,0.00009969808161258698
1761467039789170400,0.15017041015625,-0.000026335474103689194,-0.0006484247278422117,0.000814489321783185
1761467039799153400,0.1601533203125,-0.0010559135116636753,0.0013473483268171549,-0.0003588995896279812
1761467039809136400,0.170136474609375,0.00016929442062973976,0.0006468729116022587,0.0015982873737812042
1761467039819119400,0.180119384765625,-0.0020608361810445786,-0.0006056118290871382,-0.0006041466258466244
1761467039829103400,0.190103271484375,-0.0008634966798126698,-0.0005430323071777821,-0.002890781033784151
1761467039839086600,0.200086669921875,0.0000869855284690857,-0.00009508850052952766,0.0024595095310360193
1761467039849069300,0.2100693359375,-0.0010602651163935661,0.0001437996979802847,0.0021529467776417732
1761467039859052500,0.220052490234375,0.00006971368566155434,0.002683922415599227,-0.00040155742317438126
1761467039869035500,0.230035400390625,0.0011225808411836624,-0.001360083231702447,0.0026862656231969595
1761467039879018500,0.2400185546875,-0.0004846365191042423,-0.0006759173702448606,-0.0002855556085705757
1761467039889001500,0.25000146484375,-0.0007164315320551395,-0.00020514335483312607,0.0012992329429835081
1761467039898984400,0.259984375,-0.0031297877430915833,0.0006212354637682438,0.0010600814130157232
1761467039908968400,0.269968505859375,-0.0007932051084935665,-0.0002722556237131357,0.00007106154225766659
1761467039918951400,0.279951416015625,0.0020963246934115887,0.0018822415731847286,0.001184795517474413
1761467039928934400,0.289934326171875,0.0018104929476976395,0.003037255024537444,0.0018602516502141953
1761467039938917400,0.29991748046875,0.00009222142398357391,-0.0011966386809945107,0.0013273530639708042
1761467039948900400,0.309900390625,-0.0007794313132762909,0.0013285705354064703,0.0019550598226487637
1761467039958883600,0.319883544921875,-0.0009434819221496582,-0.0030320892110466957,-0.000056691933423280716
1761467039968866300,0.3298662109375,0.00041024619713425636,-0.0006551502738147974,0.0003931939136236906
1761467039978850300,0.339850341796875,-0.0040526785887777805,0.0005206351634114981,-0.0010912521975114942
1761467039988833500,0.34983349609375,-0.00039126956835389137,-0.0008030892349779606,-0.0001267490442842245
1761467039998816500,0.35981640625,0.0008284579962491989,-0.0007703322917222977,0.00014915456995368004
1761467040008799500,0.369799560546875,0.0009367098100483418,-0.0007899738848209381,-0.00018478999845683575
1761467040018782500,0.379782470703125,0.0018088952638208866,-0.001929540536366403,-0.000503836665302515
1761467040028765400,0.389765380859375,0.00015579909086227417,-0.0005390336737036705,-0.002020853338763118
1761467040038748400,0.39974853515625,0.00073210708796978,0.0011816348414868116,-0.002045087981969118
1761467040048732400,0.409732421875,0.0009603053331375122,-0.002738276030868292,0.00016218866221606731
1761467040058715400,0.41971533203125,0.0005192859098315239,-0.0012572919949889183,-0.0013803141191601753
1761467040068698400,0.429698486328125,-0.0008488497696816921,-0.0004585369024425745,0.00010325107723474503
1761467040078681300,0.439681396484375,0.0005413200706243515,-0.002307036891579628,-0.0008232626132667065
1761467040088664600,0.44966455078125,-0.0008532637730240822,-0.001620013266801834,-0.001020020805299282
1761467040098647300,0.459647216796875,0.0029819547198712826,-0.0016916523454710841,-0.0001883157528936863
1761467040108630500,0.469630615234375,-0.002806510776281357,0.00037576048634946346,0.0010035112500190735
1761467040118614500,0.479614501953125,-0.000032295938581228256,-0.00028523593209683895,0.0018844851292669773
1761467040128597500,0.489597412109375,-0.0005886200815439224,-0.0010332523379474878,0.0007277338299900293
1761467040138580200,0.499580322265625,0.0019725419115275145,0.004732224624603987,0.000023327767848968506
1761467040148563500,0.5095634765625,0.002425678540021181,0.0005890186876058578,-0.002206415170803666
1761467040158546400,0.51954638671875,0.002100772922858596,-0.00006904825568199158,-0.0021563477348536253
1761467040168529400,0.529529296875,0.001965578645467758,-0.00012697349302470684,-0.0003689273726195097
1761467040178512400,0.539512451171875,0.000926413107663393,0.002202759962528944,0.00015784590505063534
1761467040188496400,0.549496337890625,0.0009051845408976078,-0.002114221453666687,0.0025762980803847313
1761467040198479400,0.559479248046875,-0.0008469093590974808,-0.0011320477351546288,0.0008364547975361347
1761467040208462600,0.569462646484375,0.0013508419506251812,-0.0021140642929822206,-0.0017715775175020099
1761467040218445600,0.579445556640625,0.0005678725428879261,0.002290271455422044,0.0010881249327212572
1761467040228428300,0.58942822265625,0.0023051511961966753,-0.0009494833648204803,0.00025434093549847603
1761467040238411500,0.59941162109375,-0.0007564187981188297,-0.0016957010375335813,-0.0021659396588802338
1761467040248394500,0.60939453125,0.0015792129561305046,0.0019988229032605886,-0.00021657138131558895
1761467040258378500,0.61937841796875,-0.0006317431107163429,0.0020110735204070807,-0.001576115028001368
1761467040268361200,0.629361328125,-0.0027923057787120342,0.002513666171580553,0.00006888923235237598
1761467040278344400,0.639344482421875,-0.001013580709695816,0.001509388443082571,-0.0011915849754586816
1761467040288327400,0.649327392578125,-0.00007438426837325096,-0.0004122043028473854,-0.0026161489076912403
1761467040298310400,0.659310302734375,-0.0006602797657251358,0.0015468171332031488,0.0005396970082074404
1761467040308293400,0.66929345703125,0.0007263892330229282,0.0008354713208973408,-0.0013863998465240002
1761467040318277400,0.67927734375,-0.005099008791148663,-0.0028237118385732174,0.00007674074731767178
1761467040328260400,0.68926025390625,-0.002670908346772194,-0.0010039480403065681,-0.000013380078598856926
1761467040338243600,0.69924365234375,0.0006316774524748325,-0.0035422067157924175,0.0016990327276289463
1761467040348226600,0.7092265625,-0.0008852523751556873,-0.0011103819124400616,-0.0017421902157366276
1761467040358209300,0.719209228515625,-0.0010418458841741085,0.001014820532873273,-0.0008015616331249475
1761467040368192500,0.729192626953125,-0.0016886633820831776,-0.0009215313475579023,0.0009896710980683565
1761467040378175500,0.739175537109375,-0.0011938479728996754,0.0030907869804650545,0.0007073760498315096
1761467040388159500,0.749159423828125,0.0004358021542429924,0.0045492760837078094,-0.000015059718862175941
1761467040398142500,0.759142578125,-0.0014049750752747059,0.004800145514309406,0.00033061858266592026
1761467040408125400,0.76912548828125,0.0019967155531048775,0.0006350665353238583,-0.0008179203141480684
1761467040418108400,0.7791083984375,0.0018776722718030214,0.000977016519755125,0.0008193911053240299
1761467040428091600,0.789091552734375,-0.0008836882188916206,0.00300610507838428,-0.00086794956587255
1761467040438074400,0.799074462890625,0.0005898387171328068,-0.0004892940632998943,0.0015778974629938602
1761467040448058400,0.809058349609375,0.0004457649774849415,-0.003376880194991827,0.002101173857226968
1761467040458041300,0.819041259765625,-0.0016959491185843945,0.0002966842148452997,0.0013088833075016737
1761467040468024600,0.829024658203125,-0.00006785942241549492,-0.003380013629794121,0.0017952071502804756
1761467040478007600,0.839007568359375,-0.0008819880895316601,0.00005306745879352093,0.003008277155458927
1761467040487990300,0.848990234375,0.0003607962280511856,-0.002274594036862254,0.0002140798605978489
1761467040497973500,0.858973388671875,-0.0009532077237963676,0.0009132097475230694,-0.0010312141384929419
1761467040507956500,0.86895654296875,-0.0000900663435459137,0.0014645240735262632,-0.00029042758978903294
1761467040517940500,0.8789404296875,0.001072403509169817,-0.00005773897282779217,0.0005860186647623777
1761467040527923500,0.88892333984375,-0.0008021784014999866,0.0043327524326741695,-0.0021806948352605104
1761467040537906400,0.898906494140625,-0.0007646279409527779,0.0011646565981209278,0.001982624875381589
1761467040547889400,0.908889404296875,0.0010533151216804981,0.002185247838497162,-0.0012203127844259143
1761467040557872600,0.91887255859375,-0.0021443418227136135,0.001557274255901575,0.0017214149702340364
1761467040567855400,0.92885546875,0.00022012041881680489,-0.0006990281399339437,-0.0002623393665999174
1761467040577839400,0.93883935546875,-0.0020478274673223495,-0.002738210605457425,0.0000228851567953825
1761467040587822300,0.948822265625,-0.0011303531937301159,-0.0012721444945782423,-0.0014363935915753245
1761467040597805600,0.9588056640625,0.0018984598573297262,-0.0009837241377681494,0.0005481939297169447
1761467040607788300,0.968788330078125,-0.0000448497012257576,-0.0008092785719782114,0.0008385833352804184
1761467040617771300,0.978771240234375,-0.0009157033637166023,-0.0005181950982660055,0.0012500418815761805
1761467040627754500,0.98875439453125,0.0013269861228764057,-0.002677824581041932,-0.0004953597672283649
1761467040637738500,0.998738525390625,0.0005384241230785847,-0.0001598058734089136,-0.00030547636561095715
1761467040647721500,1.008721435546875,-0.0006614215672016144,-0.0018118361476808786,-0.0001626964658498764
1761467040657704400,1.018704345703125,0.001347933430224657,-0.0026861517690122128,0.00011320691555738449
1761467040667687400,1.0286875,-0.00020798016339540482,0.004133496433496475,-0.0006234904285520315
1761467040677673700,1.038673828125,0.0024280166253447533,0.0011257219593971968,0.002824238035827875
1761467040687657000,1.048656982421875,-0.003670161124318838,0.0006610527634620667,-0.0019787480123341084
1761467040697641000,1.058640869140625,0.00013789255172014236,0.003687735181301832,-0.0019036468584090471
1761467040707623700,1.068623779296875,-0.0008341539651155472,0.0008250311948359013,-0.0005388292483985424
1761467040717606700,1.078606689453125,-0.0020826440304517746,0.002220261376351118,0.0006148519460111856
1761467040727590000,1.08858984375,0.00070600351318717,-0.003462860593572259,-0.00038900598883628845
1761467040737572900,1.09857275390625,-0.0010668626055121422,0.0011337553150951862,0.00019822106696665287
1761467040747555800,1.108555908203125,-0.0008419286459684372,-0.0010912837460637093,0.0008345851674675941
1761467040757538800,1.118538818359375,0.0013178950175642967,-0.003665229072794318,0.0023315479047596455
1761467040767522800,1.128522705078125,-0.001691434532403946,-0.0015024363528937101,0.0009548191446810961
1761467040777505800,1.138505859375,0.0017749359831213951,-0.001005490543320775,0.00020327512174844742
1761467040787488800,1.14848876953125,0.000055767130106687546,-0.0000390044879168272,0.0002855330239981413
1761467040797471700,1.1584716796875,0.0000033029355108737946,0.0015594246797263622,0.002589699812233448
1761467040807454700,1.168454833984375,-0.0009925216436386108,0.00114154233597219,-0.0000383604783564806
1761467040817438000,1.17843798828125,-0.0003381832502782345,0.00318684964440763,-0.001462352811358869
1761467040827422000,1.188421875,-0.0033668610267341137,0.0004909816198050976,0.0005896147340536118
1761467040837404700,1.19840478515625,0.0007240208797156811,0.003271854482591152,-0.0012202694779261947
1761467040847388000,1.208387939453125,0.00040330225601792336,0.002897584578022361,0.000495552085340023
1761467040857371000,1.218370849609375,-0.001446263398975134,0.0015257901977747679,-0.0010884960647672415
1761467040867353900,1.228353759765625,0.0000750366598367691,0.004003771580755711,-0.0009424630552530289
1761467040877336800,1.2383369140625,-0.0007350966334342957,0.0013185057323426008,-0.0014593824744224548
1761467040887320800,1.24832080078125,0.00039566168561577797,-0.00020444625988602638,0.002543327398598194
1761467040897303800,1.2583037109375,0.0014470778405666351,-0.0014390875585377216,0.002619760110974312
1761467040907286800,1.268286865234375,-0.0008991663344204426,-0.0009378243703395128,-0.0003185498062521219
1761467040917269800,1.278269775390625,-0.0013090269640088081,-0.0021572858095169067,0.0007555030751973391
1761467040927252700,1.288252685546875,-0.00042424723505973816,-0.001322390278801322,-0.00012242933735251427
1761467040937236700,1.29823681640625,0.0007701804861426353,0.0005247783847153187,0.002053373260423541
1761467040947220000,1.308219970703125,-0.0015019732527434826,0.0015653460286557674,-0.0002088691107928753
1761467040957203000,1.318202880859375,-0.001387191005051136,0.0006745187565684319,-0.00025041447952389717
1761467040967185700,1.328185546875,0.0015410557389259338,-0.00039738905616104603,-0.002382575301453471
1761467040977169000,1.3381689453125,0.000025184359401464462,0.001982944319024682,0.0007018977776169777
1761467040987152000,1.34815185546875,-0.00002750800922513008,0.0013422395568341017,-0.0009779275860637426
1761467040997136000,1.358135986328125,0.0013586673885583878,0.0023254782427102327,-0.002104711253196001
1761467041007118600,1.36811865234375,-0.00029486557468771935,0.0028738598339259624,0.0011422012466937304
1761467041017101800,1.378101806640625,0.0005999566055834293,-0.0025707068853080273,-0.0004578258376568556
1761467041027084800,1.388084716796875,0.0006344965659081936,-0.00039514945819973946,0.0022501039784401655
1761467041037067800,1.39806787109375,-0.0031229574233293533,0.002121005207300186,-0.0010199917014688253
1761467041047050800,1.40805078125,0.0019328573253005743,-0.006091102957725525,0.0009554848074913025
1761467041057034800,1.41803466796875,0.0007370980456471443,-0.004759522154927254,-0.0010671860072761774
1761467041067017700,1.428017822265625,-0.001046762801706791,0.0005164258182048798,0.00010890443809330463
1761467041077001000,1.4380009765625,-0.0008195950649678707,-0.00036854250356554985,-0.0005696690641343594
1761467041086984000,1.44798388671875,-0.0015528821386396885,-0.0014829195570200682,0.0018891573417931795
1761467041096966700,1.457966552734375,-0.003150778356939554,-0.0015726680867373943,-0.0004568214062601328
1761467041106950000,1.467949951171875,0.0011945893056690693,0.00148740503937006,0.0001134991180151701
1761467041116934000,1.477933837890625,-0.0005500474944710732,2.9569491744041443e-8,0.0027236631140112877
1761467041126916900,1.487916748046875,0.0005935737863183022,0.00229298765771091,-0.00004497379995882511
1761467041136899600,1.497899658203125,0.000052685849368572235,0.004783576354384422,-0.00029957201331853867
1761467041146882800,1.5078828125,0.0003150193952023983,0.00457368977367878,-0.00034991418942809105
1761467041156865800,1.51786572265625,0.0010122349485754967,0.003860228694975376,-0.0013078533811494708
1761467041166849800,1.527849853515625,0.0010933354496955872,0.0031644683331251144,-0.0013414036948233843
1761467041176833000,1.5378330078125,-0.0002472996711730957,0.0029250499792397022,-0.000772552564740181
1761467041186815700,1.547815673828125,0.00028504617512226105,-0.001593993278220296,-0.000149410218000412
1761467041196798700,1.557798828125,-0.000024413224309682846,0.001113909063860774,-0.002187261125072837
1761467041206782000,1.567781982421875,-0.0006045703776180744,0.0009810819756239653,0.0027051798533648252
1761467041216765000,1.577764892578125,0.0003254055045545101,-0.0010051035787910223,-0.0002868815790861845
1761467041226748700,1.587748779296875,0.0007732631638646126,-0.0013045754749327898,0.002176923444494605
1761467041236731600,1.597731689453125,0.001531465444713831,-0.0030590659007430077,0.0008485387079417706
1761467041246715000,1.60771484375,-0.0009961482137441635,-0.003936741501092911,0.0017030509188771248
1761467041256697900,1.61769775390625,-0.0003412771038711071,-0.002388379769399762,0.00030861981213092804
1761467041266680800,1.627680908203125,-0.0008335225284099579,-0.0032431180588901043,0.0013768787030130625
1761467041276664800,1.637664794921875,-0.0014873286709189415,-0.001448413822799921,-0.0009840137790888548
1761467041286647800,1.647647705078125,0.0005760956555604935,0.001973276725038886,0.0011451842729002237
1761467041296630800,1.657630859375,0.0003105788491666317,0.0021559696178883314,-0.00019225548021495342
1761467041306614000,1.667614013671875,0.0005003158003091812,-0.0006521495524793863,-0.00018621329218149185
1761467041316596700,1.6775966796875,-0.0003561568446457386,0.0027527017518877983,0.0028007880318909883
1761467041326579700,1.687579833984375,-0.0008388361893594265,0.0015504907350987196,0.0011999642010778189
1761467041336563700,1.697563720703125,-0.00032910704612731934,0.0037686375435441732,0.000540565699338913
1761467041346547000,1.707546875,-0.0005093305371701717,0.0006115338765084743,-0.0003401485737413168
1761467041356529700,1.71752978515625,0.0000837552361190319,0.005772207863628864,-0.0019572200253605843
1761467041366513000,1.727512939453125,0.0007757982239127159,0.005996400490403175,-0.0008898605592548847
1761467041376495900,1.737495849609375,-0.0014186468906700611,-0.0001291369553655386,0.00034451461397111416
1761467041386479900,1.74747998046875,0.0010874741710722446,-0.0025485502555966377,0.00017256871797144413
1761467041396462800,1.757462890625,0.0021194489672780037,0.0002680090256035328,0.000722511438652873
1761467041406445800,1.76744580078125,-0.0010298779234290123,-0.0033342561218887568,-0.0005948061589151621
1761467041416428800,1.7774287109375,0.00033499207347631454,-0.0020127957686781883,0.0005500868428498507
1761467041426411800,1.787411865234375,0.002908531576395035,0.000010893447324633598,0.002116171643137932
1761467041436395800,1.797395751953125,0.00075882812961936,-0.0008525033481419086,-0.00038746604695916176
1761467041446378800,1.807378662109375,0.0006461371667683125,0.0010332725942134857,0.0013821572065353394
1761467041456361700,1.81736181640625,-0.0030980007722973824,0.0006516417488455772,-0.00137101870495826
1761467041466345000,1.827344970703125,-0.00010894425213336945,-0.0012152944691479206,-0.00006349710747599602
1761467041476328000,1.837327880859375,-0.0008485042490065098,0.0006198899354785681,-0.002411339897662401
1761467041486310700,1.847310546875,-0.0003416147083044052,-0.0016693170182406902,-0.0004892246797680855
1761467041496294700,1.857294677734375,-0.00006784172728657722,0.0021081105805933475,-0.0008615346159785986
1761467041506278000,1.86727783203125,0.00219909381121397,0.0014207540079951286,0.0006397785618901253
1761467041516260900,1.8772607421875,-0.0007359758019447327,0.0005528298206627369,-0.0007828820962458849
1761467041526243800,1.887243896484375,0.0016956506296992302,0.0018314304761588573,0.00018464145250618458
1761467041536226800,1.897226806640625,0.00002558249980211258,-0.0023223019670695066,0.000060804421082139015
1761467041546210800,1.9072109375,0.003039382863789797,0.0010866220109164715,-0.00040989043191075325
1761467041556193800,1.91719384765625,-0.00045202160254120827,-0.0006926357746124268,0.0006673582829535007
1761467041566176800,1.9271767578125,0.0007797032594680786,-0.0026592605281621218,0.0011203032918274403
1761467041576159700,1.93715966796875,-0.000738032627850771,0.0011740934569388628,-0.0005385798867791891
1761467041586142700,1.947142822265625,-0.0014642239548265934,0.0005506251472979784,0.0002467934973537922
1761467041596126700,1.957126708984375,-0.0027843527495861053,0.0016382599715143442,0.001500875921919942
1761467041606110000,1.96710986328125,0.00044793635606765747,-0.0018575529102236032,-0.003169042756780982
1761467041616093000,1.977093017578125,-0.0011038878001272678,-0.00037124287337064743,0.0007391460239887238
1761467041626075600,1.98707568359375,0.001161755993962288,-0.0010699278209358454,0.0012729894369840622
1761467041636059000,1.997058837890625,0.0009697419591248035,-0.002278736559674144,0.0005483431741595268
1761467041646043000,2.00704296875,-0.00017029698938131332,-0.002384956693276763,0.0004531480371952057
1761467041656025900,2.01702587890625,-0.001882709562778473,0.00022574001923203468,0.00016632559709250927
1761467041666008800,2.0270087890625,-0.0024813557974994183,-0.0032999305985867977,0.002257581800222397
1761467041675987700,2.03698779296875,0.0008518565446138382,-0.0016572928288951516,-0.0007597797084599733
1761467041685970700,2.046970703125,-0.0005507133901119232,-0.0016782290767878294,-0.0009998774621635675
1761467041695953700,2.05695361328125,-0.002920926548540592,-0.0003610295243561268,0.0012446348555386066
1761467041705937700,2.066937744140625,-0.0028062784112989902,-0.002623399253934622,0.00032595405355095863
1761467041715920600,2.076920654296875,-0.0006147627718746662,0.00033270963467657566,-0.0030775656923651695
1761467041725904000,2.08690380859375,0.0010706130415201187,-0.0008287408854812384,-0.00020193960517644882
1761467041735886600,2.096886474609375,0.0006176093593239784,0.002224306808784604,0.00002522813156247139
1761467041745869600,2.10686962890625,-0.002666548825800419,0.0006474263500422239,-0.004234155640006065
1761467041755853600,2.116853515625,0.0027665658853948116,0.0028410719241946936,-0.0003597887698560953
1761467041765836800,2.1268369140625,-0.0006320187821984291,0.0006250818260014057,-0.0012446688488125801
1761467041775819800,2.13681982421875,-0.003084789961576462,0.003936456516385078,-0.0020870266016572714
1761467041785802500,2.146802490234375,0.00013169553130865097,-0.0027914957609027624,-0.0022826548665761948
1761467041795785700,2.15678564453125,-0.0019860505126416683,-0.0005722837522625923,0.000943764578551054
1761467041805769700,2.166769775390625,-0.0009152921847999096,-0.0012776779476553202,0.0009432402439415455
1761467041815752700,2.176752685546875,-0.00028625363484025,0.00011488888412714005,0.0036492780782282352
1761467041825735700,2.186735595703125,0.001011344138532877,0.001632874133065343,0.0008217382710427046
1761467041835718700,2.19671875,0.0011373115703463554,0.0017002520617097616,-0.0014683138579130173
1761467041845701600,2.20670166015625,0.00027416739612817764,-0.0005461170803755522,0.0022104582749307156
1761467041855684900,2.216684814453125,-0.002927750814706087,-0.0011634377297013998,-0.0003807975444942713
1761467041865668900,2.2266689453125,0.0018231128342449665,-0.0008881059475243092,0.0005838421639055014
1761467041875651600,2.236651611328125,0.0019030077382922173,-0.0006992879789322615,-0.0009123217314481735
1761467041885634600,2.246634521484375,-0.001309126615524292,0.001730148447677493,-0.0010066437534987926
1761467041895617800,2.25661767578125,0.00007438519969582558,-0.0010738936252892017,-0.0003376577515155077
1761467041905600800,2.266600830078125,0.001294479239732027,-0.00041381665505468845,0.0004511675797402859
1761467041915584800,2.276584716796875,0.0003202948719263077,0.0015766299329698086,-0.0006290106102824211
1761467041925567700,2.286567626953125,-0.0006709741428494453,-0.000586232403293252,0.0028499283362179995
1761467041935550700,2.29655078125,-0.002170334104448557,0.0015418995171785355,-0.00021510361693799496
1761467041945533700,2.30653369140625,-0.00043250853195786476,0.000136953080072999,-0.0008859855588525534
1761467041955516700,2.3165166015625,-0.0014916476793587208,0.0029684260953217745,-0.0012170164845883846
1761467041965500700,2.326500732421875,-0.0025940430350601673,-0.0015445374883711338,0.0014311769045889378
1761467041975483600,2.336483642578125,-0.0015436923131346703,-0.0015386785380542278,0.0014532813802361488
1761467041985466600,2.346466552734375,-0.00011120643466711044,-0.0013335724361240864,0.0012790285982191563
1761467041995449900,2.356449951171875,-0.0016678241081535816,-0.0004890840500593185,0.00158795528113842
1761467042005432600,2.3664326171875,-0.00031518517062067986,-0.0007379131857305765,-0.0011696084402501583
1761467042015415600,2.37641552734375,0.000846486072987318,0.0008850169833749533,0.0021534841507673264
1761467042025399800,2.38639990234375,0.0000943262130022049,7.776543498039246e-7,0.0012733866460621357
1761467042035382800,2.3963828125,-0.0015278053469955921,0.004340664483606815,0.00038122781552374363
1761467042045365500,2.406365478515625,-0.0014205179177224636,-0.0015588500536978245,0.0003891522064805031
1761467042055348700,2.4163486328125,-0.002911621704697609,0.000022268854081630707,0.0008520097471773624
1761467042065331700,2.426331787109375,-0.0020193657837808132,-0.0011617427226155996,-0.0007137532811611891
1761467042075314700,2.436314697265625,-0.0006489036604762077,-0.00022990256547927856,0.004130803048610687
1761467042085298700,2.446298583984375,-0.0017449697479605675,0.0021382987033575773,0.000012777512893080711
1761467042095281700,2.45628173828125,-0.0008906275033950806,0.00000617210753262043,-0.0019819303415715694
1761467042105264600,2.4662646484375,0.0007271301001310349,-0.0008940063416957855,-0.0020649165380746126
1761467042115247600,2.47624755859375,0.0019252863712608814,-0.001062318217009306,0.0004935821052640676
1761467042125230800,2.48623095703125,0.0010535549372434616,-0.001782116713002324,0.0017130235210061073
1761467042135213600,2.496213623046875,0.0002910918556153774,-0.0005703784991055727,0.0024190274998545647
1761467042145197600,2.506197509765625,-0.000557915773242712,-0.002709491178393364,0.0017218582797795534
1761467042155180800,2.516180908203125,-0.001656469888985157,0.0000053353141993284225,-0.0014427759451791644
1761467042165163800,2.526163818359375,-0.0008211988024413586,-0.00013833935372531414,0.0012738569639623165
1761467042175146500,2.536146484375,-0.002165562007576227,0.0023024475667625666,-0.0006654567550867796
1761467042185129700,2.546129638671875,0.0015830309130251408,-0.0013503385707736015,-0.0016812621615827084
1761467042195112700,2.55611279296875,-0.0011941133998334408,0.0009224032983183861,0.00006497255526483059
1761467042205096700,2.5660966796875,-0.0009447364136576653,0.003301174845546484,-0.00024867826141417027
1761467042215079700,2.57607958984375,-0.0011042598634958267,0.0008904817514121532,-0.0022130259312689304
1761467042225062700,2.586062744140625,-0.0011524842120707035,0.003148936200886965,0.0005364592652767897
1761467042235045600,2.596045654296875,0.0007290388457477093,0.0010991008020937443,0.0004959790967404842
1761467042245028600,2.606028564453125,0.0015588002279400826,-0.0010795865673571825,-0.001164888613857329
1761467042255011800,2.61601171875,-0.0014945142902433872,0.002406757790595293,0.00044232909567654133
1761467042264995600,2.62599560546875,0.0016874219290912151,-0.0014064947608858347,-0.002633835654705763
1761467042274978600,2.635978515625,-0.0009933160617947578,-0.00007864274084568024,-0.0013714971719309688
1761467042284961800,2.6459619140625,0.002173788147047162,-0.0015844504814594984,0.0006122693885117769
1761467042294944800,2.65594482421875,0.0031240039970725775,0.0003663150127977133,-0.002178989816457033
1761467042304927500,2.665927490234375,0.000734162051230669,-0.0005985619500279427,0.0007055045571178198
1761467042314910700,2.67591064453125,-0.00012923451140522957,0.0024283870588988066,0.0014882076065987349
1761467042324894700,2.685894775390625,0.001525301020592451,-0.0012369754258543253,0.0012664678506553173
1761467042334877700,2.695877685546875,-0.00027446309104561806,0.000774243613705039,0.0009362362325191498
1761467042344860700,2.705860595703125,0.0007597464136779308,-0.0022706284653395414,-0.00230259052477777
1761467042354843600,2.71584375,-0.0011295001022517681,0.0005288862157613039,-0.0008644834160804749
1761467042364826600,2.72582666015625,-0.0008992878720164299,-0.00011047115549445152,0.001722025452181697
1761467042374809900,2.735809814453125,0.0005827611312270164,0.0022506872192025185,0.0012309385929256678
1761467042384792800,2.745792724609375,-0.0008059837855398655,0.002864943817257881,-0.002275315811857581
1761467042394776600,2.755776611328125,0.0012515746057033539,-0.0012408513575792313,-0.0005117703694850206
1761467042404759600,2.765759521484375,0.0006696619093418121,0.0031497033778578043,0.0001596040092408657
1761467042414742800,2.77574267578125,-0.001413196325302124,0.0011986715253442526,-0.0008822246454656124
1761467042424725800,2.785725830078125,0.0005031409673392773,-0.0022241552360355854,0.00025018397718667984
1761467042434708500,2.79570849609375,-0.0009240470826625824,-0.00261350953951478,-0.0007623499259352684
1761467042444691700,2.805691650390625,-0.0008725258521735668,-0.0007234683725982904,-0.0017888935981318355
1761467042454675700,2.81567578125,0.0003810240887105465,-0.0007889820262789726,0.000675062881782651
1761467042464658700,2.82565869140625,-0.001748823095113039,-0.002977570751681924,0.0021953533869236708
1761467042474642000,2.835641845703125,0.000670658890157938,-0.0005458383820950985,0.00010770140215754509
1761467042484624600,2.845624755859375,0.0010894984006881714,0.0018354924395680428,0.00028475653380155563
1761467042494607600,2.855607666015625,-0.0009523471817374229,0.0006796806119382381,0.0005185820627957582
1761467042504590800,2.8655908203125,-0.0009874999523162842,-0.0003703359980136156,-0.0015529083320870996
1761467042514574800,2.875574951171875,-0.0016354471445083618,0.001065640477463603,-0.0019278813851997256
1761467042524557600,2.8855576171875,0.0008644484914839268,-0.000848706578835845,-0.0009232591837644577
1761467042534540500,2.89554052734375,-0.0012756679207086563,-0.0003581524360924959,-0.00037571322172880173
1761467042544523800,2.905523681640625,-0.0010758871212601662,0.0008695647120475769,-0.001101658446714282
1761467042554506800,2.9155068359375,0.000761161558330059,0.0002229493111371994,-0.002508872654289007
1761467042564489700,2.92548974609375,0.0005574710667133331,-0.0029845628887414932,0.00031174859032034874
1761467042574472700,2.93547265625,0.00011059269309043884,0.0031614801846444607,0.001890737097710371
1761467042584455700,2.94545556640625,0.0012964988127350807,-0.002662253100425005,-0.0023898761719465256
1761467042594439700,2.955439697265625,-0.0007789027877151966,0.0018829640466719866,0.0011143111623823643
1761467042604422700,2.965422607421875,-0.0008143610320985317,0.001399533823132515,0.00265713082626462
1761467042614405600,2.975405517578125,0.00024238135665655136,0.0004746178165078163,-0.00027847173623740673
1761467042624388600,2.985388671875,-0.0013424879871308804,-0.0018715610494837165,-0.0006858962588012218
1761467042634371800,2.995371826171875,-0.0016484851948916912,-0.0024340206291526556,-0.0011759179178625345
1761467042644354600,3.0053544921875,0.0005926028825342655,0.0006077087018638849,0.0015269957948476076
1761467042654337500,3.015337646484375,-0.001618353184312582,-0.0028067301027476788,0.0004731828812509775
1761467042664321500,3.025321533203125,0.0010268520563840866,-0.0019100430654361844,-0.0016775786643847823
1761467042674304000,3.035303955078125,-0.0009028743952512741,0.0012327535077929497,0.00016346457414329052
1761467042684286700,3.04528662109375,0.00026331702247262,0.0000743442215025425,-0.0016503221122547984
1761467042694270000,3.05527001953125,-0.00015613064169883728,-0.001400514505803585,-0.00007133395411074162
1761467042704253000,3.0652529296875,-0.00026918482035398483,-0.00032466393895447254,-0.0004422178026288748
1761467042714236000,3.07523583984375,0.0012988843955099583,0.0017400847282260656,0.00027577043510973454
1761467042724219000,3.085218994140625,-0.00019083870574831963,-0.00012784823775291443,-0.001460760599002242
1761467042734201900,3.095201904296875,-0.0001956322230398655,0.001726777059957385,0.000021554995328187943
1761467042744185900,3.105185791015625,0.0036509749479591846,0.0003981851041316986,-0.0031711128540337086
1761467042754169000,3.115169189453125,0.00040298374369740486,-0.001316890586167574,-0.0019029155373573303
1761467042764152000,3.125152099609375,-0.0007645669393241405,0.005338138435035944,0.0003449439536780119
1761467042774134800,3.135134765625,0.00010602083057165146,-0.0015362792182713747,-0.0022780033759772778
1761467042784118000,3.145117919921875,-0.002958363387733698,-0.003968854900449514,0.0006988265085965395
1761467042794101000,3.15510107421875,-0.0006693764589726925,-0.0008407060522586107,-0.0009387512691318989
1761467042804083700,3.165083740234375,-0.001355455256998539,0.0010347708594053984,0.000154959037899971
1761467042814067000,3.17506689453125,-0.0001501087099313736,-0.00042011402547359467,-0.0003702163230627775
1761467042824051000,3.185051025390625,0.0011999616399407387,0.0017798454500734806,-0.0013560432707890868
1761467042834034000,3.195033935546875,-0.0020016906782984734,0.0005268282257020473,0.0009875386022031307
1761467042844017200,3.20501708984375,0.0006640846841037273,-0.00033217575401067734,0.0012703025713562965
1761467042853999900,3.214999755859375,0.0002491641789674759,-0.0008735964074730873,-0.0007899189367890358
1761467042863982800,3.22498291015625,-0.002305110450834036,0.0020029195584356785,0.001537782372906804
1761467042873966000,3.234966064453125,0.00043235253542661667,0.0009871902875602245,0.0002813029568642378
1761467042883949000,3.244948974609375,-0.0001182379201054573,-0.004730389919131994,-0.0011550730559974909
1761467042893931800,3.254931884765625,-0.0011669909581542015,0.001273173838853836,-0.00010205921716988087
1761467042903915800,3.264915771484375,0.0016043097712099552,-0.001679496606811881,-0.0002253800630569458
1761467042913899000,3.27489892578125,-0.002992573194205761,-0.002669127192348242,0.0003168394323438406
1761467042923882000,3.284882080078125,0.001631470862776041,-0.0011294512078166008,-0.000050341710448265076
1761467042933864700,3.29486474609375,0.0009411796927452087,-0.0007773812394589186,-0.00016539008356630802
1761467042943848000,3.304847900390625,-0.0011300332844257355,0.0010875682346522808,0.0001593446359038353
1761467042953831000,3.314830810546875,0.0005759876221418381,-0.0019244671566411853,0.0012469799257814884
1761467042963814100,3.324814208984375,-0.0013604960404336452,-0.0018040009308606386,0.0006581384222954512
1761467042973796900,3.334796875,-0.00003344286233186722,-0.00011236104182898998,-0.00025798892602324486
1761467042983779800,3.34477978515625,0.0008458644151687622,-0.002215237356722355,0.0015711202286183834
1761467042993763800,3.354763916015625,-0.0016790786758065224,0.0006162354256957769,0.00251308036968112
1761467043003747000,3.3647470703125,-0.00035528000444173813,-0.0016728043556213379,0.0015981688629835844
1761467043013730000,3.37472998046875,0.0021243891678750515,-0.0025692242197692394,-0.002430128399282694
1761467043023712800,3.384712646484375,0.0006594317965209484,0.001947981072589755,0.0016553695313632488
1761467043033696000,3.394696044921875,0.00017899740487337112,0.002502451417967677,0.00003776559606194496
1761467043043679000,3.404678955078125,-0.0008228463120758533,0.005046750884503126,-0.00003846758045256138
1761467043053661700,3.41466162109375,0.0002722456119954586,-0.0018487059278413653,-0.002662480343133211
1761467043063645000,3.42464501953125,0.0011537275277078152,0.00040725222788751125,-0.00022107386030256748
1761467043073628000,3.4346279296875,-0.0006718691438436508,0.001825385494157672,-0.0012381351552903652
1761467043083612000,3.44461181640625,0.0000053085386753082275,-0.002792410319671035,-0.0028304930310696363
1761467043093595100,3.45459521484375,0.0002066432498395443,-0.002586015500128269,-0.0013939839554950595
1761467043103577900,3.464577880859375,0.000004570465534925461,-0.002396121621131897,-0.000631620641797781
1761467043113560800,3.474560791015625,0.00042907847091555595,-0.00018729595467448235,-0.00129448133520782
1761467043123544000,3.4845439453125,0.001438566017895937,-0.004285888280719519,0.0025535000022500753
1761467043133527000,3.494527099609375,-0.0005420269444584846,-0.0025780030991882086,-0.00016425596550107002
1761467043143509800,3.504509765625,-0.00010715238749980927,0.002163503086194396,0.0019488523248583078
1761467043153493000,3.514492919921875,0.00046835700049996376,-0.0030925115570425987,-0.00017421972006559372
1761467043163476000,3.52447607421875,0.00033054500818252563,0.003197898156940937,0.00121037638746202
1761467043173459000,3.534458984375,-0.0003533544950187206,-0.001198714366182685,0.00008039711974561214
1761467043183443000,3.54444287109375,-0.0017567286267876625,0.002672143978998065,0.0016166649293154478
1761467043193426000,3.554426025390625,0.0003540930338203907,-0.001815815339796245,-0.0011767246760427952
1761467043203409000,3.564408935546875,0.0005430672317743301,0.0010791849344968796,-0.0017164864111691713
1761467043213392100,3.57439208984375,0.00020005227997899055,0.000017648795619606972,-0.00010154559276998043
1761467043223374800,3.584374755859375,0.0015497580170631409,-0.0005182935856282711,-0.00037332228384912014
1761467043233357800,3.59435791015625,-0.0008731856942176819,-0.0008503897115588188,-0.000560542568564415
1761467043243341000,3.604341064453125,0.00011044368147850037,-0.0014500436373054981,0.000014486955478787422
1761467043253324000,3.614323974609375,0.0014907601289451122,-0.00009795674122869968,-0.001661440241150558
1761467043263306800,3.624306640625,-0.0027961921878159046,-0.0013392784167081118,-0.0030449097976088524
1761467043273290800,3.634290771484375,0.0007271701470017433,0.003063725773245096,0.0008196032140403986
1761467043283274000,3.64427392578125,-0.00033908989280462265,-0.0006157008465379477,-0.00016160821542143822
1761467043293257000,3.654257080078125,0.001881453674286604,-0.0008892074692994356,0.004152446053922176
1761467043303240000,3.664239990234375,-0.0010020839981734753,-0.0004987195134162903,0.0012051565572619438
1761467043313223000,3.674222900390625,-0.000801547896116972,-0.0018774380441755056,0.000007532769814133644
1761467043323206000,3.684205810546875,0.0015621907077729702,0.000434208195656538,0.0025239724200218916
1761467043333189000,3.694189208984375,0.0005150358192622662,0.0013761683367192745,0.0005910501349717379
1761467043343171800,3.704171875,-0.0009654383175075054,-0.0005969270132482052,-0.0031056469306349754
1761467043353154800,3.71415478515625,-0.001564649399369955,0.004223926924169064,0.0022230721078813076
1761467043363138000,3.724137939453125,-0.0007352232933044434,-0.001298676012083888,-0.0005073912907391787
1761467043373121000,3.73412109375,-0.001662269700318575,0.0016217462252825499,-0.0009361603297293186
1761467043383105000,3.74410498046875,0.0012260852381587029,0.0003165432717651129,-0.0002466551959514618
1761467043393087700,3.754087646484375,0.0010881335474550724,-0.0007748203352093697,-0.00040005333721637726
1761467043403071000,3.764071044921875,0.0013143671676516533,0.0010530357249081135,0.0016199448145925999
1761467043413054000,3.774053955078125,0.00009623728692531586,0.00444750115275383,0.003100129310041666
1761467043423037000,3.784036865234375,-0.0003428221680223942,-0.0011874004267156124,0.001409022370353341
1761467043433020000,3.79402001953125,-0.00008289748802781105,-0.000897914869710803,-0.0006429431959986687
1761467043443003000,3.8040029296875,-0.0013002227060496807,-0.0009348203893750906,0.0005235013086348772
1761467043452986000,3.813986083984375,-0.001007807906717062,-0.0016701193526387215,0.0014185896143317223
1761467043462968800,3.82396875,-0.000039078760892152786,-0.0005991291254758835,0.0002082108985632658
1761467043472951800,3.833951904296875,-0.00030166609212756157,0.0006855800747871399,0.000283045694231987
1761467043482935000,3.84393505859375,0.00022722315043210983,0.00001946999691426754,-0.0011502299457788467
1761467043492918000,3.85391796875,-0.00016159843653440475,0.00259181740693748,0.00020132423378527164
1761467043502902000,3.863902099609375,-0.0005354094319045544,0.000029771588742733002,-0.00044490001164376736
1761467043512884700,3.873884765625,0.001786334440112114,0.0013464384246617556,0.002187102334573865
1761467043522868000,3.883867919921875,0.000056026503443717957,0.0008495145011693239,-0.0014106354210525751
1761467043532851000,3.893850830078125,0.0011503193527460098,0.0010178263764828444,0.0009782202541828156
1761467043542834000,3.903833984375,0.00007167831063270569,-0.000009853160008788109,-0.0010624185670167208
1761467043552817000,3.91381689453125,-0.0019571175798773766,-0.00026232097297906876,-0.0007524266839027405
1761467043562799900,3.9237998046875,0.002935415133833885,-0.00010343873873353004,0.0010002811904996634
1761467043572783000,3.933783203125,-0.0010180473327636719,-0.0008139701094478369,-0.0005898920353502035
1761467043582766000,3.94376611328125,-0.0015766816213726997,-0.0015225827228277922,-0.0008908952586352825
1761467043592748800,3.953748779296875,0.0019725128076970577,0.0011818574275821447,0.0025014393031597137
1761467043602732000,3.96373193359375,-0.0011826693080365658,0.00007304712198674679,-0.0015295560006052256
1761467043612715000,3.973715087890625,0.001824838574975729,0.0017079615499824286,-0.0016278267139568925
1761467043622699000,3.983698974609375,-0.0002654595300555229,-0.00030104536563158035,-0.00038321223109960556
1761467043632681700,3.993681640625,-0.00016079749912023544,0.0005042946431785822,-0.001101733185350895
1761467043642665000,4.0036650390625,0.00031424593180418015,0.0006933128461241722,-0.0035334471613168716
1761467043652647000,4.01364697265625,0.0006402167491614819,-0.0004555750638246536,0.00017793430015444756
1761467043662630000,4.0236298828125,0.0006028846837580204,-0.0005974799860268831,-0.0015797748928889632
1761467043672612900,4.03361279296875,0.0019299378618597984,-0.0016811202513054013,-0.002122793346643448
1761467043682597000,4.04359716796875,-0.0013091438449919224,0.0021679201163351536,0.0019804672338068485
1761467043692580000,4.053580078125,0.000745751429349184,-0.001885144622065127,0.0011519580148160458
1761467043702563000,4.06356298828125,0.0017175734974443913,-0.0012028359342366457,0.0008136685937643051
1761467043712546000,4.073546142578125,-0.0003876551054418087,0.000321823637932539,0.0005670601967722178
1761467043722529300,4.083529296875,0.0020309907849878073,-0.002458200789988041,-0.0010103024542331696
1761467043732513300,4.09351318359375,-0.0005139256827533245,-0.0005990478675812483,0.0002706779632717371
1761467043742496000,4.10349609375,-0.000651828944683075,0.002216748194769025,-0.000911403214558959
1761467043752479000,4.11347900390625,0.002912013093009591,0.0001232372596859932,0.00041059008799493313
1761467043762462200,4.123462158203125,0.00003632623702287674,-0.0002167422790080309,0.00005357107147574425
1761467043772445200,4.133445068359375,-0.00005954736843705177,0.0032019575592130423,-0.000952837523072958
1761467043782428000,4.143427978515625,-0.00044202152639627457,-0.0005506426095962524,-0.0010794107802212238
1761467043792411100,4.1534111328125,0.000448805745691061,0.0012496542185544968,-0.0003893857356160879
1761467043802394000,4.16339404296875,0.0009163324721157551,-0.0007727181073278189,-0.0004494620952755213
1761467043812377000,4.173377197265625,0.0005195215344429016,-0.0016909759724512696,-0.0008201741147786379
1761467043822360000,4.183360107421875,0.0015831016935408115,0.0047114212065935135,0.0013201306574046612
1761467043832343000,4.193343017578125,-0.00013889838010072708,-0.0040706186555325985,0.000350740272551775
1761467043842326300,4.203326171875,0.0006620991043746471,-0.0007647939492017031,0.00016109622083604336
1761467043852309000,4.21330908203125,0.0019332258962094784,0.00131486845202744,0.00078827072866261
1761467043862293000,4.22329296875,0.0016634170897305012,-0.0039033882785588503,0.0013674944639205933
1761467043872276000,4.23327587890625,-0.0029164208099246025,-0.0012335693463683128,-0.00007141148671507835
1761467043882259200,4.24325927734375,0.00005317851901054382,0.0009266883134841919,0.0016264040023088455
1761467043892242200,4.2532421875,-0.0008323225192725658,-0.0008826635312289,-0.003123876405879855
1761467043902225000,4.263224853515625,0.0002567628398537636,0.005465133115649223,-0.000700047705322504
1761467043912208100,4.2732080078125,0.003005145350471139,0.002228060970082879,-0.00029391562566161156
1761467043922191000,4.283191162109375,0.0006187055259943008,-0.0002905596047639847,-0.0009484756737947464
1761467043932174000,4.293174072265625,0.0015412243083119392,0.0008609909564256668,0.0005894997157156467
1761467043942157000,4.303156982421875,-0.0024035978130996227,0.00036952830851078033,-0.00010661687701940536
1761467043952140000,4.31314013671875,-0.0030571375973522663,-0.0005274242721498013,0.000035596080124378204
1761467043962123300,4.323123291015625,-0.00020924024283885956,-0.0005277690943330526,0.002433812478557229
1761467043972106200,4.333106201171875,-0.0016537387855350971,-0.0015980936586856842,0.0001402983907610178
1761467043982089000,4.3430888671875,-0.0005020471289753914,-0.0019657183438539505,0.00029116636142134666
1761467043992072200,4.353072265625,0.0019280873239040375,-0.001551064196974039,0.001291716005653143
1761467044002055200,4.36305517578125,-0.0013361847959458828,-0.0028341447468847036,0.000034534838050603867
1761467044012038000,4.373037841796875,-0.00044562341645359993,-0.001541180070489645,-0.0020632371306419373
1761467044022022000,4.38302197265625,0.0017892420291900635,-0.0008913197088986635,0.001595078269019723
1761467044032005000,4.393005126953125,-0.0008318410255014896,-0.0007464438676834106,0.000497589586302638
1761467044041988000,4.402988037109375,-0.000507676973938942,0.0022314111702144146,0.002180694602429867
1761467044051971000,4.41297119140625,0.0017386991530656815,-0.0007223007269203663,-0.00026195659302175045
1761467044061954000,4.4229541015625,-0.0015900623984634876,0.003776087425649166,0.00043666246347129345
1761467044071937000,4.43293701171875,-0.0017410637810826302,0.0009917523711919785,-0.0022222374100238085
1761467044081920300,4.442920166015625,-0.00327263493090868,-0.0006588427349925041,0.0020531429909169674
1761467044091903200,4.4529033203125,0.0005247662775218487,0.0006218715570867062,-0.0005282589700073004
1761467044101886000,4.462885986328125,-0.0021343985572457314,0.0020762404892593622,0.0005953074432909489
1761467044111869200,4.472869140625,0.00042436644434928894,-0.0004018307663500309,0.001679214183241129
1761467044121852200,4.48285205078125,-0.0010644467547535896,-0.0024520389270037413,0.00027405121363699436
1761467044131835100,4.492835205078125,-0.00029985327273607254,-0.0025188843719661236,0.0012884491588920355
1761467044141818000,4.502818115234375,0.00022185221314430237,-0.0010744831524789333,0.001560210483148694
1761467044151801000,4.512801025390625,0.0014815274626016617,-0.0033538825809955597,-0.0009359703399240971
1761467044161784000,4.5227841796875,-0.0006836238317191601,0.0031260941177606583,0.004374857526272535
1761467044171767000,4.53276708984375,-0.0016554114408791065,-0.0002654413692653179,0.00039396435022354126
1761467044181751000,4.5427509765625,-0.0017403904348611832,0.0005356813780963421,-0.0032511758618056774
1761467044191734000,4.552734130859375,-0.0006213299930095673,0.0013980129733681679,-0.00008520996198058128
1761467044201717200,4.56271728515625,0.0028526997193694115,0.004362513776868582,0.0003529831301420927
1761467044211700200,4.5727001953125,0.0008294964209198952,-0.0011198692955076694,-0.002291269600391388
1761467044221683000,4.582682861328125,0.0027014994993805885,0.001592894084751606,0.00002940744161605835
1761467044231666200,4.592666259765625,0.0015936247073113918,0.0015188585966825485,0.002702155848965049
1761467044241650200,4.602650146484375,0.0007163682021200657,-0.0034418555442243814,-0.002172615146264434
1761467044251633200,4.612633056640625,0.0010399422608315945,0.0017936527729034424,0.0010074654128402472
1761467044261615900,4.622615966796875,-0.00027073221281170845,-0.002170790918171406,0.00087317219004035
1761467044271599000,4.63259912109375,-0.0007793959230184555,0.0010673466604202986,-0.0007886402308940887
1761467044281582000,4.64258203125,0.0020983614958822727,-0.0013661072589457035,0.0002462216652929783
1761467044291565000,4.65256494140625,-0.00045614270493388176,-0.006833577062934637,-0.000023822998628020287
1761467044301548000,4.662548095703125,-0.0027749487198889256,-0.0004711428191512823,0.00010770116932690144
1761467044311531000,4.672531005859375,-0.0006822370924055576,-0.002453866181895137,-0.0014561070129275322
1761467044321514200,4.68251416015625,-0.0002209879457950592,-0.0001958138309419155,-0.0002635437995195389
1761467044331497200,4.692497314453125,0.0014911582693457603,0.0027278042398393154,-0.0015288116410374641
1761467044341480000,4.70247998046875,0.000030566006898880005,0.00004170997999608517,-0.0003557060845196247
1761467044351463200,4.712463134765625,-0.0003084545023739338,0.0038532260805368423,0.0009660206269472837
1761467044361446100,4.722446044921875,-0.0004832316190004349,0.0012901683803647757,0.0005128919146955013
1761467044371430100,4.73243017578125,0.002054494572803378,-0.0003860252909362316,-0.0011686279904097319
1761467044381413000,4.7424130859375,0.0021673718001693487,0.004718988202512264,0.0035543241538107395
1761467044391396000,4.75239599609375,0.0008048983290791512,0.0034590468276292086,-0.0010337696876376867
1761467044401379000,4.762379150390625,-0.002853906247764826,-0.0008552942890673876,0.001556894276291132
1761467044411362000,4.772362060546875,0.0023224803153425455,0.000576687278226018,-0.00107271084561944
1761467044421345000,4.782344970703125,0.0007369988597929478,-0.003056273330003023,-0.0006290161982178688
1761467044431328000,4.792327880859375,-0.0016731619834899902,-0.0008575674146413803,0.0018144340720027685
1761467044441311200,4.802311279296875,-0.0011194655671715736,-0.0027889336924999952,-0.00045526190660893917
1761467044451294200,4.812294189453125,0.00006484193727374077,-0.003431288292631507,0.0015104173216968775
1761467044461277000,4.82227685546875,0.0018483307212591171,-0.0004297990817576647,0.0017261262983083725
1761467044471260200,4.83226025390625,0.0004712101072072983,-0.0003243379760533571,-0.0006020090077072382
1761467044481243100,4.8422431640625,-0.00016234256327152252,0.000189279206097126,0.0008074911311268806
1761467044491226000,4.85222607421875,0.0015492714010179043,-0.00042511196807026863,0.0007984363473951817
1761467044501209000,4.862208984375,-0.00006557675078511238,-0.002554883249104023,-0.0009386667516082525
1761467044511192000,4.872192138671875,0.00021032663062214851,0.003049739170819521,0.0014267528895288706
1761467044521175000,4.882175048828125,0.00015240395441651344,-0.0009233662858605385,0.001133419806137681
1761467044531158300,4.892158203125,-0.002394643146544695,-0.0005044511053711176,0.0007533866446465254
1761467044541141000,4.90214111328125,0.0007991748861968517,-0.0015257764607667923,0.0008918766397982836
1761467044551124000,4.9121240234375,0.0019821510650217533,0.00007664761506021023,0.0011632528621703386
1761467044561107200,4.922107177734375,-0.00032849889248609543,0.00032975105568766594,0.00011253589764237404
1761467044571090200,4.932090087890625,-0.00017696479335427284,-0.0019677579402923584,0.0005751268472522497
1761467044581074000,4.942073974609375,-0.0009533371776342392,-0.000728339422494173,0.00019153067842125893
1761467044591057200,4.95205712890625,-0.0005200407467782497,0.00040723267011344433,-0.0014990440104156733
1761467044601040100,4.9620400390625,0.0013237898238003254,-0.0015653753653168678,0.001496609766036272
1761467044611023000,4.972023193359375,-0.0010911645367741585,0.0011206886265426874,-0.0011367241386324167
1761467044621006000,4.982006103515625,0.0007746745832264423,0.0005522477440536022,0.001004333607852459
1761467044630989000,4.991989013671875,0.001944068819284439,0.001119767315685749,0.0021891738288104534
1761467044640972000,5.001971923828125,-0.001811155118048191,0.002048926893621683,-0.0007328465580940247
1761467044650955300,5.011955322265625,0.00032549863681197166,0.002573569305241108,0.001402742462232709
1761467044660938000,5.02193798828125,-0.00047197286039590836,-0.00012515857815742493,-0.0007895182352513075
1761467044670921000,5.0319208984375,-0.002725273836404085,-0.0006737697403877974,0.0005777485202997923
1761467044680904200,5.041904296875,0.0017200126312673092,0.003412184538319707,-0.001223644008859992
1761467044690887200,5.05188720703125,-0.00173490634188056,-0.004535753279924393,0.00021579465828835964
1761467044700870100,5.0618701171875,0.0020264778286218643,0.004157809540629387,-0.00036216131411492825
1761467044710853000,5.07185302734375,0.0003329738974571228,-0.002298225648701191,-0.0010452622082084417
1761467044720836000,5.081836181640625,-0.00030020158737897873,-0.0002910618204623461,0.00146019016392529
1761467044730819000,5.091819091796875,0.000847088173031807,-0.003973681014031172,0.0026783195789903402
1761467044740802000,5.101802001953125,-0.000567571260035038,-0.004011134151369333,0.002270016586408019
1761467044750785000,5.111784912109375,0.002249520504847169,-0.0013463753275573254,0.002006096998229623
1761467044760768300,5.121768310546875,0.0005154330283403397,-0.001177741913124919,0.0004246633034199476
1761467044770751000,5.1317509765625,0.0013340888544917107,0.0009762225672602654,0.00042679370380938053
1761467044780734000,5.14173388671875,0.0024450120981782675,0.0003375571686774492,-0.0005377854686230421
1761467044790717200,5.15171728515625,0.001943805254995823,0.001193497097119689,0.0013796903658658266
1761467044800700200,5.1617001953125,-0.0003563268110156059,-0.0007119495421648026,-0.001653817598707974
1761467044810683100,5.17168310546875,-0.0001565897837281227,-0.0037317078094929457,-0.0015251868171617389
1761467044820667100,5.181667236328125,-0.0016184919513761997,-0.0018463719170540571,-0.0011173682287335396
1761467044830650000,5.191650146484375,0.0008539869450032711,0.0004998729564249516,0.0009042371530085802
1761467044840633000,5.201633056640625,0.002879018196836114,-0.001099972054362297,-0.0014271805994212627
1761467044850616300,5.2116162109375,-0.0013351677916944027,0.002610610332340002,0.00048150704242289066
1761467044860599000,5.22159912109375,0.0011198441497981548,0.001836162991821766,0.00004958035424351692
1761467044870582000,5.23158203125,-0.0006418367847800255,0.0005573132075369358,0.0010048563126474619
1761467044880565200,5.241565185546875,0.00013027619570493698,-0.0014169944915920496,-0.00017174403183162212
1761467044890548000,5.2515478515625,0.0016144560649991035,-0.006129191257059574,-0.0011869410518556833
1761467044900531000,5.261531005859375,0.000010604038834571838,-0.0005001306999474764,0.00010327133350074291
1761467044910514200,5.27151416015625,0.0008588209748268127,0.0017971121706068516,0.000742696225643158
1761467044920497200,5.2814970703125,0.0006479592993855476,-0.0008020617533475161,0.0007089374121278524
1761467044930480000,5.291480224609375,0.0006966954097151756,-0.0015975479036569595,0.00034488318488001823
1761467044940463000,5.301463134765625,0.0007202755659818649,0.0005048960447311401,0.001034321030601859
1761467044950446000,5.311446044921875,-0.00036309799179434776,-0.0010072467848658562,-0.0007808895315974951
1761467044960429300,5.32142919921875,-0.0013258308172225952,-0.0006851491052657366,0.00036556413397192955
1761467044970412000,5.331412109375,0.0017376034520566463,-0.0027616156730800867,-0.0006006306502968073
1761467044980395000,5.34139501953125,0.00010689487680792809,-0.0006080481689423323,0.00045246374793350697
1761467044990378200,5.351378173828125,0.001768707763403654,-0.0005734269507229328,-0.0007891019340604544
1761467045000361200,5.361361328125,0.0011187680065631866,-0.000780079048126936,0.00038461247459053993
1761467045010344000,5.371343994140625,0.0005461880937218666,-0.0005824724212288857,0.00009512691758573055
1761467045020327200,5.3813271484375,-0.0009850929491221905,-0.0011786781251430511,-0.00015121838077902794
1761467045030310100,5.39131005859375,-0.0006948085501790047,0.001413110177963972,0.0024714628234505653
1761467045040293000,5.401293212890625,-0.00012428313493728638,-0.0034193070605397224,-0.0009167355019599199
1761467045050276000,5.411276123046875,0.0010517686605453491,0.0008635884150862694,0.000043600331991910934
1761467045060259000,5.421259033203125,-0.0010523083619773388,0.0018213470466434956,0.001489792251959443
1761467045070242000,5.431241943359375,-0.001992936711758375,-0.0026969723403453827,-0.0003163635265082121
1761467045080225000,5.44122509765625,0.0010072528384625912,0.002261820249259472,0.0003112698905169964
1761467045090208000,5.4512080078125,-0.002033011522144079,0.0010285102762281895,-0.0004977984353899956
1761467045100191200,5.461191162109375,-0.0019132611341774464,0.002848460804671049,0.0003608700353652239
1761467045110174200,5.47117431640625,-0.0021625333465635777,0.0015802634879946709,0.001982468646019697
1761467045120158200,5.481158203125,-0.0014851461164653301,0.0006091881077736616,0.002583584049716592
1761467045130141000,5.491140869140625,-0.00077781081199646,0.0013356988783925772,-0.0008186041377484798
1761467045140124200,5.501124267578125,0.0007012789137661457,0.0022635082714259624,-0.0008124075829982758
1761467045150107100,5.511107177734375,0.0017846529372036457,-0.002787443110719323,0.00021131150424480438
1761467045160090000,5.521090087890625,-0.0016083144582808018,0.004922644700855017,0.0015119146555662155
1761467045170073000,5.531072998046875,-0.0022402824833989143,0.0016549457795917988,0.0008706254884600639
1761467045180056000,5.54105615234375,0.0020310617983341217,0.0018464981112629175,-0.0006017228588461876
1761467045190039000,5.5510390625,-0.0010835048742592335,0.004084352403879166,0.0005373111926019192
1761467045200022300,5.561022216796875,0.0007082661613821983,0.0010634798090904951,-0.0010776044800877571
1761467045210005000,5.5710048828125,-0.0006185206584632397,0.0003281806129962206,0.0009906066115945578
1761467045219988200,5.58098828125,-0.0013920534402132034,0.0007531666196882725,0.0021502929739654064
1761467045229971200,5.59097119140625,-0.000408281572163105,-0.00003646058030426502,-0.0014202073216438293
1761467045239954000,5.600953857421875,0.002584358910098672,-0.0014780026394873857,-0.0004547443240880966
1761467045249937200,5.610937255859375,-0.002044481225311756,-0.003188817296177149,-0.0008704639039933681
1761467045259920100,5.620920166015625,0.00010785507038235664,-0.00045762863010168076,-0.0019522396614775062
1761467045269903000,5.630903076171875,0.0019180052913725376,-0.0024177152663469315,-0.0012861831346526742
1761467045279886000,5.640885986328125,-0.0007422622293233871,0.0009425911121070385,-0.001958558801561594
1761467045289869000,5.650869140625,0.0009078322909772396,-0.002301405416801572,-0.002960706129670143
1761467045299852000,5.66085205078125,-0.0010629468597471714,0.001766297733411193,0.00007869349792599678
1761467045309835300,5.670835205078125,-0.0019098324701189995,0.0021460645366460085,0.0013615384232252836
1761467045319818000,5.68081787109375,0.001020488329231739,-0.0028344481252133846,-0.00010037561878561974
1761467045329801000,5.690801025390625,-0.0007811402902007103,0.004383251070976257,0.0023079209495335817
1761467045339784200,5.7007841796875,0.00266674323938787,0.0012404872104525566,0.0013324571773409843
1761467045349767200,5.71076708984375,0.0012627248652279377,0.0009400825947523117,-0.00279251323081553
1761467045359750100,5.720750244140625,-0.0028764973394572735,-0.0031210731249302626,0.0026392133440822363
1761467045369733000,5.730733154296875,0.0007866811938583851,-0.0006280879024416208,-0.00040717655792832375
1761467045379716000,5.740716064453125,0.0011507957242429256,0.0016419109888374805,-0.0005301847122609615
1761467045389699300,5.75069921875,0.0009595807641744614,0.0014858501963317394,0.0025702675338834524
1761467045399682000,5.76068212890625,0.0008256346918642521,-0.0010671261698007584,0.0004302940797060728
1761467045409665000,5.7706650390625,-0.0004798471927642822,-0.00014647142961621284,0.0014675953425467014
1761467045419648300,5.780648193359375,0.0025891419500112534,0.0010383487679064274,0.001983287278562784
1761467045429631000,5.790630859375,-0.0019030780531466007,-0.0011758033651858568,-0.00013898569159209728
1761467045439614000,5.800614013671875,0.0023610261268913746,0.0036877214442938566,0.0017055505886673927
1761467045449597200,5.81059716796875,0.0007732496596872807,0.0007854083087295294,0.0006980765610933304
1761467045459580200,5.820580078125,-0.0004135807976126671,0.0030130825471132994,-0.0024610632099211216
1761467045469563000,5.83056298828125,0.0015174774453043938,0.0012500702869147062,0.0026801691856235266
1761467045479546000,5.840546142578125,-0.0027136136777698994,-0.00017327861860394478,0.0012763466220349073
1761467045489529000,5.850529052734375,-0.000683219637721777,0.0007194126956164837,-0.0011418035719543695
1761467045499512300,5.86051220703125,-0.000199868343770504,0.0006788808386772871,-0.00007174164056777954
1761467045509495000,5.8704951171875,0.0010369038209319115,-0.00023591471835970879,0.00021002069115638733
1761467045519478000,5.88047802734375,-0.0012546624056994915,-0.004047584719955921,0.00041493424214422703
1761467045529461200,5.890461181640625,0.002090800553560257,0.00008750543929636478,0.0006530208047479391
1761467045539444200,5.9004443359375,-0.0007106903940439224,-0.0016518274787813425,0.0003197931218892336
1761467045549428000,5.910427978515625,-0.001610838808119297,-0.0010406319051980972,-0.0006511954125016928
1761467045559411000,5.920410888671875,-0.0014384309761226177,-0.002397692296653986,-0.00027491780929267406
1761467045569394200,5.930394287109375,-0.0036403327248990536,-0.001100732944905758,0.0010654511861503124
1761467045579377200,5.940377197265625,0.0018606195226311684,0.0017326136585325003,-0.0019911513663828373
1761467045589359900,5.95035986328125,-0.0009831036441028118,0.00012353179045021534,-0.001038272399455309
1761467045599343000,5.960343017578125,-0.00013530021533370018,-0.0014586562756448984,-0.00034971279092133045
1761467045609326000,5.970326171875,0.0012375591322779655,-0.0009113766718655825,-0.0009111070539802313
1761467045619309300,5.980309326171875,-0.0008390103466808796,0.0023756641894578934,-0.0003096598666161299
1761467045629292000,5.9902919921875,0.0015373281203210354,0.0011985469609498978,0.0003619894850999117
1761467045639275000,6.00027490234375,-0.001069868914783001,-0.00097411940805614,-0.002067405730485916
1761467045649258200,6.01025830078125,-0.0017969119362533092,0.003313037334010005,0.0035574566572904587
1761467045659241200,6.0202412109375,-0.0007469863630831242,-0.0027197597082704306,-0.00017359433695673943
1761467045669224000,6.030223876953125,-0.0027920277789235115,-0.0018782007973641157,0.00002960488200187683
1761467045679206000,6.040205810546875,0.00004459777846932411,-0.0011419369839131832,0.00013156910426914692
1761467045689188900,6.05018896484375,0.0015498166903853416,0.00213614827953279,0.0009891069494187832
1761467045699172000,6.060172119140625,-0.0006060288287699223,-0.002320653758943081,-0.0021815462969243526
1761467045709154800,6.07015478515625,0.0016323579475283623,0.003998761065304279,0.00045471685007214546
1761467045719137800,6.0801376953125,0.0019148360006511211,-0.0024650166742503643,-0.002317032776772976
1761467045729121000,6.09012109375,-0.0015025325119495392,-0.0017409033607691526,-0.0010387154761701822
1761467045739104000,6.10010400390625,-0.0001576594077050686,0.0014307345263659954,0.0013900622725486755
1761467045749087000,6.1100869140625,-0.002010687254369259,0.0008469694294035435,-0.0016531317960470915
1761467045759070000,6.120070068359375,0.0013347286731004715,0.0020691673271358013,0.00010960851795971394
1761467045769053000,6.130052978515625,0.0007823887281119823,0.0003146771341562271,0.001290187705308199
1761467045779036200,6.1400361328125,-0.0001359693706035614,-0.0023672734387218952,0.0024117787834256887
1761467045789019000,6.150018798828125,-0.00023450655862689018,-0.00009106961078941822,-0.0007339471485465765
1761467045799001900,6.160001953125,-0.0013073412701487541,-0.00033556343987584114,0.0008823073003441095
1761467045808985000,6.169985107421875,-0.001011730171740055,-0.0011422350071370602,0.000012785429134964943
1761467045818967800,6.1799677734375,0.0022334090899676085,0.0012956096325069666,-0.0010354798287153244
1761467045828950800,6.18995068359375,0.0007827850058674812,0.00025191670283675194,0.001211429014801979
1761467045838934000,6.19993408203125,0.0009859809651970863,0.0007520907092839479,-0.0008556689135730267
1761467045848917000,6.2099169921875,0.0007947660051286221,0.0025076468009501696,0.00014514708891510963
1761467045858899700,6.219899658203125,0.002119937678799033,-0.0029379604384303093,-0.0004426301456987858
1761467045868883000,6.229883056640625,0.0002237670123577118,-0.00016907183453440666,0.0008985376916825771
1761467045878866000,6.239865966796875,-0.00021557090803980827,0.00289992056787014,0.000363966915756464
1761467045888849000,6.249848876953125,-0.0008121193386614323,0.0021635564044117928,-0.0001385717187076807
1761467045898832000,6.259831787109375,0.0011327378451824188,0.0014592665247619152,-0.00018296996131539345
1761467045908814800,6.26981494140625,0.0010634958744049072,0.0005165073089301586,-0.00214838283136487
1761467045918798000,6.279798095703125,0.0009168148972094059,0.0010500324424356222,0.00022817938588559628
1761467045928781000,6.289781005859375,0.0009583602659404278,0.0009309889283031225,0.0002004825510084629
1761467045938763800,6.299763671875,-0.00023268628865480423,-0.004999896045774221,-0.00007482967339456081
1761467045948747000,6.3097470703125,0.002111694309860468,-0.0049911076202988625,0.0006855025421828032
1761467045958730000,6.31972998046875,-0.0010008555836975574,-0.00434931181371212,0.0008617902640253305
1761467045968713000,6.329712890625,0.000017004553228616714,-0.0023692515678703785,0.0012146590743213892
1761467045978696000,6.339696044921875,-0.00161703210324049,-0.002191250678151846,0.0009565213695168495
1761467045988679000,6.349678955078125,-0.0009629596024751663,-0.0013595453929156065,-0.0014051697216928005
1761467045998662000,6.359661865234375,-0.001981092616915703,-2.4493783712387085e-7,-0.0002652558032423258
1761467046008644900,6.369644775390625,0.0006410558708012104,-0.0016290342900902033,0.0001784267369657755
1761467046018627800,6.3796279296875,-0.0009615384042263031,0.0024940732400864363,-0.00017119525000452995
1761467046028611000,6.389611083984375,0.0006595277227461338,0.00257689761929214,-0.0016015790170058608
1761467046038594000,6.399593994140625,-0.0009422418661415577,0.0042959218844771385,-0.0007666919846087694
1761467046048576800,6.40957666015625,-0.0017819367349147797,0.005249067209661007,0.0010562415700405836
1761467046058560000,6.41956005859375,0.0032414633315056562,0.0027629253454506397,0.0005759492050856352
1761467046068543000,6.42954296875,0.0012057428248226643,0.00906476378440857,0.0009527865331619978
1761467046078526000,6.43952587890625,0.001359711866825819,0.006591676734387875,-0.0014293629210442305
1761467046088509000,6.449509033203125,-0.00022007524967193604,0.004301091656088829,-0.0014056608779355884
1761467046098492000,6.459491943359375,0.0015970789827406406,0.008533140644431114,-0.002676075790077448
1761467046108475000,6.469474853515625,0.0002812109887599945,0.006613267119973898,-0.0019186728168278933
1761467046118458000,6.4794580078125,0.0007598954252898693,0.006575153209269047,0.0003697178326547146
1761467046128440800,6.48944091796875,-0.0015890123322606087,0.00383342825807631,-0.0014636021805927157
1761467046138423800,6.499423828125,0.0027923511806875467,0.003239782527089119,0.000340436352416873
1761467046148407000,6.509406982421875,0.000692448578774929,-0.0005304547958076,-0.00027235690504312515
1761467046158390000,6.51939013671875,0.0022287822794169188,0.004477201960980892,0.0009364758152514696
1761467046168373000,6.529373046875,0.00019998615607619286,0.0008718147873878479,-0.00143027538433671
1761467046178356000,6.53935595703125,-0.001814217772334814,-0.002844389295205474,-0.00023138453252613544
1761467046188339000,6.5493388671875,0.0019855801947414875,-0.001359676942229271,0.0001502465456724167
1761467046198323000,6.559322998046875,0.0011880863457918167,0.000968137988820672,0.002494996413588524
1761467046208306000,6.569305908203125,0.0011039301753044128,-0.001796223339624703,0.0023509194143116474
1761467046218289000,6.579288818359375,0.0014288858510553837,0.004279980435967445,0.0010638763196766376
1761467046228271900,6.58927197265625,-0.0009490507654845715,0.0019087016116827726,-0.002356954151764512
1761467046238255000,6.599255126953125,0.0032211432699114084,0.005790170282125473,0.000906102592125535
1761467046248237800,6.60923779296875,0.000858653336763382,-0.0003199197817593813,-0.00030883168801665306
1761467046258220800,6.619220703125,-0.0008364943787455559,0.00429752841591835,0.0011716694571077824
1761467046268204000,6.6292041015625,0.0009097405709326267,0.002169396262615919,-0.0037597056943923235
1761467046278187000,6.63918701171875,0.0005081016570329666,0.0004799461457878351,-0.003491208655759692
1761467046288170000,6.649169921875,0.0005424567498266697,0.0031324548181146383,-0.0032073156908154488
1761467046298153000,6.659153076171875,-0.00047696521505713463,-0.0004561555106192827,-0.001018385635688901
1761467046308136000,6.669135986328125,0.0017909826710820198,-0.002170965075492859,-0.0014612693339586258
1761467046318119200,6.679119140625,0.000780309084802866,-0.0031184284016489983,0.0010347601491957903
1761467046328102000,6.689101806640625,0.0015073521062731743,-0.0016422383487224579,0.0006517975125461817
1761467046338084900,6.6990849609375,-0.002513361629098654,-0.0028178461361676455,-0.002380670513957739
1761467046348068000,6.709068115234375,0.000694948248565197,-0.00277896411716938,0.00121566210873425
1761467046358050800,6.71905078125,-0.0009245835244655609,-0.003517649369314313,0.0020200253929942846
1761467046368033800,6.72903369140625,-0.001479053869843483,-0.0011506318114697933,-0.0014876239001750946
1761467046378017000,6.73901708984375,0.0005742223002016544,-0.002108469605445862,-0.00035723717883229256
1761467046388000000,6.749,0.0016298992559313774,0.004359017126262188,0.0009639570489525795
1761467046397982700,6.758982666015625,-0.000879126600921154,0.0005312266293913126,-0.00019058724865317345
1761467046407966000,6.768966064453125,0.002169127808883786,0.0031435212586075068,-0.001593806897290051
1761467046417949000,6.778948974609375,0.000571106094866991,0.0010461951605975628,0.0009191916324198246
1761467046427932000,6.788931884765625,0.0006326250731945038,0.003703763708472252,-0.0022704764269292355
1761467046437915000,6.798914794921875,-0.0006439574062824249,0.002935735508799553,0.0007101206574589014
1761467046447897900,6.80889794921875,-0.00023383041843771935,-0.0008904279675334692,-0.0003908302169293165
1761467046457881000,6.818881103515625,-0.00031215837225317955,0.00012712297029793262,-0.0005445969291031361
1761467046467864000,6.828864013671875,-0.001813915092498064,-0.0008260223548859358,0.0005624792538583279
1761467046477846800,6.8388466796875,0.0005986080504953861,-0.002826191484928131,-0.0013508625561371446
1761467046487830000,6.848830078125,0.0002819579094648361,-0.0034017006400972605,0.0013200216926634312
1761467046497813000,6.85881298828125,0.000038446858525276184,-0.00048571592196822166,0.0005450784228742123
1761467046507796000,6.8687958984375,-0.002034557983279228,-0.009824090637266636,0.00044041615910828114
1761467046517779000,6.878779052734375,-0.0008939541876316071,-0.007689623162150383,-0.003606152953580022
1761467046527762000,6.888761962890625,-0.004349938128143549,-0.0031121820211410522,0.004242182709276676
1761467046537745000,6.898744873046875,0.004904928617179394,0.006050272844731808,0.004405991639941931
1761467046547728000,6.908727783203125,0.002465739380568266,0.0022278374526649714,-0.001258552074432373
1761467046557710800,6.9187109375,-0.0000368412584066391,0.007612512446939945,-0.0008856453932821751
1761467046567693800,6.92869384765625,0.0018484103493392467,0.005137637257575989,0.0015114659909158945
1761467046577677000,6.938677001953125,-0.002524147741496563,0.002126667182892561,-0.0018776729702949524
1761467046587659800,6.94865966796875,-0.001990716904401779,-0.002901647239923477,-0.0021959207952022552
1761467046597643000,6.95864306640625,-0.00551623897626996,-0.0012892796657979488,-0.0010414817370474339
1761467046607626000,6.9686259765625,-0.0005265399813652039,0.0010692158248275518,0.0015124899800866842
1761467046617609000,6.97860888671875,-0.0002696765586733818,0.000712706008926034,0.0019118906930088997
1761467046627592000,6.988592041015625,0.00033672526478767395,-0.004068467300385237,0.000059395795688033104
1761467046637575000,6.998574951171875,0.000714434776455164,-0.0008349746931344271,-0.0001271266955882311
1761467046647558000,7.008557861328125,-0.0016259513795375824,-0.006300047971308231,0.0003394591622054577
1761467046657541000,7.018541015625,-0.0017943964339792728,-0.007968192920088768,-0.0004852709826081991
1761467046667523800,7.02852392578125,-0.00256085442379117,-0.004260806366801262,-0.0015822270652279258
1761467046677506800,7.0385068359375,-0.0026742280460894108,-0.005575546994805336,-0.00012348615564405918
1761467046687494000,7.048493896484375,-0.001462489366531372,-0.00011260481551289558,-0.0010723704472184181
1761467046697476600,7.0584765625,0.00045194756239652634,0.00042091263458132744,-0.002640402177348733
1761467046707459600,7.06845947265625,-0.00018561305478215218,-0.001321061048656702,-0.0003141311462968588
1761467046717442800,7.07844287109375,0.0009116572327911854,0.004443026147782803,0.0007715888787060976
1761467046727425800,7.08842578125,0.0006501348689198494,0.003365777200087905,0.0004533412866294384
1761467046737408500,7.098408447265625,0.00024165119975805283,-0.00278588873334229,0.0023864656686782837
1761467046747391700,7.108391845703125,0.0009327414445579052,-0.0006399136036634445,0.0023923246189951897
1761467046757374700,7.118374755859375,0.0019743097946047783,0.0009206689428538084,0.0007333778776228428
1761467046767358000,7.12835791015625,-0.0004419763572514057,0.003408860182389617,0.0007245894521474838
1761467046777340700,7.138340576171875,-0.0006146812811493874,0.0008555715903639793,0.0003591796848922968
1761467046787323600,7.14832373046875,-0.0023177731782197952,-0.0015079837758094072,-0.0011340547353029251
1761467046797307000,7.158306884765625,-0.0004702969454228878,-0.0010791562963277102,0.0005990255158394575
1761467046807289900,7.168289794921875,0.00044876011088490486,-0.001245870254933834,0.0006269887089729309
1761467046817272600,7.1782724609375,-0.0026767533272504807,-0.0024361242540180683,0.0015733609907329082
1761467046827255800,7.188255859375,0.0011701826006174088,-0.0009833697695285082,0.0005280701443552971
1761467046837238800,7.19823876953125,-0.0015883510932326317,-0.0020515350624918938,0.0006875474937260151
1761467046847221500,7.208221435546875,-0.0011201677843928337,0.001233474351465702,-0.0010107504203915596
1761467046857204700,7.218204833984375,-0.000379074364900589,-0.004992909263819456,-0.0011737763416022062
1761467046867187700,7.228187744140625,-0.000005965586751699448,-0.0000871000811457634,0.00019988208077847958
1761467046877170700,7.238170654296875,0.0009606191888451576,0.00044245645403862,-0.00008029281161725521
1761467046887153700,7.248153564453125,-0.0014450144954025745,0.0034552905708551407,0.00015113595873117447
1761467046897136600,7.25813671875,-0.0014477786608040333,0.0002936439123004675,-0.002386694774031639
1761467046907119900,7.268119873046875,-0.00006666313856840134,0.0010542427189648151,0.0014629042707383633
1761467046917102800,7.278102783203125,0.0016449140384793282,0.00021860189735889435,0.0025821710005402565
1761467046927085600,7.28808544921875,-0.0002904054708778858,0.0006955738645046949,0.0004913231823593378
1761467046937068800,7.29806884765625,-0.0009559150785207748,0.0013428768143057823,0.0015403162688016891
1761467046947051800,7.3080517578125,-0.0015769638121128082,-0.0008102888241410255,-0.0011779724154621363
1761467046957034800,7.31803466796875,-0.0010827849619090557,-0.002178007271140814,0.0009977149311453104
1761467046967017700,7.328017822265625,-0.000738171860575676,-0.002366559114307165,0.0011114322114735842
1761467046977000700,7.338000732421875,-0.0011486872099339962,-0.0026358638424426317,0.0009579833131283522
1761467046986984700,7.347984619140625,-0.000952412374317646,-0.002978079952299595,-0.001845526392571628
1761467046996967700,7.3579677734375,0.0013309502974152565,-0.00161368353292346,-0.002147478051483631
1761467047006950700,7.36795068359375,-0.0040038940496742725,0.004223433323204517,-0.00018073362298309803
1761467047016933600,7.37793359375,0.000450910534709692,-0.0005656392313539982,-0.0009990872349590063
1761467047026916900,7.387916748046875,0.0007595708593726158,0.002213902072981,0.00018814997747540474
1761467047036899800,7.39789990234375,0.00003185076639056206,0.0026983588468283415,0.0001046694815158844
1761467047046882600,7.407882568359375,-0.0007069101557135582,0.001733229262754321,0.001516677439212799
1761467047056865800,7.41786572265625,-0.001627370249480009,-0.00001859758049249649,-0.0022123586386442184
1761467047066848800,7.427848876953125,0.00028930651023983955,0.0030139440204948187,-0.0013076828327029943
1761467047076831700,7.437831787109375,0.0013994891196489334,-0.0017764022340998054,0.0002086979802697897
1761467047086814700,7.447814697265625,0.000002128537744283676,0.0003756980877369642,-0.0011100994888693094
1761467047096797700,7.457797607421875,-0.002542652655392885,-0.0010988248977810144,-0.0010200056713074446
1761467047106780700,7.46778076171875,0.0011346396058797836,-0.004632573574781418,-0.0012370531912893057
1761467047116764000,7.477763916015625,-0.00005375640466809273,-0.0015077460557222366,0.00221598194912076
1761467047126746600,7.48774658203125,-0.0020641768351197243,-0.0021562259644269943,-0.005129282828420401
1761467047136729600,7.4977294921875,-0.0005975347012281418,-0.00048151472583413124,0.00209550722502172
1761467047146712800,7.507712890625,0.0004126024432480335,0.00007695029489696026,0.0010440910700708628
1761467047156695800,7.51769580078125,-0.0010625231079757214,0.0016284792218357325,-0.00008195312693715096
1761467047166678800,7.5276787109375,0.001024596393108368,0.002410650020465255,-0.00021377974189817905
1761467047176661800,7.537661865234375,0.0005420204252004623,0.0032000422943383455,0.00041382666677236557
1761467047186644700,7.547644775390625,-0.0022369883954524994,0.0019483568612486124,0.0016143799293786287
1761467047196627700,7.557627685546875,0.0001517576165497303,0.004342595115303993,0.0019951211288571358
1761467047206610700,7.567610595703125,0.0022580516524612904,0.0039529744535684586,-0.0004989292938262224
1761467047216593700,7.57759375,-0.00047921668738126755,0.00531671941280365,0.0010448070243000984
1761467047226577000,7.587576904296875,0.0007575554773211479,-0.00024049868807196617,-0.0015762760303914547
1761467047236559600,7.5975595703125,-0.00033200671896338463,-0.0014009254518896341,-0.0009112386032938957
1761467047246542600,7.60754248046875,-0.0016958112828433514,-0.0002882569096982479,-0.0006134971044957638
1761467047256525800,7.61752587890625,0.0004866099916398525,-0.00508830975741148,-0.00016394606791436672
1761467047266508800,7.6275087890625,0.0004951320588588715,-0.0019415186252444983,-0.00033864937722682953
1761467047276491500,7.637491455078125,0.0010944344103336334,-0.005745104514062405,-0.0019783740863204002
1761467047286474800,7.647474853515625,0.0013777948915958405,-0.0025192173197865486,0.0012648236006498337
1761467047296457700,7.657457763671875,-0.0005919821560382843,-0.003763653337955475,-0.0002543290611356497
1761467047306440700,7.667440673828125,-0.00026068510487675667,-0.005072330590337515,0.0008104029111564159
1761467047316423700,7.677423583984375,-0.003870533313602209,0.00011346652172505856,-0.0010304960887879133
1761467047326406700,7.68740673828125,-0.0029227142222225666,-0.0008386136032640934,0.0013229390606284142
1761467047336390000,7.697389892578125,0.0016528586857020855,0.004002982750535011,0.0021319964434951544
1761467047346372900,7.707372802734375,-0.0012595742009580135,0.003204833250492811,0.00034261844120919704
1761467047356355600,7.71735546875,-0.0005675768479704857,0.005541727878153324,-0.00023167580366134644
1761467047366338800,7.7273388671875,0.0011962349526584148,0.0033126624766737223,-0.001592817367054522
1761467047376321800,7.73732177734375,-0.00043285638093948364,0.004008886404335499,0.0007683816365897655
1761467047386304500,7.747304443359375,0.0012462669983506203,0.004713824950158596,-0.002303041983395815
1761467047396287700,7.757287841796875,-0.0017866790294647217,0.0005483299028128386,-0.0001229944173246622
1761467047406270700,7.767270751953125,-0.00027134036645293236,0.0067833224311470985,-0.0009291332680732012
1761467047416253700,7.777253662109375,0.0012051737867295742,0.0044082594104111195,-0.0014176738914102316
1761467047426236700,7.787236572265625,-0.0017866212874650955,-0.002634469885379076,0.0015110042877495289
1761467047436219600,7.7972197265625,0.0010344418697059155,0.00024295621551573277,0.00011427979916334152
1761467047446203000,7.807202880859375,-0.001848164014518261,-0.002172264503315091,-0.000648183049634099
1761467047456185900,7.817185791015625,-0.0008786926046013832,-0.0008853655308485031,-0.0020140092819929123
1761467047466168600,7.82716845703125,-0.002066196408122778,-0.0047315023839473724,-0.000522905495017767
1761467047476151800,7.83715185546875,-0.001559581607580185,0.05883714556694031,0.021415872499346733
1761467047486134800,7.847134765625,-0.0019966065883636475,0.014578338712453842,0.009965077973902225
1761467047496117800,7.85711767578125,0.001213615294545889,0.012289260514080524,0.005681120790541172
1761467047506100700,7.867100830078125,-0.0002833479084074497,0.003312810091301799,0.0017596164252609015
1761467047516083700,7.877083740234375,-0.0006141406483948231,-0.012190130539238453,-0.00458631943911314
1761467047526066700,7.887066650390625,-0.00029322970658540726,-0.015009086579084396,-0.004531191661953926
1761467047536050000,7.8970498046875,0.0003424319438636303,-0.02646843157708645,-0.009165078401565552
1761467047546033700,7.90703369140625,0.0028468684758991003,-0.03654050827026367,-0.011605864390730858
1761467047556016600,7.9170166015625,0.0008388208225369453,-0.015474459156394005,-0.0048687150701880455
1761467047565999900,7.926999755859375,-0.001459220889955759,0.0135324252769351,0.002810776000842452
1761467047575982800,7.93698291015625,0.0011463458649814129,-0.01137611735612154,-0.0031481266487389803
