time,seconds_elapsed,z,y,x
1761467029706530600,0.115530517578125,0.000977636780589819,0.0027184467762708664,-0.00038896710611879826
1761467029716512500,0.125512451171875,-0.0018735434859991074,0.0043381815776228905,-0.0010949712013825774
1761467029726495500,0.13549560546875,0.000048724934458732605,-0.0017121653072535992,0.00177762471139431
1761467029736478500,0.145478515625,0.0007051941938698292,0.0031361193396151066,0.001211969181895256
1761467029746461400,0.15546142578125,-0.001106136478483677,0.001993889454752207,-0.0002453124616295099
1761467029756444400,0.1654443359375,-0.000027822796255350113,-0.0032610599882900715,0.0014460613019764423
1761467029766427400,0.175427490234375,-0.0019832076504826546,0.0033977983985096216,0.0024198079481720924
1761467029776410600,0.18541064453125,-0.0010729390196502209,0.00013356166891753674,0.0005713077262043953
1761467029786393300,0.195393310546875,0.002909248461946845,0.0000021371524780988693,-0.00017554312944412231
1761467029796376600,0.20537646484375,-0.0005392790772020817,-0.0013036106247454882,-0.0008360070642083883
1761467029806359600,0.215359619140625,0.00008793454617261887,-0.003085150383412838,-0.001094229519367218
1761467029816342300,0.22534228515625,0.002507416531443596,-0.0007269210182130337,0.00014174357056617737
1761467029826324500,0.235324462890625,-0.0020266175270080566,0.00191821763291955,0.0010750265792012215
1761467029836307500,0.245307373046875,-0.00034243427217006683,-0.0016080739442259073,-0.0006677461788058281
1761467029846290400,0.25529052734375,0.004165269434452057,-0.0016733850352466106,-0.0010270574130117893
1761467029856273400,0.2652734375,-0.0010563908144831657,0.002381277969107032,0.002757827052846551
1761467029866256400,0.27525634765625,0.0020655246917158365,-0.0011681197211146355,0.0017448114231228828
1761467029876239600,0.285239501953125,-0.0006727376021444798,-0.000025623710826039314,0.0001895255409181118
1761467029886222300,0.295222412109375,0.0009300457313656807,-0.00010512303560972214,0.0020650243386626244
1761467029896205300,0.305205322265625,0.00023123202845454216,-0.001455612014979124,0.00036619394086301327
1761467029906188500,0.3151884765625,-0.002545191440731287,0.00180919305421412,0.0014695993158966303
1761467029916171500,0.325171630859375,0.002040771534666419,0.0031961670611053705,0.0016011593397706747
1761467029926153500,0.335153564453125,0.000002963002771139145,-0.002208954654633999,0.0008541352581232786
1761467029936136400,0.345136474609375,-0.0016705673187971115,-0.002799111185595393,-0.0017259351443499327
1761467029946119400,0.355119384765625,0.0008753887377679348,-0.0006519206799566746,0.0023047199938446283
1761467029956102400,0.365102294921875,0.0017489055171608925,-0.0021803088020533323,0.00018617534078657627
1761467029966085400,0.37508544921875,-0.0013548177666962147,-0.0005908478051424026,-0.0006010085344314575
1761467029976068600,0.385068603515625,0.0017512268386781216,0.0003865321632474661,0.0010924956295639277
1761467029986051600,0.395051513671875,0.0019463938660919666,-0.0017635077238082886,0.0015863964799791574
1761467029996034300,0.405034423828125,0.0015743500553071499,0.0022429516538977623,0.0016327353660017252
1761467030006017500,0.415017578125,-0.0009115287102758884,0.0006086905486881733,0.0026952396146953106
1761467030016000500,0.42500048828125,-0.0015634708106517792,-0.0008877397049218416,-0.0001482174266129732
1761467030025983500,0.4349833984375,0.0016162884421646595,0.0005702204070985317,-0.000724428566172719
1761467030035965400,0.44496533203125,-0.001747017726302147,-0.0020159753039479256,0.0026801566127687693
1761467030045948400,0.454948486328125,-0.0030829175375401974,0.0015363709535449743,-0.0012685013934969902
1761467030055931600,0.464931640625,-0.000861309003084898,-0.0038610578048974276,-0.003026986727491021
1761467030065914400,0.474914306640625,0.000024827662855386734,-0.0014018004294484854,0.001882593845948577
1761467030075897300,0.4848974609375,0.0008301674388349056,0.005355171859264374,0.0014024258125573397
1761467030085880600,0.494880615234375,-0.0009062476456165314,-0.004326850175857544,-0.00016255583614110947
1761467030095863600,0.504863525390625,-0.0005065072327852249,0.00020451820455491543,0.0005895209033042192
1761467030105846500,0.514846435546875,0.00044706743210554123,0.004101426340639591,0.0008541964925825596
1761467030115829500,0.52482958984375,-0.0005545471794903278,-0.0006246194243431091,-0.0011578217381611466
1761467030125812500,0.5348125,0.00008773384615778923,0.0004909660201519728,-0.0006222929805517197
1761467030135794400,0.54479443359375,0.0008557895198464394,0.0003620691131800413,-0.001051860861480236
1761467030145777400,0.55477734375,-0.00030896905809640884,-0.0001865294761955738,0.002866809954866767
1761467030155760600,0.5647607421875,0.002254589693620801,0.0001215983647853136,0.0016606643330305815
1761467030165743400,0.574743408203125,0.0032068851869553328,0.002114910865202546,0.00022797402925789356
1761467030175726300,0.584726318359375,-0.00016414420679211617,0.0015330102760344744,-0.000832763034850359
1761467030185709600,0.59470947265625,0.0017112907953560352,-0.00038455729372799397,-0.0002733832225203514
1761467030195692500,0.604692626953125,0.0008785207755863667,0.0008657968137413263,-0.0018782040569931269
1761467030205675300,0.61467529296875,-0.0001340019516646862,0.0016842377372086048,0.0008760564960539341
1761467030215658500,0.624658447265625,-0.0017617261037230492,-0.00029289303347468376,0.0007088100537657738
1761467030225641500,0.634641357421875,-0.0016923523508012295,-0.0012528083752840757,-0.0007629112806171179
1761467030235623400,0.64462353515625,-0.0001530451700091362,-0.0013694546651095152,0.002429686253890395
1761467030245606400,0.6546064453125,0.0013541663065552711,0.0009179629851132631,0.001945276977494359
1761467030255589400,0.66458935546875,-0.001829642802476883,0.0013099799398332834,0.0007045101374387741
1761467030265572600,0.674572509765625,0.0007578497752547264,-0.000951393274590373,-0.0028004597406834364
1761467030275555300,0.684555419921875,-0.0005489629693329334,-0.0018158553866669536,-0.0011791271390393376
1761467030285538600,0.69453857421875,0.00037120142951607704,0.0005982029251754284,0.0010516401380300522
1761467030295521500,0.704521484375,0.00220105960033834,-0.0006494878325611353,0.001119284424930811
1761467030305504500,0.71450439453125,0.0005306028760969639,-0.0016322582960128784,-0.00007914239540696144
1761467030315487500,0.724487548828125,-0.00026088859885931015,-0.0016988373827189207,-0.0006855442188680172
1761467030325470500,0.734470458984375,0.0008101616986095905,0.005074748769402504,0.0026164953596889973
1761467030335453400,0.744453369140625,-0.003350494895130396,-0.001327757490798831,-0.00020991754718124866
1761467030345435400,0.754435302734375,0.0006697517819702625,-0.0006089275702834129,-0.0014545578742399812
1761467030355418400,0.76441845703125,-0.002458930015563965,0.0008768502157181501,0.0010051375720649958
1761467030365401600,0.774401611328125,-0.0008590309880673885,-0.0009753576014190912,-0.001730003277771175
1761467030375384600,0.784384521484375,0.00007786927744746208,0.0008094930090010166,0.003192317206412554
1761467030385367300,0.7943671875,0.002003846922889352,0.0017341184429824352,0.0016910783015191555
1761467030395350500,0.8043505859375,0.0004815841093659401,-0.002664624946191907,-0.0018258923664689064
1761467030405333500,0.81433349609375,-0.0005339351482689381,-0.00403215829282999,0.00030672107823193073
1761467030415316200,0.824316162109375,0.0007819328457117081,0.007440207526087761,0.0036617715377360582
1761467030425299500,0.834299560546875,0.0009016119875013828,0.00031585595570504665,0.0009213807061314583
1761467030435282400,0.844282470703125,0.000540753360837698,-0.0031385300680994987,0.0011051385663449764
1761467030445264600,0.8542646484375,-0.00004433514550328255,0.001223068917170167,0.002318694954738021
1761467030455247400,0.864247314453125,-3.9301812648773193e-7,-0.0023024235852062702,-0.00018867128528654575
1761467030465230600,0.874230712890625,-0.002086194697767496,-0.0006232084706425667,0.0028115659952163696
1761467030475213600,0.884213623046875,0.0005705752409994602,0.00145618780516088,0.0007904930971562862
1761467030485196300,0.8941962890625,-0.0005547478795051575,0.0004930228460580111,0.0005680285394191742
1761467030495179500,0.904179443359375,-0.00027325190603733063,0.0005329705309122801,-0.0006407801993191242
1761467030505162500,0.91416259765625,0.0019096718169748783,-0.0007758361753076315,0.0010104693938046694
1761467030515145500,0.9241455078125,0.0007328209467232227,-0.0027367216534912586,0.0005414867773652077
1761467030525128400,0.93412841796875,0.00038108834996819496,0.00012435042299330235,-0.0010099858045578003
1761467030535111400,0.944111328125,-0.0007518203929066658,0.00001116609200835228,0.0018337373621761799
1761467030545094400,0.954094482421875,-0.001185260247439146,0.0012526300270110369,-0.0013279638951644301
1761467030555076400,0.964076416015625,0.0018520751036703587,-0.000498930923640728,-0.0011077204253524542
1761467030565059300,0.974059326171875,0.00034418003633618355,-0.0016326622571796179,-0.001831165049225092
1761467030575042600,0.98404248046875,-0.00002306979149580002,0.002469138242304325,-0.0013592528412118554
1761467030585025500,0.994025634765625,0.0016840556636452675,0.0009564240463078022,-0.0022451889235526323
1761467030595008300,1.00400830078125,0.000051804352551698685,-0.0004763565957546234,0.0017229211516678333
1761467030604991500,1.013991455078125,0.0004376908764243126,0.00014020409435033798,0.00029613706283271313
1761467030614974500,1.023974365234375,-0.001973534934222698,0.0008241040632128716,0.0019395737908780575
1761467030624957400,1.03395751953125,-0.0006545986980199814,-0.002972216811031103,-0.00019862712360918522
1761467030634940400,1.0439404296875,-0.0005390173755586147,0.003051321255043149,0.002865872345864773
1761467030644923400,1.05392333984375,0.0010100179351866245,-0.0016933586448431015,0.001668145414441824
1761467030654905600,1.063905517578125,0.0008752620778977871,0.004026046022772789,0.001134980469942093
1761467030664888300,1.073888427734375,0.0008406997658312321,0.006519424729049206,0.0012463720049709082
1761467030674871600,1.08387158203125,0.0022311359643936157,0.0004575375933200121,0.0016519713681191206
1761467030684854500,1.0938544921875,0.0005289469845592976,0.005218420177698135,0.0010608525481075048
1761467030694837200,1.103837158203125,0.0019966152030974627,0.005383802577853203,0.002247823169454932
1761467030704820500,1.113820556640625,0.00043644150719046593,0.001769182039424777,0.0003833724185824394
1761467030714803500,1.123803466796875,0.00293688359670341,0.006312534213066101,0.000942103797569871
1761467030724786400,1.133786376953125,0.002082104329019785,0.006115373224020004,0.0016990152653306723
1761467030734769400,1.143769287109375,-0.0013605640269815922,0.003110262332484126,0.0012353586498647928
1761467030744752400,1.15375244140625,0.0005885143764317036,-0.0006039172876626253,-0.00012474716641008854
1761467030754735400,1.1637353515625,-0.0010586511343717575,0.0011681502219289541,0.0020041835960000753
1761467030764717300,1.17371728515625,-0.0011807321570813656,0.002871820703148842,0.001010807929560542
1761467030774700300,1.1837001953125,-0.0005735317245125771,0.0015740622766315937,0.0006534119602292776
1761467030784683500,1.19368359375,0.000310585368424654,-0.0018754416378214955,-0.0005372900050133467
1761467030794666500,1.20366650390625,0.000569444615393877,-0.0015127190854400396,0.0003942835610359907
1761467030804649500,1.2136494140625,0.0017214389517903328,0.0009996062144637108,0.0009202712681144476
1761467030814632400,1.223632568359375,-0.0011606337502598763,0.0012864284217357635,0.0012150832917541265
1761467030824615400,1.233615478515625,0.00010100333020091057,0.0008610717486590147,0.00038171629421412945
1761467030834598400,1.243598388671875,0.0009998204186558723,-0.0026849270798265934,-0.00114587286952883
1761467030844581400,1.253581298828125,-0.0006389324553310871,0.00004090042784810066,0.0012591159902513027
1761467030854564400,1.263564453125,0.0016655009239912033,0.0015565052162855864,-0.00019736681133508682
1761467030864546600,1.273546630859375,-0.002784642856568098,0.0016533115413039923,-0.0021912341471761465
1761467030874529300,1.283529296875,0.0013328702189028263,-0.0004657655954360962,-0.00028760661371052265
1761467030884512500,1.293512451171875,0.002051645889878273,0.004980947356671095,0.0009195024613291025
1761467030894495500,1.30349560546875,0.0011669439263641834,0.002912204246968031,0.0019898267928510904
1761467030904478200,1.313478271484375,0.0011031595058739185,0.0009008776396512985,-0.001448550377972424
1761467030914461400,1.32346142578125,0.0004184609279036522,0.0005812980234622955,0.0012095507699996233
1761467030924444400,1.3334443359375,0.0002755732275545597,0.0005121631547808647,-0.00035343714989721775
1761467030934427400,1.343427490234375,0.0024609630927443504,-0.000997849041596055,0.00009397394023835659
1761467030944410400,1.353410400390625,-0.0022698156535625458,-0.0017470121383666992,-0.002209531841799617
1761467030954393300,1.363393310546875,-0.0020343922078609467,-0.0032032285816967487,-0.0014721025945618749
1761467030964375600,1.37337548828125,-0.00011763907968997955,-0.002981869736686349,0.0027991600800305605
1761467030974358300,1.383358154296875,-0.0012481510639190674,-0.0018489609938114882,0.000019618775695562363
1761467030984341500,1.393341552734375,-0.0005528274923563004,-0.006909362506121397,-0.0022373367100954056
1761467030994324500,1.403324462890625,-0.0020745573565363884,-0.0046560619957745075,-0.0012951103271916509
1761467031004307500,1.413307373046875,-0.003085268195718527,-0.008231010288000107,-0.0014962702989578247
1761467031014290400,1.42329052734375,-0.0010277098044753075,-0.02094334363937378,-0.005758925806730986
1761467031024273400,1.4332734375,-0.0014573480002582073,-0.012715128250420094,-0.003868976142257452
1761467031034256400,1.44325634765625,0.001082774717360735,0.010272212326526642,0.01132462453097105
1761467031044239600,1.453239501953125,-0.00004334002733230591,-0.0054481495171785355,0.004452867433428764
1761467031054222300,1.463222412109375,-0.00024946872144937515,-0.012860526330769062,-0.008283700793981552
1761467031064205300,1.473205322265625,0.0012872153893113136,0.0013527916744351387,-0.00014215707778930664
1761467031074187500,1.4831875,-0.0013341340236365795,0.00310674961656332,0.005933844950050116
1761467031084170200,1.493170166015625,0.000026553869247436523,0.007670840248465538,-0.001065532909706235
1761467031094153500,1.503153564453125,0.0003133765421807766,-0.001412669662386179,-0.0027840707916766405
1761467031104136400,1.513136474609375,-0.0024763569235801697,0.0018145698122680187,-0.0000817000400274992
1761467031114119400,1.523119384765625,-0.00027765147387981415,0.013921566307544708,0.0013846363872289658
1761467031124102400,1.533102294921875,-0.00046712299808859825,-0.0011703716591000557,-0.0021516242995858192
1761467031134085400,1.54308544921875,-0.0002689836546778679,-0.0025275186635553837,-0.002367606619372964
1761467031144068400,1.553068359375,0.002156151458621025,0.010248458944261074,0.0028860783204436302
1761467031154051300,1.56305126953125,0.0025391140952706337,0.0015894575044512749,0.003705799113959074
1761467031164034300,1.573034423828125,0.0011565480381250381,0.003576492890715599,0.002108755288645625
1761467031174017500,1.583017578125,0.001419668085873127,0.001740243285894394,0.002149501582607627
1761467031183999500,1.59299951171875,-0.0012639202177524567,-0.002394592622295022,0.0006221160292625427
1761467031193982500,1.602982421875,-0.0013150530867278576,-0.006771231535822153,-0.00008548586629331112
1761467031203965400,1.61296533203125,-0.0025721262209117413,-0.0032298245932906866,-0.00025304919108748436
1761467031213948400,1.622948486328125,-0.0011356174945831299,-0.0036378209479153156,0.0003714621998369694
1761467031223931400,1.632931396484375,-0.0018851463682949543,-0.00008722790516912937,-0.0005394900217652321
1761467031233914400,1.642914306640625,-0.0019125770777463913,-0.0026377371978014708,-0.0010801118332892656
1761467031243897300,1.6528974609375,-0.0013731429353356361,-0.002550769131630659,-0.0009686942212283611
1761467031253880600,1.662880615234375,-0.0002303807996213436,-0.003609109204262495,-0.0040971096605062485
1761467031263863300,1.67286328125,-0.0012677144259214401,0.001036192523315549,-0.00013624411076307297
1761467031273846300,1.68284619140625,-0.003726344555616379,-0.0028397722635418177,-0.002406588988378644
1761467031283829500,1.69282958984375,-0.0012994427233934402,-0.0006628392729908228,-0.00099426438100636
1761467031293811200,1.702811279296875,-0.002628359943628311,-0.0002529788762331009,-0.0005047754384577274
1761467031303794400,1.71279443359375,0.002035061828792095,0.0019205776043236256,0.0003555875737220049
1761467031313777400,1.72277734375,0.0022768769413232803,-0.0009598974138498306,0.001524448860436678
1761467031323760400,1.732760498046875,-0.0022257305681705475,0.0014154633972793818,0.0009077719878405333
1761467031333743400,1.742743408203125,0.00043023983016610146,0.00012010172940790653,0.0027099333237856627
1761467031343726300,1.752726318359375,0.00011089630424976349,0.00026114401407539845,0.0022189393639564514
1761467031353709600,1.76270947265625,-0.0002054874785244465,0.0008241359610110521,0.0008431505411863327
1761467031363692500,1.772692626953125,-0.0009099114686250687,0.001975310267880559,-0.001807267079129815
1761467031373675300,1.78267529296875,-0.0009482610039412975,-0.000911822309717536,-0.0016261721029877663
1761467031383658500,1.792658447265625,0.0012859366834163666,0.002060367027297616,-0.000133096007630229
1761467031393641500,1.802641357421875,0.0010694218799471855,0.0027163035701960325,-4.705507308244705e-7
1761467031403623400,1.81262353515625,-0.0009847506880760193,0.0005812866147607565,-0.0015807345043867826
1761467031413606400,1.8226064453125,0.0007351189851760864,0.003900117939338088,-0.001057955902069807
1761467031423589400,1.83258935546875,-0.0003103618510067463,0.003070503706112504,-0.0013208658201619983
1761467031433572600,1.842572509765625,0.0014249538071453571,-0.0010161169338971376,-0.0013650743057951331
1761467031443555300,1.852555419921875,0.002150479704141617,-0.0011011541355401278,0.0018096321728080511
1761467031453538300,1.862538330078125,-0.0006828573532402515,-0.0027613688725978136,-0.00137124746106565
1761467031463521500,1.872521484375,-0.0012750253081321716,-0.005051224492490292,-0.0013971938751637936
1761467031473504300,1.882504150390625,0.0015649697743356228,0.0009249087888747454,0.0018444058950990438
1761467031483487500,1.892487548828125,-0.003540022298693657,-0.0025344581808894873,0.001668749377131462
1761467031493470500,1.902470458984375,-0.0004014875739812851,0.00213459599763155,0.0021297424100339413
1761467031503452400,1.912452392578125,0.0005046711303293705,-0.0007860774639993906,0.0017616248223930597
1761467031513435400,1.922435302734375,-0.0008253115229308605,-0.001885696779936552,0.0005131347570568323
1761467031523418400,1.93241845703125,-0.0011963620781898499,0.0011583089362829924,-0.00039807334542274475
1761467031533401600,1.942401611328125,-0.0009582755155861378,0.00040569924749433994,-0.0005999410059303045
1761467031543384300,1.95238427734375,-0.000719140749424696,-0.00034673698246479034,-0.0007135635241866112
1761467031553367300,1.9623671875,-0.00036440789699554443,-0.0040234969928860664,0.00020389561541378498
1761467031563350500,1.9723505859375,-0.002621554769575596,0.0005849883891642094,-0.0020660213194787502
1761467031573333500,1.98233349609375,0.0015031490474939346,-0.00411921925842762,0.0017188629135489464
1761467031583316200,1.992316162109375,0.0009609973058104515,0.0008277136366814375,-0.0011848785215988755
1761467031593299500,2.002299560546875,-0.0013213315978646278,-0.0024418490938842297,-0.0006165599916130304
1761467031603282400,2.012282470703125,0.00268508680164814,0.0025243316777050495,0.0023396387696266174
1761467031613265400,2.022265380859375,-0.0011599850840866566,-0.002329812152311206,-0.0018684219103306532
1761467031623247400,2.032247314453125,-0.0001914934255182743,-0.0013402742333710194,-0.00038002501241862774
1761467031633230300,2.042230224609375,0.0026319900061935186,-0.003897441551089287,-0.0028751406352967024
1761467031643213600,2.052213623046875,-0.0002542715519666672,-0.0036053555086255074,-0.0006764859426766634
1761467031653196300,2.0621962890625,0.0006586601957678795,0.000424007186666131,-0.0011377453338354826
1761467031663179300,2.07217919921875,0.0013088011182844639,0.0010488529223948717,-0.0010007466189563274
1761467031673162200,2.082162353515625,-0.0016864561475813389,0.000972153851762414,-0.0008947527967393398
1761467031683145200,2.092145263671875,0.0011201114393770695,0.002642800332978368,-0.0004841005429625511
1761467031693128200,2.102128173828125,-0.001084452960640192,0.0003498184960335493,0.00008341902866959572
1761467031703111200,2.112111083984375,0.0007076314650475979,-0.0005941579584032297,-0.000990529078990221
1761467031713094100,2.12209423828125,0.000653835479170084,0.0031057714950293303,-0.002257394837215543
1761467031723076000,2.132076171875,-0.000716677401214838,-0.0004847573582082987,0.000981018180027604
1761467031733059000,2.14205908203125,0.0012162448838353157,-0.0036134389229118824,0.000008698087185621262
1761467031743042300,2.152042236328125,0.00006282934918999672,-0.0024170889519155025,0.0012801443226635456
1761467031753025300,2.162025390625,-0.001894594170153141,0.0015217263717204332,0.001191460993140936
1761467031763008000,2.172008056640625,-0.0007650693878531456,-0.002679824363440275,0.0013287183828651905
1761467031772991200,2.1819912109375,0.000616045668721199,-0.0023232270032167435,-0.0016755934339016676
1761467031782974200,2.19197412109375,-0.0004219501279294491,-0.004701635800302029,0.0004973320756107569
1761467031792957200,2.201957275390625,0.00012133503332734108,-0.003082167822867632,-0.001790323294699192
1761467031802940200,2.211940185546875,-0.003023780882358551,-0.0018394491635262966,-0.0001307984348386526
1761467031812923100,2.221923095703125,0.00018639350309967995,-0.0000016016419976949692,0.0012841392308473587
1761467031822906400,2.23190625,0.0020841911900788546,0.001236045267432928,0.0000386284664273262
1761467031832889300,2.241889404296875,0.0008775130845606327,0.0014038244262337685,-0.0005171734374016523
1761467031842871300,2.251871337890625,0.00013796286657452583,-0.0005041249096393585,0.0012830719351768494
1761467031852854300,2.261854248046875,-0.0011659208685159683,0.003935365006327629,-0.000759040005505085
1761467031862837200,2.271837158203125,-0.0019712476059794426,0.00019578635692596436,-0.0016032690182328224
1761467031872820200,2.2818203125,0.002196066314354539,0.002204874763265252,-0.0018445512978360057
1761467031882803200,2.29180322265625,-0.0005321609787642956,0.00026398198679089546,0.0013371875975281
1761467031892786200,2.3017861328125,0.0008934293873608112,-0.000009524403139948845,0.0017843323294073343
1761467031902769400,2.311769287109375,0.0005895430222153664,-0.0008963253349065781,-0.0003557903692126274
1761467031912752000,2.321752197265625,-0.0000871662050485611,-0.002203138545155525,-0.0005523315630853176
1761467031922735000,2.331735107421875,0.0015902500599622726,-0.0001905369572341442,0.002556430408731103
1761467031932718300,2.34171826171875,-0.00008860696107149124,0.0007913706358522177,0.0021577549632638693
1761467031942701000,2.351701171875,0.0018708519637584686,-0.0021558478474617004,-0.002311720745638013
1761467031952684300,2.361684326171875,-0.0008871173486113548,0.0023574111983180046,-0.0011087709572166204
1761467031962666200,2.371666259765625,-0.0012877974659204483,-0.003341070609167218,-0.0003609387204051018
1761467031972649200,2.381649169921875,-0.00007366249337792397,-0.0020646173506975174,-0.0017018403159454465
1761467031982632200,2.391632080078125,-0.00277523510158062,-0.002998759038746357,0.0005042199045419693
1761467031992615200,2.401615234375,-0.0028261011466383934,-0.002136693801730871,0.0011636184062808752
1761467032002598400,2.411598388671875,0.00015222420915961266,-0.00317407981492579,0.00011917715892195702
1761467032012581000,2.4215810546875,0.0009351936168968678,-0.006111812777817249,-0.0018933736719191074
1761467032022564000,2.431564208984375,-0.0022535095922648907,0.0017305298242717981,0.0015712957829236984
1761467032032547300,2.44154736328125,0.003493325551971793,0.00006498885340988636,-0.0008420606609433889
1761467032042530300,2.4515302734375,0.0020711177494376898,0.004084082320332527,-0.0002374171745032072
1761467032052513000,2.461512939453125,0.002321987645700574,0.0026856563054025173,0.00038496358320116997
1761467032062496300,2.471496337890625,0.0021393680945038795,0.0002397657372057438,0.0004219268448650837
1761467032072478200,2.481478271484375,0.0019321744330227375,0.0018355317879468203,-0.00036104233004152775
1761467032082461200,2.491461181640625,0.001844632439315319,0.001451555173844099,0.0026663963217288256
1761467032092444200,2.501444091796875,0.0009484789334237576,0.014743924140930176,0.002242421032860875
1761467032102427100,2.51142724609375,-0.0011243359185755253,0.010415437631309032,0.004375293385237455
1761467032112410400,2.521410400390625,-0.005986735224723816,-0.016244668513536453,-0.0009243972599506378
1761467032122393000,2.53139306640625,-0.009589949622750282,-0.013403572142124176,0.0006029810756444931
1761467032132376300,2.541376220703125,-0.004134997259825468,-0.013855244033038616,-0.00013737776316702366
1761467032142359300,2.551359375,0.0028708649333566427,-0.004699022974818945,0.0019143209792673588
1761467032152342300,2.56134228515625,0.0017462121322751045,0.004929369781166315,0.0030696000903844833
1761467032162325200,2.5713251953125,0.00328201986849308,0.0014168152119964361,0.0012279180809855461
1761467032172308200,2.58130810546875,0.0009821141138672829,-0.006153219845145941,0.0016737310215830803
1761467032182291200,2.591291259765625,-0.0021967915818095207,-0.0067415377125144005,0.0005490207113325596
1761467032192274200,2.601274169921875,-0.005202168598771095,-0.009716554544866085,0.0023210879880934954
1761467032202256100,2.611256103515625,-0.0014671613462269306,-0.004715455695986748,0.00011034449562430382
1761467032212239400,2.6212392578125,0.00036749010905623436,0.0015853173099458218,-0.000983948353677988
1761467032222222300,2.631222412109375,0.001551381777971983,0.004809689708054066,0.002648180816322565
1761467032232205000,2.641205078125,0.0017729569226503372,0.007957013323903084,-0.0004930177237838507
1761467032242188300,2.651188232421875,0.002032957738265395,0.00957200676202774,0.0009858892299234867
1761467032252171300,2.661171142578125,0.0015328158624470234,0.005818814039230347,0.0005677728913724422
1761467032262154000,2.671154052734375,-0.0026717791333794594,0.0023818344343453646,0.003654401982203126
1761467032272137200,2.68113720703125,-0.002850743941962719,-0.0013844077475368977,-0.00019173510372638702
1761467032282120200,2.6911201171875,-0.0023654839023947716,-0.0041366880759596825,0.00009768456220626831
1761467032292103200,2.701103271484375,0.0005594664253294468,-0.005417668726295233,-0.00042536016553640366
1761467032302086100,2.711086181640625,-0.00017807679250836372,-0.005705629009753466,-0.0004981111269444227
1761467032312069000,2.721069091796875,-0.0014236373826861382,-0.007142404094338417,-0.0010666960151866078
1761467032322051300,2.73105126953125,-0.00046085938811302185,-0.006968900095671415,-0.00321499677374959
1761467032332034000,2.741033935546875,-0.0012731235474348068,-0.004515596199780703,-0.0001875152811408043
1761467032342017300,2.751017333984375,-0.001598831731826067,-0.010000207461416721,0.0010113846510648727
1761467032352000300,2.761000244140625,0.00014154380187392235,-0.004840865731239319,0.0003679648507386446
1761467032361983200,2.770983154296875,-0.0031424728222191334,-0.004532426130026579,0.00004604225978255272
1761467032371966200,2.78096630859375,-0.0005837078206241131,0.0012817869428545237,0.0008316747844219208
1761467032381949200,2.79094921875,0.002746530110016465,0.0062476517632603645,0.0009901076555252075
1761467032391932200,2.80093212890625,0.0018120268359780312,0.006740869022905827,-0.0005742334760725498
1761467032401915400,2.810915283203125,0.0022965711541473866,0.004312323406338692,0.003713729791343212
1761467032411898000,2.820898193359375,0.0008376915939152241,0.0029945909045636654,0.0008489673491567373
1761467032421881000,2.830881103515625,-0.001757136546075344,0.002219278132542968,0.0019501328933984041
1761467032431864300,2.8408642578125,0.0005278554745018482,0.0020238019060343504,0.0005719473119825125
1761467032441846000,2.850845947265625,-0.0005629751831293106,-0.001035104738548398,-0.0024576648138463497
1761467032451829200,2.860829345703125,0.0007259948179125786,0.003464838257059455,0.0023807662073522806
1761467032461812200,2.870812255859375,0.0014840783551335335,-0.004447500687092543,0.0014573391526937485
1761467032471795200,2.880795166015625,-0.002441155258566141,-0.0015877983532845974,-0.0005320422351360321
1761467032481778200,2.890778076171875,-0.0005260948091745377,-0.005781193263828754,0.0002765478566288948
1761467032491761200,2.90076123046875,0.00024595530703663826,-0.004082096740603447,-0.00010455050505697727
1761467032501744400,2.910744384765625,-0.0012522819451987743,0.0016144991386681795,0.001451585441827774
1761467032511727000,2.92072705078125,0.0011797165498137474,-0.0030865129083395004,-0.0003843980375677347
1761467032521710000,2.9307099609375,0.00032363133504986763,-0.0022671413607895374,0.00005284394137561321
1761467032531693300,2.940693359375,-0.0013552256859838963,0.0008692636620253325,0.0033407825976610184
1761467032541676300,2.95067626953125,-0.00009858747944235802,0.0017453823238611221,0.0016241609118878841
1761467032551659000,2.960658935546875,0.0003586774691939354,0.0013429787941277027,-0.0013356762938201427
1761467032561642200,2.970642333984375,-0.0001854156143963337,-0.0018548780353739858,-0.0011063114507123828
1761467032571624200,2.980624267578125,-0.00047596683725714684,0.0007765914779156446,0.00013285735622048378
1761467032581607200,2.990607177734375,-0.00022889254614710808,-0.000841665081679821,0.00010795821435749531
1761467032591590100,3.000590087890625,0.000760737806558609,-0.0025442237965762615,-0.0031022161711007357
1761467032601573000,3.010572998046875,0.0008713309653103352,0.001644347794353962,0.0009550934191793203
1761467032611556400,3.020556396484375,-0.0006389478221535683,0.0027716639451682568,0.001542053883895278
1761467032621539000,3.0305390625,0.004067123867571354,-0.0029650512151420116,-0.0003436836414039135
1761467032631522300,3.040522216796875,-0.002512481529265642,-0.00446014991030097,-0.0007479516789317131
1761467032641505300,3.05050537109375,0.0008544721640646458,0.0028655233327299356,0.0027529606595635414
1761467032651488300,3.06048828125,-0.0015532919205725193,-0.003858159529045224,-0.0007304539903998375
1761467032661471200,3.07047119140625,-0.002617030870169401,-0.001209333771839738,0.001175540965050459
1761467032671458600,3.08045849609375,-0.0005693268030881882,0.0002729815896600485,-0.0005701610352844
1761467032681441500,3.090441650390625,-0.001967368647456169,0.0030290824361145496,0.002386439125984907
1761467032691424500,3.100424560546875,0.00018925918266177177,-0.0005296999588608742,0.0018689869903028011
1761467032701406500,3.110406494140625,-0.0007202513515949249,0.0027654862497001886,-0.0021275891922414303
1761467032711389400,3.120389404296875,0.0031357398256659508,-0.000140288844704628,-0.0013190534664317966
1761467032721372700,3.13037255859375,-0.0016744076274335384,-0.003605445148423314,0.00016087782569229603
1761467032731355400,3.14035546875,0.0011224444024264812,0.0015959746669977903,0.0016927281394600868
1761467032741338400,3.15033837890625,-0.00011001108214259148,-0.0025615699123591185,-0.0006616669707000256
1761467032751321600,3.160321533203125,-0.0013712840154767036,-0.0042912932112813,-0.0028515842277556658
1761467032761304600,3.1703046875,-0.00040131760761141777,0.003833518363535404,-0.00272910064086318
1761467032771287600,3.18028759765625,-0.0011629816144704819,0.0003381194546818733,-0.002003389410674572
1761467032781270500,3.1902705078125,0.00042480137199163437,0.0004343611653894186,0.0011291380506008863
1761467032791253500,3.20025341796875,0.002144936937838793,0.0020407799165695906,0.0015797449741512537
1761467032801236700,3.21023681640625,0.0009071296080946922,-0.0023108171299099922,-0.0016338034765794873
1761467032811219500,3.220219482421875,0.0028395194094628096,-0.000781630165874958,0.0016402865294367075
1761467032821202400,3.230202392578125,-0.0028143352828919888,-0.0017407906707376242,-0.0005968364421278238
1761467032831184600,3.2401845703125,0.002051792573183775,0.0038537117652595043,0.002209868747740984
1761467032841167400,3.25016748046875,0.0013596895150840282,-0.002088454319164157,0.0003318595699965954
1761467032851150600,3.260150634765625,-0.0011535356752574444,0.002983802231028676,-0.0008628345094621181
1761467032861133600,3.270133544921875,0.0010276283137500286,-0.0011996494140475988,0.0013945270329713821
1761467032871116500,3.280116455078125,-0.0007966370321810246,-0.0016513215377926826,0.0016864095814526081
1761467032881099500,3.290099609375,-0.001916383858770132,0.00001118471845984459,0.0006643985398113728
1761467032891082500,3.30008251953125,0.00254094903357327,0.0027648929972201586,0.0002233788836747408
1761467032901065500,3.3100654296875,0.00101535115391016,-0.001142977038398385,0.0007314984686672688
1761467032911048700,3.320048583984375,0.0019029825925827026,-0.0008239303715527058,0.001978124026209116
1761467032921031400,3.330031494140625,0.0005148663185536861,-0.0017499637324362993,0.0007330663502216339
1761467032931014700,3.3400146484375,-0.0016899644397199154,-0.002522280439734459,-0.0019583243411034346
1761467032940997600,3.34999755859375,0.0013250792399048805,-0.0013696681708097458,-0.0009218864142894745
1761467032950980600,3.359980712890625,-0.0007146359421312809,-0.0012207974214106798,0.0017284913919866085
1761467032960963600,3.369963623046875,-0.0005419016815721989,0.0015972577966749668,0.002218472771346569
1761467032970945500,3.379945556640625,-0.000015927478671073914,-0.001630227081477642,-0.000143484678119421
1761467032980928800,3.3899287109375,-0.0014019696973264217,-0.0009784989524632692,0.0025540420319885015
1761467032990911500,3.399911376953125,0.0020196596160531044,-0.00230794888921082,0.0005627966020256281
1761467033000894500,3.40989453125,-0.0012914068065583706,-0.004655735567212105,-0.0010165264829993248
1761467033010877700,3.419877685546875,-0.0008205599151551723,0.0009608715772628784,0.0035710346419364214
1761467033020860400,3.4298603515625,0.0006143441423773766,-0.00026170723140239716,0.0005763659719377756
1761467033030843400,3.439843505859375,0.0011794669553637505,-0.002954163122922182,0.001376911997795105
1761467033040826600,3.44982666015625,-0.0008437149226665497,0.002819340443238616,0.002101671416312456
1761467033050809600,3.4598095703125,-0.00024290569126605988,0.00012741750106215477,-0.0017705649370327592
1761467033060792300,3.469792236328125,-0.0016030850820243359,0.005261651240289211,-0.0012499532895162702
1761467033070775600,3.479775634765625,0.0009910999797284603,-0.0004257955588400364,0.0015809868928045034
1761467033080758500,3.489758544921875,0.00209690909832716,0.0030402159318327904,-0.0002115713432431221
1761467033090741800,3.49974169921875,-0.003079743590205908,0.0022740247659385204,-0.000931423855945468
1761467033100724500,3.509724365234375,0.0011902693659067154,-0.0059231948107481,-0.001982860965654254
1761467033110706700,3.519706787109375,0.0007154275663197041,0.0015946421772241592,-0.0012116094585508108
1761467033120689700,3.529689697265625,-0.0007620761170983315,-0.0003176983445882797,0.001630755141377449
1761467033130672400,3.53967236328125,-0.00028057629242539406,-0.0015994778368622065,0.000052832067012786865
1761467033140655600,3.549655517578125,-0.0011539892293512821,0.0009326187428086996,-0.0003850371576845646
1761467033150638600,3.559638671875,0.0013022441416978836,-0.0014213493559509516,-0.0003602697979658842
1761467033160621600,3.56962158203125,0.002796171698719263,-0.0008563993033021688,0.0007817777805030346
1761467033170604500,3.5796044921875,0.0011668498627841473,0.001955366227775812,-0.000942619051784277
1761467033180587500,3.58958740234375,0.0014738473109900951,-0.0005222889594733715,0.0013588930014520884
1761467033190570500,3.599570556640625,-0.002880687825381756,0.0021632425487041473,0.00006992323324084282
1761467033200553700,3.6095537109375,-0.0006124195642769337,0.003773472737520933,-0.000959835946559906
1761467033210536400,3.619536376953125,0.0024797767400741577,0.005446737166494131,0.0003618909977376461
1761467033220519400,3.62951953125,-0.001544987317174673,0.005531858187168837,0.002777497749775648
1761467033230502700,3.639502685546875,0.0015581278130412102,0.008771860972046852,0.004301624838262796
1761467033240485400,3.6494853515625,0.001017322763800621,0.0057518985122442245,0.0018907238263636827
1761467033250467600,3.659467529296875,-0.0002223784103989601,0.007685086689889431,0.002067291410639882
1761467033260450600,3.669450439453125,-0.000586717389523983,0.001104838214814663,0.001516789197921753
1761467033270433500,3.67943359375,-0.0002932371571660042,0.002220436464995146,0.0020984234288334846
1761467033280416500,3.68941650390625,-0.0002622813917696476,0.004168739542365074,0.0022572651505470276
1761467033290399500,3.6993994140625,0.00380090344697237,-0.00037008593790233135,0.000846056267619133
1761467033300382700,3.7093828125,0.0006302855908870697,-0.00013919011689722538,-0.0001448111142963171
1761467033310365400,3.719365478515625,0.0004297494888305664,-0.0006619684863835573,-0.000016446691006422043
1761467033320348400,3.729348388671875,-0.0005194414407014847,-0.002223003888502717,-0.0012092206161469221
1761467033330331600,3.73933154296875,-0.0018193302676081657,-0.0024509704671800137,0.0009753706399351358
1761467033340314600,3.749314697265625,0.0025192887987941504,-0.0028913519345223904,0.00043770880438387394
1761467033350297300,3.75929736328125,-0.0008690510876476765,0.0008043167181313038,-0.0001569748856127262
1761467033360280600,3.769280517578125,-0.0007934654131531715,0.0009277255740016699,0.0020726199727505445
1761467033370263600,3.779263671875,0.00014316849410533905,0.00007178587839007378,-0.001117580570280552
1761467033380246500,3.78924658203125,-0.0020092930644750595,0.0010394863784313202,-0.0008779370691627264
1761467033390228500,3.799228515625,0.0006410847418010235,-0.0001328370999544859,0.0007559123914688826
1761467033400211500,3.80921142578125,0.0011615771800279617,0.0013859702739864588,0.000049107009544968605
1761467033410194700,3.819194580078125,-0.0020491299219429493,0.0004852891433984041,-0.0010332015808671713
1761467033420177400,3.829177490234375,0.0001849108375608921,0.0037207973655313253,-0.0015691134613007307
1761467033430160600,3.83916064453125,-0.0009610471315681934,-0.0014316204469650984,-0.000980554847046733
1761467033440143600,3.8491435546875,0.00024137552827596664,0.0016342105809599161,0.0012981698382645845
1761467033450126600,3.859126708984375,0.0016515194438397884,0.0026046663988381624,-0.0003644414246082306
1761467033460109600,3.869109619140625,0.0015729297883808613,-0.0017290407558903098,0.002530796453356743
1761467033470092500,3.879092529296875,0.0006711832247674465,0.0015485116746276617,-0.0003094649873673916
1761467033480075500,3.889075439453125,-0.0008882628753781319,-0.000550002558156848,-0.0007828292436897755
1761467033490058800,3.899058837890625,-0.001149252988398075,-0.0029729465022683144,-0.00016337819397449493
1761467033500041500,3.90904150390625,0.0008290749974548817,-0.0019142926903441548,-0.00010931259021162987
1761467033510024400,3.9190244140625,-0.0017773606814444065,-0.0006735259667038918,0.0007468936964869499
1761467033520007700,3.929007568359375,-0.0008902689442038536,0.0000688028521835804,-0.0022210204042494297
1761467033529989400,3.9389892578125,0.0019459975883364677,0.0002978346310555935,0.0014448207803070545
1761467033539972600,3.94897265625,-0.0003011319786310196,-0.0033625143114477396,-0.0009435743559151888
1761467033549955600,3.95895556640625,-0.0003959406167268753,-0.00012411060743033886,0.0015480790752917528
1761467033559938300,3.968938232421875,0.0003503980115056038,0.00013565272092819214,-0.0004993029870092869
1761467033569921500,3.978921630859375,-0.0011124764569103718,-0.001590608386322856,-0.0008540360722690821
1761467033579904500,3.988904541015625,0.003100565169006586,0.0027653109282255173,-0.0008869066368788481
1761467033589886500,3.998886474609375,-0.0008824584074318409,0.0004358435980975628,0.0031408583745360374
1761467033599869400,4.008869384765625,-0.000689490232616663,-0.0029815284069627523,-0.0026386678218841553
1761467033609852700,4.018852783203125,0.0010112044401466846,0.0014571619685739279,0.0013440896291285753
1761467033619835600,4.028835693359375,-0.0002215951681137085,-0.0001201750710606575,-0.0012789731845259666
1761467033629818400,4.038818359375,-0.002277555875480175,-0.016964402049779892,-0.004468108527362347
1761467033639801600,4.048801513671875,-0.0019790264777839184,-0.0086852191016078,-0.004321151878684759
1761467033649784600,4.05878466796875,0.0003818660043179989,0.017674483358860016,0.013445061631500721
1761467033659767600,4.068767578125,0.002425417071208358,-0.0005541546270251274,0.0030365248676389456
1761467033669750000,4.07875,0.00064136553555727,-0.006306848488748074,-0.007286420091986656
1761467033679733000,4.08873291015625,0.0009265830740332603,0.0065671284683048725,0.00275049707852304
1761467033689716000,4.098716064453125,-0.0005288347601890564,0.0021505425684154034,0.0036186876241117716
1761467033699698000,4.108697998046875,-0.001100124791264534,0.006084670312702656,-0.003802371444180608
1761467033709681200,4.11868115234375,-0.0003824029117822647,-0.0069387201219797134,-0.001976241823285818
1761467033719663900,4.128663818359375,0.0004894989542663097,0.005282531026750803,0.0019684366416186094
1761467033729646800,4.138646728515625,-0.0006796284578740597,0.014081081375479698,0.0024794971104711294
1761467033739630000,4.148630126953125,0.002663825638592243,-0.009195482358336449,-0.00313338334672153
1761467033749612800,4.15861279296875,-0.00212560361251235,-0.0018459565471857786,-0.002341359155252576
1761467033759595800,4.168595703125,0.002037208527326584,0.003619542345404625,0.002976333489641547
1761467033769579000,4.1785791015625,-0.001434221863746643,-0.013650791719555855,-0.003593951463699341
1761467033779562000,4.18856201171875,-0.0020048702135682106,-0.011364828795194626,-0.0015420885756611824
1761467033789544700,4.198544677734375,-0.0010192343033850193,-0.0020839786157011986,0.0018859324045479298
1761467033799528000,4.20852783203125,0.000499580055475235,-0.0058684442192316055,0.0011678372975438833
1761467033809511000,4.218510986328125,-0.0001132134348154068,-0.001834820257499814,-0.0018945315387099981
1761467033819494000,4.228493896484375,0.001598887611180544,-0.0043557183817029,0.00038305576890707016
1761467033829476900,4.238476806640625,-0.002749788109213114,0.000332776689901948,0.0012291418388485909
1761467033839458800,4.248458740234375,-0.0009440402500331402,-0.000635762931779027,-0.003518157172948122
1761467033849442000,4.258442138671875,-0.00007718103006482124,0.0005815678741782904,0.001295506488531828
1761467033859424800,4.2684248046875,-0.001345416996628046,0.00007540732622146606,-0.0011054936330765486
1761467033869408000,4.278407958984375,0.0018245438113808632,0.002209931146353483,-0.00010307971388101578
1761467033879391000,4.288390869140625,0.0028821651358157396,0.0027724483516067266,0.0005073733627796173
1761467033889374000,4.2983740234375,-0.0028620068915188313,0.00047653750516474247,-0.0015741533134132624
1761467033899357000,4.30835693359375,0.0011609746143221855,-0.0006350688636302948,0.0018117886502295732
1761467033909340000,4.31833984375,-0.0004723421297967434,-0.003670273581519723,-0.0000023564789444208145
1761467033919323000,4.328322998046875,-0.0009850547648966312,-0.0040744333527982235,-0.00008800323121249676
1761467033929306000,4.33830615234375,0.0024128726217895746,-0.0022088889963924885,-0.00219749310053885
1761467033939288800,4.348288818359375,-0.0007031578570604324,-0.002293787896633148,0.0009413622319698334
1761467033949271800,4.358271728515625,0.0017554722726345062,-0.005624070763587952,0.00033895508386194706
1761467033959255000,4.368255126953125,0.0024433459620922804,-0.0030415563378483057,0.0004138397052884102
1761467033969237800,4.37823779296875,-0.001841147430241108,-0.0017403358360752463,0.00041463878005743027
1761467033979221000,4.388220947265625,0.0005658837035298347,0.0009790759067982435,-0.0008116902317851782
1761467033989204000,4.398203857421875,-0.0029833107255399227,0.0013862729538232088,0.0002458509989082813
1761467033999186000,4.40818603515625,0.0005361977964639664,-0.003102109767496586,0.0008475659415125847
1761467034009169000,4.4181689453125,0.0013380753807723522,0.0006353701464831829,-0.0006643107626587152
1761467034019152000,4.42815185546875,-0.0015008710324764252,0.003619810566306114,0.0004993302281945944
1761467034029135000,4.438135009765625,-0.0010276269167661667,-0.00011074542999267578,0.0007075895555317402
1761467034039117800,4.448117919921875,0.0018178303726017475,-0.0032160996925085783,-0.0005607167258858681
1761467034049100800,4.458100830078125,-0.0006778175011277199,0.003613310633227229,0.00035061687231063843
1761467034059084000,4.468083984375,0.001554261427372694,0.0017655559349805117,0.001979617401957512
1761467034069067000,4.47806689453125,-0.00001593818888068199,0.001081389607861638,-0.0007629056926816702
1761467034079049700,4.4880498046875,-0.002492788713425398,0.003065871074795723,0.0017920255195349455
1761467034089033000,4.498032958984375,-0.0005473494529724121,-0.0006590923294425011,0.001356332330033183
1761467034099016000,4.508015869140625,-0.0015639634802937508,-0.003716293489560485,-0.0002326671965420246
1761467034108999000,4.5179990234375,0.0003002495504915714,-0.00037162937223911285,-0.0006646318361163139
1761467034118982000,4.52798193359375,0.0004530469886958599,0.000577365979552269,0.00040420261211693287
1761467034128964900,4.53796484375,-0.00003244727849960327,0.0023965714499354362,-0.00016757799312472343
1761467034138950000,4.547949951171875,-0.00023354357108473778,-0.002212991937994957,-0.0027267702389508486
1761467034148932900,4.557932861328125,-0.0017827046103775501,-0.00021961587481200695,0.001643210882321
1761467034158916000,4.567916015625,-0.0010223491117358208,0.0037417865823954344,-0.0017044352134689689
1761467034168898800,4.57789892578125,0.0010589114390313625,-0.0012005078606307507,0.0010964111424982548
1761467034178881800,4.5878818359375,-0.001562753226608038,0.00027530756779015064,-0.000050719128921628
1761467034188865000,4.597864990234375,0.0023590177297592163,-0.000021368497982621193,-0.00054393638856709
1761467034198848000,4.607847900390625,0.0026363360229879618,0.0007196811493486166,-0.0006979741156101227
1761467034208830700,4.617830810546875,-0.0029794718138873577,-0.0003841992001980543,-0.00034830113872885704
1761467034218814000,4.62781396484375,0.00022892560809850693,-0.0004539100918918848,0.001080006593838334
1761467034228796000,4.6377958984375,-0.00019718054682016373,-0.0006017154082655907,0.000567880691960454
1761467034238779000,4.64777880859375,-0.002552374266088009,-0.002425885759294033,0.0006500105373561382
1761467034248761900,4.657761962890625,0.0009661940857768059,-0.00009029358625411987,-0.0018794597126543522
1761467034258744800,4.667744873046875,-0.0017027538269758224,-0.006108344532549381,0.00034364103339612484
1761467034268728000,4.67772802734375,-0.0011573382653295994,-0.004104049876332283,-0.002530975267291069
1761467034278710800,4.687710693359375,-0.001346612349152565,-0.0007580011151731014,0.0012959626037627459
1761467034288694000,4.697694091796875,0.0002427622675895691,-0.0016363117611035705,0.00007090833969414234
1761467034298677000,4.707677001953125,0.0010205809958279133,0.0002780833747237921,-0.0030600230675190687
1761467034308660000,4.717659912109375,0.0005260319449007511,0.0010615854989737272,-0.0012115230783820152
1761467034318643000,4.727642822265625,0.0005241464823484421,0.00021933228708803654,-0.0006779923569411039
1761467034328626000,4.7376259765625,0.00020296918228268623,0.0006803253199905157,0.002491169376298785
1761467034338609000,4.74760888671875,0.0010805646888911724,0.0020093414932489395,-0.0034214199986308813
1761467034348591900,4.757591796875,0.0028153478633612394,0.000771770253777504,-0.0007944779936224222
1761467034358574800,4.767574951171875,-0.0010092337615787983,-0.001399770611897111,-0.0035716656129807234
1761467034368557800,4.777557861328125,-0.0024342909455299377,-0.0018003099830821157,0.002215116983279586
1761467034378540000,4.7875400390625,-0.0010056807659566402,-0.003520072903484106,0.002047011163085699
1761467034388522800,4.797522705078125,-0.0009982241317629814,-0.002341357758268714,0.00022567552514374256
1761467034398506000,4.807506103515625,-0.0022553284652531147,0.00015243049710988998,-0.00015320628881454468
1761467034408489000,4.817489013671875,0.002764730481430888,-0.00191178556997329,-0.0013372476678341627
1761467034418472000,4.827471923828125,0.001008452381938696,0.000635270494967699,0.001733424374833703
1761467034428455000,4.837454833984375,0.0007714312523603439,0.005118169356137514,0.00008972128853201866
1761467034438438000,4.84743798828125,0.0007286588661372662,0.00392154511064291,0.0019714650698006153
1761467034448421000,4.857421142578125,-0.0018604663200676441,-0.0006393846124410629,-0.0015814579091966152
1761467034458403800,4.86740380859375,-0.0008447179570794106,0.003569371299818158,0.0003163570072501898
1761467034468386800,4.87738671875,-0.0001477687619626522,0.00312995002605021,-0.0008849948644638062
1761467034478370000,4.8873701171875,-0.0017854166217148304,-0.0025619734078645706,0.00030296947807073593
1761467034488353000,4.89735302734375,-0.001601391937583685,-0.00248207850381732,0.0014526559971272945
1761467034498335700,4.907335693359375,-0.00006543891504406929,-0.002230989746749401,0.0014228939544409513
1761467034508319000,4.917319091796875,0.0004621334373950958,-0.006521875038743019,-0.0024959477595984936
1761467034518302000,4.927302001953125,0.0015787607990205288,0.002220907947048545,0.0021203323267400265
1761467034528284000,4.937283935546875,-0.0017848117277026176,-0.004521150607615709,0.00031018187291920185
1761467034538267000,4.947266845703125,-0.00045851944014430046,0.0007454589940607548,-0.0009311751928180456
1761467034548249900,4.957249755859375,0.0006288494914770126,0.00010683317668735981,0.0000525966752320528
1761467034558233000,4.967233154296875,-0.0003119688481092453,0.0021106619387865067,-0.0015692382585257292
1761467034568215800,4.9772158203125,-0.00029705511406064034,0.003357287496328354,-0.001806525862775743
1761467034578198800,4.98719873046875,-0.0018037273548543453,0.0054948339238762856,0.001498606987297535
1761467034588182000,4.99718212890625,-0.0006670900620520115,0.00039994041435420513,0.000047184061259031296
1761467034598165000,5.0071650390625,-0.0009587258100509644,-0.0012761468533426523,0.0004437000025063753
1761467034608148000,5.01714794921875,-0.0030501061119139194,-0.00266152317635715,0.0008841869421303272
1761467034618131000,5.027130859375,-0.00015645893290638924,-0.0006643652450293303,0.004752721171826124
1761467034628114000,5.037114013671875,-0.0009556734003126621,-0.004774954169988632,-0.0021501928567886353
1761467034638097000,5.047096923828125,-0.0031410767696797848,-0.005538688041269779,0.0005172172095626593
1761467034648080000,5.057079833984375,0.0012741782702505589,-0.0027114765252918005,-0.0002881225664168596
1761467034658062800,5.067062744140625,-0.004057097248733044,0.00021511828526854515,0.00005383254028856754
1761467034668046000,5.077046142578125,-0.0015481328591704369,-0.0022216741926968098,-0.001858050818555057
1761467034678027800,5.08702783203125,0.0009964867495000362,-0.0029821584466844797,-0.0006170878186821938
1761467034688011000,5.097010986328125,-0.002933539915829897,0.002711147302761674,-0.0018157766899093986
1761467034697994000,5.106993896484375,0.0007107849232852459,0.0003525360953062773,0.00016761384904384613
1761467034707977000,5.11697705078125,0.0004580509848892689,0.0018761304672807455,-0.0025645229034125805
1761467034717960000,5.1269599609375,-0.003132738173007965,0.0034353621304035187,-0.00015457207337021828
1761467034727943000,5.13694287109375,0.001115536317229271,0.0024635745212435722,0.0030279054772108793
1761467034737926000,5.14692578125,-0.0010353992693126202,0.0010993927717208862,0.000119432108476758
1761467034747909000,5.1569091796875,0.0002064327709376812,0.0014546583406627178,-0.0021224168594926596
1761467034757891800,5.166891845703125,-0.00008786609396338463,0.0004825617652386427,0.00219911802560091
1761467034767875000,5.176875,0.0010748696513473988,-0.00033609382808208466,0.0009117461740970612
1761467034777858000,5.186858154296875,-0.00095331110060215,-0.003662494709715247,-0.0035859523341059685
1761467034787840800,5.1968408203125,0.001961784902960062,0.0002347750123590231,0.000018369872123003006
1761467034797824000,5.206823974609375,-0.00022610696032643318,-0.0010502573568373919,0.0005837143398821354
1761467034807807000,5.216806884765625,0.0037092461716383696,0.0019702999852597713,-0.0007454692386090755
1761467034817789200,5.2267890625,0.0006408989429473877,-0.004539262969046831,0.0013056716416031122
1761467034827772000,5.23677197265625,0.00030427565798163414,0.0006805325392633677,-0.0009071487002074718
1761467034837755000,5.2467548828125,0.0006696782074868679,-0.0006655792240053415,0.001578551484271884
1761467034847738000,5.256738037109375,-0.0013916087336838245,-0.0010016700252890587,0.0003550953697413206
1761467034857720800,5.266720947265625,0.003753466997295618,0.0007882402278482914,-0.0004862523637712002
1761467034867703800,5.276703857421875,0.0007531498558819294,-0.001821124809794128,0.00021575693972408772
1761467034877687000,5.28668701171875,-0.0029902299866080284,-0.00023307581432163715,-0.00023526488803327084
1761467034887670000,5.296669921875,-0.0007060365751385689,0.0006833178922533989,-0.00030823564156889915
1761467034897653000,5.306653076171875,-0.002492303028702736,0.0011091642081737518,0.0011120776180177927
1761467034907636000,5.316635986328125,0.0031613213941454887,0.0016623027622699738,0.0022857326548546553
1761467034917619000,5.326618896484375,-0.000974124763160944,-0.000046723755076527596,0.00011529633775353432
1761467034927602200,5.336602294921875,-0.000027371104806661606,-0.0011854914482682943,0.001681767636910081
1761467034937585000,5.3465849609375,0.0011323499493300915,-0.00038625230081379414,0.00029762880876660347
1761467034947567900,5.35656787109375,-0.001386467833071947,0.0003692866303026676,-0.0006664353422820568
1761467034957551000,5.366551025390625,0.0007227160967886448,0.0009489860385656357,-0.0005880920216441154
1761467034967532800,5.37653271484375,-0.001990246120840311,0.0020872210152447224,-0.0006645247340202332
1761467034977516000,5.38651611328125,-0.0017146621830761433,0.0005529213231056929,-0.0007106047123670578
1761467034987499000,5.3964990234375,0.00001319684088230133,-0.0006923726759850979,0.0006545316427946091
1761467034997482000,5.40648193359375,0.0021032679360359907,0.000989245716482401,-0.0014460415113717318
1761467035007465000,5.41646484375,-0.0003982391208410263,0.0001040108036249876,-0.0006074120756238699
1761467035017448000,5.426447998046875,0.0014071655459702015,0.0006872434169054031,0.0005886189173907042
1761467035027431000,5.436430908203125,0.0005538887344300747,-0.0029053608886897564,-0.001244701212272048
1761467035037414100,5.4464140625,-0.00104078883305192,-0.0007334318943321705,-0.0026542043779045343
1761467035047396900,5.45639697265625,0.0006250184960663319,0.0028498515021055937,-0.0005100932903587818
1761467035057379800,5.4663798828125,0.0011448934674263,0.0033836965449154377,0.0015228569973260164
1761467035067363000,5.476363037109375,0.0006191851571202278,0.004414073657244444,-0.0015325878048315644
1761467035077345800,5.486345703125,0.0019415360875427723,0.0017585274763405323,0.0018231547437608242
1761467035087329000,5.4963291015625,-0.002228707540780306,0.0016690450720489025,-0.0005955283995717764
1761467035097312000,5.50631201171875,0.0013897386379539967,0.002750126412138343,-4.7567300498485565e-7
1761467035107294000,5.5162939453125,0.0007236823439598083,0.003015377325937152,0.004700270481407642
1761467035117277000,5.52627685546875,-0.0012536277063190937,0.001659355591982603,0.003523210994899273
1761467035127260000,5.536260009765625,0.002032446675002575,0.0011610784567892551,-0.0004957655910402536
1761467035137243100,5.5462431640625,0.0005051074549555779,0.0008761249482631683,0.0016781729646027088
1761467035147225900,5.556225830078125,-0.000604631844907999,0.002009565941989422,0.00032635219395160675
1761467035157208800,5.566208740234375,0.003917308524250984,0.0029884837567806244,-0.002975782845169306
1761467035167192000,5.576192138671875,-0.00040127336978912354,0.00023610680364072323,-0.0009885320905596018
1761467035177175000,5.586175048828125,-0.0005416278727352619,0.007182062603533268,-0.0010897291358560324
1761467035187157800,5.59615771484375,0.0037367402110248804,0.0030869191978126764,0.001104715745896101
1761467035197141000,5.60614111328125,0.00016431137919425964,0.0025027731899172068,-0.0013591059250757098
1761467035207124000,5.6161240234375,0.0012325053103268147,0.003980561159551144,-0.0019348814385011792
1761467035217107000,5.62610693359375,0.0010625957511365414,0.00723627582192421,-0.002468460239470005
1761467035227090000,5.63608984375,-0.0013584839180111885,0.0029097043443471193,-0.0002106321044266224
1761467035237073000,5.646072998046875,0.0005029118619859219,0.004036914557218552,0.0009362851269543171
1761467035247055000,5.65605517578125,0.0006421953439712524,-0.0012747601140290499,0.00007768208160996437
1761467035257037800,5.666037841796875,-0.0009296797215938568,-0.0014572395011782646,0.0015181328635662794
1761467035267021000,5.67602099609375,-0.0006918595172464848,-0.0019451306434348226,0.002465685596689582
1761467035277004000,5.686004150390625,-0.0005975677631795406,-0.0003464904148131609,0.0003675892949104309
1761467035286987000,5.695987060546875,0.0019172555766999722,-0.00610930472612381,-0.0002494649961590767
1761467035296970000,5.705969970703125,-0.0007598120719194412,-0.0040023671463131905,-0.00001499522477388382
1761467035306953000,5.715952880859375,-0.0009901756420731544,-0.001970374956727028,0.003953380975872278
1761467035316936000,5.72593603515625,0.001840011216700077,-0.0013623754493892193,0.0005389424040913582
1761467035326919200,5.735919189453125,-0.0024964138865470886,-0.00029045320115983486,-0.000491168349981308
1761467035336902000,5.74590185546875,0.0001833043061196804,-0.0003519721794873476,-0.00012844568118453026
1761467035346884900,5.755884765625,-0.0001253560185432434,0.005238535813987255,-0.001508229528553784
1761467035356868000,5.7658681640625,0.0004151645116508007,0.0008227454964071512,-0.0014821803197264671
1761467035366850800,5.775850830078125,-0.0009102905169129372,0.0007210129406303167,0.0003380903508514166
1761467035376833800,5.785833740234375,-0.00015982380136847496,0.0009961812756955624,-0.0014541627606377006
1761467035386816000,5.79581591796875,-0.001959587913006544,-0.0021892257500439882,-0.002320755273103714
1761467035396799000,5.805799072265625,0.00019863387569785118,-0.004195748828351498,-0.001636962522752583
1761467035406782000,5.815781982421875,-0.0009494544938206673,-0.004161394201219082,-0.0006012592930346727
1761467035416765000,5.825764892578125,-0.0003440738655626774,-0.005675360560417175,0.00044541689567267895
1761467035426748200,5.835748046875,0.0007126685231924057,-0.006068443413823843,0.0013056180905550718
1761467035436731000,5.84573095703125,-0.002106788568198681,-0.003112019505351782,-0.0002019447274506092
1761467035446713900,5.8557138671875,-0.0001999647356569767,-0.0010342211462557316,0.0005770297721028328
1761467035456697000,5.865697021484375,0.0003277868963778019,-0.0017330202972516418,0.0014864993281662464
1761467035466680000,5.87568017578125,-0.001312454231083393,0.001390601508319378,0.001350944396108389
1761467035476662800,5.885662841796875,0.0014643925242125988,0.004464144818484783,-0.0010823854245245457
1761467035486646000,5.89564599609375,-0.001546577550470829,0.004365607164800167,-0.00040833931416273117
1761467035496629000,5.90562890625,-0.0019337953999638557,0.004096996504813433,-0.0019371542148292065
1761467035506612000,5.915612060546875,-0.00007490906864404678,0.0030583636835217476,-0.0023821683134883642
1761467035516594000,5.925593994140625,-0.0004914272576570511,-0.0011022929102182388,-0.0001174162607640028
1761467035526577000,5.935576904296875,0.0013871663250029087,-0.0027763559482991695,-0.0000883876346051693
1761467035536560000,5.94556005859375,0.0001069502905011177,-0.005858806427568197,-0.0019963840022683144
1761467035546542800,5.95554296875,-0.00019425339996814728,-0.0050398847088217735,-0.0010333848185837269
1761467035556525800,5.96552587890625,-0.0005097729153931141,-0.007845142856240273,0.0009324548300355673
1761467035566509000,5.975509033203125,-0.00006875349208712578,-0.007552461698651314,-0.002573596779257059
1761467035576492000,5.985491943359375,0.0001408671960234642,-0.006247594952583313,0.0020758360624313354
1761467035586475000,5.99547509765625,-0.0008008265867829323,-0.0034262421540915966,-0.0010893309954553843
1761467035596458000,6.0054580078125,-0.0019440390169620514,-0.002076307777315378,-0.002460585907101631
1761467035606441000,6.01544091796875,0.0021260702051222324,0.0016899346373975277,-0.00022805784828960896
1761467035616424000,6.025423828125,-0.0006962590850889683,0.003968524280935526,-0.00024408125318586826
1761467035626407000,6.035406982421875,0.0021221640054136515,0.005196773912757635,0.000360989011824131
1761467035636390000,6.045389892578125,0.0011458070948719978,0.0056234681978821754,0.00010977615602314472
1761467035646373000,6.055373046875,-0.0017437227070331573,0.00634411908686161,-0.00017278525047004223
1761467035656354800,6.065354736328125,-0.00011718226596713066,0.0029163677245378494,-0.001725291134789586
1761467035666334500,6.07533447265625,0.0008069346658885479,0.0028428644873201847,-0.0012288778088986874
1761467035676317400,6.0853173828125,-0.0014081993140280247,0.0023170451167970896,0.0010188103187829256
1761467035686300400,6.095300537109375,0.0009260615333914757,-0.0014627792406827211,-0.0007623119745403528
1761467035696283600,6.10528369140625,-0.00010264711454510689,-0.0021342122927308083,-0.0017066948348656297
1761467035706266400,6.115266357421875,0.0008494327776134014,-0.006431222427636385,-0.002225212287157774
1761467035716249300,6.125249267578125,-0.0013650557957589626,-0.004344852175563574,-0.0013865253422409296
1761467035726232600,6.135232666015625,-0.003137655556201935,-0.002599416533485055,-0.0019098365446552634
1761467035736215300,6.14521533203125,0.000036553945392370224,-0.005215375684201717,-0.0014372083824127913
1761467035746198500,6.155198486328125,0.0009889001958072186,-0.004565830808132887,-0.002665724605321884
1761467035756181500,6.165181396484375,-0.0014829686842858791,-0.007170350290834904,-0.0020621183793991804
1761467035766164500,6.17516455078125,-0.00024113710969686508,0.0017757406458258629,-0.00009803706780076027
1761467035776147500,6.1851474609375,0.0003028339706361294,-0.0008082201238721609,0.0015449931379407644
1761467035786130400,6.19513037109375,-0.0019768322817981243,0.001878643175587058,0.0009433848317712545
1761467035796112600,6.205112548828125,0.0017392206937074661,0.003379148431122303,0.0015730063896626234
1761467035806095400,6.215095458984375,0.00006462493911385536,-0.0007530124858021736,-0.0033711520954966545
1761467035816078300,6.225078369140625,0.0004344419576227665,0.003565268823876977,0.0010608823504298925
1761467035826061600,6.2350615234375,0.00021979119628667831,-0.0012587811797857285,-0.003521885257214308
1761467035836044500,6.24504443359375,-0.004802446346729994,0.001388355391100049,-0.0000768718309700489
1761467035846027300,6.25502734375,-0.0006636274047195911,0.005122640170156956,0.0003982360940426588
1761467035856010500,6.265010498046875,-0.0019502225331962109,0.0009391771163791418,-0.0004717151168733835
1761467035865993500,6.274993408203125,-0.000292937271296978,-0.0006131792906671762,0.0005488081369549036
1761467035875976400,6.2849765625,0.001138070598244667,-0.0013489851262420416,-0.0005018075462430716
1761467035885959400,6.29495947265625,0.00007973052561283112,-0.00005149305798113346,-0.0014192665694281459
1761467035895942400,6.3049423828125,0.0010050693526864052,-0.001142921857535839,0.0020537099335342646
1761467035905925600,6.314925537109375,0.0013214526697993279,-0.0018862101715058088,0.000335438409820199
1761467035915908600,6.32490869140625,0.0015310836024582386,-0.00038238056004047394,-0.0013344165636226535
1761467035925890600,6.334890625,0.00032200850546360016,0.003000100376084447,0.001099978806450963
1761467035935873500,6.34487353515625,0.0020407414995133877,-0.0006451860535889864,0.0012965730857104063
1761467035945856500,6.3548564453125,0.00030622491613030434,-0.0015911408700048923,-0.0008760339114814997
1761467035955839500,6.364839599609375,0.00028818240389227867,0.004108675755560398,0.004328155890107155
1761467035965822500,6.374822509765625,-0.00016854936257004738,0.0006830515339970589,0.00036270893178880215
1761467035975805400,6.384805419921875,-0.0040169209241867065,-0.00047457264736294746,0.00003439467400312424
1761467035985788400,6.394788330078125,0.001430042553693056,-0.0003075923305004835,-0.00011980254203081131
1761467035995771400,6.404771484375,-0.002014828845858574,-0.000373858492821455,0.00035855500027537346
1761467036005754400,6.41475439453125,-0.00020308047533035278,-0.0010649487376213074,0.0002475010696798563
1761467036015737600,6.424737548828125,-0.0006238245405256748,-0.0026273815892636776,-0.0008046652656048536
1761467036025720300,6.43472021484375,0.0016854023560881615,-0.00012241210788488388,0.000518393237143755
1761467036035703300,6.444703369140625,0.0006915722042322159,0.001836044481024146,0.00162968086078763
1761467036045686500,6.4546865234375,0.00019222963601350784,-0.0012865117751061916,-0.0012763604754582047
1761467036055668500,6.46466845703125,-0.0007449798285961151,0.0008676084689795971,0.0004663059953600168
1761467036065651500,6.4746513671875,0.000321083702147007,-0.001345478231087327,0.0001621730625629425
1761467036075634400,6.484634521484375,-0.0027573080733418465,0.00090208207257092,0.0010419199243187904
1761467036085617700,6.49461767578125,-0.0008741868659853935,-0.0026188832707703114,0.0014629657380282879
1761467036095600400,6.504600341796875,-0.0010966327972710133,-0.0019629760645329952,0.0009753389749675989
1761467036105583400,6.514583251953125,-0.0007232576608657837,0.0020807678811252117,-0.0004217552486807108
1761467036115566600,6.524566650390625,-0.0007026651874184608,0.0016174446791410446,0.000591101823374629
1761467036125549600,6.534549560546875,-0.0009548664093017578,0.0008153002709150314,0.0007982959505170584
1761467036135532300,6.5445322265625,0.00004986673593521118,0.0017966818995773792,-0.0012552682310342789
1761467036145515500,6.554515625,-0.0013821148313581944,-0.0001871068961918354,0.0017554352525621653
1761467036155498500,6.56449853515625,0.001038381364196539,-0.002927251625806093,0.002018554834648967
1761467036165481500,6.5744814453125,0.001331595703959465,-0.0028984895907342434,-0.0015423577278852463
1761467036175464400,6.58446435546875,-0.0021181912161409855,0.00004500453360378742,-0.000646308995783329
1761467036185447400,6.594447509765625,-0.001928573939949274,0.0008926887530833483,-0.00006307684816420078
1761467036195429600,6.6044296875,0.0011124000884592533,0.0025503041688352823,0.0009700157679617405
1761467036205412400,6.614412353515625,0.0007906900718808174,0.0012304417323321104,-0.0005908627063035965
1761467036215395300,6.624395263671875,0.0015699570067226887,0.0019729582127183676,-0.0017621256411075592
1761467036225378600,6.634378662109375,0.0010913866572082043,0.0016613684128969908,-0.0004095060285180807
1761467036235361500,6.644361572265625,0.0002592983655631542,-0.0035533017944544554,0.0002619882579892874
1761467036245344500,6.654344482421875,-0.0002991664223372936,-0.0011964042205363512,-0.0001944773830473423
1761467036255327500,6.664327392578125,0.001526756677776575,0.000018445076420903206,0.0026296963915228844
1761467036265310500,6.674310546875,-0.0020890170708298683,-0.00025452906265854836,0.00036787381395697594
1761467036275293400,6.68429345703125,0.0021265915129333735,-0.0038808134850114584,-0.0006868427153676748
1761467036285276400,6.6942763671875,-0.0005139326676726341,-0.005623852368444204,-0.00019229366444051266
1761467036295259400,6.70425927734375,-0.0005794409662485123,-0.003174470504745841,0.002509001875296235
1761467036305242600,6.71424267578125,0.00005305977538228035,-0.004585945978760719,0.000910838833078742
1761467036315225300,6.724225341796875,-0.0029424410313367844,-0.0009904718026518822,-0.0024565141648054123
1761467036325207600,6.73420751953125,-0.0006710309535264969,-0.0027747899293899536,-0.00006685988046228886
1761467036335190500,6.7441904296875,-0.00008165277540683746,0.0019655716605484486,-0.001196891302242875
1761467036345173200,6.75417333984375,0.0020605940371751785,0.002151194028556347,0.00003801635466516018
1761467036355156500,6.764156494140625,0.0008700299076735973,0.0032442286610603333,0.0014322325587272644
1761467036365139500,6.774139404296875,-0.0010892576538026333,0.005212837364524603,0.001264187041670084
1761467036375122400,6.784122314453125,0.0002199355512857437,0.0029371511191129684,0.00039227004162967205
1761467036385105400,6.79410546875,0.0020191671792417765,0.00039649568498134613,-0.0011310579720884562
1761467036395088400,6.80408837890625,-0.003796543926000595,-0.001678859582170844,0.0027039204724133015
1761467036405071600,6.814071533203125,0.0013105999678373337,-0.001557153183966875,0.0008250605314970016
1761467036415054600,6.8240546875,0.00048134801909327507,-0.0018454117234796286,0.00008020829409360886
1761467036425037300,6.834037353515625,0.001789492554962635,0.0017461273819208145,-0.0003019552677869797
1761467036435020500,6.8440205078125,0.001561745535582304,0.0021664786618202925,0.00016740057617425919
1761467036445003500,6.85400341796875,0.0003521377220749855,-0.00013209553435444832,0.0010979091748595238
1761467036454985500,6.8639853515625,0.0008225138299167156,0.0007637524977326393,0.0013748230412602425
1761467036464968400,6.873968505859375,0.0016358429566025734,0.0005999677814543247,-0.000052631134167313576
1761467036474951400,6.883951416015625,0.0017618471756577492,0.0012838607653975487,0.0015077157877385616
1761467036484934700,6.8939345703125,-0.0002491059713065624,0.002496930770576,0.0005111610516905785
1761467036494917400,6.90391748046875,0.0007640067487955093,-0.0002454821951687336,-0.0005683782510459423
1761467036504900400,6.913900390625,-0.000511381309479475,0.002067739376798272,0.00041033350862562656
1761467036514883600,6.923883544921875,-0.001545050647109747,0.0023420013021677732,-0.0006683014798909426
1761467036524866300,6.9338662109375,-0.0014406545087695122,-0.0032053631730377674,-0.0031516992021352053
1761467036534849300,6.943849365234375,-0.001157337799668312,-0.0012312866747379303,-0.00469798780977726
1761467036544832500,6.95383251953125,-0.00030991993844509125,-0.00043287104927003384,-0.0001152202021330595
1761467036554815500,6.9638154296875,-0.0004647313617169857,-0.0011458564549684525,-0.0013324804604053497
1761467036564798500,6.973798583984375,-0.0001765773631632328,0.001092263963073492,-0.001107709715142846
1761467036574781400,6.983781494140625,0.002654408570379019,-0.0029994184151291847,0.0011287520173937082
1761467036584763600,6.993763671875,0.0009899330325424671,0.0014488594606518745,-0.0009786072187125683
1761467036594746400,7.003746337890625,0.00017963210120797157,0.005707498639822006,-0.00025422312319278717
1761467036604729300,7.013729248046875,0.0000475393608212471,-0.0026119500398635864,-0.0010204145219177008
1761467036614712600,7.023712646484375,0.0008674878627061844,0.004604949615895748,0.0020454165060073137
1761467036624695600,7.033695556640625,0.00034790486097335815,0.005412153899669647,-0.0007692782673984766
1761467036634678300,7.04367822265625,-0.001189504750072956,0.0031266200821846724,0.0024353046901524067
1761467036644661500,7.05366162109375,-0.0005101324059069157,0.002549513475969434,-0.0012390587944537401
1761467036654644500,7.06364453125,-0.0012470576912164688,-0.003397333202883601,0.000984415877610445
1761467036664627500,7.07362744140625,-0.0009754151105880737,-0.001489710994064808,0.0003676277119666338
1761467036674610400,7.0836103515625,-0.0026662489399313927,-0.0010425900109112263,-0.0008108792826533318
1761467036684593400,7.093593505859375,-0.0009660874493420124,0.00009937328286468983,-0.0015448465710505843
1761467036694576400,7.103576416015625,-0.00023205997422337532,-0.001179985236376524,0.0004897573962807655
1761467036704559400,7.113559326171875,0.0012787515297532082,-0.005552895832806826,-0.00021757814101874828
1761467036714541300,7.123541259765625,0.000554459635168314,0.0010461348574608564,-0.0012279523070901632
1761467036724524500,7.133524658203125,0.001605343073606491,0.0009667726699262857,0.0017529239412397146
1761467036734507300,7.14350732421875,-0.0022440203465521336,0.0017948553431779146,-0.0007508068811148405
1761467036744490500,7.153490478515625,-0.0012546554207801819,0.0031597253400832415,-0.001334571628831327
1761467036754473500,7.163473388671875,-0.0013382714241743088,-0.0001533434260636568,0.0008378238417208195
1761467036764456400,7.17345654296875,-0.0027955533005297184,0.004220099654048681,0.0006713762413710356
1761467036774439400,7.183439453125,0.0019619823433458805,0.004540264140814543,-0.0022798592690378428
1761467036784422400,7.19342236328125,-0.0013842792250216007,-0.00002332916483283043,0.0005260473117232323
1761467036794405400,7.2034052734375,-0.0031414898112416267,-0.0013491399586200714,-0.002795520005747676
1761467036804388600,7.213388671875,0.00017787376418709755,-0.002787246834486723,0.001253017457202077
1761467036814371300,7.223371337890625,-0.0001639961265027523,0.0014551610220223665,-0.0008026573341339827
1761467036824354300,7.233354248046875,0.0009209755808115005,-0.0011131917126476765,-0.0009501965250819921
1761467036834337500,7.243337646484375,0.0007216478697955608,-0.0007055837195366621,0.0009709605947136879
1761467036844319200,7.2533193359375,0.0010769139043986797,-0.001380695030093193,-0.0005233390256762505
1761467036854302500,7.263302490234375,-0.00042961305007338524,-0.003572724526748061,-0.0021143981721252203
1761467036864285400,7.273285400390625,0.00041434261947870255,0.0033853165805339813,0.00024516251869499683
1761467036874268400,7.283268310546875,0.0010901093482971191,0.0001848684623837471,-0.00024558138102293015
1761467036884251400,7.29325146484375,-0.0005740998312830925,-0.00014669494703412056,0.001299318391829729
1761467036894234400,7.303234375,0.001060450915247202,0.0034839108120650053,0.0022074785083532333
1761467036904217600,7.313217529296875,-0.0028682444244623184,0.00020289630629122257,-0.001209890004247427
1761467036914200300,7.323200439453125,0.0005410038866102695,-0.001311908708885312,0.000044622691348195076
1761467036924183300,7.333183349609375,0.0006347470916807652,0.0018058537971228361,0.000226516742259264
1761467036934166500,7.34316650390625,-0.0012882635928690434,-0.004773180931806564,0.000306655652821064
1761467036944149500,7.3531494140625,-0.00015082769095897675,-0.005639773793518543,0.002172732725739479
1761467036954132200,7.36313232421875,-0.0006792140193283558,-0.004469805862754583,0.003359107067808509
1761467036964115500,7.373115478515625,-0.0006690938025712967,-0.002347266534343362,0.0006123227067291737
1761467036974097400,7.383097412109375,0.00010177306830883026,-0.0006659126374870539,0.0013552205637097359
1761467036984080400,7.393080322265625,0.0011132415384054184,0.0008981616701930761,0.00034162169322371483
1761467036994063400,7.4030634765625,0.001639672089368105,0.000367302680388093,0.0001302205491811037
1761467037004046300,7.41304638671875,-0.000024537090212106705,0.0033106280025094748,0.0014034779742360115
1761467037014029600,7.423029541015625,-0.0026920433156192303,0.0004853073041886091,-0.00039869104512035847
1761467037024012300,7.43301220703125,0.0016523716039955616,0.0036267724353820086,-0.0003353077918291092
1761467037033995300,7.442995361328125,-0.000945280771702528,0.0008284533396363258,-0.00040351063944399357
1761467037043978500,7.452978515625,-0.0021570189855992794,0.0014039627276360989,0.00011207745410501957
1761467037053961500,7.46296142578125,0.0004864525981247425,0.001929855439811945,-0.000011113472282886505
1761467037063944400,7.4729443359375,-0.00020730122923851013,-0.0008108033798635006,0.000127370934933424
1761467037073927400,7.482927490234375,0.0003013904206454754,-0.003959644585847855,-0.00025995797477662563
1761467037083910400,7.492910400390625,-0.0005497555248439312,-0.0027084914036095142,-0.00009084725752472878
1761467037093893600,7.5028935546875,-0.001238345168530941,-0.00048093637451529503,0.000498330220580101
1761467037103876400,7.51287646484375,-0.0010575163178145885,-0.0037283948622643948,0.00270396051928401
1761467037113859300,7.522859375,0.0002306452952325344,-0.0024862769059836864,-0.0013244913425296545
1761467037123841500,7.532841552734375,-0.000028746668249368668,-0.0029824241064488888,0.0011157633271068335
1761467037133824300,7.54282421875,-0.0005278410390019417,0.0010246282909065485,-0.00034082517959177494
1761467037143807500,7.552807373046875,-0.0008215876296162605,-0.0010305331088602543,-0.0003581359051167965
1761467037153790500,7.56279052734375,-0.0007887864485383034,0.0037812532391399145,0.0024423927534371614
1761467037163773400,7.5727734375,-0.0022516604512929916,0.0011021133977919817,-0.00010385550558567047
1761467037173756400,7.58275634765625,-0.0009735855273902416,0.0025658514350652695,-0.0022231098264455795
1761467037183739400,7.592739501953125,-0.0002462761476635933,0.0012555764988064766,0.002387088257819414
1761467037193722400,7.602722412109375,-0.00006114458665251732,0.0013616371434181929,-0.001048095291480422
1761467037203705300,7.612705322265625,-0.0025983378291130066,0.0017994607333093882,-0.0014108179602771997
1761467037213688300,7.622688232421875,0.0011302917264401913,0.0004514732863754034,-0.00021967850625514984
1761467037223671600,7.632671630859375,0.00041949376463890076,0.0005220470484346151,-0.0017238318687304854
1761467037233654500,7.642654541015625,0.0009796321392059326,-0.0006747448351234198,0.0003590851556509733
1761467037243637200,7.65263720703125,0.0004296894185245037,-0.0009605020750313997,0.0013282094150781631
1761467037253620500,7.662620361328125,0.00014867354184389114,-0.003638109192252159,0.0015570931136608124
1761467037263603500,7.672603515625,-0.001714740414172411,-0.0027813701890408993,-0.0014994170051068068
1761467037273586400,7.68258642578125,-0.001983943860977888,0.0038480772636830807,0.002121569123119116
1761467037283568400,7.692568359375,0.00012048613280057907,0.0004211217164993286,0.0011218185536563396
1761467037293551400,7.70255126953125,-0.00026851752772927284,-0.0019257977837696671,0.00001862761564552784
1761467037303534600,7.71253466796875,0.0005480078980326653,0.0016497622709721327,0.002433848101645708
1761467037313517300,7.722517333984375,-0.0027785017155110836,0.000025467947125434875,-0.00029474333859980106
1761467037323500300,7.732500244140625,0.0008825464174151421,0.0014428023714572191,0.0012277860660105944
1761467037333483500,7.7424833984375,-0.0000810716301202774,0.0006103157065808773,0.0006838508415967226
1761467037343466500,7.752466552734375,0.000025987159460783005,-0.0009739988017827272,-0.0011345555540174246
1761467037353449500,7.762449462890625,0.002188561251387,0.0004373914562165737,0.0014202035963535309
1761467037363432400,7.772432373046875,0.0008149025961756706,-0.0017639772268012166,0.001186378300189972
1761467037373415400,7.78241552734375,-0.0005967332981526852,-0.0015162525232881308,0.00028261938132345676
1761467037383398700,7.792398681640625,-0.00008274288848042488,0.00006673019379377365,-0.0002603991888463497
1761467037393381400,7.80238134765625,0.0013236822560429573,-0.0021137092262506485,-0.00043579936027526855
1761467037403364400,7.8123642578125,0.0010413872078061104,-0.0006710747256875038,-0.0005244826897978783
1761467037413347600,7.82234765625,-0.0013024038635194302,0.0009785133879631758,-0.00008176476694643497
1761467037423330300,7.832330322265625,-0.00043155020102858543,-0.0015911705559119582,-0.0013579516671597958
1761467037433313300,7.842313232421875,-0.0005079386755824089,-0.0023718359880149364,-0.002606948371976614
1761467037443296500,7.852296630859375,0.001197816338390112,0.003408289048820734,0.0006996323354542255
1761467037453279500,7.862279541015625,-0.00027242302894592285,0.0016994006000459194,0.00040552951395511627
1761467037463262200,7.87226220703125,-0.00004259217530488968,0.000749451108276844,0.0014510864857584238
1761467037473245400,7.882245361328125,-0.0006169877015054226,-0.0011586369946599007,0.0011811009608209133
1761467037483228400,7.892228515625,0.000800080131739378,-0.004578402265906334,0.0027659479528665543
1761467037493211400,7.90221142578125,-0.002461262047290802,-0.0011966165620833635,-0.001789600821211934
1761467037503194400,7.9121943359375,0.0008684876374900341,0.00038663274608552456,0.002798759611323476
1761467037513177300,7.92217724609375,0.0005353777669370174,-0.0029522995464503765,-0.00017704209312796593
1761467037523160600,7.93216064453125,-0.0016795732080936432,-0.00009925500489771366,0.0004706387408077717
1761467037533143600,7.9421435546875,0.00016508903354406357,0.003998284228146076,0.0026686196215450764
1761467037543125500,7.95212548828125,-0.00013371789827942848,-0.0003232271410524845,-0.000019309110939502716
1761467037553108500,7.9621083984375,-0.000832119956612587,0.002885643858462572,-0.0006791418418288231
1761467037563091500,7.972091552734375,0.0019143982790410519,0.004166358150541782,0.0021600541658699512
1761467037573074400,7.982074462890625,-0.0007432252168655396,-0.0008885192219167948,-0.0010367559734731913
1761467037583055600,7.9920556640625,-0.0004657236859202385,-0.0008365875110030174,0.000020518898963928223
1761467037593038300,8.002038330078125,-0.00032440293580293655,-0.0007136361673474312,-0.0006885875482112169
1761467037603021300,8.012021240234375,-0.001536673866212368,0.0022709686309099197,-0.0006513034459203482
1761467037613004500,8.022004638671875,0.0022722117137163877,-0.0001832069829106331,0.0004303194582462311
1761467037622987500,8.031987548828125,-0.0015611425042152405,-0.000870568910613656,0.0001626717858016491
1761467037632970200,8.04197021484375,0.0009582671336829662,0.00009483424946665764,-0.0022917764727026224
1761467037642953500,8.051953369140625,-0.0005802414380013943,0.0009313330519944429,-0.001975925639271736
1761467037652936400,8.0619365234375,-0.0009417235851287842,0.0020684434566646814,0.00034211273305118084
1761467037662919400,8.07191943359375,-0.0018168380483984947,0.00216405070386827,0.0026199142448604107
1761467037672902400,8.08190234375,-0.0016985093243420124,0.0031505899969488382,0.0002880298998206854
1761467037682885400,8.091885498046874,-0.0014604227617383003,0.0008778481278568506,0.0007311799563467503
1761467037692868400,8.101868408203124,-0.0008896323852241039,0.10003085434436798,0.03404684364795685
1761467037702851600,8.1118515625,0.0008552707731723785,-0.023003725335001945,-0.0018573615234345198
1761467037712834300,8.121834228515626,0.00038595590740442276,0.03384167328476906,0.012946903705596924
1761467037722817500,8.131817626953126,0.0018637441098690033,-0.0101873017847538,-0.0010597254149615765
1761467037732800500,8.141800537109376,0.000980097334831953,0.0033959036227315664,0.001523797633126378
1761467037742783200,8.151783203125,0.00042722513899207115,-0.01224537380039692,-0.004505066201090813
1761467037752766500,8.161766357421875,0.0016733240336179733,-0.013037575408816338,-0.00557090574875474
1761467037762749400,8.17174951171875,-0.0006564091891050339,-0.019692815840244293,-0.006101673934608698
1761467037772732400,8.181732421875,0.001839775126427412,-0.0324874147772789,-0.013541758060455322
1761467037782715400,8.19171533203125,-0.00007530394941568375,-0.025115251541137695,-0.011471150442957878
1761467037792698400,8.201698486328125,0.0004545939154922962,0.009744993411004543,0.003851612564176321
