time,seconds_elapsed,z,y,x
1761467016728705500,0.12270556640625,0.0006960020400583744,0.0020917996298521757,0.002427205443382263
1761467016738687700,0.132687744140625,-0.00006220024079084396,-0.00036310218274593353,-0.00022583571262657642
1761467016748670700,0.142670654296875,-0.0010419897735118866,0.0021504561882466078,0.0013945496175438166
1761467016758654000,0.152654052734375,0.00008053239434957504,-0.0024789166636765003,-0.0033741064835339785
1761467016768636700,0.16263671875,0.00003281794488430023,0.003278981428593397,-0.00005191471427679062
1761467016778619600,0.17261962890625,0.0025652179028838873,-0.0017517299856990576,-0.0003203614614903927
1761467016788603000,0.182602783203125,0.000030316412448883057,0.005326978862285614,0.0011944365687668324
1761467016798585600,0.192585693359375,0.0006116847507655621,0.0013940229546278715,0.0008050822652876377
1761467016808567800,0.20256787109375,0.0010832003317773342,-0.0061857011169195175,-0.0007949839346110821
1761467016818550800,0.21255078125,-0.0002864631824195385,0.0037417644634842873,0.002447680803015828
1761467016828533800,0.22253369140625,0.0010502459481358528,0.004999030381441116,0.0014520569238811731
1761467016838516700,0.232516845703125,0.0030726506374776363,0.0002641964238137007,-0.0016601128736510873
1761467016848499700,0.242499755859375,0.0016663093119859695,0.0045836251229047775,-0.0014659134903922677
1761467016858483000,0.25248291015625,0.0008793449960649014,-0.0006329754833132029,-0.0007279515266418457
1761467016868465700,0.262465576171875,-0.0014276914298534393,0.0029631531797349453,0.0005213185213506222
1761467016878447900,0.27244775390625,0.00010948535054922104,0.001979114953428507,0.0013476975727826357
1761467016888430800,0.282430908203125,0.0016870382241904736,-0.0005579981952905655,-0.00077279401011765
1761467016898413600,0.29241357421875,0.003048179903998971,0.00024547730572521687,0.0015236497856676579
1761467016908396800,0.302396728515625,0.0005001998506486416,0.0004021786153316498,-0.0015027292538434267
1761467016918379800,0.3123798828125,-0.000642828643321991,0.0004908619448542595,-0.00022521079517900944
1761467016928362800,0.32236279296875,-0.0010762270539999008,-0.007103058509528637,0.001537717878818512
1761467016938345700,0.332345703125,-0.0005664979107677937,-0.0007538164500147104,0.000981916207820177
1761467016948328700,0.34232861328125,0.00045161228626966476,-0.0038968680892139673,-0.0017034212360158563
1761467016958311000,0.352310791015625,0.0013062204234302044,0.004809271544218063,-0.0023998378310352564
1761467016968293600,0.362293701171875,0.0030042966827750206,0.006898113526403904,0.0010533174499869347
1761467016978276600,0.372276611328125,-0.0008961688727140427,-0.00009907549247145653,-0.0011877326760441065
1761467016988259800,0.382259765625,-0.001618809998035431,0.004246094264090061,-0.0006147352978587151
1761467016998242800,0.392242919921875,0.0007865568622946739,-0.0033841284457594156,-0.0019087654072791338
1761467017008225800,0.402225830078125,0.00040811439976096153,-0.002867538947612047,-0.0027742143720388412
1761467017018208800,0.412208740234375,0.0026057546492666006,0.010627230629324913,-0.0007976163178682327
1761467017028191000,0.42219091796875,0.0013751517981290817,0.005046701058745384,0.002076301956549287
1761467017038173700,0.432173583984375,0.0005644853226840496,0.004886378534138203,0.00011035660281777382
1761467017048156700,0.44215673828125,0.0004721437580883503,0.004840525332838297,0.0017998109105974436
1761467017058140000,0.452139892578125,-0.0006690206937491894,-0.0016535930335521698,0.0005233578849583864
1761467017068123000,0.462122802734375,0.0004163803532719612,0.001012528082355857,0.00123574398458004
1761467017078105600,0.472105712890625,0.0032459888607263565,0.00366343860514462,0.003365740180015564
1761467017088088800,0.4820888671875,-0.000008984468877315521,0.005517956800758839,-0.000029699178412556648
1761467017098071800,0.49207177734375,0.0010911673307418823,0.005235129036009312,0.0009908240754157305
1761467017108053800,0.5020537109375,-0.00006329966709017754,-0.00745778065174818,-0.004158056806772947
1761467017118036700,0.51203662109375,-0.00041084224358201027,-0.0015226600226014853,-0.0012954248813912272
1761467017128019700,0.522019775390625,-0.0001949043944478035,0.007329829037189484,0.002808404853567481
1761467017138003000,0.5320029296875,-0.005676755681633949,-0.005771858152002096,-0.004461225587874651
1761467017147985700,0.541985595703125,0.0007216404192149639,0.002831266261637211,-0.000003711087629199028
1761467017157968600,0.55196875,0.001196748111397028,-0.00024441839195787907,0.0015409223269671202
1761467017167952000,0.561951904296875,-0.001627442892640829,-0.0015443186275660992,-0.0010362847242504358
1761467017177934600,0.5719345703125,0.0007731304503977299,0.0021915638353675604,-0.0012021996080875397
1761467017187916800,0.581916748046875,0.0012168833054602146,-0.0030624670907855034,-0.0016196008073166013
1761467017197899800,0.591899658203125,-0.0009618485346436501,-0.0011234194971621037,-0.001279781456105411
1761467017207883000,0.601883056640625,0.00018694857135415077,0.001045681769028306,0.0014668782241642475
1761467017217865700,0.61186572265625,-0.0003078668378293514,-0.001992452424019575,-0.0004284938331693411
1761467017227848700,0.6218486328125,-0.0004548514261841774,0.0012779373209923506,0.001141026383265853
1761467017237832000,0.63183203125,0.0021795472130179405,-0.00045125302858650684,0.0018584819044917822
1761467017247814700,0.641814697265625,-0.0014440235681831837,-0.0013224659487605095,-0.0019251818303018808
1761467017257797600,0.651797607421875,-0.0013215183280408382,0.001966804265975952,0.002703924896195531
1761467017267779800,0.66177978515625,0.0010611116886138916,0.0031139031052589417,0.0030700284987688065
1761467017277762600,0.671762451171875,-0.0019003232009708881,-0.0025319980923086405,-0.0032991874031722546
1761467017287745800,0.681745849609375,-0.0001337616704404354,-0.0020819709170609713,0.001957837026566267
1761467017297728800,0.691728759765625,-0.0006650621071457863,-0.0006268196739256382,-0.00045312242582440376
1761467017307711700,0.701711669921875,0.0004569515585899353,0.0019991984590888023,0.0013358884025365114
1761467017317694700,0.71169482421875,0.0019041134510189295,0.0017805532552301884,0.002234172774478793
1761467017327677700,0.721677734375,-0.0016234656795859337,-0.0007588553708046675,-0.0002667768858373165
1761467017337660000,0.731659912109375,0.0004383535124361515,-0.0048617213033139706,0.0005995493847876787
1761467017347642600,0.741642578125,0.0007371227256953716,-0.0001302810851484537,0.0008045230060815811
1761467017357625600,0.75162548828125,-0.00127329770475626,-0.0001052473671734333,-0.00028550857678055763
1761467017367608800,0.76160888671875,0.00099224504083395,-0.003186148125678301,0.000535718398168683
1761467017377591800,0.771591796875,-0.0007726321928203106,0.001577448332682252,0.0005615509580820799
1761467017387574800,0.78157470703125,0.0009722490794956684,-0.002016457263380289,-0.0025998966302722692
1761467017397557800,0.791557861328125,0.0005016685463488102,0.0007761335000395775,0.00020441203378140926
1761467017407540000,0.8015400390625,-0.0002904776483774185,-0.00017983000725507736,-0.0015039698919281363
1761467017417522700,0.811522705078125,0.0014323215000331402,0.00428389385342598,0.0008169750217348337
1761467017427505700,0.821505615234375,-0.0017367959953844547,0.0017946383450180292,5.881302058696747e-7
1761467017437489000,0.831489013671875,-0.00288062309846282,-0.00516047328710556,0.00002295849844813347
1761467017447471900,0.841471923828125,0.0017811139114201069,0.0014239398296922445,0.0006335482466965914
1761467017457454600,0.85145458984375,-0.0017976420931518078,0.0008668063674122095,0.00038081430830061436
1761467017467437800,0.861437744140625,-0.0004156935028731823,-0.002542251953855157,0.00212457706220448
1761467017477420800,0.8714208984375,0.00043012620881199837,0.0007291750516742468,-0.001371620805002749
1761467017487402800,0.88140283203125,-0.0013845697976648808,-0.0005642659962177277,0.0009828631300479174
1761467017497385700,0.8913857421875,0.0005882997065782547,-0.0004220530390739441,-0.001544210477732122
1761467017507368700,0.90136865234375,-0.0012111472897231579,-0.001049258979037404,-0.00024178740568459034
1761467017517352000,0.91135205078125,-0.0015973057597875595,0.0005792640149593353,0.000442911172285676
1761467017527334700,0.921334716796875,0.0005529113113880157,0.0018163814675062895,-0.00019872630946338177
1761467017537317600,0.931317626953125,-0.0017864089459180832,-0.0019218979869037867,-0.0029527011793106794
1761467017547300900,0.94130078125,-0.0022552073933184147,-0.0017161611467599869,-0.001356641878373921
1761467017557283800,0.951283935546875,0.001554710790514946,-0.0017715548165142536,-0.001106837298721075
1761467017567265800,0.961265869140625,-0.0001418362371623516,-0.0035176845267415047,-0.002610757015645504
1761467017577248800,0.971248779296875,-0.0007013664580881596,-0.0037126278039067984,-0.002228593220934272
1761467017587232000,0.98123193359375,0.0005706977099180222,0.0030954654794186354,0.0023604421876370907
1761467017597214700,0.991214599609375,-0.001764894463121891,-0.004311318509280682,-0.0015277727507054806
1761467017607197700,1.00119775390625,0.00032954011112451553,0.003557698568329215,0.0018475051037967205
1761467017617181000,1.011180908203125,0.001510385423898697,-0.007308265194296837,-0.0022191419266164303
1761467017627163600,1.02116357421875,-0.003898769151419401,0.00006123422645032406,-0.002135893329977989
1761467017637146600,1.031146728515625,0.0013750889338552952,0.005636828951537609,0.0013168950099498034
1761467017647128800,1.04112890625,0.0015924801118671894,-0.005259920842945576,0.0014028528239578009
1761467017657111600,1.051111572265625,0.00019059237092733383,0.005214024800807238,-0.0009364678990095854
1761467017667094800,1.0610947265625,-0.0005269353277981281,0.002312861382961273,0.00354894925840199
1761467017677077500,1.071077392578125,-0.00040602777153253555,0.00019644713029265404,-0.0002876007929444313
1761467017687060500,1.081060546875,-0.00023706955835223198,0.001519220182672143,-0.0007807675283402205
1761467017697043700,1.091043701171875,-0.0009215017780661583,-0.0016715133097022772,0.00098331063054502
1761467017707026400,1.1010263671875,-0.0019466360099613667,-0.0010894413571804762,0.0010130226146429777
1761467017717009700,1.111009765625,0.0004416867159307003,-0.00031073298305273056,-0.0008320154156535864
1761467017726991600,1.12099169921875,-0.00011107092723250389,0.00031021214090287685,0.0018648498225957155
1761467017736974600,1.130974609375,-0.0019952571019530296,0.001059359172359109,-0.0011021778918802738
1761467017746957600,1.14095751953125,0.002303227549418807,0.000491411192342639,-0.002552548423409462
1761467017756940500,1.1509404296875,0.00013621337711811066,-0.00293900677934289,0.0002994309179484844
1761467017766923800,1.160923828125,0.003030062187463045,0.002393528586253524,0.0004898011684417725
1761467017776906500,1.170906494140625,0.001157859805971384,-0.0011692484840750694,0.0012139144819229841
1761467017786889500,1.180889404296875,-0.00011117849498987198,0.0009599563200026751,0.0009651924483478069
1761467017796871700,1.19087158203125,-0.0008741738274693489,-0.00275701773352921,-0.0012273879256099463
1761467017806854400,1.2008544921875,-0.0008344650268554688,-0.0011803593952208757,0.0008401642553508282
1761467017816837600,1.210837646484375,-0.0010728179477155209,-0.00006129895336925983,0.00048330100253224373
1761467017826820600,1.220820556640625,0.0009315675124526024,-0.001129326643422246,0.0011357541661709547
1761467017836803600,1.230803466796875,-0.0009744567796587944,-0.0012057593557983637,0.00042389100417494774
1761467017846786600,1.24078662109375,-0.0006107185035943985,0.0025924881920218468,0.001927561592310667
1761467017856769500,1.25076953125,-0.000982761848717928,-0.0000174099113792181,-0.0010493199806660414
1761467017866752500,1.26075244140625,0.00015786709263920784,-0.002064676955342293,-0.0005682474002242088
1761467017876734500,1.270734375,-0.001233634538948536,-0.000706198625266552,0.002988936845213175
1761467017886717400,1.280717529296875,-0.003141928929835558,-0.0037592947483062744,-0.0005768362898379564
1761467017896700700,1.29070068359375,-0.000470778439193964,-0.0022130636498332024,0.0014591505751013756
1761467017906683600,1.30068359375,0.0017243484035134315,-0.004032945726066828,0.0014648789074271917
1761467017916666600,1.31066650390625,-0.00181978615000844,-0.0011239747982472181,-0.00024966406635940075
1761467017926649600,1.320649658203125,0.0003144345246255398,-0.00042366189882159233,0.0008046033326536417
1761467017936632600,1.330632568359375,-0.0010192766785621643,0.000550256110727787,0.0013396323192864656
1761467017946615800,1.34061572265625,-0.000081655103713274,0.001197358826175332,0.00279707508161664
1761467017956597500,1.350597412109375,0.0017029293812811375,-0.0005986769683659077,-0.0013966046972200274
1761467017966580700,1.360580810546875,-0.003770833369344473,0.0009569693356752396,0.002430173335596919
1761467017976563700,1.370563720703125,0.00007556984201073647,-0.0027184593491256237,-0.0011757465545088053
1761467017986546400,1.38054638671875,0.0007252916693687439,-0.0016033919528126717,-0.00020671449601650238
1761467017996529700,1.39052978515625,-0.0009413142688572407,-0.003052950371056795,0.001406894763931632
1761467018006512600,1.4005126953125,0.002040430437773466,-0.00055715162307024,-0.0015414052177220583
1761467018016495600,1.41049560546875,-0.0004778546281158924,0.0021411629859358072,-0.0003280690871179104
1761467018026478600,1.420478515625,0.00030713528394699097,0.0010860187467187643,0.0006305072456598282
1761467018036460500,1.43046044921875,-0.00009020837023854256,0.0008372792508453131,-0.0020467685535550117
1761467018046443800,1.44044384765625,-0.0014992649666965008,0.0002814496401697397,-0.00040067057125270367
1761467018056426500,1.450426513671875,-0.0012569171376526356,0.0012148877140134573,0.0008627329953014851
1761467018066409500,1.460409423828125,-0.0021139029413461685,0.00004462036304175854,-0.00013370276428759098
1761467018076392700,1.470392822265625,0.0028869807720184326,0.0003455576952546835,0.0015259792562574148
1761467018086375700,1.480375732421875,0.0002254815772175789,-0.00013602757826447487,0.00024773506447672844
1761467018096358700,1.490358642578125,-0.0004680058918893337,-0.0005136639811098576,-0.0021693501621484756
1761467018106341600,1.500341552734375,-0.0005890275351703167,0.0007448878604918718,-0.0003576388116925955
1761467018116323600,1.510323486328125,0.0030949232168495655,-0.0010841712355613708,-0.0005408644210547209
1761467018126306600,1.520306640625,0.002624264918267727,0.0008808274287730455,-0.002999416086822748
1761467018136289500,1.53028955078125,-0.0016043023206293583,-0.00006193178705871105,0.00016388669610023499
1761467018146272800,1.540272705078125,0.0010840152390301228,0.0008554840460419655,0.00028501544147729874
1761467018156255500,1.55025537109375,-0.001068884041160345,-0.0019890381954610348,-0.0009554848074913025
1761467018166238500,1.560238525390625,-0.0008075619116425514,-0.0018638218753039837,0.0006103010382503271
1761467018176221700,1.5702216796875,-0.002003321424126625,-0.002084065228700638,0.0004158902447670698
1761467018186204700,1.58020458984375,-0.00010475795716047287,0.00021262583322823048,-0.0011338365729898214
1761467018196186600,1.5901865234375,0.0026271126698702574,-0.0007951145526021719,-0.0012339713284745812
1761467018206169600,1.600169677734375,-0.000009100418537855148,0.0009606878738850355,0.0016432935371994972
1761467018216152600,1.610152587890625,-0.0017308341339230537,0.0014022400137037039,0.0002185022458434105
1761467018226135600,1.620135498046875,0.00048344023525714874,0.0008489838801324368,0.0008882570546120405
1761467018236118500,1.630118408203125,-0.0010193814523518085,0.0006194193847477436,0.000664285384118557
1761467018246101500,1.6401015625,-0.003092820756137371,0.0003336467780172825,0.00011303601786494255
1761467018256084700,1.650084716796875,0.0019661199767142534,0.001802380196750164,0.0025500948540866375
1761467018266067500,1.6600673828125,0.0007044072262942791,0.0015697728376835585,0.00002299295738339424
1761467018276049700,1.670049560546875,0.0003174501471221447,-0.0007461120840162039,-0.00035011605359613895
1761467018286032600,1.68003271484375,-0.0028900322504341602,-0.0025607063435018063,0.0018065627664327621
1761467018296015600,1.690015625,-0.00009744195267558098,0.0004246972966939211,-0.0013625987339764833
1761467018305998600,1.69999853515625,-0.0018563647754490376,-0.0018020018469542265,-0.0006103380583226681
1761467018315981600,1.709981689453125,-0.0005772486329078674,-0.00025603664107620716,0.0017380374483764172
1761467018325964800,1.71996484375,-0.0023372340947389603,0.0007765763439238071,-0.0014145908644422889
1761467018335947500,1.729947509765625,0.001609304454177618,0.0020676767453551292,-0.0017424259567633271
1761467018345930500,1.739930419921875,0.0008346685208380222,-0.0005105864256620407,-0.000388504471629858
1761467018355912700,1.74991259765625,0.0010437266901135445,-0.001100210240110755,0.0016458842437714338
1761467018365895400,1.7598955078125,0.000802280381321907,-0.0003556974697858095,0.0000734422355890274
1761467018375878700,1.769878662109375,-0.0008217152208089828,-0.001955458428710699,0.0028817455749958754
1761467018385861600,1.779861572265625,0.0014823083765804768,-0.0011063518468290567,0.0003905694466084242
1761467018395844600,1.7898447265625,-0.000036226119846105576,0.0015850388444960117,-0.0001623027492314577
1761467018405827600,1.79982763671875,0.0010879049077630043,0.0020946795120835304,-0.00036352407187223434
1761467018415810600,1.809810546875,0.001673267688602209,0.0016352846287190914,-0.0012242576340213418
1761467018425793500,1.81979345703125,-0.000157949049025774,0.001672553364187479,0.0010359359439462423
1761467018435775500,1.829775390625,0.00023593241348862648,-0.0006206948310136795,0.0004905203823000193
1761467018445758500,1.839758544921875,0.00006984453648328781,-0.0017331063281744719,-0.0017840857617557049
1761467018455741700,1.84974169921875,-0.0023704101331532,-0.000004448462277650833,0.002722248900681734
1761467018465724700,1.859724609375,0.0004692254588007927,-0.0006490491796284914,-0.0003477975260466337
1761467018475707600,1.869707763671875,0.0023379656486213207,0.0007440501358360052,-0.0011920196702703834
1761467018485690600,1.879690673828125,-0.0005511362105607986,-0.0006676099728792906,0.0008110245689749718
1761467018495673600,1.889673583984375,0.001963952789083123,-0.0006108847446739674,0.0002485651057213545
1761467018505656600,1.899656494140625,-0.001000723335891962,-0.00217952998355031,0.0005101619753986597
1761467018515638500,1.909638427734375,0.001881083007901907,-0.0006237111520022154,-0.0024049340281635523
1761467018525621800,1.919621826171875,0.0008256789296865463,-0.002639161190018058,0.00038333889096975327
1761467018535604500,1.9296044921875,-0.003592238761484623,-0.0023030703887343407,-0.0009580953046679497
1761467018545587500,1.93958740234375,-0.00022078119218349457,-0.001119045540690422,0.00029854709282517433
1761467018555570700,1.94957080078125,-0.0010370397940278053,-0.0007941399235278368,0.00028043752536177635
1761467018565553700,1.9595537109375,0.0004175351932644844,0.002947504399344325,-0.001292856060899794
1761467018575536400,1.969536376953125,0.0007357830181717873,-0.004083240404725075,0.000976955983787775
1761467018585519600,1.97951953125,-0.001970511395484209,0.001509699271991849,-0.00029447651468217373
1761467018595501600,1.98950146484375,0.0010926565155386925,-0.002702888799831271,-0.0009842352010309696
1761467018605484500,1.999484619140625,0.0016270838677883148,0.002094769850373268,-0.0001060711219906807
1761467018615467500,2.009467529296875,-0.001560719683766365,-0.0015337872318923473,-0.00028104078955948353
1761467018625450500,2.019450439453125,0.0029857023619115353,0.004895075224339962,-0.001544219208881259
1761467018635433700,2.029433837890625,0.0008887290023267269,0.0007136466447263956,0.0003527505323290825
1761467018645416400,2.03941650390625,-0.0006926790811121464,0.0009305563289672136,0.000480955233797431
1761467018655400400,2.049400390625,-0.0005422104150056839,0.00053161452524364,-0.000979522243142128
1761467018665383700,2.0593837890625,-0.0009033754467964172,-0.0007464063819497824,0.002964448882266879
1761467018675365400,2.069365478515625,0.00020423345267772675,-0.0010920846834778786,-0.0019972864538431168
1761467018685348600,2.0793486328125,0.001117414329200983,0.0002633442636579275,0.0019715987145900726
1761467018695331600,2.08933154296875,-0.0014373562298715115,-0.0013103175442665815,-0.0016870521940290928
1761467018705314300,2.099314208984375,0.0021793802734464407,0.001699869055300951,0.001054639695212245
1761467018715297500,2.109297607421875,0.00119108147919178,0.0015731025487184525,-0.00197763554751873
1761467018725280500,2.119280517578125,-0.0019257208332419395,-0.0010032264981418848,-0.0011363953817635775
1761467018735263500,2.129263427734375,0.0017632897943258286,0.00009612622670829296,-0.00030335853807628155
1761467018745246500,2.13924658203125,0.0005181753076612949,-0.0007419935427606106,-0.0012411620700731874
1761467018755228400,2.149228515625,0.0009799674153327942,0.0011749500408768654,-0.0006230424623936415
1761467018765211600,2.159211669921875,-0.0018209810368716717,-0.0007278027478605509,-0.00016300869174301624
1761467018775194400,2.1691943359375,-0.000393792986869812,-0.00022526434622704983,-0.0009257381316274405
1761467018785177300,2.17917724609375,0.0007440266199409962,-0.0004750352818518877,-0.0005880286917090416
1761467018795160600,2.18916064453125,-0.0001934058964252472,-0.0024740039370954037,-0.002067947294563055
1761467018805143300,2.199143310546875,-0.00043958472087979317,-0.005893186200410128,-0.0008672585245221853
1761467018815126500,2.20912646484375,0.001950069796293974,0.006408753804862499,0.00028908601962029934
1761467018825109500,2.219109619140625,-0.0012075663544237614,0.0032270392403006554,-0.0011369187850505114
1761467018835091500,2.229091552734375,0.00006222864612936974,-0.005120639223605394,-0.000046354252845048904
1761467018845074400,2.239074462890625,-0.00003784662112593651,0.0022469982504844666,0.001918357564136386
1761467018855057400,2.249057373046875,-0.00016940711066126823,-0.003791186958551407,-0.0006784906145185232
1761467018865040600,2.25904052734375,0.0015161358751356602,-0.006325736176222563,-0.0030098906718194485
1761467018875023400,2.2690234375,-0.0017355838790535927,0.005233182106167078,0.002406179904937744
1761467018885006300,2.27900634765625,-0.0012320233508944511,-0.0015344431158155203,0.0007957660127431154
1761467018894989600,2.288989501953125,0.0022415376733988523,0.0018826588056981564,0.000922266161069274
1761467018904972500,2.29897265625,-0.0005202130414545536,0.0023820013739168644,-0.0005256342701613903
1761467018914954500,2.30895458984375,-0.0016392734833061695,0.0023990459740161896,0.00039395526982843876
1761467018924937500,2.3189375,0.002086219610646367,-0.006615804508328438,0.00010461360216140747
1761467018934920400,2.32892041015625,-0.0032824468798935413,0.0059274183586239815,0.001858305186033249
1761467018944903400,2.3389033203125,-0.00008754339069128036,-0.004111051559448242,-0.0024890564382076263
1761467018954886400,2.348886474609375,-0.000998078379780054,-0.0031323397997766733,-0.003315435256808996
1761467018964869400,2.358869384765625,-0.0011015357449650764,0.006833377294242382,0.0018694838508963585
1761467018974852600,2.3688525390625,-0.0003667697310447693,-0.007433709688484669,-0.0017641328740864992
1761467018984835300,2.37883544921875,0.0015492737293243408,0.00001069740392267704,0.0042050983756780624
1761467018994818600,2.388818603515625,0.0013306280598044395,0.0008064499124884605,0.001136870589107275
1761467019004800500,2.398800537109375,0.0008821263909339905,0.002729982603341341,-0.00039649871177971363
1761467019014783500,2.408783447265625,0.00009942334145307541,0.002369390334933996,0.0016370911616832018
1761467019024766500,2.418766357421875,0.00024525541812181473,-0.00007113441824913025,0.0015584309585392475
1761467019034749400,2.42874951171875,0.0019379607401788235,0.0025936246383935213,0.000504351919516921
1761467019044732700,2.438732666015625,-0.0015837219543755054,0.0005385132972151041,0.0005051540210843086
1761467019054715400,2.44871533203125,0.0007840944454073906,0.0018210916314274073,0.00040422030724585056
1761467019064698400,2.458698486328125,0.0004982897080481052,-0.0007167786825448275,0.00017139269039034843
1761467019074681600,2.468681640625,0.0004263846203684807,0.0003937596920877695,-0.00043820496648550034
1761467019084663300,2.478663330078125,-0.002212611958384514,-0.001723474357277155,-0.003136118408292532
1761467019094646500,2.488646484375,-0.0010043354704976082,0.003891268279403448,-0.0024945628829300404
1761467019104629500,2.49862939453125,-0.0009123971685767174,-0.0020280485041439533,0.0016088956035673618
1761467019114612500,2.508612548828125,-0.002016010694205761,-0.003186789806932211,-0.0006007289048284292
1761467019124595500,2.518595458984375,-0.001608399674296379,0.003092193743214011,0.000346215907484293
1761467019134578400,2.528578369140625,-0.0006613796576857567,-0.001988850999623537,-0.00045033544301986694
1761467019144561400,2.5385615234375,-0.00045953551307320595,-0.011668004095554352,-0.00497831916436553
1761467019154544400,2.54854443359375,0.0020211993250995874,0.004240122623741627,0.0026833289302885532
1761467019164526300,2.5585263671875,0.0020752667915076017,0.0048777456395328045,0.001636918168514967
1761467019174509600,2.568509521484375,0.0012038806453347206,-0.006397811695933342,-0.002700838726013899
1761467019184492500,2.578492431640625,0.0002791183069348335,0.00739232636988163,-0.000028099631890654564
1761467019194475500,2.5884755859375,-0.00008440343663096428,0.005322517827153206,0.0011032114271074533
1761467019204458500,2.59845849609375,-0.000024853739887475967,-0.00022102193906903267,-0.002005603164434433
1761467019214441500,2.60844140625,0.003280395409092307,0.0024820866528898478,0.0009323959238827229
1761467019224424400,2.618424560546875,-0.0007937694899737835,-0.0015789901372045279,-0.0008911502081900835
1761467019234407400,2.628407470703125,0.0006142440252006054,-0.00007616844959557056,0.0012289921287447214
1761467019244390400,2.638390380859375,-0.0005357004702091217,0.004395883996039629,0.0005515953525900841
1761467019254372400,2.648372314453125,0.0010379613377153873,-0.003764307824894786,-0.00032378570176661015
1761467019264355300,2.658355224609375,0.0008149310015141964,-0.00041390652768313885,0.00027571944519877434
1761467019274338600,2.668338623046875,-0.0010333028621971607,0.00029689096845686436,-0.00015970738604664803
1761467019284321500,2.678321533203125,-0.0008408119902014732,-0.0014821004588156939,0.000966955441981554
1761467019294304300,2.68830419921875,0.0009403103031218052,0.0021722891833633184,-0.000588596798479557
1761467019304287500,2.69828759765625,-0.0027551716193556786,-0.004659688100218773,0.0025943720247596502
1761467019314270500,2.7082705078125,-0.0008161235600709915,-0.0010915850289165974,-0.0013154147891327739
1761467019324253400,2.71825341796875,0.00016075698658823967,0.0024519211146980524,0.0014599962159991264
1761467019334235400,2.7282353515625,0.0005027065053582191,-0.007343717850744724,-0.0011584237217903137
1761467019344218400,2.73821826171875,0.000583253800868988,-0.006505015306174755,-0.0015413594665005803
1761467019354201600,2.74820166015625,-0.0009456668049097061,0.01485486887395382,0.004440100397914648
1761467019364184300,2.758184326171875,-0.0025252690538764,-0.0015157461166381836,-0.000003459630534052849
1761467019374167600,2.76816748046875,0.0024247481487691402,-0.007806665264070034,-0.0018684713868424296
1761467019384150500,2.778150634765625,-0.0007044561207294464,0.003534838790073991,0.0023256412241607904
1761467019394133500,2.788133544921875,-0.0007033906877040863,-0.000014355871826410294,0.00029711145907640457
1761467019404116500,2.798116455078125,0.000666971318423748,-0.003253539092838764,0.0012837178073823452
1761467019414098400,2.808098388671875,-0.0000733877532184124,0.0034179454669356346,-0.00008035311475396156
1761467019424081700,2.81808154296875,0.00006790226325392723,-0.005597095005214214,0.0014415762852877378
1761467019434064400,2.828064453125,0.0015305103734135628,0.002765496727079153,0.0000032030511647462845
1761467019444047400,2.83804736328125,-0.00003564218059182167,-0.002165734302252531,0.0005206887144595385
1761467019454030600,2.848030517578125,-0.00033285096287727356,-0.0013571986928582191,0.0005539781413972378
1761467019464013600,2.858013671875,0.0037375465035438538,0.0014957489911466837,0.00011442904360592365
1761467019473996300,2.867996337890625,-0.0018897131085395813,0.0028512978460639715,0.0014984740410000086
1761467019483979500,2.8779794921875,0.00038848211988806725,-0.0019758990965783596,-0.001294159097597003
1761467019493962500,2.88796240234375,0.0009307018481194973,-0.00430829543620348,0.0005173231475055218
1761467019503944400,2.8979443359375,0.00004179123789072037,0.008166434243321419,0.00338642462156713
1761467019513927400,2.907927490234375,-0.0001299828290939331,-0.009327869862318039,-0.0020714576821774244
1761467019523910400,2.917910400390625,-0.0007940605282783508,0.003155551617965102,0.0011582167353481054
1761467019533893600,2.9278935546875,0.0030416902154684067,0.0016508654225617647,0.000021845800802111626
1761467019543876400,2.93787646484375,0.0014507710002362728,0.001815569819882512,-0.000048815272748470306
1761467019553859600,2.947859619140625,0.00030987290665507317,0.0035426297690719366,0.00023001781664788723
1761467019563842600,2.957842529296875,0.001393767073750496,-0.000004698289558291435,0.0009813939686864614
1761467019573825300,2.9678251953125,-0.001311738509684801,0.0008965155575424433,-0.001023966120555997
1761467019583808500,2.97780859375,0.0013247719034552574,-0.003209959249943495,-0.0021378654055297375
1761467019593790500,2.98779052734375,-0.00020121969282627106,0.001984536414965987,0.0021327799186110497
1761467019603773400,2.9977734375,-0.0015775365754961967,-0.004458764102309942,-0.0012180720223113894
1761467019613756400,3.00775634765625,0.0018795127980411053,0.003140832297503948,-0.001270269975066185
1761467019623739400,3.017739501953125,0.0005804547108709812,-0.0009401601273566484,0.004195253364741802
1761467019633722600,3.02772265625,0.001229200977832079,-0.002255229279398918,-0.00006633717566728592
1761467019643705300,3.037705322265625,0.001447463408112526,0.002748889150097966,0.0014289310202002525
1761467019653695500,3.047695556640625,-0.0009696213528513908,-0.0023713044356554747,-0.0014507451560348272
1761467019663678700,3.0576787109375,0.00038276612758636475,-0.0036694766022264957,0.0015297702047973871
1761467019673660400,3.067660400390625,-0.0024622883647680283,0.004035847261548042,-0.0010918457992374897
1761467019683643600,3.0776435546875,-0.00017709704115986824,0.0006387701723724604,0.0004899282939732075
1761467019693626600,3.087626708984375,-0.00033102789893746376,0.0007077462505549192,-0.0011761453934013844
1761467019703609600,3.097609619140625,-0.00001994706690311432,0.003620249917730689,-0.000022416003048419952
1761467019713592600,3.107592529296875,0.00004982762038707733,0.003103064140304923,0.0013581665698438883
1761467019723575600,3.117575439453125,-0.002349383197724819,0.0007849573157727718,-0.0010546997655183077
1761467019733558500,3.12755859375,-0.0006769183091819286,0.0022086831741034985,0.00009738374501466751
1761467019743541500,3.13754150390625,0.0011491919867694378,0.004010790027678013,-0.0013669432373717427
1761467019753524500,3.1475244140625,0.0005928575992584229,0.0015465670730918646,0.0016232540365308523
1761467019763506700,3.157506591796875,0.00002053380012512207,-0.001090640900656581,0.0020145748276263475
1761467019773489700,3.16748974609375,0.0009278729557991028,-0.00283767469227314,-0.0012174374423921108
1761467019783472600,3.17747265625,-0.0023058168590068817,-0.000003556022420525551,0.0018838867545127869
1761467019793455600,3.18745556640625,0.0013959775678813457,-0.0057205636985599995,-0.002831506310030818
1761467019803438600,3.1974384765625,0.0004907744005322456,-0.00016899313777685165,0.0010552562307566404
1761467019813421600,3.207421630859375,-0.0013356213457882404,-0.003424174850806594,-0.0006395794916898012
1761467019823404500,3.217404541015625,-0.0009543946944177151,-0.004128484055399895,0.00042279623448848724
1761467019833387500,3.227387451171875,0.0021196920424699783,0.0018455188255757093,0.0007471693679690361
1761467019843370800,3.237370849609375,0.0004764106124639511,-0.0013435462024062872,-0.0003130489494651556
1761467019853352400,3.2473525390625,0.0008140993304550648,0.00038750842213630676,-0.0010289065539836884
1761467019863335700,3.257335693359375,0.0007953867316246033,-0.0003455339465290308,-0.0021665748208761215
1761467019873318700,3.267318603515625,0.0007202858105301857,-0.003072344698011875,-0.0015298131620511413
1761467019883301400,3.27730126953125,-0.000662908423691988,0.009061476215720177,0.0016644641291350126
1761467019893284600,3.28728466796875,-0.0006101778708398342,0.0002924855798482895,0.0008351558353751898
1761467019903267600,3.297267578125,0.003483080305159092,-0.0026358305476605892,-0.002594354096800089
1761467019913250600,3.30725048828125,0.0009754477068781853,-0.0023143868893384933,0.0015433994121849537
1761467019923233500,3.317233642578125,-0.00006785150617361069,-0.001996091101318598,0.0001279842108488083
1761467019933215700,3.3272158203125,-0.000037224963307380676,-0.0027391130570322275,0.000006277812644839287
1761467019943198700,3.33719873046875,-0.002776504959911108,-0.0018042940646409988,0.000051674433052539825
1761467019953181400,3.347181396484375,0.0004160921089351177,0.002670882036909461,0.0014317245222628117
1761467019963164700,3.35716455078125,0.00043952465057373047,-0.0030637732706964016,-0.0005779450293630362
1761467019973147600,3.367147705078125,-0.0019815550185739994,0.00048515480011701584,0.00048412359319627285
1761467019983130600,3.377130615234375,0.000046445056796073914,0.00043051992543041706,0.00003938633017241955
1761467019993113600,3.387113525390625,0.00024644844233989716,-0.009490287862718105,-0.0028024727944284678
1761467020003096600,3.3970966796875,0.0003854180686175823,0.004515484906733036,0.00001046573743224144
1761467020013079600,3.40707958984375,0.0020075493957847357,0.0016967954579740763,0.0017412540037184954
1761467020023061500,3.4170615234375,0.0017282036133110523,-0.006455467082560062,-0.002730709733441472
1761467020033044500,3.42704443359375,-0.0008633183315396309,0.003936720546334982,0.0026022703386843204
1761467020043027700,3.43702783203125,-0.000626630149781704,0.0027896587271243334,0.0025014777202159166
1761467020053010700,3.4470107421875,-0.002297231461852789,-0.00917778816074133,-0.0022005995269864798
1761467020062993400,3.456993408203125,0.00024121487513184547,0.00155516411177814,0.0004636275116354227
1761467020072976600,3.4669765625,-0.0002658506855368614,-0.002731992630288005,0.002053001895546913
1761467020082959600,3.476959716796875,0.0010478077456355095,-0.002615927718579769,-0.0006150074768811464
1761467020092942600,3.486942626953125,0.0010448782704770565,-0.0010558480862528086,0.00025211763568222523
1761467020102925600,3.496925537109375,-0.000027321279048919678,-0.006135878153145313,-0.0008402587845921516
1761467020112907800,3.50690771484375,-0.0006584902293980122,0.0008442667312920094,-0.0016850134124979377
1761467020122890800,3.516890869140625,0.0011150888167321682,-0.0017949945759028196,-0.0009563986677676439
1761467020132873500,3.52687353515625,-0.0008109090849757195,0.0025267833843827248,0.0024090379010885954
1761467020142856700,3.536856689453125,0.0007275431416928768,0.006443404592573643,0.0008048852905631065
1761467020152839700,3.546839599609375,0.000972820445895195,-0.002544497139751911,-0.0009674483444541693
1761467020162822400,3.556822509765625,-0.000232065562158823,0.0006275938358157873,-0.00033201812766492367
1761467020172805600,3.5668056640625,0.00020762253552675247,0.0024654415901750326,-0.0013658571988344193
1761467020182788600,3.57678857421875,-0.001619088463485241,-0.003754853503778577,-0.0031942627392709255
1761467020192771600,3.586771484375,0.00028160959482192993,0.00544157437980175,0.0022724082227796316
1761467020202753500,3.59675341796875,0.00005430029705166817,-0.004847440868616104,-0.0021067243069410324
1761467020212736500,3.606736572265625,0.0005501806735992432,-0.0008132846560329199,-0.0014838110655546188
1761467020222719700,3.6167197265625,-0.0005941353738307953,0.0032350595574826,0.0016447200905531645
1761467020232702500,3.626702392578125,-0.0016114627942442894,-0.005109955556690693,-0.0017630606889724731
1761467020242685400,3.636685546875,0.0018831565976142883,-0.00005918601527810097,-0.0023469114676117897
1761467020252668700,3.646668701171875,-0.000006355810910463333,0.005325725302100182,0.0022544979583472013
1761467020262651600,3.656651611328125,0.00005115801468491554,-0.004628577269613743,0.0010650611948221922
1761467020272634600,3.666634521484375,0.000709757674485445,0.0023076257202774286,0.003194524673745036
1761467020282617600,3.67661767578125,-0.00018563587218523026,0.0003066037315875292,-0.0004256032407283783
1761467020292599600,3.686599609375,-0.0000852346420288086,-0.0014409625437110662,0.000047374051064252853
1761467020302582500,3.69658251953125,-0.0009224731475114822,0.004731152206659317,-0.0012540145544335246
1761467020312565500,3.7065654296875,-0.0003762589767575264,0.002945768879726529,0.0008410941809415817
1761467020322548700,3.716548828125,-0.00029685115441679955,-0.005164117086678743,-0.0017193045932799578
1761467020332531700,3.72653173828125,0.0016845404170453548,-0.0028351829387247562,0.0009526447393000126
1761467020342514400,3.736514404296875,-0.0016189166344702244,-0.001430940581485629,-0.0001458225306123495
1761467020352497700,3.74649755859375,-0.0005619078874588013,-0.003911142237484455,0.001299208728596568
1761467020362480600,3.756480712890625,-0.00012566149234771729,-0.0024857399985194206,0.0010950586292892694
1761467020372463600,3.766463623046875,-0.0010812035761773586,-0.00477019976824522,-0.0011526495218276978
1761467020382445600,3.776445556640625,0.001564151607453823,0.0023289320524781942,-0.0006731341127306223
1761467020392428500,3.786428466796875,-0.00048781372606754303,0.0013922981452196836,-0.0000347744207829237
1761467020402411800,3.796411865234375,-0.0005515031516551971,-0.0005705005023628473,-0.0012676065089181066
1761467020412394500,3.80639453125,-0.00016907323151826859,-0.00388027704320848,-0.002157901180908084
1761467020422377500,3.81637744140625,0.0007589720189571381,-0.005553033668547869,-0.00014621042646467686
1761467020432360700,3.826360595703125,0.0008271490223705769,0.003168286057189107,-0.0011448957957327366
1761467020442343700,3.83634375,0.0032123823184520006,0.0018951303791254759,0.004651384428143501
1761467020452326700,3.84632666015625,-0.000463046133518219,-0.008381742052733898,0.00046835700049996376
1761467020462309600,3.8563095703125,0.0007312241941690445,0.006383208557963371,0.0016274678055197
1761467020472291600,3.86629150390625,0.00030298763886094093,0.003700873116031289,0.0012871159706264734
1761467020482274600,3.876274658203125,0.0003627212718129158,-0.0015227000694721937,0.0015946566127240658
1761467020492257500,3.886257568359375,0.0004676496610045433,0.004296306520700455,-0.0013500007335096598
1761467020502240800,3.89624072265625,-0.0008250800892710686,-0.0004706250037997961,-0.00005233963020145893
1761467020512223500,3.906223388671875,-0.0030112690292298794,0.000042566098272800446,0.001687503419816494
1761467020522206500,3.91620654296875,0.0029414999298751354,-0.0000015932600945234299,-0.0028347561601549387
1761467020532189700,3.926189697265625,-0.0008718804456293583,-0.0012367672752588987,-0.002281617373228073
1761467020542172700,3.936172607421875,0.0013341065496206284,0.0021966989152133465,0.001718020997941494
1761467020552155400,3.9461552734375,0.001143157947808504,-0.0011929725296795368,-0.001361658563837409
1761467020562137600,3.9561376953125,-0.00021671410650014877,-0.005058822222054005,-0.001720317522995174
1761467020572120600,3.96612060546875,-0.00021937722340226173,-0.0008206679485738277,-0.003571480745449662
1761467020582103600,3.976103515625,0.0013101790100336075,0.0014250620733946562,-0.0012142225168645382
1761467020592086500,3.98608642578125,0.0003154883161187172,-0.004148134961724281,-0.002106647938489914
1761467020602069500,3.996069580078125,0.0021909831557422876,0.0012180567719042301,-0.00009208079427480698
1761467020612051500,4.006051513671875,-0.0016703340224921703,0.002277195919305086,0.0007321673911064863
1761467020622034400,4.016034423828125,0.001429394818842411,0.0014880108647048473,0.0024456691462546587
1761467020632017700,4.026017578125,0.0011745304800570011,-0.0021554597187787294,0.0002669370733201504
1761467020642000600,4.036000732421875,-0.0007327268831431866,-0.0016140567604452372,-0.0014122483553364873
1761467020651983600,4.045983642578125,0.0008859424851834774,-0.0023695954587310553,0.001596058253198862
1761467020661958000,4.0559580078125,0.00025955680757761,-0.002254596445709467,0.0013488626573234797
1761467020671941000,4.065941162109375,-0.0014448664151132107,0.0009180274792015553,-0.0014863384421914816
1761467020681923800,4.075923828125,0.000615839846432209,0.00025263382121920586,0.001831193221732974
1761467020691906800,4.08590673828125,0.002419066149741411,0.005260175559669733,-0.0006689822766929865
1761467020701890000,4.09589013671875,0.000179339200258255,-0.0012898326385766268,0.0004941460210829973
1761467020711873000,4.105873046875,-0.00031813932582736015,0.0053795212879776955,-0.0006914932746440172
1761467020721856000,4.11585595703125,-0.00032148929312825203,0.0022430180106312037,-0.0013621858088299632
1761467020731839000,4.1258388671875,0.0018726889975368977,0.0013801536988466978,-0.0011512634810060263
1761467020741822000,4.135822021484375,0.00008003180846571922,0.0010748037602752447,-0.0003361643757671118
1761467020751805200,4.14580517578125,0.0004669888876378536,-0.0040571074932813644,-0.0024328711442649364
1761467020761787000,4.155786865234375,0.0006574681028723717,-0.002766900695860386,0.001956640277057886
1761467020771770000,4.16577001953125,-0.0016967663541436195,0.0029623578302562237,0.0013672825880348682
1761467020781753000,4.175753173828125,-0.001514100469648838,0.0006057468708604574,0.0018799358513206244
1761467020791735800,4.18573583984375,0.0004971185699105263,0.0039357636123895645,0.0017563651781529188
1761467020801719000,4.195718994140625,0.0005578948184847832,-0.0038451356813311577,0.00037004263140261173
1761467020811702000,4.205701904296875,0.0007704147137701511,-0.0012000841088593006,-0.0020579611882567406
1761467020821685000,4.21568505859375,-0.00015081465244293213,-0.0012245529796928167,-0.0005641356110572815
1761467020831668000,4.22566796875,-0.00033830106258392334,-0.000898049445822835,0.0018281822558492422
1761467020841651000,4.23565087890625,-0.0005587912164628506,0.006107395514845848,0.0013940867502242327
1761467020851634000,4.245634033203125,-0.0008927518501877785,-0.005287205334752798,-0.0016136873746290803
1761467020861615900,4.255615966796875,-0.0010581663809716702,-0.0068662348203361034,-0.0012265874538570642
1761467020871598800,4.265598876953125,-0.0001953020691871643,0.006232522893697023,-0.0002819641958922148
1761467020881582000,4.27558203125,-0.0011758962646126747,0.007588626816868782,0.0014930262695997953
1761467020891565000,4.28556494140625,0.0006414451636373997,-0.005114385858178139,-0.0005922287236899137
1761467020901548000,4.295548095703125,-0.0011406131088733673,0.0018162133637815714,0.0006263053510338068
1761467020911531000,4.305531005859375,-0.002393897157162428,0.0033786895219236612,0.0014516192022711039
1761467020921514000,4.315513916015625,-0.000013103708624839783,-0.005746978335082531,-0.0007912095170468092
1761467020931497000,4.3254970703125,-0.0006655780598521233,0.0063962372951209545,0.0034277704544365406
1761467020941480000,4.33547998046875,-0.0010030390694737434,-0.001684580696746707,0.0009066204074770212
1761467020951462100,4.345462158203125,0.0015109851956367493,-0.003570631379261613,0.0010320551227778196
1761467020961444900,4.35544482421875,0.0012946557253599167,0.004215553402900696,0.0005272775888442993
1761467020971427800,4.365427734375,-0.0012201671488583088,-0.0028873635455965996,0.0009589761029928923
1761467020981411000,4.3754111328125,0.0003944486379623413,-0.0009518866427242756,-0.0005829015281051397
1761467020991394000,4.38539404296875,0.0011369381099939346,-0.010639401152729988,-0.0039366199634969234
1761467021001376800,4.395376708984375,-0.0007233591750264168,0.0005673978012055159,0.0008439661469310522
1761467021011360000,4.405360107421875,-0.0016192463226616383,0.00024648685939610004,-0.0015081377932801843
1761467021021343000,4.415343017578125,-0.0004947115667164326,-0.0029413262382149696,-0.0022076801396906376
1761467021031326000,4.425325927734375,0.0002717459574341774,-0.0027535734698176384,0.0023423305246979
1761467021041308000,4.435307861328125,0.0017536557279527187,0.0041946228593587875,0.00382404332049191
1761467021051291000,4.445290771484375,0.0011965222656726837,0.005912361666560173,0.0029148401226848364
1761467021061274000,4.455274169921875,0.0009213089942932129,-0.006065704859793186,-0.0023622880689799786
1761467021071256800,4.4652568359375,-0.0003383657895028591,-0.0025122486986219883,-0.0016277881804853678
1761467021081240000,4.475239990234375,0.0024800573009997606,-0.0006741438992321491,0.0009303807746618986
1761467021091223000,4.48522314453125,-0.0013421112671494484,-0.0028590012807399035,0.00018070079386234283
1761467021101206000,4.4952060546875,-0.0012073814868927002,0.0020170302595943213,0.00012988876551389694
1761467021111189000,4.50518896484375,-0.0009943288750946522,0.00024416414089500904,-0.0009193967562168837
1761467021121172000,4.515171875,-0.0005718502216041088,-0.005106466822326183,-0.0012799049727618694
1761467021131155000,4.525155029296875,0.0006374912336468697,0.0003825740423053503,0.0015068266075104475
1761467021141137000,4.535136962890625,0.002538787666708231,-0.0018082679016515613,0.0009730951860547066
1761467021151120000,4.545119873046875,-0.000009591225534677505,-0.0023060126695781946,0.0015866877511143684
1761467021161103000,4.55510302734375,0.00046320026740431786,0.00308711058460176,-0.0008120108395814896
1761467021171086000,4.565086181640625,-0.000387413427233696,0.0021195842418819666,0.0001461945939809084
1761467021181068800,4.57506884765625,0.0017208508215844631,-0.0030027618631720543,-0.0018211430869996548
1761467021191052000,4.585052001953125,0.0015759747475385666,-0.0009947384241968393,-0.0025401965249329805
1761467021201035000,4.595034912109375,-0.001925598829984665,0.004188704304397106,0.00037606433033943176
1761467021211018000,4.60501806640625,0.001983655383810401,-0.002529651392251253,-0.0016990707954391837
1761467021221001000,4.6150009765625,0.0002646087668836117,0.003835222916677594,-0.0004139426164329052
1761467021230984000,4.62498388671875,-0.0017775031737983227,0.0018266669940203428,-0.0009737391956150532
1761467021240966100,4.634966064453125,0.002987735904753208,0.003583968849852681,0.0013265958987176418
1761467021250948900,4.644948974609375,-0.0010858355090022087,0.00021347240544855595,-0.0013256462989374995
1761467021260932000,4.65493212890625,0.0009597255848348141,-0.0010455595329403877,-0.0035181893035769463
1761467021270915000,4.6649150390625,-0.0008320491760969162,0.001562474062666297,-0.0004640761762857437
1761467021280897800,4.674897705078125,-0.0020269853994250298,0.0019451414700597525,0.0022705330047756433
1761467021290881000,4.684881103515625,0.00122020673006773,-0.002475706161931157,-0.000544428126886487
1761467021300864000,4.694864013671875,0.0003150617703795433,-0.0003111199475824833,0.0001248321495950222
1761467021310847000,4.704846923828125,0.002729217056185007,-0.003454715246334672,-0.0006719855591654778
1761467021320830000,4.714829833984375,-0.00012295786291360855,-0.001296440837904811,0.00006836093962192535
1761467021330812000,4.72481201171875,-0.00022708717733621597,0.0036810070741921663,0.003182128770276904
1761467021340795100,4.734795166015625,0.0010123834945261478,0.0015099183656275272,-0.00020499317906796932
1761467021350777900,4.74477783203125,-0.0002219919115304947,-0.005589536391198635,0.0017564250156283379
1761467021360760800,4.7547607421875,-0.0005382956005632877,0.0001034657470881939,0.002779088681563735
1761467021370744000,4.764744140625,0.0016247238963842392,-0.0024236077442765236,-0.0012625243980437517
1761467021380727000,4.77472705078125,-0.00008015846833586693,0.0032109415624290705,0.00158956297673285
1761467021390709800,4.784709716796875,-0.0023654168471693993,-0.0043809316121041775,-0.0013015648582950234
1761467021400693000,4.79469287109375,-0.0010067634284496307,-0.005588524974882603,-0.001777042867615819
1761467021410676000,4.804676025390625,-0.0030456790700554848,-0.0018766112625598907,0.002792675280943513
1761467021420658000,4.814657958984375,-0.0029143961146473885,-0.00011659995652735233,-0.0008669579401612282
1761467021430641000,4.824640869140625,-0.0015902724117040634,0.003034984925761819,0.0007698209956288338
1761467021440623900,4.834623779296875,-0.0005492623895406723,0.0014273917768150568,-0.001044828211888671
1761467021450607000,4.844607177734375,0.0008065528236329556,-0.0008975479286164045,-0.0003478787839412689
1761467021460589800,4.85458984375,0.0014723245985805988,0.0035557588562369347,-0.0009733152110129595
1761467021470573000,4.864572998046875,0.0009977491572499275,0.0022209826856851578,0.00193405756726861
1761467021480556000,4.87455615234375,-0.00025554653257131577,-0.00409568939357996,-0.0017966507002711296
1761467021490539000,4.8845390625,0.0008707041852176189,0.0005595160182565451,-0.0014509723987430334
1761467021500522000,4.89452197265625,0.00064125657081604,-0.00011874129995703697,0.00008386140689253807
1761467021510505000,4.9045048828125,0.0031054795254021883,-0.0021669785492122173,0.0015030598733574152
1761467021520488000,4.914488037109375,-0.0007201116532087326,-0.0015042012091726065,0.0008468115702271461
1761467021530470000,4.924469970703125,0.0006319754756987095,-0.0018661248032003641,0.003562969621270895
1761467021540452900,4.934452880859375,-0.0006623128429055214,0.00032134586945176125,0.00022863782942295074
1761467021550436000,4.94443603515625,-0.0012063966132700443,-0.0013655005022883415,-0.001327181002125144
1761467021560419000,4.954419189453125,0.0020133298821747303,-0.004571880213916302,0.0013655910734087229
1761467021570401800,4.96440185546875,-0.0007587545551359653,0.005230416543781757,0.001014053588733077
1761467021580385000,4.974385009765625,0.0006240885704755783,-0.0008432879112660885,0.0015292672906070948
1761467021590368000,4.984367919921875,0.0007678992114961147,-0.0008744469378143549,-0.0018169945105910301
1761467021600351000,4.99435107421875,0.0010745516046881676,0.006617475301027298,-0.0005080970004200935
1761467021610334000,5.004333984375,0.0017248955555260181,0.0006828873883932829,-0.0004708126652985811
1761467021620317000,5.01431689453125,0.0005225730128586292,-0.0007873119320720434,0.00008402415551245213
1761467021630299000,5.024298828125,-0.002875087782740593,0.0005402739625424147,-0.0007815032731741667
1761467021640281900,5.03428173828125,0.0016765710897743702,0.0016288419719785452,0.0004509075079113245
1761467021650265000,5.04426513671875,0.0007218276150524616,0.0010341580491513014,0.00011747959069907665
1761467021660252000,5.054251953125,0.001783642452210188,-0.0016220933757722378,0.000408566789701581
1761467021670235000,5.06423486328125,0.002207085257396102,0.0005736830644309521,0.0005425235722213984
1761467021680217900,5.0742177734375,-0.0004765004850924015,-0.002026006579399109,-0.0007053227163851261
1761467021690200800,5.084200927734375,0.00013229809701442719,-0.0018821958219632506,-0.0029341222252696753
1761467021700183800,5.094183837890625,0.00047449907287955284,-0.004716056864708662,0.00045148609206080437
1761467021710167000,5.1041669921875,-0.001435253769159317,0.004235094413161278,0.0029306227806955576
1761467021720148700,5.114148681640625,0.000963882077485323,0.003743732115253806,-0.00018813693895936012
1761467021730132000,5.124132080078125,-0.002012733370065689,-0.0010965634137392044,0.0013477080501616001
1761467021740115000,5.134114990234375,-0.00035444553941488266,0.0026752983685582876,0.0018837293609976768
1761467021750098000,5.144097900390625,-0.00036136992275714874,-0.00010184594430029392,0.00018969248048961163
1761467021760081000,5.154080810546875,-0.00250132754445076,0.0014019564259797335,0.0026072650216519833
1761467021770064000,5.16406396484375,-0.0007468368858098984,0.0016067537944763899,-0.0008015811908990145
1761467021780046800,5.174046875,0.0026924069970846176,-0.0022196690551936626,-0.0006744840648025274
1761467021790030000,5.184030029296875,-0.001402469351887703,-0.00006250874139368534,0.0004488371778279543
1761467021800012800,5.1940126953125,0.00016834726557135582,-0.00011096848174929619,0.0006519679445773363
1761467021809995800,5.203995849609375,-0.0008521764539182186,-0.001496877521276474,0.00045382860116660595
1761467021819979000,5.21397900390625,-0.00023306068032979965,-0.005160987842828035,0.0015797135420143604
1761467021829960700,5.223960693359375,0.000680137425661087,-0.003121006302535534,0.001920331735163927
1761467021839944000,5.23394384765625,-0.00012954231351613998,0.0034149589482694864,0.0011749707628041506
1761467021849927000,5.243927001953125,-0.00015164632350206375,-0.00057205930352211,0.0005786889232695103
1761467021859910000,5.253909912109375,-0.0017085983417928219,-0.00017919507808983326,-0.0005358562339097261
1761467021869892900,5.263892822265625,-0.00029579177498817444,-0.00038266065530478954,-0.0019406736828386784
1761467021879875800,5.273875732421875,0.0012788553722202778,0.00010180124081671238,0.0020565232262015343
1761467021889859000,5.283859130859375,0.0008631362579762936,-0.0011916961520910263,0.000511623453348875
1761467021899841800,5.293841796875,-0.0006318530067801476,0.0016497010365128517,-0.00003580702468752861
1761467021909824800,5.30382470703125,0.0021703250240534544,0.00183505704626441,0.0004914987366646528
1761467021919808000,5.31380810546875,0.0002708137035369873,-0.008214651606976986,-0.002221795031800866
1761467021929789700,5.323789794921875,0.002113721100613475,-0.003505916567519307,0.0011215375270694494
1761467021939773000,5.33377294921875,0.002180141629651189,0.005993913859128952,0.004690822213888168
1761467021949756000,5.343755859375,-0.0012457487173378468,-0.0077229635789990425,-0.003537014126777649
1761467021959739000,5.35373876953125,0.00027187028899788857,0.00010452233254909515,-0.001305865589529276
1761467021969721900,5.363721923828125,0.0015965267084538937,-0.000023043015971779823,0.0007535568438470364
1761467021979704800,5.373704833984375,-0.0008733957074582577,0.00230493419803679,0.00006543565541505814
1761467021989687800,5.383687744140625,-0.000040891580283641815,0.003037037095054984,0.0012044699396938086
1761467021999671000,5.393671142578125,0.000027127563953399658,-0.005455181002616882,-0.0020660427398979664
1761467022009653800,5.40365380859375,-0.00041682133451104164,0.0073567540384829044,0.0016501322388648987
1761467022019637000,5.413636962890625,0.0008741645142436028,0.00345931900665164,0.001243841601535678
1761467022029619000,5.423618896484375,-0.0008512972854077816,-0.008459924720227718,-0.0008483375422656536
1761467022039602000,5.433601806640625,0.0022949669510126114,-0.001707650488242507,-0.00031033623963594437
1761467022049585000,5.4435849609375,0.0006656451150774956,-0.00040776142850518227,0.0007243016734719276
1761467022059567900,5.45356787109375,-0.0008160658180713654,-0.005616770125925541,-0.0021525449119508266
1761467022069551000,5.463551025390625,0.00042230403050780296,0.0010113050229847431,-0.00004891399294137955
1761467022079533800,5.473533935546875,-0.0019375267438590527,-0.003189655253663659,0.0014107201714068651
1761467022089516800,5.483516845703125,-0.00017478037625551224,0.0038125941064208746,0.0025540150236338377
1761467022099500000,5.4935,0.0010120929218828678,-0.004915440920740366,-0.00040733907371759415
1761467022109483000,5.50348291015625,-0.0029419027268886566,-0.001666384283453226,-0.00011252705007791519
1761467022119465700,5.5134658203125,-0.0003509288653731346,0.0035964478738605976,0.002128016669303179
1761467022129448000,5.523447998046875,0.0017937147058546543,0.0030254661105573177,0.00027152709662914276
1761467022139431000,5.533430908203125,-0.000886981375515461,-0.003402135567739606,0.0005928538739681244
1761467022149414000,5.543413818359375,0.000938082579523325,0.005919193848967552,0.003522331127896905
1761467022159396900,5.55339697265625,-0.0006980122998356819,-0.00023171096108853817,0.0017944865394383669
1761467022169379800,5.5633798828125,0.0013451650738716125,-0.004666406661272049,0.000124684302136302
1761467022179362800,5.57336279296875,0.00009039649739861488,0.005230321548879147,0.000048881396651268005
1761467022189345800,5.583345703125,-0.002620435319840908,0.0012741954997181892,-0.000876567093655467
1761467022199329000,5.5933291015625,-0.0008452422916889191,-0.005489122588187456,-0.0002808289136737585
1761467022209312000,5.60331201171875,-0.0003994288854300976,-0.0013415156863629818,-0.0017266591312363744
1761467022219294700,5.613294677734375,0.0009375107474625111,0.0016899791080504656,0.00016824179328978062
1761467022229277000,5.62327685546875,0.0005284491926431656,0.0023059684317559004,-0.00017743650823831558
1761467022239260000,5.633260009765625,0.00015150010585784912,0.0007799922022968531,0.0012574712745845318
1761467022249243000,5.643242919921875,0.0000779968686401844,-0.0012583914212882519,-0.002217155182734132
1761467022259225900,5.653225830078125,0.0009439396671950817,-0.00010372418910264969,0.000056604621931910515
1761467022269208800,5.663208740234375,0.0007596486248075962,0.0014504967257380486,0.0016435824800282717
1761467022279192000,5.673192138671875,0.0004962608218193054,-0.007083688862621784,-0.0009466547053307295
1761467022289174800,5.6831748046875,-0.003145345952361822,-0.003263384336605668,-0.0026385607197880745
1761467022299157800,5.69315771484375,0.0005971258506178856,0.0010979396756738424,0.00011438410729169846
1761467022309141000,5.70314111328125,0.0017500082030892372,-0.005238785408437252,-0.002459560986608267
1761467022319124000,5.7131240234375,-0.0019073900766670704,-0.00010550906881690025,0.002563751768320799
1761467022329106000,5.72310595703125,-0.0003284015692770481,-0.001776376273483038,0.000027090776711702347
1761467022339089000,5.7330888671875,0.0003428640775382519,-0.0028592967428267,0.0007383737247437239
1761467022349072000,5.74307177734375,-0.0027519958093762398,0.003787687048316002,0.0002552764490246773
1761467022359054800,5.753054931640625,0.00011726468801498413,-0.0017038548830896616,-0.003007269697263837
1761467022369037800,5.763037841796875,-0.0015477435663342476,0.0034797219559550285,-0.002505263779312372
1761467022379021000,5.77302099609375,-0.0011785244569182396,0.007204040419310331,0.0013035505544394255
1761467022389004000,5.783004150390625,-0.0008640051819384098,0.001173578668385744,-0.0007433549035340548
1761467022398986800,5.79298681640625,-0.0016125054098665714,0.005136261694133282,0.0006927798967808485
1761467022408970000,5.802969970703125,-0.0004790639504790306,-0.004345125053077936,-0.001423367764800787
1761467022418953000,5.812952880859375,0.001433088444173336,-0.0010042756330221891,0.0024548822548240423
1761467022428935000,5.822934814453125,0.00021442584693431854,0.003718574298545718,0.002702822210267186
1761467022438918000,5.83291796875,0.0006307540461421013,-0.005810698494315147,-0.0032325107604265213
1761467022448900900,5.84290087890625,0.0011221072636544704,-0.005997918546199799,-0.001175485085695982
1761467022458884000,5.852884033203125,0.0007074116729199886,0.009336268529295921,0.0030754590407013893
1761467022468866800,5.86286669921875,0.0018869256600737572,-0.0030096133705228567,-0.0002705366350710392
1761467022478849800,5.872849853515625,0.0018274225294589996,-0.0019186811987310648,-0.002424659440293908
1761467022488833000,5.8828330078125,0.0010838680900633335,0.0003354183863848448,0.0023221587762236595
1761467022498815700,5.892815673828125,0.0007881149649620056,-0.0031294450163841248,0.00029531633481383324
1761467022508798700,5.902798828125,-0.0018476154655218124,-0.00342425680719316,-0.0004381183534860611
1761467022518782000,5.912781982421875,0.0005940808914601803,0.003592090215533972,0.00473747355863452
1761467022528763600,5.922763671875,-0.0009715915657579899,-0.006804890930652618,-0.0013422569027170539
1761467022538747000,5.932746826171875,0.0009493464604020119,0.000056211138144135475,0.0002812060993164778
1761467022548729900,5.942729736328125,0.000420975498855114,-0.006099419668316841,-0.001102306181564927
1761467022558712800,5.952712890625,-0.0032314048148691654,0.0025574362371116877,0.003206543857231736
1761467022568695800,5.96269580078125,-0.0004936754703521729,-0.0016785878688097,-0.002232696395367384
1761467022578678800,5.9726787109375,0.001640891656279564,0.002061844104900956,0.002418904099613428
1761467022588662000,5.982662109375,0.000026749446988105774,0.00009323563426733017,0.000707290368154645
1761467022598645000,5.99264501953125,0.000702164601534605,0.0003550879191607237,-0.0030749118886888027
1761467022608627700,6.002627685546875,-0.0007519214414060116,0.0030757735949009657,0.002580843400210142
1761467022618611000,6.01261083984375,-0.0006443853490054607,-0.0037565522361546755,-0.0015819158870726824
1761467022628594000,6.022593994140625,-0.001078214030712843,0.004425210878252983,0.00011345231905579567
1761467022638575900,6.032575927734375,0.0009476956911385059,-0.005317148752510548,-0.0017432577442377806
1761467022648558800,6.042558837890625,-0.0020563495345413685,-0.0014925834257155657,-0.00042872154153883457
1761467022658538000,6.0525380859375,0.0009177839383482933,0.003248958382755518,-0.0022291759960353374
1761467022668521200,6.062521240234375,0.001316725742071867,-0.002589489333331585,-0.0006677648052573204
1761467022678504000,6.07250390625,0.0006516817957162857,0.005542881321161985,0.001837154384702444
1761467022688487200,6.082487060546875,0.0007233205251395702,-0.0014857337810099125,-0.00038418802432715893
1761467022698470100,6.09247021484375,-0.0004502474330365658,-0.008444715291261673,-0.002436769427731633
1761467022708453000,6.102453125,-0.0012830179184675217,0.0025754449889063835,0.001856246031820774
1761467022718436000,6.11243603515625,0.0014295834116637707,-0.00037400564178824425,-0.0007115681655704975
1761467022728419000,6.122419189453125,0.001651957631111145,-0.002077629789710045,0.00009457068517804146
1761467022738401300,6.1324013671875,-0.0019105849787592888,0.0046666087582707405,0.00022294349037110806
1761467022748384000,6.142384033203125,-0.0006706174463033676,-0.005966593977063894,-0.0002905139699578285
1761467022758367000,6.152366943359375,-0.00035872962325811386,0.000723009929060936,0.0006239449139684439
1761467022768350200,6.16235009765625,0.0011582071892917156,-0.0024109978694468737,-0.0010961908847093582
1761467022778333200,6.172333251953125,-0.0000772746279835701,0.0013786924537271261,-0.0006801220588386059
1761467022788316000,6.18231591796875,0.00022366270422935486,-0.0016546477563679218,0.002578788436949253
1761467022798299100,6.192299072265625,0.002233012579381466,0.0003502077888697386,0.0003147043753415346
1761467022808282000,6.2022822265625,-0.0011270977556705475,0.005581988021731377,-0.0012499027652665973
1761467022818265000,6.21226513671875,0.0006903829053044319,-0.002838015789166093,-0.0014539435505867004
1761467022828248000,6.222248046875,0.0009023705497384071,0.0013671154156327248,-0.00035166111774742603
1761467022838230000,6.23222998046875,0.0008454974740743637,-0.0016827364452183247,0.0016322610899806023
1761467022848213200,6.242213134765625,0.0025190275628119707,-0.0012576959561556578,-0.0016388996737077832
1761467022858196000,6.252196044921875,-0.0012264037504792213,0.005619651637971401,0.0018104705959558487
1761467022868179200,6.26217919921875,-0.00038750795647501945,0.0028188046999275684,-0.0014819953357800841
1761467022878162200,6.272162109375,0.0009380578994750977,-0.003228713758289814,-0.0005799192003905773
1761467022888145200,6.282145263671875,-0.0029445644468069077,0.0017673764377832413,0.0008882817346602678
1761467022898128100,6.292128173828125,-0.00018100067973136902,-0.004046546760946512,-0.001861723605543375
1761467022908111000,6.302111083984375,0.0006989077664911747,-0.0022390594240278006,-0.0018028677441179752
1761467022918094000,6.312093994140625,0.00020293891429901123,-0.002657178556546569,0.000637848163023591
1761467022928077000,6.3220771484375,0.001319868490099907,-0.0028941999189555645,0.00158673245459795
1761467022938059000,6.33205908203125,-0.0010650469921529293,-0.0023680301383137703,0.0008434890769422054
1761467022948042200,6.342042236328125,-0.0020496174693107605,0.00033321441151201725,0.001803292427212
1761467022958025000,6.35202490234375,0.00033458415418863297,0.00250848475843668,0.0029287158977240324
1761467022968008000,6.362008056640625,0.0007929145358502865,0.0007742340676486492,0.000916165066882968
1761467022977991200,6.3719912109375,0.00006478140130639076,-0.003665890311822295,-0.0029510362073779106
1761467022987974100,6.38197412109375,0.0015470972284674644,-0.003073603380471468,-0.0023475640919059515
1761467022997956900,6.391956787109375,-0.00044372444972395897,-0.006291426718235016,-0.0027309542056173086
1761467023007940000,6.401940185546875,0.0008479086682200432,0.006524503231048584,0.0008041257970035076
1761467023017923000,6.411923095703125,-0.002053939737379551,0.0000906866043806076,0.00005364324897527695
1761467023027906300,6.42190625,-0.002081104554235935,-0.0027301334775984287,-0.00004516006447374821
1761467023037889000,6.431888916015625,-0.0008344552479684353,0.009946398437023163,0.004134832415729761
1761467023047871200,6.441871337890625,-0.001238989643752575,-0.007984397932887077,-0.0021449013147503138
1761467023057854200,6.451854248046875,0.0011746594682335854,-0.0006460952572524548,0.0021746892016381025
1761467023067837000,6.4618369140625,-0.00042696529999375343,0.0015073369722813368,-0.0003878041170537472
1761467023077820200,6.471820068359375,-0.000431994441896677,-0.0042623006738722324,-0.0009333780035376549
1761467023087803100,6.48180322265625,0.002719324082136154,0.0029021354857832193,0.0020421715453267097
1761467023097786000,6.4917861328125,-0.00279086921364069,-0.005608780775219202,-0.0009102120529860258
1761467023107769000,6.50176904296875,-0.0012941733002662659,0.0004712161608040333,0.0008189782965928316
1761467023117752000,6.511751953125,-0.004182527307420969,-0.001166692702099681,-0.0017222604947164655
1761467023127735000,6.521735107421875,0.000031925272196531296,-0.0003182096406817436,0.0006737855728715658
1761467023137718300,6.53171826171875,0.00034951791167259216,-0.002680036937817931,0.001530358800664544
1761467023147700000,6.541699951171875,-0.000023857224732637405,0.0010643675923347473,-0.0005029644817113876
1761467023157683200,6.55168310546875,-0.0010544564574956894,0.0007597373332828283,-0.0020664487965404987
1761467023167666200,6.561666259765625,0.0011261398904025555,-0.0007385571952909231,-0.000626477412879467
1761467023177649000,6.57164892578125,-0.00046806782484054565,0.003761297557502985,-0.0002062758430838585
1761467023187632000,6.581632080078125,-0.0012057633139193058,-0.0016744807362556458,0.00048241764307022095
1761467023197615000,6.591614990234375,0.0006521851755678654,0.0000020172446966171265,-0.0010145539417862892
1761467023207598300,6.601598388671875,0.00013393396511673927,0.003956278786063194,-0.0024851516354829073
1761467023217581000,6.6115810546875,0.0012298207730054855,-0.001241497229784727,-0.00011957762762904167
1761467023227564000,6.62156396484375,-0.00160138588398695,-0.0028492475394159555,0.0005257062148302794
1761467023237547300,6.63154736328125,-0.000719225499778986,-0.003764159744605422,-0.001799869816750288
1761467023247530000,6.641530029296875,0.0014587072655558586,-0.0017998120747506618,0.00029204320162534714
1761467023257512200,6.65151220703125,-0.0013436535373330116,0.007416446693241596,0.004652871284633875
1761467023267495200,6.6614951171875,-0.00232902355492115,0.002263496397063136,-0.0003751767799258232
1761467023277478000,6.671477783203125,-0.0008290139958262444,-0.007115595042705536,-0.0035663843154907227
1761467023287461000,6.681461181640625,-0.0005198214203119278,-0.0015559801831841469,-0.0009439697023481131
1761467023297444000,6.691444091796875,0.0013221828266978264,0.001840181415900588,0.0025930178817361593
1761467023307427000,6.701427001953125,0.0014697220176458359,-0.0002671778202056885,-0.00043073506094515324
1761467023317410000,6.71141015625,-0.0013832771219313145,-0.007999805733561516,-0.00045826472342014313
1761467023327393000,6.72139306640625,-0.00038112979382276535,0.0018656081520020962,0.0015678682830184698
1761467023337376000,6.7313759765625,-0.0009327246807515621,0.00031494139693677425,0.0012950035743415356
1761467023347359200,6.741359130859375,-0.0006919750012457371,0.002825769828632474,0.00013679475523531437
1761467023357341000,6.7513408203125,-0.0001453068107366562,-0.0007210448384284973,-0.0005197355058044195
1761467023367324200,6.76132421875,0.0004674862138926983,0.0008470243774354458,-0.0014347975375130773
1761467023377307100,6.77130712890625,-0.0006710216403007507,0.00225833454169333,-0.0014117865357547998
1761467023387290000,6.7812900390625,-0.0012952666729688644,-0.005020883399993181,-0.0024405657313764095
1761467023397273000,6.791273193359375,-0.0008645937778055668,0.0024099701549857855,0.0010205861181020737
1761467023407256000,6.801256103515625,0.0011186623014509678,0.0036880208645015955,0.00039474316872656345
1761467023417239300,6.8112392578125,0.0005925740115344524,-0.0024069268256425858,-0.0007187812589108944
1761467023427222000,6.821221923828125,-0.001687091775238514,-0.0027123913168907166,-0.001319057890214026
1761467023437205000,6.831205078125,0.0002592182718217373,0.0008782616350799799,-0.00010683294385671616
1761467023447188200,6.841188232421875,-0.0007139011286199093,-0.00021203677169978619,0.0006039647851139307
1761467023457171200,6.851171142578125,-0.0004048263654112816,-0.0025239093229174614,-0.0008030531462281942
1761467023467153200,6.861153076171875,-0.00017366372048854828,0.003166200825944543,0.00012905336916446686
1761467023477136100,6.87113623046875,-0.0014600548893213272,0.0015632633585482836,0.0008082215208560228
1761467023487119000,6.881119140625,0.0009130877442657948,-0.000837310217320919,-0.0001361353788524866
1761467023497102000,6.89110205078125,-0.0005405079573392868,0.008137188851833344,0.0019695800729095936
1761467023507085000,6.9010849609375,-0.001303237397223711,-0.00447820546105504,0.0002497108653187752
1761467023517068000,6.911068115234375,0.001268547959625721,-0.0029487109277397394,0.0005307297687977552
1761467023527051300,6.92105126953125,-0.0005466626025736332,0.0036034639924764633,-0.0004977830685675144
1761467023537034000,6.931033935546875,-0.0005084178410470486,-0.0021003088913857937,0.00042941817082464695
1761467023547017200,6.941017333984375,0.0007576490752398968,-0.0020718127489089966,0.00017082528211176395
1761467023557000200,6.951000244140625,-0.0005673044361174107,-0.0016445142682641745,0.0011437798384577036
1761467023566982100,6.960982177734375,0.0012710755690932274,0.0025654106866568327,0.0004513578023761511
1761467023576965000,6.970965087890625,0.0009007328189909458,0.002921880455687642,0.0007146429270505905
1761467023586948000,6.980947998046875,0.0005835504271090031,-0.005228191614151001,-0.0035285716876387596
1761467023596931000,6.99093115234375,-0.0008974825032055378,0.002456297166645527,-0.0046873451210558414
1761467023606914000,7.0009140625,-0.000537156593054533,0.0036741606891155243,0.002701861783862114
1761467023616897000,7.01089697265625,-0.0005092681385576725,-0.005754455924034119,-0.001384264905937016
1761467023626880300,7.02088037109375,0.0008119260892271996,-0.0013522503431886435,-0.0006827882025390863
1761467023636863000,7.030863037109375,0.000030911993235349655,-0.0009300140663981438,-0.0007283629383891821
1761467023646846000,7.040845947265625,0.0018362686969339848,0.0007523046806454659,-0.00042209960520267487
1761467023656829000,7.050828857421875,-0.0006999443285167217,0.002585891168564558,-0.0015810123877599835
1761467023666812000,7.06081201171875,-0.0009161932393908501,0.0025169155560433865,-0.0006907177157700062
1761467023676793900,7.0707939453125,0.002171149244531989,0.001131606288254261,-0.0012668803101405501
1761467023686776800,7.08077685546875,-0.0017751227132976055,0.009736012667417526,0.0036727506667375565
1761467023696760000,7.090760009765625,0.0006956150755286217,-0.004079477861523628,0.00014189374633133411
1761467023706742800,7.10074267578125,0.0021630169358104467,-0.0011430764570832253,-0.001763331820257008
1761467023716725800,7.110725830078125,-0.00018552923575043678,-0.001157765043899417,-0.0035952040925621986
1761467023726709000,7.120708984375,0.0012954548001289368,-0.003916533663868904,-0.00045986450277268887
1761467023736692000,7.13069189453125,0.0011089527979493141,0.0021142761688679457,0.0026244614273309708
1761467023746674700,7.1406748046875,-0.000010639894753694534,-0.0016719400882720947,-0.0005891749169677496
1761467023756658000,7.150657958984375,0.001061372458934784,-0.003132725367322564,-0.0006569796241819859
1761467023766641000,7.160640869140625,0.0002778703346848488,0.0027235655579715967,-0.0002495159860700369
1761467023776623900,7.170623779296875,-0.0002716919407248497,0.006647098809480667,0.0016481259372085333
1761467023786605800,7.180605712890625,0.00009129662066698074,-0.0026915417984128,-0.0013647080631926656
1761467023796588800,7.1905888671875,0.0007033804431557655,0.000788054196164012,0.0027777606155723333
1761467023806572000,7.200572021484375,0.0013966010883450508,0.008536787703633308,0.0011234048288315535
1761467023816554800,7.2105546875,0.0006934884004294872,-0.009224173612892628,-0.0007575172930955887
1761467023826537700,7.220537841796875,-0.0011675283312797546,0.00640804972499609,0.0031900862231850624
1761467023836521000,7.23052099609375,-0.00007515028119087219,-0.008749453350901604,-0.003943742252886295
1761467023846503700,7.240503662109375,-0.0016264412552118301,0.0021287603303790092,0.0012712599709630013
1761467023856487000,7.25048681640625,-0.0006712670437991619,-0.0016331130173057318,0.00007485947571694851
1761467023866470000,7.260469970703125,-0.0032034004107117653,0.0018441763240844011,-0.0025110698770731688
1761467023876452900,7.270452880859375,0.00040180981159210205,0.004564824514091015,0.003515671705827117
1761467023886435800,7.280435791015625,0.0006649303250014782,-0.005479287821799517,-0.0018244986422359943
1761467023896417800,7.290417724609375,0.00042949384078383446,0.0020259693264961243,0.0025147395208477974
1761467023906401000,7.300401123046875,-0.0017071603797376156,-0.0024902191944420338,0.00038820551708340645
1761467023916383700,7.3103837890625,-0.0008418657816946507,0.00029970845207571983,0.0025605461560189724
1761467023926366700,7.32036669921875,0.001051375176757574,-0.0020273616537451744,0.0009834221564233303
1761467023936350000,7.330349853515625,0.0016519692726433277,-0.0033939951099455357,0.0002535576932132244
1761467023946333000,7.3403330078125,0.0006341086700558662,0.004822655580937862,0.0018232245929539204
1761467023956315600,7.350315673828125,-0.0016162064857780933,-0.0008277229499071836,0.00009541981853544712
1761467023966299000,7.360298828125,-0.0007291077636182308,-0.00016166619025170803,-0.0013679871335625648
1761467023976281900,7.37028173828125,0.001733467448502779,0.0018670442514121532,0.0018780282698571682
1761467023986264800,7.380264892578125,-0.0001808125525712967,0.0032249903306365013,-0.0008479836396872997
1761467023996246800,7.390246826171875,0.0025199619121849537,0.0030406068544834852,0.0013530750293284655
1761467024006229800,7.400229736328125,-0.0006468025967478752,-0.00266947690397501,0.0008561292197555304
1761467024016213000,7.410212890625,0.0004829671233892441,-0.0017580504063516855,0.0025893584825098515
1761467024026195700,7.42019580078125,-0.00266915000975132,0.002703010570257902,0.00009610713459551334
1761467024036179000,7.430178955078125,0.0006059580482542515,-0.0014037161599844694,-0.001468270318582654
1761467024046162000,7.440161865234375,0.0006906464695930481,0.0009433277882635593,0.002071603201329708
1761467024056145000,7.450144775390625,0.0005203653126955032,-0.001686935080215335,-0.0031656690407544374
1761467024066128000,7.4601279296875,0.0012269015423953533,-0.001553510781377554,0.0018293557222932577
1761467024076110800,7.47011083984375,0.0007703038863837719,-0.0002770880237221718,0.0014072505291551352
1761467024086093800,7.48009375,-0.0007551545277237892,0.0027117778081446886,0.0014322844799607992
1761467024096076800,7.490076904296875,0.0007561645470559597,0.0003318735398352146,0.0004808960948139429
1761467024106059800,7.500059814453125,-0.0011972645297646523,-0.007038424722850323,-0.001339907175861299
1761467024116042000,7.5100419921875,-0.0008715302683413029,-0.0018333791522309184,0.0027130504604429007
1761467024126025000,7.52002490234375,-0.0008105440065264702,-0.0012623972725123167,0.0005819890648126602
1761467024136007700,7.530007568359375,-0.0002749580889940262,0.0009225436951965094,0.001066997880116105
1761467024145991000,7.539990966796875,-0.0005154414102435112,-0.006587570533156395,-0.0021010986529290676
1761467024155974000,7.549973876953125,0.0007477072067558765,0.0033220297191292048,0.0028682993724942207
1761467024165956600,7.55995654296875,0.00007499242201447487,-0.0017488955054432154,-0.000027089379727840424
1761467024175939800,7.56993994140625,-0.002097628079354763,-0.0023128525353968143,-0.0020280806347727776
1761467024185922800,7.5799228515625,-0.0009420826099812984,0.0006781434640288353,0.0025091469287872314
1761467024195906000,7.589906005859375,0.0003681727685034275,-0.002223080489784479,0.0003589710686355829
1761467024205888800,7.599888671875,0.00017429469153285027,0.006338182836771011,0.002183769131079316
1761467024215871700,7.609871826171875,0.0019027013331651688,0.003473624587059021,0.0034860032610595226
1761467024225854000,7.61985400390625,-0.0024627521634101868,-0.0025789414066821337,0.0014137979596853256
1761467024235836700,7.629836669921875,0.0012201694771647453,0.0014059713575989008,-0.0012887835036963224
1761467024245820000,7.63981982421875,0.00003612833097577095,0.004379923455417156,0.0026471021119505167
1761467024255803000,7.649802978515625,0.00047070346772670746,0.0015663099475204945,0.0009501969907432795
1761467024265785900,7.659785888671875,0.002229721285402775,0.005475297570228577,-0.0006399762351065874
1761467024275768800,7.669768798828125,0.00047866906970739365,0.00324265263043344,0.0017670858651399612
1761467024285751800,7.679751708984375,-0.00030137086287140846,0.004621104337275028,0.0019175545312464237
1761467024295734800,7.68973486328125,0.0014617634005844593,0.0034410443622618914,0.0024573805276304483
1761467024305718000,7.699718017578125,0.001986672403290868,0.004345187917351723,0.0024030518252402544
1761467024315700700,7.70970068359375,-0.0018808920867741108,0.007083945907652378,0.0031928885728120804
1761467024325683000,7.719682861328125,-0.00018845358863472939,0.00543944351375103,0.0009848615154623985
1761467024335666000,7.729666015625,-0.0016553024761378765,0.004598683677613735,-0.0004252821672707796
1761467024345648600,7.739648681640625,0.00023740576580166817,0.004806410521268845,0.0016072425059974194
1761467024355631900,7.7496318359375,0.0018059127032756805,0.0017151394858956337,-0.00015879888087511063
1761467024365614800,7.75961474609375,0.0022764934692531824,0.0037053199484944344,0.002051891293376684
1761467024375598000,7.76959814453125,-6.952323019504547e-7,-0.0047980910167098045,-0.0007646165322512388
1761467024385580800,7.779580810546875,-0.00016474584117531776,0.0030374617781490088,-0.0011691506952047348
1761467024395563800,7.789563720703125,0.00231337733566761,0.0006509721279144287,0.00042662094347178936
1761467024405547000,7.799547119140625,-0.0008880086243152618,-0.0043174210004508495,-0.003070109523832798
1761467024415529700,7.80952978515625,0.0006920644082129002,0.003784491214901209,0.0033804262056946754
1761467024425512700,7.8195126953125,0.001777835190296173,0.0014678072184324265,0.00030713831074535847
1761467024435496000,7.829495849609375,-0.001318072434514761,-0.0015098971780389547,0.0009948080405592918
1761467024445478000,7.839477783203125,-0.00021445844322443008,-0.003608468221500516,-0.00030774413608014584
1761467024455460900,7.8494609375,-0.0009287656284868717,-0.007222275249660015,-0.003516698256134987
1761467024465443800,7.85944384765625,-0.001163390465080738,0.0011882532853633165,0.0008676638826727867
1761467024475426800,7.8694267578125,0.0012760581448674202,0.0033613669220358133,0.0030080913566052914
1761467024485409800,7.879409912109375,-0.0001412765122950077,-0.0028834794647991657,-0.00159571529366076
1761467024495392800,7.889392822265625,-0.00038382643833756447,-0.00018673669546842575,-0.0003650481812655926
1761467024505375700,7.899375732421875,0.00022044451907277107,0.0030961420852690935,0.0030094431713223457
1761467024515359000,7.90935888671875,-0.00005512405186891556,-0.006117343902587891,-0.0012950029922649264
1761467024525341700,7.919341796875,-0.0005360911600291729,-0.0031383316963911057,-0.00007580779492855072
1761467024535325000,7.929324951171875,0.0008321050554513931,0.006984992418438196,0.0018090060912072659
1761467024545308000,7.939307861328125,-0.0028105666860938072,0.0008045942522585392,0.002201555762439966
1761467024555289900,7.949289794921875,0.0036339901853352785,-0.0044484687969088554,-0.0007579033263027668
1761467024565272800,7.95927294921875,-0.0008097602985799313,0.0012831867206841707,-0.0003810659982264042
1761467024575255800,7.969255859375,-0.0008138809353113174,0.006134388968348503,0.00006251130253076553
1761467024585239000,7.979239013671875,0.003138249972835183,-0.00169929931871593,-0.00037904083728790283
1761467024595221800,7.9892216796875,-0.0018304493278265,-0.0021710898727178574,0.000039961421862244606
1761467024605204700,7.999204833984375,-0.0008514714427292347,0.007914833724498749,0.0018083001486957073
1761467024615188000,8.00918798828125,-0.000867131631821394,-0.004443624056875706,-0.0023171373177319765
1761467024625171000,8.0191708984375,-0.0006647314876317978,-0.0014422417152673006,0.0013662807177752256
1761467024635153700,8.029153564453125,0.0028349461499601603,0.004075582139194012,-0.001199877355247736
1761467024645137000,8.039136962890625,-0.0010756398551166058,-0.007206100504845381,0.0011295895092189312
1761467024655120000,8.049119873046875,-0.001230629626661539,-0.0019089797278866172,0.00017341994680464268
1761467024665102600,8.0591025390625,0.0004929681308567524,-0.004122066777199507,0.0013305633328855038
1761467024675085300,8.069085205078125,-0.0016995472833514214,0.0009407170582562685,0.000009371200576424599
1761467024685068300,8.079068359375,0.0015415195375680923,-0.0029115453362464905,0.00010391348041594028
1761467024695051500,8.089051513671874,0.0005561788566410542,-0.000475544948130846,-0.0010372069664299488
1761467024705034500,8.099034423828124,-0.0008571608923375607,0.003960482310503721,0.001976958941668272
1761467024715017200,8.109017333984376,-0.0004313318058848381,0.000804258743301034,0.001582792028784752
1761467024725000400,8.11900048828125,-0.0005783382803201675,-0.00522833364084363,0.0005620024167001247
1761467024734983400,8.1289833984375,-0.0004973295144736767,0.003193484852090478,0.002901200670748949
1761467024744966100,8.138966064453125,-0.0026563541032373905,-0.008816838264465332,-0.00428427429869771
1761467024754949400,8.148949462890625,-0.0020660897716879845,-0.01790768653154373,-0.005231392569839954
1761467024764932400,8.158932373046875,0.001258067786693573,0.009953771717846394,0.004244667012244463
1761467024774915600,8.16891552734375,0.0007971636950969696,0.011321593075990677,0.012213373556733131
1761467024784897300,8.178897216796875,0.0030384801793843508,-0.010401813313364983,-0.006782155483961105
1761467024794880500,8.188880615234375,0.0020865993574261665,0.005778263323009014,-0.0009545704815536737
1761467024804863500,8.198863525390625,0.002413103124126792,0.003951600752770901,0.006784309633076191
1761467024814846200,8.20884619140625,-0.001986491959542036,0.004295641090720892,-0.002168761333450675
1761467024824829400,8.218829345703124,-0.00013772537931799889,0.0006071627140045166,-0.0027559883892536163
1761467024834812400,8.2288125,-0.001011338084936142,-0.01583496667444706,-0.0019568302668631077
1761467024844795400,8.23879541015625,0.0006829649209976196,0.003390660509467125,0.000036812154576182365
1761467024854778400,8.2487783203125,0.001818761695176363,0.004197597969323397,0.00015239347703754902
1761467024864761300,8.25876123046875,-0.0017615919932723045,-0.009137914516031742,-0.002728081541135907
1761467024874744300,8.268744384765625,0.0019106948748230934,-0.0010474289301782846,0.0004324058536440134
1761467024884727600,8.2787275390625,-0.0001726960763335228,-0.0024666273966431618,0.000028670765459537506
1761467024894709200,8.288709228515625,-0.0003411509096622467,-0.014426041394472122,-0.002552410587668419
1761467024904692500,8.2986923828125,0.0010729874484241009,0.0014626439660787582,-0.0001265371683984995
1761467024914675500,8.308675537109375,-0.0009729401208460331,-0.0007387481164187193,0.0010278851259499788
1761467024924658200,8.318658203125,0.0020422907546162605,-0.0026634144596755505,-0.0010602998081594706
1761467024934641400,8.328641357421875,-0.00048782769590616226,0.005764722358435392,0.002365115098655224
1761467024944624400,8.338624267578124,-0.001888916827738285,-0.00012379302643239498,-0.0010405352804809809
1761467024954607400,8.348607421875,0.00037286337465047836,-0.001834397786296904,0.0003652307204902172
1761467024964590300,8.35859033203125,-0.0020010783337056637,0.0026801929343491793,0.0003364686854183674
1761467024974573300,8.3685732421875,-0.001875127200037241,-0.003339345334097743,-0.0009471115190535784
1761467024984556500,8.378556640625,0.0011470280587673187,-0.0019385225605219603,-0.0035263830795884132
1761467024994539500,8.38853955078125,-0.000814308412373066,0.005043762736022472,0.0014361492358148098
1761467025004521500,8.398521484375,0.0007417765446007252,-0.00009161047637462616,-0.0008600282017141581
1761467025014504400,8.40850439453125,0.00002720346674323082,0.00032763276249170303,-0.0018053986132144928
1761467025024487400,8.4184873046875,-0.0015009185299277306,-0.0004830337129533291,-0.0001736797858029604
1761467025034470400,8.428470458984375,0.002041909610852599,-0.0028115373570472,0.0007428727112710476
1761467025044453400,8.438453369140625,-0.004191218409687281,-0.005153254605829716,-0.0033280353527516127
1761467025054436400,8.448436279296875,0.00011536246165633202,0.003178342944011092,0.00038030906580388546
1761467025064419300,8.45841943359375,0.000949198380112648,-0.00543165672570467,-0.0004977351054549217
1761467025074402300,8.46840234375,-0.003132774028927088,-0.0013749878853559494,-0.001315428875386715
1761467025084385300,8.47838525390625,0.0003852616064250469,0.002067946596071124,0.0015839547850191593
1761467025094368500,8.488368408203126,-0.002044839784502983,-0.004382392857223749,-0.00037202960811555386
1761467025104351200,8.498351318359376,-0.0014578793197870255,0.0028965589590370655,0.0013086912222206593
1761467025114334500,8.50833447265625,0.0009898338466882706,-0.005322201177477837,-0.0015856364043429494
1761467025124316400,8.51831640625,0.0024292722810059786,-0.0013072192668914795,0.001675936859101057
1761467025134299400,8.52829931640625,0.002168482868000865,0.002726898528635502,0.002271959325298667
1761467025144282400,8.538282470703125,-0.0005468763411045074,-0.002367728855460882,-0.0005509913899004459
1761467025154265300,8.548265380859375,-0.0007400568574666977,0.0036983240861445665,0.00108914147131145
1761467025164248600,8.55824853515625,0.00011055683717131615,0.003827753709629178,-0.00039077713154256344
1761467025174231300,8.568231201171875,0.0000485079362988472,0.002868515672162175,0.0017988667823374271
1761467025184214300,8.57821435546875,-0.00048359157517552376,-0.0013161092065274715,0.001347993966192007
1761467025194197500,8.588197509765624,0.0026590318884700537,0.0019097146578133106,-0.0011399821378290653
1761467025204181500,8.598181396484375,-0.0014630085788667202,0.0038386420346796513,0.0031138851772993803
1761467025214163200,8.6081630859375,-0.001817160751670599,-0.004184384364634752,-0.0007959043141454458
1761467025224146400,8.618146484375,0.001649209763854742,-0.0031635949853807688,-0.001689661294221878
1761467025234129400,8.62812939453125,-0.0006030607037246227,0.006045961286872625,0.0016684306319803
1761467025244112400,8.6381123046875,0.0017924527637660503,-0.005064480006694794,-0.0020908876322209835
1761467025254095400,8.648095458984375,0.0010622218251228333,-0.0014466450084000826,-0.0003300560638308525
1761467025264078300,8.658078369140625,0.0011370563879609108,-0.005283993668854237,-0.0015135649591684341
1761467025274061600,8.6680615234375,0.0002759289927780628,-0.005402032285928726,-0.0013616136275231838
1761467025284044500,8.67804443359375,0.0008762055076658726,0.005316658411175013,0.000702602555975318
1761467025294027300,8.68802734375,-0.0007925401441752911,0.003950354643166065,0.003841626225039363
1761467025304010500,8.698010498046875,0.0014887237921357155,-0.004548591561615467,-0.00019758986309170723
1761467025313993500,8.707993408203125,0.0005842712707817554,0.0021069825161248446,-0.0022612225729972124
1761467025323976200,8.71797607421875,0.0003416575491428375,-0.0009117105510085821,0.00017530354671180248
1761467025333958400,8.72795849609375,-0.0018081050366163254,0.002151314401999116,0.0013503937516361475
1761467025343941400,8.73794140625,0.000015361234545707703,0.0030546586494892836,-0.0014736222801730037
1761467025353924400,8.74792431640625,0.002064467640593648,-0.002435253467410803,-0.000017189420759677887
1761467025363907300,8.7579072265625,-0.0009377137757837772,0.003202658612281084,-0.0014896512730047107
1761467025373890300,8.767890380859376,-0.0017103739082813263,0.003708229400217533,-0.002260529203340411
1761467025383873500,8.77787353515625,-0.00010848231613636017,-0.000522468239068985,-0.0020586615428328514
1761467025393856300,8.787856201171875,-0.000782704446464777,-0.0015373898204416037,-0.0012218981282785535
1761467025403839200,8.797839111328125,0.000814393162727356,-0.006418697535991669,-0.0013017929159104824
1761467025413822500,8.807822509765625,0.0019740560092031956,0.0049559446051716805,0.0012161568738520145
1761467025423805400,8.817805419921875,0.0007806937210261822,-0.0024673501029610634,0.001351445447653532
1761467025433788400,8.827788330078125,0.0016058813780546188,-0.006775259505957365,-0.0008077837992459536
1761467025443771400,8.837771484375,-0.0016833893023431301,0.0004490974824875593,-0.0012163128703832626
1761467025453753300,8.84775341796875,0.00004992447793483734,0.00348970596678555,0.0013028839603066444
1761467025463736300,8.857736328125,0.00017722370103001595,-0.001118627842515707,-0.003270029788836837
1761467025473719300,8.86771923828125,-0.0008368543349206448,0.0020585486199706793,0.002717346651479602
1761467025483702500,8.87770263671875,0.0014606546610593796,-0.0007825116626918316,-0.000793498707935214
1761467025493685500,8.887685546875,0.0008325539529323578,-0.0007576402276754379,-0.0011936649680137634
1761467025503668200,8.897668212890625,0.00041150813922286034,0.003265597391873598,0.0014551151543855667
1761467025513651500,8.9076513671875,-0.00047118403017520905,-0.0003146459348499775,-0.002553368918597698
1761467025523634400,8.917634521484375,-0.0009715920314192772,-0.0017674004193395376,-0.002043639775365591
1761467025533617400,8.927617431640625,-0.0015571312978863716,0.00880206748843193,0.0025203756522387266
1761467025543600400,8.937600341796875,0.00007245736196637154,0.0017667943611741066,0.0007485747337341309
1761467025553583400,8.947583251953125,-0.0032170070335268974,-0.0054724859073758125,-0.004598252009600401
1761467025563565600,8.957565673828125,0.0000477619469165802,0.008545594289898872,0.00319921737536788
1761467025573548300,8.96754833984375,0.0031229581218212843,0.0016050643753260374,-0.0035538116935640574
1761467025583531300,8.97753125,-0.00010905414819717407,-0.0008580933790653944,0.0009205651003867388
1761467025593514500,8.987514404296874,0.0017999447882175446,0.007135709747672081,-0.00005090329796075821
1761467025603497500,8.99749755859375,0.000004708301275968552,-0.0017667050706222653,-0.0008415959309786558
1761467025613480400,9.00748046875,-0.0008370303548872471,-0.0014145663008093834,0.00062132952734828
1761467025623463400,9.01746337890625,0.001555020920932293,-0.006298004649579525,-0.0008548607584089041
1761467025633446400,9.0274462890625,-0.0010205786675214767,-0.004231778904795647,-0.00072127440944314
1761467025643429400,9.037429443359375,-0.0006956732831895351,0.0005259586032480001,0.0013922101352363825
1761467025653412400,9.047412353515625,-0.0009635086171329021,-0.0025055769365280867,-0.00004781363531947136
1761467025663394800,9.057394775390625,-0.0019094636663794518,-0.003773774253204465,-0.0021996477153152227
1761467025673378000,9.0673779296875,0.0013809963129460812,0.001633944921195507,0.00016087014228105545
1761467025683359700,9.07735986328125,0.001151165459305048,-0.00023133307695388794,-0.0008276952430605888
1761467025693343000,9.087343017578124,-0.0023797000758349895,0.003550335532054305,-0.0008631749078631401
1761467025703326000,9.097325927734374,0.00048346398398280144,-0.001614066306501627,0.0015405942685902119
1761467025713309000,9.107308837890624,-0.000007710419595241547,0.0001754795666784048,0.000500052236020565
1761467025723292000,9.1172919921875,-0.00017256010323762894,-0.002115105278789997,-0.001833143294788897
1761467025733275000,9.12727490234375,0.0006475555710494518,0.00035252771340310574,0.0004126469139009714
1761467025743258000,9.137258056640626,-0.0008936156518757343,-0.0036358225625008345,0.0011878928635269403
1761467025753241000,9.147240966796875,0.0007928856648504734,-0.0010849428363144398,-0.00009644264355301857
1761467025763223800,9.157223876953125,0.0016011553816497326,-0.0017094539944082499,-0.0011936649680137634
1761467025773207000,9.16720703125,-0.002529903780668974,-0.002963143400847912,-0.00045906146988272667
1761467025783190000,9.17718994140625,-0.0004859273321926594,0.0010603603441268206,0.0013500237837433815
1761467025793173000,9.187173095703125,0.0004405798390507698,-0.00019834167324006557,0.0010907889809459448
1761467025803155000,9.197155029296875,0.0012645618990063667,-0.004301740322262049,-0.0019830313976854086
1761467025813138000,9.207137939453125,0.0013037780299782753,0.0014591896906495094,0.0007725448813289404
1761467025823121200,9.21712109375,-0.00008266372606158257,-0.0016468549147248268,-0.000341721810400486
1761467025833104000,9.227103759765624,-0.0008060024119913578,0.0013925903476774693,0.0009031151421368122
1761467025843086800,9.2370869140625,0.0015860488638281822,-0.00022474722936749458,-0.0013744200114160776
1761467025853070000,9.247070068359376,-0.0007074233144521713,0.0003443493042141199,0.000784694217145443
1761467025863053000,9.257052978515626,0.002801025053486228,-0.0008077342063188553,0.0008392888121306896
1761467025873036000,9.2670361328125,0.0015888158231973648,-0.0016369919758290052,-0.001959604676812887
1761467025883019000,9.27701904296875,-0.0013182908296585083,-0.001719283638522029,0.00006333249621093273
1761467025893002000,9.287001953125,0.0011282074265182018,-0.0040095504373312,-0.0012053869431838393
1761467025902985000,9.29698486328125,-0.0011988626793026924,0.0011199642904102802,0.0011885282583534718
1761467025912967000,9.306966796875,0.0005597216077148914,0.00352330319583416,-0.0003563687205314636
1761467025922950100,9.3169501953125,-0.0006301789544522762,-0.005236099939793348,-0.002558270236477256
1761467025932932900,9.326932861328125,-0.0011508041061460972,0.002993139671161771,0.0025432831607759
1761467025942915800,9.336915771484374,0.0003149998374283314,0.0003161302302032709,0.0008721495978534222
1761467025952899000,9.346899169921874,-0.0004953225143253803,0.0015048012137413025,-0.00032492377795279026
1761467025962882000,9.356882080078124,0.0009640897624194622,0.0056982142850756645,-0.003884238423779607
1761467025972864800,9.36686474609375,0.00037412485107779503,-0.000822228379547596,-0.0023201340809464455
1761467025982848000,9.376847900390626,-0.00017981277778744698,-0.002431310247629881,-0.002931595779955387
1761467025992831000,9.3868310546875,0.00016141124069690704,0.0037173358723521233,0.00017934641800820827
1761467026002814000,9.39681396484375,0.00022372929379343987,0.0016872081905603409,0.0007934712339192629
1761467026012797000,9.406796875,0.00020336685702204704,-0.0013766370248049498,-0.004252451006323099
1761467026022780000,9.41677978515625,-0.0006765415892004967,-0.003754573641344905,0.0016717510297894478
1761467026032762000,9.42676220703125,0.000873577781021595,-0.0015242130029946566,0.0011093842331320047
1761467026042744800,9.436744873046875,0.001916471403092146,0.00022654933854937553,-0.0008999709971249104
1761467026052728000,9.44672802734375,0.0027951900847256184,-0.005227732006460428,0.00012800912372767925
1761467026062711000,9.4567109375,-0.0011233850382268429,-0.005398440640419722,0.00011416058987379074
1761467026072694000,9.466694091796874,0.00007818685844540596,0.002701288089156151,0.0007989357691258192
1761467026082677000,9.476677001953124,0.0004092180170118809,0.002668797504156828,0.0012071982491761446
1761467026092660000,9.486659912109374,-0.0004981555975973606,-0.0034135349560528994,-0.0001595050562173128
1761467026102643000,9.496642822265626,-0.0006667333655059338,0.00525372289121151,-0.001587491948157549
1761467026112626200,9.506626220703126,-0.0005542612634599209,0.005267632193863392,0.002310574986040592
1761467026122609000,9.51660888671875,0.0015696100890636444,-0.00033406075090169907,-0.0011869545560330153
1761467026132591900,9.526591796875,0.0009580180048942566,-0.0014299515169113874,-0.001981568755581975
1761467026142575000,9.5365751953125,-0.003648185171186924,0.006498811766505241,0.003694692626595497
1761467026152556800,9.546556884765625,0.00012192083522677422,-0.006034567020833492,-0.0019393590046092868
1761467026162540000,9.5565400390625,-0.0006954031996428967,-0.0002871991600841284,-0.0008477293886244297
1761467026172523000,9.56652294921875,0.00032960670068860054,0.0017527309246361256,0.001490795286372304
1761467026182506000,9.576506103515625,-0.0005684113129973412,-0.009447725489735603,-0.00043573533184826374
1761467026192489000,9.586489013671875,-0.00020786002278327942,-0.0016952124424278736,-0.0005038916133344173
1761467026202472000,9.596471923828124,-0.0012315791100263596,-0.0006525849457830191,0.0009147743694484234
1761467026212455000,9.606454833984374,0.001970107201486826,0.00036416901275515556,0.00020125159062445164
1761467026222438000,9.61643798828125,0.00025130342692136765,-0.0008755323942750692,-0.002549793804064393
1761467026232420900,9.6264208984375,0.0010924255475401878,0.00009039626456797123,0.0003196743782609701
1761467026242404000,9.636404052734376,-0.0017315903678536415,0.006760549731552601,0.00014310679398477077
1761467026252387000,9.646386962890626,-0.0011004805564880371,-0.004342916887253523,-0.003955749794840813
1761467026262369000,9.656369140625,0.0015775938518345356,0.008314821869134903,0.00427634734660387
1761467026272352000,9.66635205078125,-0.0012758034281432629,-0.0004086904227733612,0.0004043260123580694
1761467026282335000,9.6763349609375,-0.0008827205747365952,-0.00514219282194972,-0.0012524266494438052
1761467026292318000,9.68631787109375,0.0010661063715815544,0.006086769513785839,0.0024903782177716494
1761467026302301000,9.696301025390625,0.002268789801746607,0.003177798818796873,0.00007888581603765488
1761467026312284000,9.706283935546875,0.0008118525147438049,-0.0038948371075093746,-0.0010671215131878853
1761467026322267100,9.71626708984375,0.0006462037563323975,-0.0009198198094964027,-0.0002857500221580267
1761467026332249900,9.726249755859374,-0.0016941521316766739,-0.0026221461594104767,0.00040128896944224834
1761467026342232800,9.73623291015625,0.00012851553037762642,-0.007329016923904419,0.00015254970639944077
1761467026352216000,9.746216064453124,0.00019998103380203247,-0.003332513850182295,0.00041742692701518536
1761467026362199000,9.756198974609376,-0.002959327306598425,0.001123753609135747,-0.0016545122489333153
1761467026372182000,9.76618212890625,-0.0007897107861936092,-0.0004483808297663927,-0.002364028710871935
1761467026382164000,9.7761640625,0.0002116379328072071,-0.003673735074698925,-0.0021216811146587133
1761467026392147000,9.78614697265625,0.0008201431483030319,0.0033631548285484314,-0.0008470953907817602
1761467026402130000,9.7961298828125,-0.0008507240563631058,0.0011905478313565254,0.0024267283733934164
1761467026412113000,9.80611279296875,-0.0008846111595630646,-0.004387186840176582,-0.003057250753045082
1761467026422096100,9.81609619140625,0.000508488155901432,0.00724257156252861,0.0025721390265971422
1761467026432079000,9.8260791015625,0.0001210290938615799,-0.002005255315452814,-0.0016694776713848114
1761467026442061800,9.836061767578125,0.0005793594755232334,0.0031085466034710407,0.002673339331522584
1761467026452045000,9.846045166015625,0.0015772106125950813,0.003612991189584136,-0.00016154092736542225
1761467026462028000,9.856028076171874,-0.0005370727740228176,-0.0021655354648828506,0.0007274223025888205
1761467026472011000,9.866010986328124,-0.0003523644991219044,-0.00037227384746074677,0.0016575586050748825
1761467026481994000,9.875993896484376,0.001887886319309473,-0.00027320440858602524,-0.000902804546058178
1761467026491976000,9.885975830078126,-0.0008192630484700203,-0.005371551960706711,0.0005161266308277845
1761467026501959200,9.895959228515625,0.0005314918234944344,0.0008179005235433578,0.0024341351818293333
1761467026511942000,9.90594189453125,0.0007293699309229851,0.002636668970808387,0.0013961431104689837
1761467026521924900,9.9159248046875,0.0019733323715627193,-0.004109916742891073,-0.0010819283779710531
1761467026531908000,9.925908203125,0.00008764909580349922,0.000005745794624090195,0.00009166006930172443
1761467026541890800,9.935890869140625,-0.00015656277537345886,-0.0004232896026223898,0.0015372238121926785
1761467026551874000,9.9458740234375,0.0022788422647863626,-0.001710074720904231,0.0006475795526057482
1761467026561857000,9.95585693359375,0.002817865926772356,0.004217855632305145,0.00009231059812009335
1761467026571840000,9.965840087890625,0.0010486994870007038,0.003644262207672,0.0011621559970080853
1761467026581823000,9.975822998046874,0.00015201326459646225,0.008090143091976643,0.0037169265560805798
1761467026591806000,9.985805908203124,0.0011882255785167217,0.0010437220335006714,-0.00213078735396266
1761467026601789000,9.995788818359374,0.00036264536902308464,-0.0035582203418016434,-0.00006630481220781803
1761467026611771000,10.00577099609375,0.00012605497613549232,0.004410651046782732,-0.0014925970463082194
1761467026621753900,10.01575390625,0.0008733379654586315,-0.0039809695445001125,-0.0035016858018934727
1761467026631737000,10.025737060546875,-0.000039789825677871704,-0.0035700350999832153,-0.0006038385909050703
1761467026641720000,10.035719970703125,0.0006574257276952267,-0.002226203912869096,0.001047587487846613
1761467026651702800,10.045702880859375,0.0009238286875188351,-0.006752401124686003,-0.001833314192481339
1761467026661686300,10.055686279296875,0.0008468637242913246,-0.0011009068693965673,-0.00022369949147105217
1761467026671669200,10.065669189453125,0.004612477496266365,-0.001294917892664671,0.0005708227399736643
1761467026681652200,10.07565234375,-0.0007524602115154266,0.0023056757636368275,-0.002291542710736394
1761467026691635200,10.08563525390625,0.004143082536756992,0.0013588597066700459,-0.0012630810961127281
1761467026701618200,10.0956181640625,-0.00019254349172115326,-0.0009900482837110758,0.002295168349519372
1761467026711601200,10.10560107421875,-0.0026562907733023167,-0.00014440598897635937,-0.0015104435151442885
1761467026721584400,10.11558447265625,-0.0017103361897170544,0.0013118104543536901,0.0012091766111552715
1761467026731566000,10.125566162109376,-0.0006041862070560455,0.0007338058203458786,0.002309551229700446
1761467026741549300,10.13554931640625,0.0001617390662431717,0.0009276838973164558,-0.0007115385960787535
1761467026751532300,10.1455322265625,0.0010392027907073498,0.00008389167487621307,0.00007931259460747242
1761467026761515300,10.155515380859375,0.00009511178359389305,-0.0004966773558408022,0.0005767911206930876
1761467026771498200,10.165498291015625,0.001920653972774744,-0.0011091534979641438,0.0009598075412213802
1761467026781481200,10.175481201171875,-0.0014799362979829311,-0.0005903695710003376,0.0013326499611139297
1761467026791464400,10.18546435546875,-0.001354144886136055,-0.004448961932212114,0.0007297622505575418
1761467026801447200,10.195447265625,0.0002719811163842678,-0.0006795236840844154,0.0004426734521985054
1761467026811430100,10.20543017578125,0.0000886823982000351,0.0004326021298766136,0.00003547803498804569
1761467026821413400,10.215413330078125,0.0007448852993547916,0.0007860036566853523,-0.0014771973947063088
1761467026831396000,10.22539599609375,0.0002543679438531399,0.007653727196156979,0.002121409634128213
1761467026841379000,10.235379150390624,-0.00006654299795627594,-0.0006183173973113298,-0.0000884814653545618
1761467026851361300,10.245361328125,0.0001729307696223259,-0.0003536655567586422,-0.00045305327512323856
1761467026861344300,10.25534423828125,-0.0018721106462180614,-0.0020620834548026323,-0.0001561108510941267
1761467026871327200,10.2653271484375,-0.0023603648878633976,-0.0008122620638459921,0.00008810102008283138
1761467026881310200,10.275310302734376,0.0009938864968717098,-0.00037017720751464367,-0.001302335294894874
1761467026891293200,10.285293212890625,0.00207658763974905,-0.0009621561039239168,-0.001782714040018618
1761467026901276200,10.295276123046875,0.00127897085621953,-0.00009929202497005463,-0.0016796496929600835
1761467026911259100,10.305259033203125,0.0012515089474618435,0.003047112375497818,0.0012983959168195724
1761467026921242000,10.3152421875,-0.0043381997384130955,0.13531062006950378,0.05869217962026596
1761467026931225300,10.325225341796875,0.002191665582358837,-0.060819268226623535,-0.018057184293866158
1761467026941208000,10.3352080078125,-0.00017748260870575905,0.03809346258640289,0.014444833621382713
1761467026951191300,10.34519140625,0.0005674152635037899,-0.02021496184170246,-0.00912877544760704
1761467026961173200,10.35517333984375,0.0037703991401940584,-0.016969898715615273,-0.007153509184718132
1761467026971156200,10.36515625,0.001277439296245575,-0.013179052621126175,-0.009873821400105953
1761467026981139200,10.37513916015625,0.0014633280225098133,-0.024723855778574944,-0.010047991760075092
1761467026991122200,10.3851220703125,0.0010895752348005772,0.006202273536473513,0.0008537524845451117
1761467027001105400,10.39510546875,0.0004789126105606556,-0.010466184467077255,-0.0046033309772610664
1761467027011088100,10.405088134765625,0.0014510457403957844,-0.010088748298585415,-0.004303344059735537
1761467027021071000,10.415071044921875,0.0019530514255166054,0.00730249285697937,0.0016325756441801786
1761467027031054300,10.425054443359375,-0.0007193535566329956,-0.003098347457125783,-0.0016765677137300372
1761467027041037300,10.435037353515625,0.0010897316969931126,-0.0028759734705090523,-0.00119719875510782
1761467027051020000,10.44502001953125,0.0006182272918522358,0.003441806649789214,0.001921838615089655
1761467027061003300,10.455003173828125,-0.0001394418068230152,-0.003198252758011222,-0.0016494605224579573
1761467027070986200,10.464986328125,-0.0011837407946586609,0.00006755534559488297,-0.0022997986525297165
1761467027080968200,10.47496826171875,0.0006711510941386223,0.0006108400411903858,0.001447801711037755
1761467027090951200,10.484951171875,0.00003015529364347458,-0.003831272479146719,-0.0024954848922789097
1761467027100934100,10.49493408203125,-0.0008822432719171047,-0.0004056484904140234,-0.000295181293040514
1761467027110917400,10.50491748046875,0.0007610209286212921,-0.004896095022559166,-0.0016857271548360586
1761467027120900000,10.514900146484376,0.00297517329454422,0.00268326117657125,0.00014013610780239105
1761467027130883300,10.52488330078125,-0.00041594123467803,0.0013936005998402834,-0.000037457095459103584
1761467027140866300,10.5348662109375,0.0051207710057497025,-0.00019763805903494358,-0.0006257493514567614
1761467027150849000,10.54484912109375,-0.0037400582805275917,0.0025858022272586823,0.000405650120228529
1761467027160832300,10.554832275390625,0.0006190035492181778,0.0007918970659375191,0.001977181527763605
1761467027170815200,10.564815185546875,-0.0014861412346363068,0.0018696440383791924,0.00021763821132481098
1761467027180798200,10.574798095703125,-0.0004389863461256027,0.00004884065128862858,-0.0025890672113746405
1761467027190780200,10.5847802734375,-0.0018795025534927845,0.00003087683580815792,0.00008224532939493656
1761467027200763100,10.59476318359375,0.001837205607444048,-0.0027350822929292917,0.0014383266679942608
1761467027210746400,10.604746337890624,-0.0017890632152557373,0.001410893863067031,0.0015101756434887648
1761467027220729000,10.61472900390625,0.0017987475730478764,-0.001981174573302269,-0.0018430105410516262
1761467027230712000,10.624712158203126,0.003315181704238057,0.0025509668048471212,-0.0023735081776976585
1761467027240695300,10.6346953125,-0.0008787643164396286,0.0007117877248674631,-0.0027090664952993393
1761467027250678300,10.64467822265625,-0.0010943538509309292,0.15302501618862152,0.06221490725874901
1761467027260661200,10.6546611328125,0.001846042461693287,-0.057908520102500916,-0.02236442267894745
1761467027270644200,10.664644287109375,-0.0022106622345745564,0.05001432076096535,0.01839110441505909
1761467027280627200,10.674627197265625,0.000524669885635376,-0.013655735179781914,-0.00697470735758543
1761467027290610400,10.6846103515625,-0.00002448447048664093,-0.018491674214601517,-0.008999666199088097
1761467027300593200,10.69459326171875,0.0018660933710634708,-0.010401258245110512,-0.010426854714751244
1761467027310575400,10.704575439453125,0.0019184029661118984,-0.04578004404902458,-0.018995368853211403
1761467027320558300,10.714558349609375,-0.0010062805376946926,-0.03235717862844467,-0.010712403804063797
1761467027330541000,10.724541015625,0.001854489091783762,0.0001886987593024969,-0.0015477162087336183
1761467027340524300,10.734524169921874,0.001571661327034235,0.007688426412642002,0.0054052649065852165
1761467027350507300,10.74450732421875,0.0005805855616927147,-0.008011870086193085,-0.0025002220645546913
1761467027360490200,10.754490234375,0.0009267963469028473,0.007274940609931946,0.001946191769093275
1761467027370473200,10.76447314453125,-0.0005016499198973179,-0.004988518543541431,-0.0016388532239943743
1761467027380456200,10.774456298828126,-0.0006750216707587242,-0.002338140271604061,-0.00018103886395692825
1761467027390439200,10.784439208984375,0.0005353116430342197,0.0023345111403614283,-0.0021854364313185215
1761467027400422400,10.79442236328125,-0.0017866985872387886,-0.0020085719879716635,-0.001217111013829708
1761467027410405000,10.804405029296875,0.0017818212509155273,-0.000274579506367445,-0.0010466696694493294
1761467027420387300,10.81438720703125,0.0007450529374182224,0.0019257243257015944,-0.0007316176779568195
1761467027430370300,10.824370361328125,0.0008919448591768742,-0.001343828858807683,0.0001035474706441164
1761467027440353300,10.834353271484375,0.0006903433240950108,0.0014354458544403315,-0.0012370878830552101
1761467027450336300,10.844336181640625,0.0011087297461926937,-0.0017550981137901545,-0.0014933333732187748
1761467027460319200,10.8543193359375,0.0002890089526772499,-0.0009433666709810495,-0.00022593513131141663
1761467027470302200,10.86430224609375,0.0022384203039109707,0.0019047977402806282,-0.0008343101944774389
1761467027480285200,10.87428515625,-0.0016713663935661316,-0.003165328409522772,-0.0007392354309558868
1761467027490268200,10.88426806640625,-0.000818085391074419,0.00023141293786466122,-0.000024014851078391075
1761467027500251400,10.89425146484375,0.0009577106684446335,-0.001308160601183772,-0.001927908742800355
1761467027510234000,10.904234130859376,0.001971269492059946,0.0002639440353959799,0.0002561418805271387
1761467027520217000,10.914217041015625,0.00003674905747175217,0.0010999103542417288,0.00001912051811814308
1761467027530200300,10.924200439453125,-0.0017756856977939606,0.0003262902610003948,-0.00039281207136809826
1761467027540182000,10.93418212890625,0.0010576513595879078,-0.0036410207394510508,-0.0015385039150714874
1761467027550165200,10.944165283203125,0.0010005594231188297,0.0011991539504379034,0.0013786186464130878
1761467027560148200,10.954148193359375,-0.0005193068645894527,0.001786114415153861,0.0003431814257055521
1761467027570131200,10.964131103515625,0.002254795515909791,0.0008166404440999031,0.0022043546196073294
1761467027580114200,10.9741142578125,-0.00041076214984059334,-0.0017959207762032747,-0.00010327459312975407
1761467027590097200,10.98409716796875,-0.0016042999923229218,0.0006728293374180794,-0.0003568073734641075
1761467027600080100,10.994080078125,0.0010767043568193913,-0.0019767493940889835,-0.001266010571271181
1761467027610063400,11.0040634765625,0.00042337365448474884,-0.0011433109175413847,0.00034216977655887604
1761467027620046000,11.014046142578126,0.000314982607960701,-0.0007526252884417772,-0.0012413457734510303
1761467027630029300,11.024029296875,0.0008969814516603947,0.0019994338508695364,0.0015639746561646461
1761467027640012300,11.03401220703125,-0.00156804034486413,-0.0010365699417889118,-0.001700528315268457
1761467027649995300,11.043995361328125,0.0007928358390927315,0.001071249833330512,-0.0005094090010970831
1761467027659977200,11.053977294921875,-0.0011145202443003654,-0.0028601086232811213,0.000020826468244194984
1761467027669960200,11.063960205078125,0.0006268983706831932,-0.00032704370096325874,0.000591174466535449
1761467027679943400,11.073943359375,0.0016865702345967293,0.0037635716143995523,0.0016332692466676235
1761467027689926100,11.083926025390625,-0.000492690596729517,-0.005574218463152647,-0.0019172036554664373
1761467027699909000,11.0939091796875,-0.0007933615706861019,-0.0009160835761576891,-0.0006207767874002457
1761467027709892400,11.103892333984374,-0.00009604450315237045,0.003146989969536662,-0.000929543050006032
1761467027719875300,11.113875244140624,-0.0018795640207827091,-0.003306648461148143,0.0027560056187212467
1761467027729858000,11.123858154296874,0.00226111663505435,-0.00003702542744576931,0.001470549963414669
1761467027739841300,11.13384130859375,0.00019077537581324577,0.0007672489155083895,-0.0011023296974599361
1761467027749824300,11.14382421875,0.0020043025724589825,0.0006631803698837757,0.0016716704703867435
1761467027759807200,11.15380712890625,0.0007472904399037361,0.0014514760114252567,-0.00017390004359185696
1761467027769789200,11.1637890625,-0.003248324617743492,0.00011194823309779167,-0.0023930573370307684
1761467027779772200,11.173772216796875,0.00010060053318738937,-0.0015653104055672884,-0.002472419524565339
1761467027789755100,11.183755126953125,0.0002692746929824352,0.0025742037687450647,0.002000252716243267
1761467027799738000,11.193738037109375,0.0011545093730092049,0.0017262536566704512,-0.004545264411717653
1761467027809721300,11.203721435546875,0.0011100592091679573,0.0023321742191910744,-0.0020852491725236177
1761467027819704300,11.213704345703125,0.0007486678659915924,0.00022667879238724709,0.0002016071230173111
1761467027829687000,11.22368701171875,0.00021555135026574135,0.001823407132178545,-0.0011039813980460167
1761467027839670300,11.233670166015624,0.0018390142358839512,-0.0008554663509130478,-0.0011801478685811162
1761467027849653200,11.2436533203125,-0.0016083428636193275,0.04062935337424278,0.03065495938062668
1761467027859636200,11.25363623046875,0.0005978196859359741,0.060796137899160385,0.024625295773148537
1761467027869619200,11.263619140625,0.0019524041563272476,-0.07517804205417633,-0.023483751341700554
1761467027879602200,11.273602294921876,0.00018885871395468712,0.08616797626018524,0.032880187034606934
1761467027889584400,11.28358447265625,0.004225308075547218,-0.07756402343511581,-0.025497687980532646
1761467027899567000,11.293567138671875,-0.0025013042613863945,0.034012842923402786,0.007149205077439547
1761467027909550000,11.303550048828125,0.0017114155925810337,-0.04869212955236435,-0.018682867288589478
1761467027919533300,11.313533203125,0.004230232909321785,-0.005602714605629444,-0.006381460465490818
1761467027929516300,11.323516357421875,0.0009608091786503792,-0.028793880715966225,-0.014298880472779274
1761467027939499300,11.333499267578125,-0.0003912774845957756,-0.011297977529466152,-0.004323212429881096
