time,seconds_elapsed,z,y,x
1761466840641430000,0.123429931640625,-0.00019494211301207542,-0.0005540086422115564,-0.004247382748872042
1761466840651414000,0.1334140625,-0.00024003908038139343,-0.002934674033895135,-0.0024623058270663023
1761466840661397000,0.14339697265625,0.0014513349160552025,-0.00291976029984653,0.0002906038425862789
1761466840671381000,0.153381103515625,-0.0008854065090417862,0.0010558590292930603,0.0007778415456414223
1761466840681364000,0.163364013671875,0.001179874874651432,-0.0007433728314936161,-0.0024195495061576366
1761466840691347700,0.17334765625,0.0020238254219293594,-0.010519688948988914,-0.0033925881143659353
1761466840701331000,0.1833310546875,0.0006019636057317257,0.000664521474391222,0.001119339605793357
1761466840711315000,0.19331494140625,0.00025691138580441475,0.009225240908563137,0.00045818230137228966
1761466840721299000,0.203298828125,-0.0006224643439054489,-0.00477899145334959,-0.0020614343229681253
1761466840731282000,0.213281982421875,0.001241479068994522,0.0030714841559529305,0.0006971219554543495
1761466840741266000,0.223265869140625,0.0013924804516136646,0.003441929817199707,0.0022622616961598396
1761466840751249000,0.233248779296875,0.003552929498255253,0.0024046143516898155,-0.0006127813830971718
1761466840761233000,0.24323291015625,0.0020226771011948586,0.0019734487868845463,0.00145063572563231
1761466840771216000,0.2532158203125,0.0015026992186903954,0.0023536966182291508,0.0016337158158421516
1761466840781200000,0.263199951171875,-0.0015940242446959019,0.006701840087771416,-0.002244912087917328
1761466840791183000,0.27318310546875,0.0010573319159448147,0.00023947609588503838,0.0011513505596667528
1761466840801167000,0.2831669921875,-0.00235550943762064,-0.005010147113353014,-0.001787447719834745
1761466840811149800,0.29314990234375,0.000987823586910963,-0.0019123581005260348,0.0015444329474121332
1761466840821133800,0.3031337890625,0.005016076844185591,0.004311778116971254,0.002197639551013708
1761466840831116800,0.31311669921875,-0.0011798772029578686,0.0005610436201095581,0.001085969153791666
1761466840841101000,0.32310107421875,0.002122975420206785,0.005275637377053499,0.0007442855276167393
1761466840851084000,0.333083984375,0.00014721089974045753,0.00373711995780468,0.0008945402223616838
1761466840861068000,0.343068115234375,0.00192220788449049,-0.001654716208577156,-0.00025487993843853474
1761466840871050800,0.35305078125,-0.0005612252280116081,0.00336949760094285,0.0014793453738093376
1761466840881034800,0.36303466796875,0.0013125748373568058,0.004883504938334227,0.0035741878673434258
1761466840891018000,0.37301806640625,0.001712561585009098,0.0033921259455382824,0.0006613286677747965
1761466840901002000,0.383001953125,-0.0006232974119484425,0.0025918460451066494,0.0025681520346552134
1761466840910985000,0.39298486328125,-0.000733683817088604,0.004544468596577644,-0.00018923217430710793
1761466840920969000,0.402968994140625,-0.00003993045538663864,0.0003933999687433243,-0.0017447845311835408
1761466840930952000,0.412951904296875,-0.001139273401349783,0.003711030352860689,0.002949649468064308
1761466840940936000,0.42293603515625,0.00044078007340431213,-0.0038867017719894648,0.00021112081594765186
1761466840950919000,0.4329189453125,-0.0006298776715993881,-0.0025774077512323856,0.0019402988255023956
1761466840960903000,0.44290283203125,0.002108650980517268,0.0015140064060688019,0.0032638898119330406
1761466840970886000,0.452885986328125,-0.0006848308257758617,-0.002425141166895628,-0.00047682621516287327
1761466840980870000,0.462869873046875,-0.00026351865381002426,-0.0036970668006688356,0.002102977829053998
1761466840990852900,0.472852783203125,-0.000582186970859766,0.003193591721355915,0.0005809280555695295
1761466841000836900,0.4828369140625,0.0015885555185377598,-0.003674168139696121,-0.0004230835475027561
1761466841010820900,0.49282080078125,-0.00048564421012997627,-0.005894709378480911,0.0024260724894702435
1761466841020803800,0.502803955078125,0.0011556618846952915,0.0003160485066473484,0.0031592408195137978
1761466841030787800,0.512787841796875,-0.0008824784308671951,0.002482994459569454,-0.00006333040073513985
1761466841040771000,0.52277099609375,-0.0015767645090818405,-0.0031290848273783922,0.00038621132262051105
1761466841050755000,0.532755126953125,-0.0008432338945567608,0.0010542767122387886,-0.0010605377610772848
1761466841060737800,0.54273779296875,0.0008731735870242119,0.005834650713950396,-0.000608599279075861
1761466841070721800,0.5527216796875,-0.0008486011065542698,0.0017579500563442707,0.0014215682167559862
1761466841080705000,0.562705078125,0.0010318569839000702,0.0036450657062232494,0.0011131742503494024
1761466841090689000,0.57268896484375,0.0006705848500132561,0.0021178084425628185,0.0022115015890449286
1761466841100672000,0.582672119140625,0.0008961544372141361,-0.004143815487623215,0.0013313272502273321
1761466841110656000,0.592656005859375,0.000047021545469760895,-0.0029617859981954098,-0.0002823693212121725
1761466841120638700,0.602638671875,-0.0004302170127630234,0.00001988932490348816,-0.0023162253201007843
1761466841130623000,0.612623046875,0.0010848352685570717,0.001560811884701252,0.0012880824506282806
1761466841140606000,0.62260595703125,-0.0010664663277566433,-0.0019574901089072227,-0.0026379497721791267
1761466841150590000,0.63258984375,-0.0004415540024638176,0.0065552289597690105,0.0036721040960401297
1761466841160573000,0.642572998046875,0.0003059953451156616,-0.0003048079088330269,0.002297912957146764
1761466841170557000,0.652556884765625,0.0018904311582446098,-0.005746321752667427,-0.0006116675212979317
1761466841180540000,0.662539794921875,0.00038254912942647934,0.004181942902505398,0.0036496564280241728
1761466841190524000,0.67252392578125,-0.001611584797501564,0.006462159566581249,0.0029308167286217213
1761466841200507000,0.6825068359375,0.00019829953089356422,0.002886599861085415,0.00040454231202602386
1761466841210491000,0.692490966796875,0.0030393966007977724,0.0050070080906152725,0.0022870246320962906
1761466841220474000,0.70247412109375,0.0004657176323235035,0.008920789696276188,0.004236192442476749
1761466841230458000,0.7124580078125,0.0022557363845407963,0.0030854055657982826,0.0002778025809675455
1761466841240440800,0.72244091796875,-0.0025035985745489597,0.00031092436984181404,0.0002042993437498808
1761466841250424800,0.7324248046875,0.0006261225789785385,0.0019699949771165848,0.000917843310162425
1761466841260407800,0.74240771484375,0.0009185378439724445,-0.002348853275179863,0.0007529936265200377
1761466841270392000,0.75239208984375,0.0011456552892923355,-0.00021119369193911552,0.0011987139005213976
1761466841280375000,0.762375,0.0010628309100866318,0.004368111491203308,0.0014570408966392279
1761466841290359000,0.772359130859375,0.001110902987420559,0.00023901648819446564,0.0019749109633266926
1761466841300341800,0.782341796875,0.0001513659954071045,0.001504284329712391,0.0013943416997790337
1761466841310325800,0.79232568359375,0.0002869153395295143,0.006693786475807428,0.0004657346289604902
1761466841320309800,0.802309814453125,-0.001429758034646511,0.0001402797643095255,0.0008154078386723995
1761466841330293000,0.81229296875,0.0022895685397088528,0.0009256456978619099,0.0017173208761960268
1761466841340277000,0.822277099609375,-0.0003373734652996063,0.0027642925269901752,-0.0030643846839666367
1761466841350260000,0.832260009765625,0.0030834744684398174,0.002349298447370529,0.001272386172786355
1761466841360244000,0.842243896484375,0.0021793313790112734,0.0025375839322805405,0.0019371111411601305
1761466841370227000,0.85222705078125,-0.0013724048621952534,0.0050981552340090275,-0.002131691202521324
1761466841380211000,0.8622109375,0.000015900935977697372,-0.0015099463053047657,0.0012750246096402407
1761466841390194000,0.87219384765625,0.0009077661670744419,0.0010483525693416595,0.00020035728812217712
1761466841400178000,0.882177978515625,-0.0004467172548174858,0.002705637365579605,-0.0012710392475128174
1761466841410161000,0.892160888671875,-0.0006563151255249977,-0.0012555508874356747,-0.0012962305918335915
1761466841420145200,0.902145263671875,-0.0019356976263225079,-0.00042997091077268124,-0.0015883792657405138
1761466841430127900,0.9121279296875,-0.0009381421841681004,0.00048648566007614136,-0.0019309177296236157
1761466841440111900,0.92211181640625,0.000025655608624219894,-0.003183084074407816,-0.0009420861024409533
1761466841450094800,0.9320947265625,-0.001127222552895546,-0.0028912604320794344,-0.001940131769515574
1761466841460078800,0.942078857421875,-0.00040310947224497795,0.002925882115960121,-0.0014157553669065237
1761466841470062000,0.95206201171875,0.0010636649094522,0.0004053320735692978,-0.000696233008056879
1761466841480046000,0.962046142578125,0.0005249073728919029,-0.0017347843386232853,-0.0034217119682580233
1761466841490028800,0.97202880859375,-0.0005574268288910389,0.0037791579961776733,0.0012194886803627014
1761466841500012800,0.9820126953125,-0.0006937803700566292,0.0027312040328979492,-0.0004226162564009428
1761466841509996000,0.99199609375,-0.0006979168392717838,-0.007845943793654442,-0.008486801758408546
1761466841519980000,1.00197998046875,0.0002562939189374447,-0.01478507649153471,-0.00292505556717515
1761466841529963000,1.011962890625,0.0002767988480627537,0.005237435922026634,0.0139704504981637
1761466841539946500,1.021946533203125,0.0035756565630435944,-0.004527310840785503,-0.0005272652488201857
1761466841549929700,1.0319296875,0.001263363752514124,-0.0017781257629394531,-0.012349942699074745
1761466841559913700,1.041913818359375,-0.00023519666865468025,0.01738012209534645,0.007440540008246899
1761466841569896400,1.051896484375,-0.0025794082321226597,-0.0009675277397036552,0.006468392908573151
1761466841579880400,1.06188037109375,-0.0010142684914171696,0.005906091071665287,-0.004586121998727322
1761466841589863400,1.071863525390625,-0.001247018575668335,0.0032261530868709087,-0.004516721237450838
1761466841599847700,1.08184765625,-0.00014420365914702415,-0.00493377260863781,0.0008508795872330666
1761466841609830700,1.09183056640625,-0.0003406684845685959,0.007877564057707787,0.008445430546998978
1761466841619814700,1.101814697265625,0.0011586910113692284,0.005352621432393789,-0.0008487356826663017
1761466841629797400,1.11179736328125,0.0004522223025560379,-0.012357667088508606,-0.009426032193005085
1761466841639781400,1.121781494140625,0.0007294574752449989,0.008671185933053493,0.008305827155709267
1761466841649764600,1.1317646484375,0.002227803459390998,-0.0018827918684110045,0.003380708396434784
1761466841659748600,1.14174853515625,0.00019847461953759193,-0.01795683242380619,-0.010064526461064816
1761466841669731600,1.151731689453125,0.0016273441724479198,0.002352236770093441,-0.0036015252117067575
1761466841679715600,1.161715576171875,-0.00031250249594449997,-0.028044018894433975,-0.016377240419387817
1761466841689698600,1.171698486328125,0.0037440815940499306,0.0130232572555542,-0.00015310430899262428
1761466841699682600,1.1816826171875,0.00042631570249795914,0.04389728233218193,0.020554039627313614
1761466841709665500,1.19166552734375,-0.0040068128146231174,0.008147206157445908,0.004172199871391058
1761466841719649500,1.2016494140625,0.0006923344917595387,-0.011241139844059944,-0.011346837505698204
1761466841729632500,1.211632568359375,-0.0007321801967918873,0.02053982950747013,0.007297607604414225
1761466841739616500,1.221616455078125,-0.0021444549784064293,-0.012343551963567734,0.005085852462798357
1761466841749599500,1.231599609375,0.0007365532219409943,-0.0032184962183237076,0.001322006806731224
1761466841759583500,1.24158349609375,0.00023321574553847313,0.0016130106523633003,-0.001010389532893896
1761466841769566500,1.25156640625,0.0014998172409832478,-0.016311796382069588,0.0002716297749429941
1761466841779550500,1.261550537109375,0.0053012133575975895,-0.00979211088269949,0.002079916186630726
1761466841789533700,1.27153369140625,-0.0010261014103889465,-0.003651061560958624,-0.0034959041513502598
1761466841799517700,1.281517578125,0.001738259568810463,-0.018043316900730133,-0.010166856460273266
1761466841809500400,1.29150048828125,-0.0003007468767464161,-0.0008145279716700315,0.0021575603168457747
1761466841819484400,1.301484375,-0.0027686976827681065,0.005801030900329351,0.008740894496440887
1761466841829468400,1.311468505859375,0.0014519593678414822,-0.006529740057885647,-0.008080044761300087
1761466841839451600,1.32145166015625,0.003125756047666073,-0.026871763169765472,-0.01556086353957653
1761466841849435600,1.331435546875,0.004968763329088688,0.03128994256258011,0.008940831758081913
1761466841859418600,1.341418701171875,0.0007465877570211887,0.06728043407201767,0.025827670469880104
1761466841869402600,1.351402587890625,-0.003749098628759384,0.0021013678051531315,0.0051862141117453575
1761466841879385300,1.36138525390625,-0.005191733129322529,-0.03208829462528229,-0.014530764892697334
1761466841889369600,1.37136962890625,-0.006143372505903244,-0.00009194575250148773,0.0009797371458262205
1761466841899352600,1.3813525390625,-0.002688453532755375,-0.00730991130694747,0.005956386215984821
1761466841909336600,1.391336669921875,0.002328775357455015,-0.018198184669017792,-0.00534506980329752
1761466841919319600,1.401319580078125,0.0025229197926819324,0.006340715102851391,-0.0018938794964924455
1761466841929303600,1.411303466796875,0.006611038465052843,0.007525493390858173,0.004694581031799316
1761466841939286500,1.42128662109375,0.0015931101515889168,-0.012521184980869293,0.0008851948659867048
1761466841949270500,1.4312705078125,-0.001667131669819355,-0.0038909451104700565,0.0014521817211061716
1761466841959253500,1.44125341796875,-0.003857049159705639,-0.011852730996906757,-0.004647255875170231
1761466841969237500,1.451237548828125,-0.007408453617244959,-0.01575000397861004,-0.002464794786646962
1761466841979220700,1.461220703125,-0.0015140790492296219,0.002994921989738941,0.005081272218376398
1761466841989204700,1.471204833984375,0.0012564868666231632,0.0101529685780406,-0.00226425938308239
1761466841999187500,1.4811875,0.0018003042787313461,0.013876067474484444,-0.016694864258170128
1761466842009171500,1.49117138671875,0.003945138771086931,0.007275679148733616,-0.0029253086540848017
1761466842019154400,1.501154541015625,-0.0005713161081075668,0.01247550081461668,0.015001760795712471
1761466842029138700,1.511138671875,-0.000883620698004961,-0.00045773270539939404,0.0025232259649783373
1761466842039121700,1.52112158203125,0.0005965642631053925,-0.022063158452510834,-0.019841201603412628
1761466842049105700,1.531105712890625,-0.0017946036532521248,0.00410719309002161,-0.005974175408482552
1761466842059088400,1.54108837890625,-0.0021472061052918434,-0.01457434892654419,-0.0002734130248427391
1761466842069072400,1.551072265625,-0.0007827868685126305,-0.014753979630768299,-0.0042463443242013454
1761466842079055600,1.5610556640625,0.0007450683042407036,-0.017548169940710068,-0.007936419919133186
1761466842089039600,1.57103955078125,-0.00029631657525897026,-0.004317651502788067,0.0009118926245719194
1761466842099022600,1.581022705078125,0.0008019711822271347,-0.004248143173754215,-0.0016031968407332897
1761466842109006600,1.591006591796875,0.0019077155739068985,0.005099552683532238,-0.0017520675901323557
1761466842118989600,1.600989501953125,-0.0007274821400642395,-0.006070810370147228,-0.0021909563802182674
1761466842128973600,1.6109736328125,-0.0021177311427891254,-0.002270745113492012,-0.0024458197876811028
1761466842138956500,1.62095654296875,-0.002777928952127695,-0.004883039742708206,-0.0029960288666188717
1761466842148940500,1.6309404296875,-0.0022655376233160496,-0.0189383365213871,-0.008860429748892784
1761466842158923500,1.640923583984375,-0.0009680455550551414,0.0005703824572265148,-0.0038507571443915367
1761466842168907500,1.650907470703125,0.0016056238673627377,0.010253767482936382,0.002018129453063011
1761466842178890500,1.660890380859375,0.0018929787911474705,-0.0016463017091155052,-0.005469614639878273
1761466842188874500,1.67087451171875,0.003415777813643217,0.005855957977473736,-0.0003414573147892952
1761466842198857500,1.680857421875,-0.0014615356922149658,-0.0010219216346740723,-0.0015231018187478185
1761466842208841500,1.690841552734375,-0.002501937560737133,-0.0119719747453928,-0.004061639774590731
1761466842218824700,1.70082470703125,-0.0010806084610521793,-0.0033784867264330387,-0.00417855242267251
1761466842228808700,1.71080859375,-0.002143658697605133,0.00028076348826289177,0.001102588837966323
1761466842238791400,1.72079150390625,0.0003485274501144886,0.000547346193343401,-0.0014457900542765856
1761466842248775400,1.730775390625,0.0019491678103804588,0.00782136619091034,0.0011102836579084396
1761466842258758700,1.740758544921875,-0.00033981911838054657,0.00923763494938612,0.0025060465559363365
1761466842268742700,1.75074267578125,0.001538961660116911,0.0005829664878547192,-0.0002760097850114107
1761466842278725600,1.7607255859375,-0.0008080820553004742,-0.0018021607538685203,-0.0014752312563359737
1761466842288709600,1.770709716796875,0.0005159503780305386,-0.0014455639757215977,-0.001090298406779766
1761466842298692400,1.7806923828125,-0.0005525094456970692,-0.009537313133478165,-0.004808870144188404
1761466842308676600,1.790676513671875,-0.0020735301077365875,-0.008639095351099968,-0.003865618258714676
1761466842318659600,1.80065966796875,-0.0002548573538661003,-0.001217397628352046,-0.0004690226633101702
1761466842328643600,1.8106435546875,0.002844790695235133,-0.0015189370606094599,-0.0010640672408044338
1761466842338626600,1.82062646484375,0.00041944999247789383,0.0004147840663790703,0.0005402211099863052
1761466842348610600,1.830610595703125,0.0009930054657161236,0.0038227643817663193,0.0021487302146852016
1761466842358593500,1.840593505859375,0.00009578652679920197,0.0013295132666826248,-0.0006172286812216043
1761466842368577500,1.85057763671875,0.0005689444951713085,0.0013602077960968018,-0.000875088619068265
1761466842378560500,1.860560546875,-0.0010225605219602585,-0.0010464908555150032,-0.0012399416882544756
1761466842388544500,1.87054443359375,-0.0008142157457768917,-0.0033078494016081095,-0.0009445312898606062
1761466842398527700,1.88052783203125,-0.00020914524793624878,-0.0026029106229543686,-0.0010649061296135187
1761466842408511700,1.89051171875,-0.0005286317318677902,-0.0011883035767823458,-0.0009631591383367777
1761466842418494500,1.900494384765625,-0.0007613920606672764,-0.001268730964511633,-0.002098198514431715
1761466842428478500,1.910478515625,0.002174746012315154,0.000016378704458475113,0.0021375329233705997
1761466842438461400,1.92046142578125,-0.00009479979053139687,-0.0029929932206869125,-0.0017381652723997831
1761466842448445400,1.930445556640625,0.00019023753702640533,-0.003592809895053506,-0.0014336479362100363
1761466842458428700,1.9404287109375,-0.0002827402204275131,-0.0032316853757947683,-0.0010118030477315187
1761466842468412700,1.95041259765625,0.0005504856817424297,0.0017335186712443829,-0.00021418416872620583
1761466842478395400,1.9603955078125,0.0020069684833288193,0.001881323754787445,0.0011810457799583673
1761466842488379400,1.97037939453125,-0.0025758002884685993,-0.0014478270895779133,-0.0007490671705454588
1761466842498362600,1.980362548828125,0.0031699694227427244,0.0002605905756354332,0.000508743803948164
1761466842508346600,1.9903466796875,0.0008757435716688633,0.0014237258583307266,-0.0003004046157002449
1761466842518329600,2.00032958984375,0.0016177003271877766,-0.001955026760697365,0.0007888283580541611
1761466842528313600,2.010313720703125,0.0021010611671954393,-0.003788747824728489,-0.0003773437347263098
1761466842538296300,2.02029638671875,-0.0007210904732346535,-0.00335119036026299,-0.0009698972571641207
1761466842548280300,2.0302802734375,0.0007119565270841122,0.001882720272988081,0.0014969890471547842
1761466842558263300,2.04026318359375,0.0005463077686727047,0.0027075009420514107,0.002391544869169593
1761466842568247300,2.050247314453125,-0.0008697030134499073,-0.0002560706343501806,-0.000014037126675248146
1761466842578230000,2.06022998046875,0.0009724055416882038,0.004491013940423727,0.0003721213433891535
1761466842588214300,2.07021435546875,-0.001170177012681961,0.006390320137143135,-0.0010400833562016487
1761466842598197200,2.080197265625,0.000665007159113884,0.0016384413465857506,-0.0009183769579976797
1761466842608181200,2.09018115234375,-0.0015028142370283604,-0.005286441650241613,-0.0009406683966517448
1761466842618164200,2.100164306640625,-0.004205389879643917,-0.009256947785615921,-0.003320735413581133
1761466842628148200,2.110148193359375,-0.00396084226667881,-0.00829057116061449,0.0009918895084410906
1761466842638131200,2.120131103515625,0.0019266074523329735,0.0008954703807830811,-0.00020413612946867943
1761466842648115200,2.130115234375,0.0010994477197527885,0.00026238709688186646,0.0002531465142965317
1761466842658098200,2.14009814453125,0.0019516590982675552,-0.00437843706458807,-0.0013974807225167751
1761466842668082200,2.150082275390625,-0.0028038634918630123,0.0013486878015100956,-0.0030095463152974844
1761466842678065400,2.1600654296875,-0.0023354128934442997,-0.0033549873623996973,-0.001008979743346572
1761466842688049400,2.17004931640625,-0.0003278348594903946,-0.004936506971716881,0.001302031334489584
1761466842698032000,2.1800322265625,-0.0006151902489364147,0.002852973062545061,0.002118290401995182
1761466842708016000,2.19001611328125,0.001724055502563715,0.0038147778250277042,0.0004948026034981012
1761466842717999000,2.1999990234375,0.0007147174328565598,-0.0005663882475346327,-0.0014977743849158287
1761466842727983400,2.2099833984375,-0.000887721311300993,0.005472657270729542,-0.0010261442512273788
1761466842737966300,2.21996630859375,0.00016316212713718414,0.002308822236955166,-0.0007600942626595497
1761466842747950300,2.229950439453125,-0.0034465622156858444,-0.0028335368260741234,-0.001905930694192648
1761466842757933000,2.23993310546875,-0.0009929919615387917,-0.0037059884052723646,-0.0009290832094848156
1761466842767917000,2.2499169921875,-0.00205035787075758,-0.0030287462286651134,-0.001065596705302596
1761466842777900300,2.259900390625,-0.0017949603497982025,-0.0007464170921593904,-0.00003681774251163006
1761466842787884300,2.26988427734375,0.0003457716666162014,-0.0029660973232239485,0.0006517015863209963
1761466842797867300,2.2798671875,0.0031018771696835756,-0.0016877800226211548,-0.00023939204402267933
1761466842807851300,2.289851318359375,-0.0006973836570978165,0.00218106247484684,0.002419601660221815
1761466842817834200,2.299834228515625,0.0020454057957977057,0.002745120320469141,-0.0005919006653130054
1761466842827818200,2.309818359375,-0.00003966735675930977,-0.0043535358272492886,-0.002809993689879775
1761466842837801200,2.31980126953125,0.0009851166978478432,-0.0015082147438079119,-0.003018519375473261
1761466842847785200,2.32978515625,-0.0018563945777714252,-0.0006683876272290945,0.0009988315869122744
1761466842857768200,2.339768310546875,0.00004270533099770546,0.00251062773168087,0.00023104227147996426
1761466842867752200,2.349752197265625,0.00044582923874258995,0.003435808699578047,0.0018997800070792437
1761466842877735200,2.359735107421875,-0.00020478107035160065,0.0013172640465199947,-0.00000624428503215313
1761466842887719200,2.36971923828125,0.0030119498260319233,0.005209940019994974,0.003209054935723543
1761466842897702100,2.3797021484375,-0.00008610542863607407,0.003411240875720978,0.002975761890411377
1761466842907686100,2.38968603515625,-0.0001979549415409565,-0.00010612769983708858,0.00003906874917447567
1761466842917669400,2.39966943359375,0.0026731989346444607,0.00033569103106856346,-0.001504233106970787
1761466842927653400,2.4096533203125,-0.002887217327952385,0.0002180449664592743,-0.0009642643854022026
1761466842937636000,2.419635986328125,0.0003061797469854355,-0.004751147236675024,-0.0024524389300495386
1761466842947620000,2.4296201171875,-0.0012462683953344822,-0.0029399332124739885,-0.0020762942731380463
1761466842957603300,2.439603271484375,-0.00011549005284905434,-0.0017737348098307848,-0.00047813146375119686
1761466842967587300,2.44958740234375,0.000553671270608902,-0.001170264557003975,-0.0029427811969071627
1761466842977570300,2.4595703125,-0.0011230548843741417,-0.00040167616680264473,-0.0024684721138328314
1761466842987554300,2.46955419921875,0.00030537741258740425,-0.002817827742546797,-0.001405524555593729
1761466842997537000,2.479537109375,0.0028617456555366516,-0.00014641089364886284,-0.001678498461842537
1761466843007521300,2.489521240234375,0.0003861687146127224,0.00020007044076919556,-0.00027383887208998203
1761466843017504300,2.499504150390625,0.0011417074128985405,0.0021324600093066692,0.00043908925727009773
1761466843027488300,2.50948828125,-0.00005999859422445297,0.003795471042394638,-0.0018631336279213428
1761466843037471200,2.51947119140625,-0.0041362326592206955,-0.0019313906086608768,0.0002735205926001072
1761466843047455200,2.529455322265625,-0.002903651911765337,0.001143481582403183,-0.001461746054701507
1761466843057438200,2.539438232421875,-0.002382471691817045,-0.0002674609422683716,-0.00006518443115055561
1761466843067422200,2.549422119140625,0.00038891471922397614,-0.002994060516357422,-0.0002945195883512497
1761466843077405200,2.5594052734375,0.0018834806978702545,-0.0034057851880788803,-0.000756311696022749
1761466843087389200,2.56938916015625,-0.0029456266202032566,-0.00026818038895726204,-0.002529736841097474
1761466843097372400,2.579372314453125,0.0009710849262773991,0.00016005570068955421,0.00024421163834631443
1761466843107356400,2.5893564453125,-0.0009836782701313496,0.002055026590824127,-0.0014687072252854705
1761466843117339100,2.599339111328125,0.0003835884854197502,0.000218244269490242,0.0004133486654609442
1761466843127323100,2.6093232421875,0.0013655899092555046,-0.0030791466124355793,-0.0011961318086832762
1761466843137306000,2.61930615234375,-0.0006621410138905048,0.003245594911277294,-0.0011985288001596928
1761466843147290000,2.6292900390625,0.0019705663435161114,0.0028598341159522533,0.00029590330086648464
1761466843157273300,2.6392734375,-0.002953618299216032,-0.0007189218886196613,-0.00017148139886558056
1761466843167257300,2.64925732421875,0.000833394005894661,-0.0022701481357216835,-0.002459523268043995
1761466843177240000,2.659239990234375,0.0007148836739361286,0.001006605103611946,-0.0012664271052926779
1761466843187224000,2.66922412109375,-0.0025622202083468437,0.0008787764236330986,0.0005509678740054369
1761466843197207300,2.679207275390625,0.0009622075594961643,-0.002282928442582488,-0.0013936720788478851
1761466843207191300,2.68919140625,0.002230837009847164,-0.004542029928416014,-0.0017528951866552234
1761466843217174300,2.69917431640625,-0.001193721778690815,-0.0027414667420089245,-0.0008029455784708261
1761466843227158300,2.709158203125,0.0011643324978649616,-0.00024741399101912975,0.00037086987867951393
1761466843237141200,2.719141357421875,0.0008735149167478085,-0.002625350607559085,0.00036794040352106094
1761466843247125200,2.729125244140625,-0.00006107194349169731,0.0016122753731906414,0.001372006256133318
1761466843257108200,2.739108154296875,0.0002321423962712288,-0.0006775103975087404,0.0012047598138451576
1761466843267092200,2.74909228515625,0.0006451909430325031,0.0036847409792244434,-0.0004199831746518612
1761466843277075200,2.7590751953125,-0.0008981111459434032,-0.00040986924432218075,-0.0005382273811846972
1761466843287059200,2.76905908203125,0.0015354915522038937,-0.0008422948885709047,-0.0010665040463209152
1761466843297042200,2.779042236328125,-0.001522882841527462,0.0029681562446057796,-0.000860108993947506
1761466843307026200,2.789026123046875,-0.0006272722966969013,0.0018531465902924538,-0.0004444587975740433
1761466843317009200,2.799009033203125,-0.001545796636492014,-0.0060282121412456036,-0.0009533888660371304
1761466843326993200,2.8089931640625,-0.0013932804577052593,-0.002625751309096813,0.0004991542082279921
1761466843336976400,2.818976318359375,-0.0003410656936466694,-0.000603080727159977,-0.0007983378600329161
1761466843346960400,2.82896044921875,-0.0022587268613278866,-0.010455386713147163,-0.0026062671095132828
1761466843356943000,2.838943115234375,0.0007075020112097263,-0.001230729976668954,0.00024517951533198357
1761466843366927000,2.848927001953125,0.001040130853652954,-0.003558066440746188,-0.00038359290920197964
1761466843376910300,2.858910400390625,0.0010358826257288456,-0.00009175995364785194,0.0021984621416777372
1761466843386894300,2.868894287109375,0.0007250183261930943,-0.0031388849020004272,0.0010675634257495403
1761466843396877300,2.878877197265625,-0.00197835685685277,0.0026654745452106,-0.00005495874211192131
1761466843406861300,2.888861328125,0.0005850787274539471,0.0022046901285648346,0.00153885199688375
1761466843416844000,2.898843994140625,0.0007209000177681446,-0.0003649939317256212,0.00005440623499453068
1761466843426828000,2.908828125,-0.001580953598022461,0.004675105679780245,-0.001738127670250833
1761466843436811300,2.918811279296875,0.0009429240599274635,-0.0004541429225355387,-0.004667871166020632
1761466843446795300,2.928795166015625,-0.001963246613740921,-0.00006552250124514103,-0.0024122940376400948
1761466843456778200,2.9387783203125,-0.004108688794076443,-0.0008508886676281691,-0.0012082788161933422
1761466843466762200,2.94876220703125,0.0005557332187891006,-0.0015342559199780226,-0.00030147237703204155
1761466843476745200,2.9587451171875,-0.002038718666881323,-0.0056325942277908325,-0.0027555753476917744
1761466843486729200,2.968729248046875,0.0005264035426080227,-0.00964624434709549,-0.002650646958500147
1761466843496712200,2.978712158203125,0.0005341265350580215,-0.000598154729232192,0.0002537965774536133
1761466843506696200,2.9886962890625,-0.0006547011435031891,0.0015767230652272701,0.00013531465083360672
1761466843516679200,2.99867919921875,0.003202088875696063,-0.0050002196803689,-0.002690299181267619
1761466843526663400,3.008663330078125,0.00044498639181256294,0.00048042554408311844,0.0017720647156238556
1761466843536650000,3.01864990234375,-0.0006849928759038448,0.005149745848029852,0.0004173147026449442
1761466843546634000,3.028634033203125,-0.002604359295219183,0.0011830870062112808,-0.0016378764994442463
1761466843556616700,3.03861669921875,-0.00015238719061017036,0.003799376543611288,0.0005272733978927135
1761466843566600700,3.0486005859375,-0.000273057259619236,0.005040687043219805,0.0019727868493646383
1761466843576584000,3.058583984375,0.00027395598590373993,0.0009045321494340897,-0.0013391203247010708
1761466843586568000,3.06856787109375,0.0010682460851967335,0.0019138753414154053,0.0019435468129813671
1761466843596551000,3.078551025390625,-0.00028943363577127457,0.0037362761795520782,0.001153653021901846
1761466843606535000,3.088534912109375,-0.0006717364303767681,0.0019325120374560356,-0.0007883785292506218
1761466843616518000,3.098517822265625,-0.0007518976926803589,0.002850770018994808,-0.00016812840476632118
1761466843626502000,3.108501953125,-0.00045094918459653854,-0.0037970126140862703,-0.002075218129903078
1761466843636484900,3.11848486328125,0.0007115206681191921,-0.0035056627821177244,-0.0014701478648930788
1761466843646468900,3.12846875,0.00031139468774199486,-0.0014429164584726095,-0.001718595391139388
1761466843656451800,3.138451904296875,-0.0007445486262440681,-0.003857071977108717,-0.0011840991210192442
1761466843666435800,3.148435791015625,0.0017451071180403233,-0.0007282521110028028,-0.001753508229739964
1761466843676418800,3.158418701171875,0.00003375997766852379,0.0011538038961589336,-0.0013002380728721619
1761466843686402800,3.16840283203125,-0.001315878238528967,-0.0007932279258966446,-0.0016378721920773387
1761466843696385800,3.1783857421875,0.000005582347512245178,0.005328048020601273,0.0020516710355877876
1761466843706369800,3.188369873046875,-0.0010011238045990467,-0.003935043700039387,-0.0010142039973288774
1761466843716353000,3.19835302734375,-0.0006863381713628769,-0.0006713396869599819,-0.00002856808714568615
1761466843726337000,3.2083369140625,-0.002161550335586071,0.002094235736876726,0.00012395461089909077
1761466843736319700,3.21831982421875,-0.001590035855770111,0.00277893478050828,0.002102150581777096
1761466843746303700,3.2283037109375,0.0027055800892412663,-0.002959654200822115,-0.0009199534542858601
1761466843756287000,3.238286865234375,-0.0001674382947385311,-0.0016981149092316628,0.0007226844318211079
1761466843766271000,3.24827099609375,0.0011292234994471073,0.003649126272648573,0.0013540429063141346
1761466843776254000,3.25825390625,-0.002144866157323122,-0.00697662029415369,-0.0012915411498397589
1761466843786238000,3.268238037109375,0.0010917210020124912,-0.0026847338303923607,-0.0001396522857248783
1761466843796220700,3.278220703125,-0.000770095270127058,0.002559829503297806,0.0009122963529080153
1761466843806204000,3.288203857421875,-0.0019905120134353638,-0.00013196025975048542,-0.00047436426393687725
1761466843816188000,3.29818798828125,-0.0016397740691900253,-0.001585779944434762,-0.0008711752016097307
1761466843826172000,3.308171875,-0.000508476048707962,0.001915537752211094,-0.0005870878230780363
1761466843836155000,3.31815478515625,0.0006294925697147846,0.0043765646405518055,0.00017590774223208427
1761466843846139000,3.328138916015625,-0.0005676131695508957,0.0008317013271152973,0.002120749093592167
1761466843856121900,3.338121826171875,0.0018113884143531322,-0.0022359942086040974,-0.0013472193386405706
1761466843866104800,3.348104736328125,0.0006444617174565792,0.00667800847440958,0.003491878742352128
1761466843876088800,3.3580888671875,0.0006655007600784302,-0.00008082762360572815,0.0015464394818991423
1761466843886071800,3.36807177734375,0.0005655824206769466,-0.004385167267173529,-0.005215088836848736
1761466843896056000,3.37805615234375,0.0005418802611529827,-0.0009648697450757027,-0.002505322452634573
1761466843906038800,3.388038818359375,0.00092360470443964,-0.00025298562832176685,0.0008574805688112974
1761466843916022800,3.398022705078125,-0.000038329046219587326,-0.0015901587903499603,-0.000865850830450654
1761466843926005800,3.408005859375,0.00045285141095519066,-0.0005614776164293289,-0.0013364502228796482
1761466843935989800,3.41798974609375,0.0005346108227968216,-0.001473077805712819,-0.0005465566646307707
1761466843945973000,3.427972900390625,-0.002868498209863901,0.0015641935169696808,-0.0005455648060888052
1761466843955957000,3.43795703125,0.002744646742939949,0.00311095779761672,-0.0003756552468985319
1761466843965939700,3.447939697265625,0.0005459482781589031,0.002427911851555109,0.0008835657499730587
1761466843975923700,3.457923828125,0.002904710127040744,0.0016864878125488758,-0.0016347194323316216
1761466843985907000,3.467906982421875,0.0017325733788311481,0.003394774626940489,0.0023516593500971794
1761466843995891000,3.477890869140625,-0.0010054227896034718,0.0027177990414202213,-0.0028132752049714327
1761466844005874000,3.4878740234375,0.00017567072063684464,0.0006660525687038898,-0.00029969075694680214
1761466844015858000,3.49785791015625,0.00004996964707970619,-0.0033750280272215605,-0.004125854000449181
1761466844025840600,3.507840576171875,0.0008129943162202835,-0.0034121889621019363,-0.0007056635804474354
1761466844035825000,3.517824951171875,0.00025852397084236145,-0.005084121599793434,0.00030900072306394577
1761466844045807900,3.527807861328125,-0.0007442478090524673,-0.0006197239272296429,-0.0006947012152522802
1761466844055791900,3.5377919921875,0.0028944292571395636,-0.0020421184599399567,-0.0008776604663580656
1761466844065774800,3.54777490234375,0.000592655036598444,0.00520086707547307,-0.000701903598383069
1761466844075758800,3.5577587890625,0.00047307880595326424,0.0014428808353841305,0.0013207669835537672
1761466844085741800,3.567741943359375,-0.0018833098001778126,-0.0016095628961920738,-0.003817798336967826
1761466844095725800,3.577725830078125,-0.0026119505055248737,-0.002969905501231551,-0.002694210736081004
1761466844105708800,3.587708740234375,-0.0005335863679647446,-0.0019606887362897396,-0.001597110298462212
1761466844115692800,3.59769287109375,0.000045917462557554245,-0.002117815427482128,0.0011222437024116516
1761466844125676000,3.607676025390625,-0.00017468445003032684,0.0032722102478146553,-0.0008921022526919842
1761466844135660000,3.617659912109375,0.0042413691990077496,0.004220828413963318,0.0007193766068667173
1761466844145642800,3.627642822265625,0.0022441816981881857,0.008122621104121208,0.0011264721397310495
1761466844155626800,3.637626708984375,0.0027877329848706722,0.0005880058743059635,0.00015867967158555984
1761466844165609700,3.647609619140625,-0.00037583569064736366,-0.0008533536456525326,0.0017940329853445292
1761466844175593700,3.65759375,-0.0023857238702476025,-0.004276048392057419,-0.001937322085723281
1761466844185577000,3.667576904296875,-0.0008546663448214531,-0.0020567632745951414,-0.0009173031430691481
1761466844195561000,3.67756103515625,-0.0014235177077353,-0.004362794570624828,-0.0015540649183094501
1761466844205543700,3.687543701171875,-0.0005766609683632851,-0.002463255077600479,-0.0010165406856685877
1761466844215527700,3.697527587890625,0.0024857078678905964,-0.0008869301527738571,0.0018996205180883408
1761466844225511000,3.707510986328125,-0.0019617420621216297,-0.0007766573689877987,-0.000969702610746026
1761466844235495000,3.717494873046875,-0.0012413570657372475,0.002158944960683584,-0.0008085812442004681
1761466844245478000,3.727477783203125,0.0018872846849262714,-0.0032324818894267082,0.00035602436400949955
1761466844255462000,3.7374619140625,-0.0034691309556365013,-0.0042514074593782425,-0.002584904432296753
1761466844265444900,3.74744482421875,0.0015035830438137054,0.0012798411771655083,-0.000523322494700551
1761466844275428900,3.757428955078125,0.00046015670523047447,0.0038580475375056267,0.0028943121433258057
1761466844285411800,3.767411865234375,0.0003373855724930763,0.002450305037200451,0.0011008360888808966
1761466844295395800,3.777395751953125,0.0009784083813428879,0.0023091575130820274,0.0024222966749221087
1761466844305378800,3.78737890625,-0.0028256233781576157,0.004037201404571533,-0.0006654162425547838
1761466844315362800,3.79736279296875,0.00013661058619618416,0.0063802506774663925,0.002252076519653201
1761466844325345800,3.807345703125,-0.001163325272500515,-0.0009213930461555719,-0.0005535674281418324
1761466844335329800,3.817329833984375,-0.0019441638141870499,-0.003539812983945012,-0.0014766191598027945
1761466844345312800,3.827312744140625,0.0004301290027797222,0.0010242951102554798,-0.0022794194519519806
1761466844355296800,3.837296875,-0.00018932251259684563,0.0019018063321709633,0.0016271714121103287
1761466844365280000,3.847280029296875,0.0015232451260089874,0.0012625306844711304,-0.0008144003804773092
1761466844375264000,3.857263916015625,0.001321909949183464,0.004054855089634657,0.0010548722930252552
1761466844385246700,3.867246826171875,0.0007865144871175289,-0.003445741720497608,-0.002931857481598854
1761466844395229700,3.877229736328125,0.00021979399025440216,-0.0003615347668528557,-0.0010332900565117598
1761466844405214000,3.8872138671875,-0.0015874272212386131,0.002995581366121769,0.0005098660476505756
1761466844415198000,3.897197998046875,0.0008413759060204029,-0.0014548271428793669,-0.00043022981844842434
1761466844425181000,3.907180908203125,0.0003466247580945492,-0.0032715066336095333,-0.0010672325734049082
1761466844435164000,3.917163818359375,0.00004595378413796425,0.004068165551871061,0.0010877973400056362
1761466844445147600,3.927147705078125,-0.0010522431693971157,-0.0011774601880460978,-0.00171288859564811
1761466844455131000,3.937130859375,-0.00005994923412799835,-0.0011596169788390398,-0.0001397593878209591
1761466844465115000,3.947114990234375,-0.0027832058258354664,-0.0018521678866818547,-0.0017269094241783023
1761466844475097900,3.957097900390625,-0.0003109932877123356,-0.0059166839346289635,-0.0008888125885277987
1761466844485081900,3.967081787109375,0.0011281040497124195,-0.00467733945697546,-0.0008554623927921057
1761466844495065000,3.977065185546875,0.0017414302565157413,0.004896991420537233,0.004384040832519531
1761466844505048800,3.987048828125,0.003440973348915577,0.0053687309846282005,0.0034330193884670734
1761466844515030800,3.99703076171875,-0.0020248987711966038,-0.0013498917687684298,-0.0013050106354057789
1761466844525014000,4.007013916015625,0.0015973304398357868,-0.0011397053021937609,-0.0008392378222197294
1761466844534996700,4.016996826171875,-0.00007460219785571098,-0.003088872879743576,0.0007080589421093464
1761466844544977700,4.026977783203125,0.00016446644440293312,-0.0019551613368093967,-0.0006421096622943878
1761466844554960600,4.036960693359375,0.0005154712125658989,-0.001495233504101634,-0.0007723381277173758
1761466844564944600,4.046944580078125,0.0009622504003345966,-0.0030800895765423775,0.00057005207054317
1761466844574928000,4.056927978515625,0.0016938205808401108,0.004271832760423422,0.0020702111069113016
1761466844584911600,4.06691162109375,0.00008154287934303284,-0.0038505420088768005,-0.002183656208217144
1761466844594894600,4.07689453125,0.0006780908443033695,-4.100147634744644e-7,0.0007274451199918985
1761466844604878600,4.086878662109375,0.0007994393818080425,0.0007671094499528408,0.0003477840218693018
1761466844614861800,4.09686181640625,-0.000055701471865177155,-0.0013455760199576616,-0.0019140386721119285
1761466844624845800,4.106845703125,0.003403108101338148,0.000044137006625533104,0.002215714193880558
1761466844634828800,4.116828857421875,-0.00033224141225218773,0.00203271908685565,-0.001369166886433959
1761466844644812500,4.1268125,0.0012188530527055264,0.0003182864747941494,-0.0020029782317578793
1761466844654795500,4.13679541015625,0.0018803821876645088,0.0039740074425935745,-0.00006046844646334648
1761466844664779800,4.14677978515625,-0.001299689058214426,-0.0009919758886098862,-0.0018536251736804843
1761466844674762800,4.1567626953125,0.00022736750543117523,-0.0069920774549245834,-0.002715157810598612
1761466844684746800,4.166746826171875,0.0008059809915721416,-0.0025555219035595655,-0.001555245486088097
1761466844694729700,4.176729736328125,-0.00015728408470749855,-0.0009909148793667555,-0.0013685580343008041
1761466844704713500,4.18671337890625,0.00043998192995786667,-0.004070383962243795,0.0002952944487333298
1761466844714696700,4.19669677734375,0.0008053677156567574,-0.005875208415091038,-0.0027825208380818367
1761466844724680700,4.2066806640625,-0.0005174209363758564,0.004789023660123348,-0.00007091579027473927
1761466844734663700,4.21666357421875,-0.0008556423708796501,0.005802889354526997,0.002595440950244665
1761466844744647700,4.226647705078125,-0.001433288212865591,-0.0028844147454947233,-0.0012047186028212309
1761466844754631000,4.236630859375,0.0005973717197775841,-0.0015368552412837744,-0.003060675458982587
1761466844764614700,4.24661474609375,0.0017317039892077446,0.008459323085844517,0.004560471512377262
1761466844774597600,4.25659765625,-0.0002507530152797699,-0.002990405773743987,0.00017610960640013218
1761466844784581600,4.26658154296875,-0.0005871136672794819,-0.0024328771978616714,-0.0006429089698940516
1761466844794564600,4.276564697265625,-0.0014861966483294964,0.0026513636112213135,-0.0005326541140675545
1761466844804548900,4.286548828125,-0.0018276316113770008,-0.0003543710336089134,0.000034003984183073044
1761466844814531800,4.29653173828125,-0.0003216140903532505,-0.0009695612825453281,-0.0009343214333057404
1761466844824515600,4.306515625,-0.0022149020805954933,-0.003429827280342579,0.0011511528864502907
1761466844834498600,4.31649853515625,-0.0015949183143675327,-0.0026907999999821186,-0.000525306910276413
1761466844844482600,4.326482666015625,-0.0007532201707363129,-0.0009387210011482239,-0.0011595436371862888
1761466844854465800,4.3364658203125,0.000824968796223402,0.005715719889849424,0.002993123373016715
1761466844864449800,4.34644970703125,-0.0002886704169213772,0.0038078264333307743,-0.0016289196209982038
1761466844874432800,4.356432861328125,0.0004623411223292351,0.0007643657736480236,0.00313600804656744
1761466844884416500,4.36641650390625,0.002123724902048707,0.0015539978630840778,-0.0012179219629615545
1761466844894399700,4.376399658203125,0.0009790980257093906,0.004062429536134005,-0.0004975369665771723
1761466844904383700,4.3863837890625,0.0004195701330900192,0.002543831244111061,0.00024613807909190655
1761466844914366700,4.39636669921875,0.0007623187266290188,-0.00462140329182148,-0.0013853145064786077
1761466844924350700,4.406350830078125,-0.000667184591293335,-0.005274938885122538,-0.0025867721997201443
1761466844934333700,4.416333740234375,-0.0007409541867673397,0.002549960743635893,0.000784256961196661
1761466844944317700,4.426317626953125,0.0019247024320065975,-0.0011930384207516909,-0.0016340641304850578
1761466844954300700,4.43630078125,-0.00041062338277697563,-0.004063127096742392,-0.00012911180965602398
1761466844964283600,4.44628369140625,-0.0001743570901453495,0.0002283286303281784,0.0018195027951151133
1761466844974267600,4.456267578125,0.00302037107758224,-0.0025120640639215708,0.0031984879169613123
1761466844984251000,4.4662509765625,-0.0009906282648444176,0.0006183772347867489,0.0000205175019800663
1761466844994235000,4.47623486328125,0.0011830436997115612,0.004826171789318323,0.000893767923116684
1761466845004217600,4.486217529296875,0.0004704035818576813,-0.0012054876424372196,0.0025577915366739035
1761466845014201600,4.49620166015625,0.0011681518517434597,0.002301096450537443,0.0029916202183812857
1761466845024184600,4.5061845703125,-0.0006229761056602001,0.002413212787359953,0.0028042395133525133
1761466845034168800,4.5161689453125,-0.0007039359770715237,0.0004517948254942894,0.0002457406371831894
1761466845044151800,4.52615185546875,0.00025147292762994766,-0.0002976981922984123,0.00046945689246058464
1761466845054135800,4.5361357421875,0.001213673036545515,0.004779085982590914,0.0044599371030926704
1761466845064118500,4.546118408203125,-0.0015009590424597263,0.001452531199902296,0.0019823985639959574
1761466845074102500,4.5561025390625,0.0017472985200583935,0.0010250937193632126,0.002125410595908761
1761466845084085800,4.566085693359375,-0.0006398381665349007,0.0015792343765497208,0.0014605396427214146
1761466845094069800,4.57606982421875,0.0013918871991336346,0.0042581078596413136,0.0022190078161656857
1761466845104053800,4.5860537109375,-0.00126162962988019,0.006646953988820314,0.00195556553080678
1761466845114037800,4.596037841796875,0.0008995253592729568,-0.000133453868329525,0.0002319677732884884
1761466845124020700,4.606020751953125,0.0012507084757089615,0.0022503859363496304,0.002250839024782181
1761466845134004500,4.61600439453125,0.00040914956480264664,0.0018551726825535297,0.0019040950573980808
1761466845143987700,4.62598779296875,0.0018668263219296932,0.0022577447816729546,0.002558148931711912
1761466845153971700,4.6359716796875,0.0014705481007695198,0.0035491115413606167,0.0032122209668159485
1761466845163954700,4.64595458984375,0.0016704192385077477,0.007728481665253639,0.003000700380653143
1761466845173938700,4.655938720703125,0.004496566019952297,0.006068799644708633,0.0046859486028552055
1761466845183922000,4.665921875,0.002291204873472452,0.012939589098095894,0.0027439910918474197
1761466845193905700,4.67590576171875,0.0036392968613654375,0.014571841806173325,0.0032878085039556026
1761466845203888600,4.685888671875,0.004248511046171188,0.011825141496956348,0.004660658538341522
1761466845213872600,4.69587255859375,0.002327306428924203,0.014868336729705334,0.0027442481368780136
1761466845223855600,4.705855712890625,0.00042258482426404953,0.012068361043930054,0.0029524420388042927
1761466845233839900,4.71583984375,-0.0020187348127365112,0.00283917598426342,0.0021620159968733788
1761466845243822800,4.72582275390625,-0.000751829706132412,-0.002988281426951289,-0.0011662018951028585
1761466845253806600,4.735806640625,-0.0013720798306167126,-0.008064532652497292,-0.0007603361736983061
1761466845263789600,4.74578955078125,0.001756114885210991,-0.008808420971035957,-0.0007092435844242573
1761466845273772800,4.755772705078125,0.002047730842605233,-0.006438207812607288,-0.0014653149992227554
1761466845283756800,4.7657568359375,0.00030561303719878197,-0.00720407348126173,-0.0015204570954665542
1761466845293739800,4.77573974609375,0.003123237518593669,-0.006077556870877743,-0.0002956693060696125
1761466845303723800,4.785723876953125,-0.00009377207607030869,-0.006181555334478617,-0.000681642210111022
1761466845313706800,4.795706787109375,-0.003046685364097357,-0.003288030857220292,-0.0002307689283043146
1761466845323690800,4.805690673828125,-0.002719566226005554,0.0008145580068230629,-0.0005826277192682028
1761466845333673700,4.815673828125,0.0008200407028198242,-0.0018704411340877414,-0.0025922490749508142
1761466845343657700,4.82565771484375,-0.0007904451340436935,0.0015938221476972103,-0.0016092713922262192
1761466845353640700,4.835640625,-0.0012413179501891136,0.011732742190361023,0.0012371153570711613
1761466845363624700,4.845624755859375,0.0009617311879992485,0.004115561954677105,-0.0015214423183351755
1761466845373607700,4.855607666015625,-0.00016478588804602623,0.0038689528591930866,0.0002245260402560234
1761466845383591700,4.865591796875,-0.00009786617010831833,0.00469231279566884,0.0009895004332065582
1761466845393574700,4.87557470703125,-0.003103243187069893,0.0008650841191411018,-0.002197237918153405
1761466845403558700,4.88555859375,0.0006103678606450558,-0.0008416511118412018,0.0009756428189575672
1761466845413542000,4.8955419921875,-0.0014285482466220856,0.0006846063770353794,-0.0014201367739588022
1761466845423526000,4.90552587890625,0.0007247966714203358,-0.0042093489319086075,0.00012005004100501537
1761466845433508600,4.915508544921875,0.00028670672327280045,-0.00436035031452775,-0.00022642710246145725
1761466845443492600,4.92549267578125,0.0004051150754094124,-0.0013062588404864073,-0.0005093666259199381
1761466845453475800,4.935475830078125,0.002906356006860733,-0.0025081434287130833,0.0020651111844927073
1761466845463459800,4.9454599609375,-0.0011949911713600159,-0.003072518389672041,0.0014647450298070908
1761466845473442800,4.95544287109375,-0.0016088462434709072,-0.0010421243496239185,-0.0023699405137449503
1761466845483426800,4.9654267578125,0.001284938771277666,-0.0019019339233636856,-0.0023909546434879303
1761466845493409500,4.975409423828125,-0.002235494088381529,0.0009873295202851295,0.0012277483474463224
1761466845503393500,4.9853935546875,0.00083584850654006,-0.001854519359767437,0.002027818001806736
1761466845513376800,4.995376708984375,0.00046833232045173645,0.0017423462122678757,-0.0005597095005214214
1761466845523360800,5.00536083984375,-0.0012423861771821976,0.005199539475142956,0.0012015746906399727
1761466845533343700,5.01534375,0.0015917499549686909,0.004971040412783623,-0.0007284183520823717
1761466845543327500,5.025327392578125,0.0006560748443007469,-0.0009205651003867388,-0.005342697724699974
1761466845553310700,5.035310791015625,-0.00009040907025337219,-0.001674506114795804,-0.004215913824737072
1761466845563293400,5.04529345703125,-0.00045258691534399986,-0.0047363885678350925,-0.004430226981639862
1761466845573277400,5.05527734375,-0.002465936355292797,-0.008575068786740303,-0.004164443351328373
1761466845583260400,5.065260498046875,-0.0005828919820487499,-0.01370796374976635,-0.004057766869664192
1761466845593244700,5.07524462890625,-0.00163590582087636,-0.01322593167424202,-0.0031360469292849302
1761466845603227600,5.0852275390625,-0.0029008258134126663,-0.010784021578729153,-0.004055279307067394
1761466845613211600,5.095211669921875,0.000036640558391809464,-0.014376891776919365,-0.0028022618498653173
1761466845623194400,5.1051943359375,-0.0014602416194975376,-0.010295277461409569,-0.002560622990131378
1761466845633178400,5.115178466796875,0.00007853284478187561,0.00003725476562976837,-0.002560356631875038
1761466845643161600,5.12516162109375,0.0010232399217784405,0.006945155095309019,0.0016775971744209528
1761466845653145600,5.1351455078125,0.002932460280135274,0.0005935155786573887,0.0001910205464810133
1761466845663128600,5.145128662109375,0.001104558352380991,0.005741144996136427,0.0021067929919809103
1761466845673112600,5.155112548828125,0.0006952304393053055,0.009888218715786934,0.00273503246717155
1761466845683095600,5.165095458984375,-0.00002587307244539261,0.008563613519072533,0.00017129722982645035
1761466845693079600,5.17507958984375,0.0025198424700647593,0.007434433326125145,0.0012157887686043978
1761466845703062500,5.1850625,0.0006581209599971771,0.00991884060204029,0.0022019732277840376
1761466845713046500,5.195046630859375,0.0005633123219013214,0.0014686300419270992,-0.003348054364323616
1761466845723029500,5.205029541015625,0.0012077917344868183,-0.003340647555887699,-0.002874520141631365
1761466845733013500,5.215013427734375,-0.0007051564753055573,-0.0032594213262200356,-0.0021591950207948685
1761466845742996500,5.22499658203125,0.0011467109434306622,-0.005898292642086744,-0.0027653463184833527
1761466845752980500,5.23498046875,0.0004801219329237938,-0.00998331606388092,-0.00523383030667901
1761466845762963500,5.24496337890625,0.0013026106171309948,-0.006024031899869442,-0.0036649955436587334
1761466845772947500,5.254947509765625,0.0015683937817811966,-0.0113932304084301,-0.0044548893347382545
1761466845782930700,5.2649306640625,-0.004328912124037743,-0.008137187920510769,-0.004738902673125267
1761466845792914700,5.274914794921875,0.0017801132053136826,-0.008480468764901161,-0.0012067521456629038
1761466845802897700,5.284897705078125,-0.001145463902503252,0.001056899782270193,-0.00273329159244895
1761466845812881400,5.29488134765625,0.0011496483348309994,0.0018638377077877522,-0.0013215499930083752
1761466845822864600,5.30486474609375,0.002263993490487337,0.002959510311484337,0.00022769952192902565
1761466845832847600,5.31484765625,-0.0000902409665286541,0.0027541806921362877,-0.0020567600149661303
1761466845842831600,5.32483154296875,-0.00015495577827095985,0.006960643921047449,0.0004809661768376827
1761466845852814600,5.334814697265625,0.0005688914097845554,0.00498058320954442,0.001520664431154728
1761466845862798600,5.344798583984375,0.0007052584551274776,-0.000426208833232522,-0.0035842766519635916
1761466845872781600,5.354781494140625,0.0021742582321166992,-0.002917063422501087,-0.004672710783779621
1761466845882765600,5.364765625,-0.00094227259978652,-0.0016822423785924911,-0.0019948938861489296
1761466845892748500,5.37474853515625,0.001969893928617239,0.00022404827177524567,-0.0036604348570108414
1761466845902732500,5.384732666015625,0.0006042351014912128,-0.0016848864033818245,-0.001176286954432726
1761466845912715800,5.3947158203125,0.00007852679118514061,-0.002182897413149476,-0.0022868250962346792
1761466845922699800,5.40469970703125,0.0019717682152986526,-0.007452494464814663,-0.0033624758943915367
1761466845932682500,5.4146826171875,-0.0005848663859069347,0.00026135193184018135,-0.0024085314944386482
1761466845942666500,5.42466650390625,0.0022603734396398067,-0.002493944251909852,-0.0005932652857154608
1761466845952649500,5.4346494140625,-0.0027306564152240753,0.00037854118272662163,-0.002232973463833332
1761466845962633700,5.4446337890625,0.00047746114432811737,-0.0017390295397490263,-0.0021385832224041224
1761466845972616700,5.45461669921875,-0.0009225630201399326,0.002600325271487236,0.0009144647046923637
1761466845982600700,5.4646005859375,0.0011642854660749435,0.002880878746509552,0.0017158335540443659
1761466845992583400,5.47458349609375,0.0001171305775642395,-0.00004380475729703903,0.0008457789663225412
1761466846002567400,5.4845673828125,-0.0018828879110515118,-0.00008944887667894363,-0.0008203680627048016
1761466846012550700,5.494550537109375,-0.002595283091068268,-0.000777876004576683,-0.0008784248493611813
1761466846022534700,5.50453466796875,-0.0023501813411712646,-0.0042333221063017845,-0.0027129154186695814
1761466846032517600,5.514517578125,-0.002769096754491329,-0.0022087872494012117,0.00034173019230365753
1761466846042500600,5.52450048828125,0.002038532169535756,-0.0006148179527372122,-0.001408991520293057
1761466846052484600,5.534484619140625,0.0028577204793691635,-0.0035285823978483677,0.00006613344885408878
1761466846062467600,5.544467529296875,-0.0009529395028948784,-0.0014843314420431852,-0.0005784314125776291
1761466846072451600,5.55445166015625,0.0003352314233779907,-0.003129366086795926,-0.000747808488085866
1761466846082434600,5.5644345703125,-0.0019277269020676613,-0.0032214743550866842,-0.0018948233919218183
1761466846092418600,5.57441845703125,-0.002924813888967037,-0.0024281186051666737,-0.000016229692846536636
1761466846102401500,5.584401611328125,-0.0008873911574482918,-0.001149575924500823,-0.0010991052258759737
1761466846112385500,5.594385498046875,-0.0007731416262686253,0.0027668685652315617,0.00228683790192008
1761466846122368500,5.604368408203125,0.0009942115284502506,-0.0013561847154051065,-0.0016881059855222702
1761466846132352500,5.6143525390625,-0.000042290426790714264,0.0006145546212792397,-0.0010902262292802334
1761466846142335700,5.624335693359375,-0.0014653992839157581,0.0022733639925718307,0.0012651379220187664
1761466846152319700,5.63431982421875,0.0010009543038904667,0.003570323344320059,0.00006724800914525986
1761466846162302500,5.644302490234375,-0.000504631083458662,0.0008639302104711533,-0.00022009853273630142
1761466846172286500,5.654286376953125,-0.0022316905669867992,0.0004902887158095837,-0.0011138555128127337
1761466846182269700,5.664269775390625,0.003251420333981514,0.0022964770905673504,-0.0006328814197331667
1761466846192253700,5.674253662109375,0.0003264704719185829,0.0027859662659466267,-0.001618783688172698
1761466846202236700,5.684236572265625,0.001963258720934391,-0.0011653518304228783,0.0017471355386078358
1761466846212220700,5.694220703125,0.0004979874938726425,-0.003933175001293421,-0.0013943292433395982
1761466846222203400,5.704203369140625,-0.0015455479733645916,-0.00022312975488603115,-0.0010549365542829037
1761466846232187400,5.7141875,0.0016518430784344673,-0.0034900293685495853,-0.0004543936811387539
1761466846242170600,5.724170654296875,0.0009785867296159267,-0.0033052214421331882,0.0002940038684755564
1761466846252154600,5.734154541015625,-0.0004898803308606148,-0.00345968478359282,0.0021105457562953234
1761466846262137600,5.7441376953125,0.00017378246411681175,-0.001540432684123516,-0.0005656559951603413
1761466846272120600,5.75412060546875,-0.00014792708680033684,-0.001341494731605053,0.0013078777119517326
1761466846282104600,5.7641044921875,-0.00043478328734636307,0.0010319966822862625,-0.0008880682289600372
1761466846292087600,5.774087646484375,0.0007633729837834835,0.0018668975681066513,0.0002099531702697277
1761466846302071600,5.784071533203125,-0.00129042100161314,0.004268494900316,0.000783031340688467
1761466846312054500,5.794054443359375,-0.00052209896966815,0.00019092857837677002,0.0017684008926153183
1761466846322038500,5.80403857421875,-0.0012256312184035778,-0.0022695926018059254,-0.0005962257273495197
1761466846332021500,5.814021484375,-0.0007872749119997025,0.005642126314342022,0.00031191203743219376
1761466846342005500,5.824005615234375,0.0023337702732533216,0.0008685397915542126,-0.00006154365837574005
1761466846351988500,5.833988525390625,-0.0013142279349267483,-0.0029272635001689196,-0.00021893647499382496
1761466846361972500,5.843972412109375,-0.001321336254477501,0.001493820920586586,-0.00008322880603373051
1761466846371955700,5.853955810546875,0.0009452803060412407,-0.0002305756788700819,0.00041105388663709164
1761466846381939700,5.863939697265625,0.0007696440443396568,-0.0017723485361784697,-0.000332806957885623
1761466846391922400,5.87392236328125,-0.0006719250231981277,-0.0027606477960944176,-0.0027464297600090504
1761466846401906400,5.883906494140625,-0.0012014321982860565,0.00478259427472949,0.00046139582991600037
1761466846411889700,5.8938896484375,0.0006657103076577187,0.004541844595223665,-0.0016768561908975244
1761466846421873700,5.903873779296875,-0.0003756703808903694,0.004406363237649202,-0.000004721805453300476
1761466846431856600,5.913856689453125,-0.00008378783240914345,0.0017426693812012672,0.0005686567164957523
1761466846441840600,5.923840576171875,-0.0009827185422182083,-0.0011274851858615875,-0.00033187982626259327
1761466846451823400,5.9338232421875,-0.0010514277964830399,0.0025846948847174644,0.00023217778652906418
1761466846461806600,5.943806640625,0.000607968308031559,-0.0012281667441129684,0.0020780398044735193
1761466846471790600,5.95379052734375,-0.0003369213081896305,0.002615839708596468,0.00028892839327454567
1761466846481773600,5.963773681640625,0.001690245233476162,-0.0011248362716287374,-0.0001558195799589157
1761466846491757600,5.973757568359375,0.00012723635882139206,-0.002574394689872861,-0.0017039150698110461
1761466846501740500,5.983740478515625,0.0019432543776929379,0.0017028050497174263,0.002099697943776846
1761466846511724500,5.993724609375,-0.00036197761073708534,-0.0016061724163591862,-0.0013522913213819265
1761466846521707500,6.00370751953125,0.0010597663931548595,-0.0005922724958509207,-0.00073232501745224
1761466846531691500,6.01369140625,-0.0004941881634294987,0.00004022824577987194,0.0025849086232483387
1761466846541674000,6.023674072265625,-0.0006401538848876953,0.0013889078982174397,0.0018616619054228067
1761466846551658000,6.033657958984375,-0.0008577341213822365,-0.004207458812743425,-0.0009399836417287588
1761466846561641000,6.043640869140625,-0.000332763884216547,-0.0020948718301951885,0.00027309171855449677
1761466846571624700,6.053624755859375,-0.0008978866972029209,-0.004167876671999693,-0.00017911288887262344
1761466846581608000,6.06360791015625,0.0009045475162565708,-0.0007630987092852592,-0.0027279253117740154
1761466846591592000,6.073592041015625,0.0010369066148996353,-0.001491739647462964,-0.0037436550483107567
1761466846601575000,6.083574951171875,-0.000011146068572998047,-0.0038609744515269995,-0.001073263818398118
1761466846611559000,6.093558837890625,0.0013966010883450508,-0.0006515989080071449,-0.000674854964017868
1761466846621542000,6.1035419921875,0.00032413797453045845,0.002084353007376194,-0.0033971720840781927
1761466846631525600,6.113525634765625,-0.0008271466940641403,0.003185303881764412,0.002986691426485777
1761466846641508900,6.1235087890625,-0.00103704072535038,-0.001921182731166482,-0.0027128574438393116
1761466846651492900,6.133492919921875,-0.0003992137499153614,0.001913236454129219,0.0009612394496798515
1761466846661475800,6.143475830078125,0.0008988361805677414,-0.00038988632149994373,0.0011385767720639706
1761466846671459000,6.153458984375,0.0005161399021744728,-0.001461009494960308,-0.0016364369075745344
1761466846681443000,6.163443115234375,-0.0009384113363921642,-0.0007485684473067522,0.002446750644594431
1761466846691425800,6.17342578125,-0.0005186973139643669,-0.002776831854134798,0.00018679187633097172
1761466846701409800,6.183409912109375,-0.0006484952755272388,-0.00003300863318145275,-0.00004834868013858795
1761466846711392800,6.193392822265625,-0.0023539834655821323,-0.002428788226097822,0.0010781686287373304
1761466846721376800,6.203376708984375,0.00007715122774243355,-0.006571716628968716,-0.0022979076020419598
1761466846731360000,6.213360107421875,0.0006308224983513355,0.0016001928597688675,0.0022723430301994085
1761466846741344000,6.223343994140625,-0.00255275284871459,-0.0005942487623542547,-0.0005353232845664024
1761466846751326700,6.23332666015625,0.0009895171970129013,-0.003141295863315463,-0.0004993705078959465
1761466846761310700,6.243310791015625,0.000925915315747261,-0.00035326392389833927,-0.0016513586742803454
1761466846771294000,6.2532939453125,0.0005618613213300705,0.00780266709625721,0.004541556350886822
1761466846781278000,6.26327783203125,-0.0005674678832292557,-0.001818154938519001,0.00019260123372077942
1761466846791261000,6.273260986328125,-0.00037598656490445137,-0.00005168025381863117,0.0011779707856476307
1761466846801245000,6.283244873046875,-0.0023493715561926365,-0.000010024290531873703,-0.00009882939048111439
1761466846811228000,6.293227783203125,0.0010975576005876064,-0.0024084672331809998,0.00022900570183992386
1761466846821212000,6.3032119140625,-0.001468447968363762,0.0039020967669785023,-0.00036891503259539604
1761466846831195000,6.31319482421875,-0.0018828357569873333,-0.0008553739171475172,0.0036061189603060484
1761466846841177900,6.323177734375,-0.002980634104460478,-0.000935796182602644,-0.0006448312196880579
1761466846851161900,6.333161865234375,-0.0019404035992920399,0.0022903569042682648,-0.00009515485726296902
1761466846861144800,6.343144775390625,0.0010718097910284996,-0.0031790072098374367,-0.0022138883359730244
1761466846871128800,6.35312890625,-0.003083254210650921,-0.006231256294995546,-0.0030293483287096024
1761466846881111800,6.36311181640625,0.0012918803840875626,-0.0016596673522144556,-0.0009892233647406101
1761466846891095800,6.373095703125,0.0006188997067511082,0.0013273339718580246,0.00046805827878415585
1761466846901079000,6.3830791015625,-0.0006375666707754135,0.0004222337156534195,-0.001445513335056603
1761466846911063000,6.39306298828125,-0.00006445450708270073,-0.0007202625274658203,0.00013640429824590683
1761466846921045800,6.403045654296875,0.0005457992665469646,0.0016990364529192448,0.0005898792296648026
1761466846931029800,6.41302978515625,0.0007300898432731628,0.0019120890647172928,0.0010394207201898098
1761466846941012700,6.4230126953125,-0.0009601553902029991,0.0018278229981660843,-0.00003794068470597267
1761466846950997000,6.4329970703125,-0.0012645544484257698,0.0012046433985233307,0.00002757296897470951
1761466846960980000,6.44297998046875,0.0015713488683104515,-0.0023867315612733364,-0.002672940958291292
1761466846970964000,6.4529638671875,-0.0012201769277453423,0.005318592768162489,0.0017135515809059143
1761466846980946700,6.46294677734375,-0.002870060969144106,0.002901224885135889,0.0015700245276093483
1761466846990930700,6.4729306640625,0.0020828861743211746,-0.0012756770011037588,-0.0013908779947087169
1761466847000914000,6.482913818359375,0.00035103270784020424,0.002670319750905037,0.003135428763926029
1761466847010897000,6.49289697265625,-0.0005453876219689846,-0.0015220283530652523,-0.0016832950059324503
1761466847020881000,6.502880859375,0.00016555283218622208,-0.004491208121180534,-0.0020373347215354443
1761466847030864000,6.51286376953125,-0.0015878723934292793,0.0009131445549428463,0.0008189056534320116
1761466847040848000,6.522847900390625,0.004391648806631565,0.0006287046708166599,-0.0014896088978275657
1761466847050830800,6.532830810546875,-0.0018217721953988075,-0.0013769217766821384,0.0009269434958696365
1761466847060814800,6.54281494140625,-0.0012116259895265102,0.0010893633589148521,0.0030668615363538265
1761466847070797800,6.5527978515625,-0.0013975147157907486,-0.0015881787985563278,-0.002560664201155305
1761466847080781800,6.56278173828125,-0.0006030723452568054,-0.0005004683043807745,-0.0008620165754109621
1761466847090764800,6.572764892578125,-0.0008755135349929333,-0.002340978942811489,0.00007861200720071793
1761466847100748800,6.582748779296875,-0.0006313426420092583,0.0018181335180997849,0.0007360943127423525
1761466847110731800,6.592731689453125,-0.00124253798276186,0.000961660873144865,0.00005618925206363201
1761466847120715800,6.6027158203125,0.0005134521052241325,-0.004890689626336098,0.0015419642440974712
1761466847130699000,6.612698974609375,-0.0004980163648724556,-0.0018040856812149286,-0.0012218644842505455
1761466847140683000,6.62268310546875,0.0014964700676500797,-0.0029839344788342714,-0.0033555736299604177
1761466847150665700,6.632665771484375,-0.0005035637877881527,-0.00017536478117108345,0.0012056222185492516
1761466847160649700,6.642649658203125,0.000534694641828537,-0.0010337245184928179,-0.0010168177541345358
1761466847170633000,6.652633056640625,0.001293162815272808,0.0026925704441964626,0.0009904068429023027
1761466847180617000,6.662616943359375,0.0020124237053096294,-0.003986964467912912,0.0005837408825755119
1761466847190600000,6.672599853515625,-0.0012536770664155483,0.0037220879457890987,-0.0007643513381481171
1761466847200583000,6.6825830078125,0.0021980779711157084,0.0028896601870656013,-0.0012298438232392073
1761466847210566700,6.692566650390625,-0.0025516697205603123,0.0009836358949542046,0.0016090855933725834
1761466847220550000,6.7025498046875,0.003033870365470648,0.003986143972724676,-0.0005133373197168112
1761466847230534000,6.712533935546875,-0.0016016275621950626,-0.0022869319655001163,-0.0006896385457366705
1761466847240516900,6.722516845703125,-0.0004467959515750408,-0.005190752446651459,-0.0021030656062066555
1761466847250500900,6.7325009765625,0.0010783965699374676,-0.001015448709949851,-0.001828493783250451
1761466847260484000,6.742484130859375,0.0006439737044274807,0.0010381960310041904,0.0007198394741863012
1761466847270467800,6.7524677734375,0.00005781184881925583,-0.0036279286723583937,-0.001731600146740675
1761466847280450800,6.762450927734375,0.002429382409900427,-0.005833304952830076,0.000028106151148676872
1761466847290434800,6.772434814453125,-0.00048784399405121803,0.0009444397874176502,-0.001245151273906231
1761466847300417800,6.782417724609375,0.0001927739940583706,-0.000056178076192736626,-0.0019122579833492637
1761466847310401800,6.79240185546875,0.002282290253788233,0.004483180120587349,-0.001243538223206997
1761466847320385000,6.802385009765625,-0.0013439091853797436,0.0004279415588825941,0.00009808316826820374
1761466847330368800,6.81236865234375,0.0006225691176950932,-0.0015483901370316744,-0.0032340639736503363
1761466847340351700,6.822351806640625,-0.0025624888949096203,0.0032086267601698637,-0.0009469641372561455
1761466847350335700,6.832335693359375,0.00018482841551303864,-0.0014103599824011326,0.001247480744495988
1761466847360319000,6.842319091796875,-0.00006094388663768768,-0.0019382606260478497,-0.003203821135684848
1761466847370303000,6.852302978515625,-0.0006652148440480232,0.0038309453520923853,-0.00006501958705484867
1761466847380286000,6.862285888671875,0.00006970437243580818,-0.000903240405023098,-0.0003944672644138336
1761466847390269000,6.87226904296875,0.00017117056995630264,-0.004232990555465221,-0.00004585948772728443
1761466847400253000,6.8822529296875,0.0014766817912459373,0.003704140894114971,-0.0003149386029690504
1761466847410236000,6.89223583984375,0.0023118488024920225,0.0015011741779744625,-0.00024116900749504566
1761466847420220000,6.902219970703125,-0.0004932885058224201,0.00029811146669089794,0.00099778245203197
1761466847430203000,6.912202880859375,0.001080373302102089,-0.0034867729991674423,-0.0003175525926053524
1761466847440187000,6.922186767578125,0.00008676061406731606,-0.0015845701564103365,-0.00019557937048375607
1761466847450169900,6.932169921875,0.00008596153929829597,0.0028898066375404596,-0.0000019676517695188522
1761466847460153900,6.94215380859375,-0.00000284658744931221,-0.0018574238056316972,-0.00034364499151706696
1761466847470136800,6.95213671875,-0.0009860857389867306,-0.004870790522545576,-0.0012254174798727036
1761466847480120800,6.962120849609375,0.002847276395186782,-0.00037585897371172905,-0.0006449923384934664
1761466847490104000,6.97210400390625,0.0006887842901051044,-0.0014155569951981306,-0.0005986534524708986
1761466847500088000,6.982088134765625,-0.0002966928295791149,0.0016859287861734629,0.0015655166935175657
1761466847510070800,6.99207080078125,0.0005906727164983749,-0.0016291739884763956,-0.0002973643131554127
1761466847520054800,7.0020546875,-0.0010396698489785194,0.00006875256076455116,0.0011457486543804407
1761466847530037800,7.012037841796875,0.0007555666379630566,0.0008714289870113134,-0.0003472191747277975
1761466847540025300,7.022025390625,0.0025677955709397793,-0.00010991818271577358,0.00011491077020764351
1761466847550009300,7.03200927734375,-0.001582474447786808,-0.00038875103928148746,0.0026976442895829678
1761466847559992300,7.041992431640625,0.001130100805312395,-0.005677605047821999,-0.00010166340507566929
1761466847569976300,7.051976318359375,-0.0010403753258287907,0.004536416381597519,0.004517856054008007
1761466847579959300,7.061959228515625,0.0017266953364014626,0.004161784425377846,0.0019867129158228636
1761466847589943300,7.071943359375,-0.0013865400105714798,-0.0027347372379153967,-0.0017758011817932129
1761466847599926300,7.08192626953125,0.00039662281051278114,0.002447395585477352,0.0008559399284422398
1761466847609910300,7.09191015625,-0.0012321663089096546,0.0010063587687909603,0.00022530346177518368
1761466847619893200,7.101893310546875,0.00002166442573070526,0.0011032570619136095,0.0017301582265645266
1761466847629877200,7.111877197265625,-0.0016305604949593544,-0.0016318093985319138,0.002142681973055005
1761466847639860500,7.121860595703125,-0.0007683476433157921,0.0025041268672794104,0.0011304544750601053
1761466847649844500,7.131844482421875,-0.0003987010568380356,-0.0036608243826776743,-0.0008261699695140123
1761466847659827200,7.1418271484375,0.00047167064622044563,-0.0027205096557736397,-0.0012727688299492002
1761466847669811200,7.151811279296875,0.002263179048895836,0.0008057819213718176,-0.001438417355529964
1761466847679794400,7.16179443359375,-0.003644851502031088,-0.00008559925481677055,-0.0010306607000529766
1761466847689777400,7.17177734375,-0.002791308332234621,0.001483535161241889,0.00019359448924660683
1761466847699761400,7.181761474609375,-0.00040286406874656677,-0.0021093827672302723,-0.0007091828156262636
1761466847709744000,7.191744140625,-0.0005157818086445332,0.003960493952035904,-0.00044153514318168163
1761466847719728000,7.20172802734375,-0.0025394181720912457,0.0011043152771890163,0.0014251454267650843
1761466847729711400,7.21171142578125,0.00013306410983204842,-0.0026070657186210155,-0.0017938172677531838
1761466847739695400,7.2216953125,0.00034428341314196587,-0.00007461174391210079,0.00039685098454356194
1761466847749678300,7.23167822265625,0.0008947588503360748,0.0011333979200571775,0.0031060848850756884
1761466847759662300,7.241662353515625,-0.0002302303910255432,-0.0009661698713898659,-0.00037459866143763065
1761466847769645300,7.251645263671875,-0.0016030902042984962,0.0016136341728270054,0.00004751235246658325
1761466847779629300,7.26162939453125,-0.0028440780006349087,0.0011960712727159262,0.0008549541234970093
1761466847789612300,7.2716123046875,0.0019522756338119507,-0.0008721393533051014,-0.00024173548445105553
1761466847799596300,7.28159619140625,-0.0007818196900188923,-0.0031272275373339653,-0.0013995758490636945
1761466847809579300,7.291579345703125,0.0006000944413244724,0.0020211953669786453,0.0014292337000370026
1761466847819563300,7.301563232421875,0.0005364906974136829,-0.00019840244203805923,-0.00044406671077013016
1761466847829546200,7.311546142578125,-0.0012198640033602715,0.002274608938023448,0.00291258143261075
1761466847839530200,7.3215302734375,0.000844812486320734,-0.0036321827210485935,0.00019326014444231987
1761466847849513200,7.33151318359375,-0.0005741198547184467,-0.0014012528117746115,-0.0032435492612421513
1761466847859496400,7.341496337890625,-0.0005510789342224598,-0.004192784894257784,-0.0015875360695645213
1761466847869480400,7.35148046875,0.0006473432295024395,-0.004958710167557001,-0.0029390903655439615
1761466847879463400,7.36146337890625,-0.0007961890660226345,-0.0012928894720971584,-0.0002607263159006834
1761466847889447200,7.371447265625,-0.00048406654968857765,-0.001288628438487649,-0.0003651222214102745
1761466847899430400,7.381430419921875,0.00022249994799494743,0.06568832695484161,0.024433685466647148
1761466847909414400,7.391414306640625,-0.00020200759172439575,-0.01917196810245514,-0.00494843814522028
1761466847919397400,7.4013974609375,0.0019818670116364956,-0.02753710001707077,-0.008511723950505257
1761466847929381400,7.41138134765625,-0.0022949036210775375,0.05097155272960663,0.016522789373993874
1761466847939364400,7.4213642578125,-0.0013766074553132057,0.002667252207174897,0.0018539598677307367
1761466847949348000,7.43134814453125,0.0012303609400987625,-0.009936423972249031,-0.0019266634481027722
1761466847959331300,7.441331298828125,-0.000645697582513094,0.02362350933253765,0.003781871637329459
1761466847969315300,7.4513154296875,-0.0005170665681362152,0.000799685949459672,-0.00028317724354565144
1761466847979298300,7.46129833984375,0.0018699131906032562,-0.0033853421919047832,-0.004263352602720261
1761466847989282300,7.4712822265625,-0.0018329457379877567,-0.014289922080934048,-0.003108605742454529
1761466847999265500,7.481265625,0.0008791950531303883,-0.018420998007059097,-0.006043273489922285
1761466848009249300,7.491249267578125,0.0018813423812389374,-0.027183063328266144,-0.007305079139769077
1761466848019232300,7.501232177734375,0.00103053729981184,-0.01330676581710577,-0.0031827387865632772
1761466848029215200,7.51121533203125,0.0025733064394444227,0.009306667372584343,0.0035563905257731676
