time,seconds_elapsed,z,y,x
1761466823155560000,0.119559814453125,0.0004347921349108219,-0.002396749332547188,0.0011685024946928024
1761466823165543200,0.129543212890625,0.00015015201643109322,0.0009791541378945112,-0.0011552241630852222
1761466823175527200,0.139527099609375,-0.0017707860097289085,0.0038585641887038946,-0.0008494933135807514
1761466823185510100,0.14951025390625,0.0023943514097481966,0.0029260297305881977,0.0018876749090850353
1761466823195494100,0.159494140625,-0.0014461930841207504,0.005241914186626673,0.0005566272884607315
1761466823205478100,0.16947802734375,0.004259797744452953,0.003553684102371335,0.000506645767018199
1761466823215461000,0.179461181640625,0.001963353715837002,-0.0017542621353641152,-0.002714713802561164
1761466823225445000,0.189445068359375,-0.0017598099075257778,-0.0037451889365911484,-0.0012207664549350739
1761466823235428000,0.199427978515625,-0.0001243622973561287,0.00786060094833374,0.0008019041270017624
1761466823245412000,0.209412109375,0.00030516088008880615,0.001576767535880208,0.0003199006896466017
1761466823255395000,0.21939501953125,0.0009195525199174881,0.00006569013930857182,0.00041524204425513744
1761466823265379000,0.229379150390625,0.0001355237327516079,0.0005116453394293785,0.0003467195201665163
1761466823275362000,0.239362060546875,-0.000435724388808012,-0.0012140828184783459,-0.000025057699531316757
1761466823285346000,0.249345947265625,0.001507890410721302,-0.0029941843822598457,-0.003776851110160351
1761466823295330000,0.259330078125,-0.0012434213422238827,0.00237288442440331,-0.002109179738909006
1761466823305313000,0.26931298828125,-0.0015510260127484798,-0.0010548634454607964,-0.000017816666513681412
1761466823315297000,0.279297119140625,-0.001725196372717619,-0.0008977369870990515,-0.0008178302086889744
1761466823325280300,0.2892802734375,0.0011525251902639866,-0.0020793089643120766,0.0015043446328490973
1761466823335264300,0.29926416015625,0.0010089809074997902,-0.00030244793742895126,0.0001866128295660019
1761466823345247000,0.3092470703125,0.0003641708754003048,-0.0017498881788924336,0.0002836741041392088
1761466823355231000,0.31923095703125,0.00022728415206074715,-0.0020470968447625637,-0.000943510327488184
1761466823365215000,0.329215087890625,0.0011621946468949318,0.005045508500188589,0.0008934554643929005
1761466823375198200,0.3391982421875,0.0012767105363309383,0.001808968372642994,-0.0010660984553396702
1761466823385182200,0.34918212890625,-0.00041318684816360474,0.00025321939028799534,0.0003954661078751087
1761466823395165200,0.359165283203125,-0.0003434121608734131,0.0007813244592398405,0.000455919886007905
1761466823405149200,0.369149169921875,0.00018057320266962051,-0.0017574054654687643,-0.0008758872281759977
1761466823415132200,0.379132080078125,0.0012359838001430035,0.0006876429542899132,-0.0015406121965497732
1761466823425116200,0.3891162109375,0.0010414929129183292,0.0013869197573512793,-0.00009134202264249325
1761466823435100200,0.39910009765625,-0.0014490950852632523,0.0014039638917893171,0.002253571292385459
1761466823445083100,0.409083251953125,0.00013692490756511688,0.0017589456401765347,0.0019245634321123362
1761466823455067100,0.419067138671875,-0.0017275544814765453,-0.0007047445978969336,-0.0015684387180954218
1761466823465050000,0.429050048828125,0.0011011725291609764,-0.0007734366226941347,-0.004389950539916754
1761466823475034000,0.4390341796875,-0.0010962015949189663,0.0030878803227096796,0.0003808364272117615
1761466823485018000,0.44901806640625,0.00026535801589488983,0.0008545988239347935,0.0006478831637650728
1761466823495001000,0.4590009765625,0.0007897345349192619,0.0016759177669882774,0.0029850732535123825
1761466823504985000,0.468985107421875,-0.0016185115091502666,0.0003010407090187073,0.0006983138155192137
1761466823514968800,0.47896875,-0.00025097839534282684,-0.006676441058516502,-0.0041686128824949265
1761466823524952800,0.488952880859375,0.0014800019562244415,-0.0016868559177964926,-0.0011087378952652216
1761466823534936000,0.49893603515625,-0.0014284364879131317,0.00014806212857365608,0.0006998148746788502
1761466823544920000,0.508920166015625,-0.000005161389708518982,0.0031317684333771467,-0.0002858100924640894
1761466823554904000,0.518904052734375,-0.0014139735139906406,0.0014917936641722918,0.0008473650086671114
1761466823564886800,0.52888671875,0.0011269571259617805,0.0016144602559506893,0.001539549557492137
1761466823574870800,0.538870849609375,-0.00015375716611742973,0.005229434929788113,-0.00008897366933524609
1761466823584853800,0.548853759765625,-0.0010754144750535488,-0.002649604808539152,-0.0001839478500187397
1761466823594838000,0.558838134765625,0.0003570998087525368,-0.00020349142141640186,-0.0023490977473556995
1761466823604821000,0.568821044921875,-0.0018681134097278118,0.0030575699638575315,-0.0011529640760272741
1761466823614805000,0.578804931640625,-0.0005011125467717648,-0.0022730131167918444,0.00013893540017306805
1761466823624789000,0.5887890625,-0.002119512762874365,-0.003487252164632082,-0.0010413487907499075
1761466823634771700,0.598771728515625,-0.0014273570850491524,-0.0014813592424616218,-0.0012786365114152431
1761466823644756000,0.608755859375,-0.0011377325281500816,-0.0010672290809452534,-0.0010135264601558447
1761466823654739000,0.618739013671875,0.0025957529433071613,-0.0068689254112541676,-0.0019134085159748793
1761466823664723000,0.628722900390625,-0.0006741848774254322,-0.00002711196430027485,-0.0008122881408780813
1761466823674706000,0.638705810546875,0.000562853179872036,0.0018357690423727036,0.0014452736359089613
1761466823684690000,0.64868994140625,0.0008433600887656212,0.0017397147603332996,0.0005212863907217979
1761466823694674000,0.658673828125,-0.002342845778912306,-0.00016338005661964417,0.0005788106936961412
1761466823704657000,0.668656982421875,0.0029755777213722467,-0.0005051870830357075,-0.002623453503474593
1761466823714641000,0.678640869140625,0.0004511675797402859,0.009435061365365982,0.0004724713508039713
1761466823724624000,0.688623779296875,0.001977500505745411,0.0014527682214975357,0.0019845960196107626
1761466823734608000,0.69860791015625,0.0003239437937736511,-0.0025499630719423294,0.000515862600877881
1761466823744591000,0.708591064453125,-0.00035274308174848557,-0.0005828340072184801,0.000017167534679174423
1761466823754575000,0.7185751953125,0.0011831019073724747,0.004576774314045906,-0.0010382432956248522
1761466823764558800,0.728558837890625,-0.0005574622191488743,0.00011864863336086273,-0.00047340430319309235
1761466823774541800,0.738541748046875,-0.00026291701942682266,-0.005606082268059254,-0.005259371362626553
1761466823784525800,0.74852587890625,0.0009890352375805378,0.005345635116100311,0.00010290369391441345
1761466823794509000,0.758509033203125,0.00021299021318554878,0.00004567811265587807,-0.0011644945479929447
1761466823804493000,0.7684931640625,0.00041059916839003563,-0.0033431132324039936,-0.0019249460892751813
1761466823814476000,0.77847607421875,-0.0004418785683810711,-0.0046896073035895824,-0.0011789947748184204
1761466823824459800,0.788459716796875,0.002160442527383566,0.000018882565200328827,0.002362034050747752
1761466823834443800,0.79844384765625,0.0012789363972842693,-0.0025734384544193745,0.0020597653929144144
1761466823844426800,0.8084267578125,0.0006114221177995205,-0.0027736746706068516,0.0018301683012396097
1761466823854411000,0.818410888671875,-0.0018112552352249622,0.0011949681211262941,0.0024501520674675703
1761466823864394000,0.82839404296875,-0.0016409293748438358,0.0037655134219676256,0.0000719891395419836
1761466823874378000,0.8383779296875,-0.0004339851438999176,0.0029777504969388247,0.0012355241924524307
1761466823884360700,0.848360595703125,0.0026176434475928545,0.004361466504633427,-0.0006574904546141624
1761466823894344700,0.8583447265625,-0.000856183934956789,0.0010114761535078287,-0.0001610773615539074
1761466823904328700,0.86832861328125,-0.002321023028343916,0.002358039142563939,0.0002317607868462801
1761466823914312000,0.87831201171875,-0.0007183332927525043,0.005521075800061226,0.002175336005166173
1761466823924296000,0.8882958984375,-0.002095119096338749,0.0031818165443837643,-0.0003391809295862913
1761466823934279000,0.89827880859375,0.0015462213195860386,-0.004283556714653969,-0.00006993534043431282
1761466823944263000,0.908262939453125,0.0009283046238124371,0.0024763864930719137,0.002374777803197503
1761466823954246000,0.918245849609375,-0.0004011457785964012,0.0005969938356429338,-0.0019201020477339625
1761466823964230000,0.92822998046875,-0.00010879151523113251,-0.0006877153646200895,-0.0006321973633021116
1761466823974214000,0.9382138671875,-0.0010006842203438282,0.002322189277037978,-0.0012657633051276207
1761466823984196900,0.94819677734375,-0.0006326055154204369,0.000719068106263876,0.00001467391848564148
1761466823994180900,0.958180908203125,0.0010920576751232147,-0.0012165172956883907,-0.0005744174122810364
1761466824004164000,0.9681640625,-0.00034595513716340065,0.0009918566793203354,-0.0009425852913409472
1761466824014148000,0.978148193359375,0.0019113398157060146,0.0016653700731694698,0.0026558777317404747
1761466824024130800,0.988130859375,-0.0016702944412827492,-0.0005879118107259274,-0.002739578252658248
1761466824034114800,0.99811474609375,0.0010296185500919819,-0.00018257880583405495,-0.0021190617699176073
1761466824044098800,1.008098876953125,0.0006725681014358997,0.002661476144567132,0.0007334717083722353
1761466824054081800,1.018081787109375,-0.0011319899931550026,-0.0007044931408017874,0.000250107841566205
1761466824064066000,1.028066162109375,0.0007878011092543602,-0.005064443685114384,-0.004744816571474075
1761466824074049000,1.038049072265625,-0.0017264895141124725,-0.00027181883342564106,0.0021533030085265636
1761466824084033000,1.048032958984375,-0.00007744226604700089,0.0031549385748803616,0.0034934638533741236
1761466824094015700,1.058015625,0.0011894237250089645,0.004346703179180622,0.0006667845882475376
1761466824103999700,1.067999755859375,0.00042196596041321754,-0.0005383531097322702,-0.0011687558144330978
1761466824113983700,1.077983642578125,0.0010126554407179356,0.0011301171034574509,0.0005452546756714582
1761466824123967000,1.087967041015625,0.0000494946725666523,0.0014026944991201162,0.001157986233010888
1761466824133951000,1.097950927734375,0.002237547654658556,-0.0006069266237318516,-0.00035522179678082466
1761466824143934000,1.107933837890625,0.001800796017050743,0.002654652576893568,-0.00035632262006402016
1761466824153917700,1.117917724609375,-0.00178248668089509,0.0012927120551466942,0.0012599497567862272
1761466824163901000,1.12790087890625,0.0009048390202224255,-0.0005678329616785049,0.0002023868728429079
1761466824173885000,1.137885009765625,-0.000031528063118457794,-0.002408343832939863,-0.0017712817061692476
1761466824183869000,1.147868896484375,0.00027960585430264473,-0.0021336893551051617,-0.00008563767187297344
1761466824193852000,1.157851806640625,0.00040610600262880325,-0.000700908713042736,-0.000052880728617310524
1761466824203836000,1.1678359375,-0.0016825785860419273,0.001349925296381116,-0.00008196709677577019
1761466824213819000,1.17781884765625,-0.0025877864100039005,-0.00043279468081891537,-0.0004092694725841284
1761466824223803000,1.187802978515625,-0.00037915119901299477,0.0013274368830025196,-0.0024264086969196796
1761466824233785900,1.197785888671875,0.00041100848466157913,0.0021748547442257404,-0.0000657825730741024
1761466824243769900,1.207769775390625,0.0011442233808338642,0.0011491880286484957,0.00023555755615234375
1761466824253753900,1.21775390625,0.0009317030198872089,0.000013083452358841896,0.0034238938242197037
1761466824263737000,1.227737060546875,-0.00153267290443182,-0.0027317956555634737,-0.002513670828193426
1761466824273721000,1.23772119140625,0.002142488956451416,-0.0009690492879599333,0.0007998340297490358
1761466824283703800,1.247703857421875,-0.0007143775001168251,-0.003540309378877282,-0.0024368399754166603
1761466824293687800,1.257687744140625,-0.000057641882449388504,-0.0037435085978358984,0.001387459458783269
1761466824303671800,1.267671875,0.0010923347435891628,0.0006105140782892704,0.000978823285549879
1761466824313654800,1.27765478515625,-0.0014962577261030674,-0.0019658280070871115,-0.0007956409826874733
1761466824323639000,1.28763916015625,-0.0005105170421302319,0.0012419521808624268,0.0008643297478556633
1761466824333622000,1.2976220703125,0.00058377580717206,0.005591426510363817,0.0011159982532262802
1761466824343606000,1.30760595703125,0.0004438944160938263,-0.0006651508156210184,0.0004706289619207382
1761466824353588700,1.317588623046875,-0.0013643917627632618,0.0016962741501629353,0.00018913298845291138
1761466824363572700,1.32757275390625,-0.0006804098375141621,0.0007379190064966679,0.00011630682274699211
1761466824373556700,1.337556640625,-0.002528643701225519,-0.0012197704054415226,-0.002157233888283372
1761466824383540000,1.3475400390625,-0.00167792197316885,-0.002748901955783367,-0.001969221979379654
1761466824393524000,1.35752392578125,-0.0021285293623805046,-0.001206665299832821,0.0007653119973838329
1761466824403507000,1.3675068359375,0.00047633005306124687,0.0009659337811172009,-0.0020518109668046236
1761466824413491000,1.377490966796875,-0.001722642220556736,-0.0014287808444350958,0.00014183484017848969
1761466824423474700,1.387474609375,-0.0016139475628733635,0.0022668256424367428,0.0008349393028765917
1761466824433458000,1.3974580078125,0.000003390014171600342,-0.00026930286549031734,0.0013049871195107698
1761466824443442000,1.40744189453125,-0.00014308979734778404,-0.003446233458817005,0.0018409225158393383
1761466824453425000,1.4174248046875,0.0017578746192157269,0.0007498431950807571,-0.0004991970490664244
1761466824463409000,1.427408935546875,-0.00016013998538255692,0.0003225624095648527,-0.0012501927558332682
1761466824473392000,1.43739208984375,-0.00021819677203893661,-0.0000675905030220747,-0.00020703254267573357
1761466824483375900,1.4473759765625,0.0007843049243092537,0.0011794527526944876,-0.0010895072482526302
1761466824493359900,1.45735986328125,-0.0026181498542428017,0.0009304468985646963,0.00027722702361643314
1761466824503342800,1.4673427734375,0.0004885117523372173,0.0002894264180213213,0.0010380693711340427
1761466824513326800,1.477326904296875,0.00008584186434745789,-0.0023162104189395905,-0.0018112465040758252
1761466824523313200,1.487313232421875,-0.0009020674042403698,-0.005070253740996122,-0.001754659111611545
1761466824533297200,1.497297119140625,0.00010913470759987831,-0.0035703612957149744,0.00041475193575024605
1761466824543280000,1.507280029296875,-0.0018593519926071167,-0.0009722707327455282,-0.0015539138112217188
1761466824553264000,1.51726416015625,-0.0005104606971144676,-0.003985371440649033,-0.0008841287344694138
1761466824563248000,1.527248046875,0.001330406405031681,0.002042790176346898,0.0021394360810518265
1761466824573231000,1.537231201171875,-0.0015487372875213623,0.0028880771715193987,0.0012051989324390888
1761466824583215400,1.54721533203125,0.001751953735947609,-0.00548965111374855,-0.0006053030956536531
1761466824593198000,1.557197998046875,0.0008776378817856312,0.0023280587047338486,0.0017958027310669422
1761466824603182000,1.56718212890625,-0.0002528047189116478,0.0013673126231878996,0.00011046393774449825
1761466824613166000,1.577166015625,0.0005171149969100952,-0.0028002681210637093,-0.0015534789999946952
1761466824623149000,1.587149169921875,-0.0037422985769808292,-0.00122749712318182,-0.001547529362142086
1761466824633133000,1.597133056640625,0.0018950803205370903,0.0009371202904731035,0.0015896745026111603
1761466824643116300,1.6071162109375,-0.0014945664443075657,-0.0009764744900166988,0.0018579009920358658
1761466824653100300,1.617100341796875,-0.0007331683300435543,0.0004360661841928959,-0.0004694354720413685
1761466824663083000,1.6270830078125,0.0010782033205032349,0.0030269024427980185,0.002303678309544921
1761466824673067000,1.63706689453125,-0.00033194059506058693,0.002050321316346526,0.0018280374351888895
1761466824683051000,1.647051025390625,-0.0006067515350878239,0.005989712197333574,0.0012912179809063673
1761466824693034200,1.6570341796875,-0.00013004569336771965,0.001856752671301365,-0.000044623855501413345
1761466824703018200,1.667018310546875,-0.0024080579169094563,-0.003416462568566203,-0.0012193385045975447
1761466824713001200,1.677001220703125,0.0009160996414721012,-0.0029171197675168514,-0.002377280965447426
1761466824722985200,1.686985107421875,-0.00007836660370230675,-0.002358592115342617,-0.0018884791061282158
1761466824732969000,1.696968994140625,-0.0020195450633764267,-0.00523773580789566,0.00047933729365468025
1761466824742952200,1.7069521484375,0.0011283066123723984,-0.0009493101388216019,-0.0017706635408103466
1761466824752936200,1.716936279296875,-0.0004994175396859646,0.00185260153375566,0.0012474968098104
1761466824762919200,1.726919189453125,0.001585204154253006,-0.0011231862008571625,0.00009042909368872643
1761466824772903200,1.736903076171875,-0.0013986015692353249,-0.0005604603793472052,0.0018616977613419294
1761466824782886100,1.74688623046875,-0.0015829061158001423,0.002835566410794854,0.0005490363109856844
1761466824792870100,1.7568701171875,0.0036028011236339808,0.005336008034646511,0.00212402967736125
1761466824802854100,1.766854248046875,-0.002232855651527643,0.0017719361931085587,0.0024376220535486937
1761466824812837000,1.776837158203125,0.00016532093286514282,0.0031490568071603775,0.0022152478341013193
1761466824822821000,1.786821044921875,-0.0006287409923970699,0.005346423946321011,0.00016517005860805511
1761466824832804000,1.79680419921875,-0.0011051804758608341,0.0003865528851747513,0.0027668122202157974
1761466824842788000,1.8067880859375,0.0000685984268784523,0.0006982213817536831,0.00223894277587533
1761466824852772400,1.8167724609375,0.0005676746368408203,0.0001458816695958376,-0.00027321698144078255
1761466824862755000,1.826755126953125,-0.0007647816091775894,-0.0002791960723698139,-0.001443259185180068
1761466824872739000,1.836739013671875,-0.00003534182906150818,0.000060090795159339905,0.000781279057264328
1761466824882722000,1.84672216796875,-0.003198289778083563,-0.004145719110965729,-0.0018179048784077168
1761466824892706000,1.8567060546875,0.0008814069442451,-0.003325465600937605,-0.004741789307445288
1761466824902689300,1.866689208984375,0.0016433284617960453,0.004094786010682583,0.002899372484534979
1761466824912673300,1.87667333984375,-0.00019611697643995285,0.0025434945710003376,0.0004734988324344158
1761466824922657300,1.8866572265625,-0.00012372247874736786,0.0014300711918622255,0.0024688635021448135
1761466824932640000,1.896639892578125,0.00013726716861128807,-0.0007981956005096436,-0.0012499743606895208
1761466824942624000,1.9066240234375,-0.00008985772728919983,-0.004045000299811363,-0.002203528303653002
1761466824952607200,1.916607177734375,-0.00022408133372664452,0.0049719298258423805,0.00009264913387596607
1761466824962591200,1.92659130859375,-0.0014602444134652615,0.0007853356655687094,-0.0006599766202270985
1761466824972575200,1.9365751953125,0.002093211282044649,-0.005571896210312843,-0.0007510567083954811
1761466824982558200,1.94655810546875,0.0006339065730571747,0.0014903543051332235,0.0008315467275679111
1761466824992542200,1.956542236328125,0.0005998178385198116,0.00493808276951313,0.0005340718198567629
1761466825002525200,1.966525146484375,0.002221787814050913,0.00454824510961771,-0.002143455669283867
1761466825012509200,1.97650927734375,-0.0002746596001088619,0.0001463065855205059,-0.0019463817588984966
1761466825022493200,1.9864931640625,-0.000005018431693315506,-0.0013447285164147615,-0.0015473421663045883
1761466825032476200,1.99647607421875,0.0010788883082568645,0.0023168514017015696,-0.0006309484597295523
1761466825042460200,2.006460205078125,0.0013272319920361042,0.0012709095608443022,-0.000895653385668993
1761466825052443400,2.016443359375,0.0011879485100507736,0.004697066731750965,0.0021653836593031883
1761466825062427100,2.02642724609375,-0.0018023247830569744,-0.003569704247638583,-0.0018143181223422289
1761466825072410000,2.03641015625,-0.00032533565536141396,-0.00504722585901618,-0.0011642405297607183
1761466825082394000,2.04639404296875,-0.0003489772789180279,-0.0016226147999987006,-0.0000936826691031456
1761466825092378000,2.056378173828125,-0.0006419247947633266,0.0012948780786246061,0.001381708774715662
1761466825102361000,2.066361083984375,0.00022492557764053345,-0.004674874246120453,0.0014486624859273434
1761466825112345300,2.076345458984375,-0.0008145063184201717,-0.00039357668720185757,-0.0015623074723407626
1761466825122328000,2.086328125,0.00005631847307085991,0.00560365617275238,0.0032128733582794666
1761466825132312000,2.09631201171875,0.000027023721486330032,0.004956241697072983,0.0017729024402797222
1761466825142296000,2.106296142578125,0.00018137088045477867,-0.006800719536840916,-0.0011707684025168419
1761466825152279000,2.116279052734375,0.0032093848567456007,-0.0025391289964318275,-0.0008059153333306313
1761466825162263000,2.126262939453125,-0.00025670649483799934,0.0036900469567626715,0.0014771015848964453
1761466825172246300,2.136246337890625,-0.0004306109622120857,0.001358449226245284,-0.001959707820788026
1761466825182230300,2.146230224609375,0.0007013594731688499,-0.0004058165941387415,0.001343937125056982
1761466825192214300,2.15621435546875,0.0009969701059162617,0.00038993614725768566,0.0005103675648570061
1761466825202197000,2.166197021484375,0.0011906260624527931,-0.0014703534543514252,0.0004067493136972189
1761466825212181000,2.176180908203125,-0.0010925019159913063,0.0025808471255004406,0.0018802762497216463
1761466825222164200,2.186164306640625,-0.0010747406631708145,-0.0008118220139294863,0.0014023662079125643
1761466825232148200,2.196148193359375,0.001962860580533743,-0.0013785427436232567,-0.001135626109316945
1761466825242131200,2.206131103515625,-0.0012109843082726002,-0.0016029425896704197,-0.0006341382395476103
1761466825252115200,2.216115234375,-0.0013633174821734428,-0.0021848431788384914,0.0004907811526209116
1761466825262099200,2.22609912109375,-0.0004753097891807556,0.00007861992344260216,0.00017168582417070866
1761466825272082200,2.236082275390625,0.0013364385813474655,-0.001487585250288248,-0.0008709416724741459
1761466825282066200,2.246066162109375,0.0009043291211128235,0.0028092616703361273,-0.0008304233197122812
1761466825292049200,2.256049072265625,0.0007999329827725887,-0.0037058955058455467,-0.0025388412177562714
1761466825302033200,2.266033203125,0.00014794012531638145,0.0034185685217380524,0.0034518996253609657
1761466825312017200,2.27601708984375,0.0024928534403443336,0.0026614321395754814,-0.00039184093475341797
1761466825322000400,2.28600048828125,-0.001134656835347414,-0.0012686806730926037,-0.0023858186323195696
1761466825331984100,2.295984130859375,-0.0003484920598566532,-0.0009879835415631533,-0.0010446507949382067
1761466825341967000,2.305967041015625,-0.00213824724778533,-0.0024515108671039343,-0.0012626154348254204
1761466825351951000,2.315951171875,-0.0011206534691154957,0.0005661169998347759,-0.001070867758244276
1761466825361935000,2.32593505859375,-0.000494091771543026,0.003498949110507965,0.0013731096405535936
1761466825371918000,2.33591796875,-0.0005801119841635227,-0.004750724881887436,-0.0008591520600020885
1761466825381902300,2.34590234375,0.0002849460579454899,-0.0009970027022063732,0.0017405967228114605
1761466825391885000,2.355885009765625,0.0033039054833352566,-0.001079560723155737,-0.0010924739763140678
1761466825401869000,2.365869140625,-0.0008250311948359013,-0.0072661396116018295,-0.0022187461145222187
1761466825411853000,2.37585302734375,0.0009355843067169189,-0.0014711013063788414,-0.0018187393434345722
1761466825421836000,2.3858359375,-0.0026291892863810062,0.005231657065451145,0.0009382355492562056
1761466825431820000,2.395820068359375,-0.0006025237962603569,0.00018123839981853962,-0.0005978757981210947
1761466825441803300,2.40580322265625,0.000020314939320087433,-0.0042204344645142555,0.0001664804294705391
1761466825451787300,2.415787353515625,0.00007224688306450844,-0.004265707917511463,0.001759583130478859
1761466825461770000,2.42577001953125,0.0010291840881109238,-0.004083531908690929,-0.002002052264288068
1761466825471754000,2.43575390625,0.0009745890274643898,0.00029816734604537487,-0.0006856517866253853
1761466825481738000,2.445738037109375,0.004027718678116798,0.005526515189558268,0.0002549791242927313
1761466825491721200,2.45572119140625,0.0007658791728317738,0.001638566143810749,0.002360740676522255
1761466825501705200,2.465705322265625,-0.0008872444741427898,-0.0003073052503168583,-0.0016143533866852522
1761466825511688200,2.475688232421875,0.0011860262602567673,0.0007635517977178097,0.0002245593350380659
1761466825521668000,2.485668212890625,-0.00010004360228776932,-0.0016130200820043683,-0.000605141744017601
1761466825531652000,2.495652099609375,0.00015348941087722778,0.001706077717244625,-0.001613947213627398
1761466825541635000,2.505635009765625,-0.0009881998412311077,0.004609189461916685,-0.0015613307477906346
1761466825551619000,2.515619140625,-0.000603905413299799,0.004063507542014122,-0.0002760891802608967
1761466825561602000,2.52560205078125,-0.000016275793313980103,0.0019436846487224102,0.0004071600269526243
1761466825571586000,2.5355859375,0.00012780120596289635,-0.001204704400151968,-0.0013686357997357845
1761466825581570000,2.545570068359375,-0.000867258757352829,-0.0006558769382536411,0.002537280786782503
1761466825591553300,2.55555322265625,0.0012456933036446571,-0.0016606876160949469,-0.0013823597691953182
1761466825601537300,2.565537353515625,0.0017694472335278988,-0.0023754904977977276,0.0004358247388154268
1761466825611520000,2.57552001953125,0.000017087440937757492,-0.002941678510978818,-0.002934139221906662
1761466825621504000,2.58550390625,0.0007563675753772259,-0.0012939416337758303,0.0013540475629270077
1761466825631488000,2.595488037109375,-0.0011637713760137558,0.0026576565578579903,-0.0008832742460072041
1761466825641471200,2.60547119140625,-0.00009872065857052803,-0.002889973111450672,-0.0004796907305717468
1761466825651455200,2.615455322265625,0.0016336655244231224,-0.004570694174617529,-0.0014629296492785215
1761466825661438200,2.625438232421875,-0.0014027077704668045,-0.001232394715771079,-0.0010577160865068436
1761466825671422000,2.635421875,0.003099365858361125,0.004010570235550404,-0.0006531819235533476
1761466825681406000,2.645406005859375,-0.0014787851832807064,0.0019137014169245958,-0.00039452663622796535
1761466825691389200,2.65538916015625,0.0007074037566781044,-0.0026208630297333,-0.0007061164360493422
1761466825701373200,2.665373291015625,-0.0003791004419326782,-0.001070148777216673,0.0014476787764579058
1761466825711356200,2.675356201171875,-0.0010307757183909416,0.002955751959234476,0.0012942811008542776
1761466825721340200,2.685340087890625,0.0008637639693915844,0.0032328679226338863,0.0031359796412289143
1761466825731324200,2.69532421875,-0.0005205469205975533,-0.003513718256726861,-0.0008081616833806038
1761466825741307100,2.70530712890625,-0.001083774957805872,0.00027223164215683937,0.00002787797711789608
1761466825751291100,2.715291015625,0.0008936221711337566,0.0015012803487479687,0.0005860766395926476
1761466825761274000,2.725274169921875,-0.0021972376853227615,-0.002191371750086546,0.00020463508553802967
1761466825771258000,2.735258056640625,0.00022996682673692703,-0.002090970752760768,-0.0017349452245980501
1761466825781242000,2.7452421875,0.0006549065001308918,-0.0017685169586911798,0.0003374412190169096
1761466825791225000,2.75522509765625,-0.0025432831607759,-0.0019131266744807363,-0.0006266229320317507
1761466825801209000,2.765208984375,-0.0016506742686033249,-0.0002765862736850977,0.001607011305168271
1761466825811192000,2.775192138671875,0.0014239451847970486,0.002280847169458866,0.003327680053189397
1761466825821176000,2.785176025390625,-0.0007514823228120804,-0.0037819857243448496,0.00011391402222216129
1761466825831159000,2.795158935546875,-0.00029821228235960007,-0.00013478659093379974,0.0003240373916924
1761466825841143000,2.80514306640625,-0.00042166048660874367,0.003674387000501156,0.002396944910287857
1761466825851127000,2.815126953125,-0.00034123286604881287,-0.005286617670208216,-0.002583699068054557
1761466825861110300,2.8251103515625,0.001936192624270916,-0.0017755661392584443,-0.002457763534039259
1761466825871094300,2.83509423828125,-0.0011512101627886295,-0.004257898777723312,-0.0004108578432351351
1761466825881078000,2.845078125,0.0002748747356235981,-0.0007839598692953587,-0.0011987038888037205
1761466825891061000,2.85506103515625,-0.002091876696795225,0.004211598075926304,-0.000685779144987464
1761466825901045000,2.865044921875,0.001109875738620758,0.000615779310464859,0.003467447590082884
1761466825911028200,2.8750283203125,0.001197760459035635,-0.001888923579826951,0.000007202150300145149
1761466825921012200,2.88501220703125,-0.0003228955902159214,0.002062408719211817,-0.0005483971908688545
1761466825930996200,2.894996337890625,0.0009913747198879719,0.005324514117091894,0.003481764579191804
1761466825940979000,2.90497900390625,0.0023622680455446243,0.002071998780593276,-0.00010646763257682323
1761466825950963000,2.914962890625,0.0011649108491837978,0.003478148253634572,-0.0005003490950912237
1761466825960946200,2.9249462890625,-0.0006333007477223873,0.000850968062877655,0.00037874840199947357
1761466825970930200,2.93493017578125,-0.0015385095030069351,0.004089904949069023,0.001156391343101859
1761466825980914200,2.9449140625,0.002752288244664669,0.0029771768022328615,-0.0003400850109755993
1761466825990897200,2.954897216796875,0.00041163619607686996,0.0010703534353524446,0.0008191887754946947
1761466826000881200,2.964881103515625,-0.0006588115356862545,-0.0015581262996420264,0.00037121702916920185
1761466826010864000,2.974864013671875,0.0002759583294391632,-0.002368526067584753,0.0009488568175584078
1761466826020848000,2.98484814453125,-0.0006897137500345707,-0.0007566043641418219,0.0013625642750412226
1761466826030832000,2.99483203125,0.0013055265881121159,-0.0033177663572132587,-0.00043799891136586666
1761466826040815000,3.004815185546875,0.0004209293983876705,-0.003596391761675477,0.00016134954057633877
1761466826050799000,3.014799072265625,-0.00021316949278116226,-0.00146293337456882,0.001501718768849969
1761466826060782000,3.024781982421875,0.0017884448170661926,0.003997840918600559,-0.0019644061103463173
1761466826070766300,3.034766357421875,0.0003066621720790863,-0.0011814748868346214,0.0014148789923638105
1761466826080750300,3.044750244140625,0.0012144427746534348,-0.005155613180249929,-0.002397109754383564
1761466826090733000,3.054733154296875,0.0020677195861935616,0.0009510149247944355,-0.002649577334523201
1761466826100717000,3.064717041015625,-0.001543527003377676,0.008014990016818047,0.004327332600951195
1761466826110700000,3.074699951171875,0.003536452539265156,0.004312397912144661,-0.0002905887085944414
1761466826120684000,3.08468408203125,0.000150174368172884,-0.00032393704168498516,-0.00017422926612198353
1761466826130668300,3.094668212890625,0.0008511184714734554,0.00034158676862716675,0.0007669318001717329
1761466826140651300,3.1046513671875,-0.002321458887308836,0.0032006436958909035,-0.0004288172349333763
1761466826150635000,3.114635009765625,-0.0015885569155216217,-0.0024761506356298923,-0.00021310104057192802
1761466826160618000,3.124617919921875,0.0015959297306835651,0.0009093207772821188,-0.00028745108284056187
1761466826170602000,3.13460205078125,-0.00015536462888121605,-0.0018680900102481246,-0.0007593631744384766
1761466826180586000,3.1445859375,0.0013910639099776745,-0.005578731186687946,0.0010225183796137571
1761466826190569200,3.1545693359375,0.0019822856411337852,0.0029532378539443016,0.0022433113772422075
1761466826200553200,3.16455322265625,-0.0005607781931757927,0.00045930524356663227,-0.00044001080095767975
1761466826210536000,3.174535888671875,0.00109570799395442,-0.0045501007698476315,0.0021320704836398363
1761466826220520000,3.18452001953125,0.00035880040377378464,0.0029393609147518873,0.0036785576958209276
1761466826230504000,3.19450390625,-0.0003727702423930168,0.0043130191043019295,0.00024281349033117294
1761466826240487200,3.204487060546875,0.0034282675478607416,0.0009514291305094957,-0.001536099356599152
1761466826250471200,3.21447119140625,0.0010391459800302982,0.0026238944847136736,0.0002010806929320097
1761466826260454100,3.2244541015625,0.00007233629003167152,0.006242893636226654,0.0010094584431499243
1761466826270438100,3.234438232421875,0.0014438643120229244,0.0024454928934574127,0.0010454112198203802
1761466826280422100,3.244422119140625,-0.0011354992166161537,0.002721780678257346,0.001652424456551671
1761466826290405000,3.254405029296875,0.0018365881405770779,0.0020253637339919806,0.000930708134546876
1761466826300389000,3.26438916015625,-0.00021814927458763123,0.003940824419260025,0.0005750779528170824
1761466826310372000,3.2743720703125,0.00010808790102601051,0.0009642087388783693,-0.0004750066436827183
1761466826320356000,3.284356201171875,0.001889742910861969,0.002403647406026721,0.0011402007658034563
1761466826330340000,3.294340087890625,-0.0024067345075309277,0.00006592459976673126,0.001258445205166936
1761466826340323300,3.3043232421875,0.0014494676142930984,-0.0008736948948353529,0.00021293573081493378
1761466826350307300,3.314307373046875,-0.00036201439797878265,0.0026464713737368584,0.0009341195691376925
1761466826360290000,3.3242900390625,0.0005297726020216942,-0.00002198806032538414,0.0006503353361040354
1761466826370274000,3.334274169921875,0.0019910489208996296,-0.002456383779644966,0.00014539994299411774
1761466826380258000,3.344258056640625,-0.0008265008218586445,-0.0017349012196063995,-0.0023052203468978405
1761466826390241000,3.354240966796875,0.00032638153061270714,0.004244428128004074,0.0012546272482722998
1761466826400225300,3.364225341796875,0.0020753485150635242,0.002033705823123455,-0.0008029516320675611
1761466826410208300,3.374208251953125,0.001050297636538744,0.0001931954175233841,-0.0035798298195004463
1761466826420192000,3.38419189453125,0.001797062810510397,0.0019912163261324167,0.0007591606117784977
1761466826430176000,3.394176025390625,0.000409821979701519,0.0031531534623354673,0.001747992355376482
1761466826440159000,3.404158935546875,0.00092656584456563,0.0006286539137363434,0.0006164442747831345
1761466826450143000,3.41414306640625,-0.0007075495086610317,-0.0013223779387772083,0.000050256261602044106
1761466826460126200,3.424126220703125,0.0022858092561364174,0.0037053744308650494,0.0003380358684808016
1761466826470110200,3.434110107421875,-0.0012615211308002472,0.0018416945822536945,-0.0011136531829833984
1761466826480094200,3.44409423828125,0.0019254074431955814,-0.0013148030266165733,-0.001028155442327261
1761466826490077000,3.454076904296875,0.002589067444205284,0.004374507814645767,0.0011172869708389044
1761466826500061000,3.46406103515625,0.0007339548319578171,0.0033024370204657316,0.0008142984006553888
1761466826510044200,3.474044189453125,-0.002486073412001133,-0.0052614896558225155,-0.0017018560320138931
1761466826520028200,3.484028076171875,-0.0000968356616795063,-0.00018547452054917812,-0.0024770835880190134
1761466826530012200,3.49401220703125,0.0011548497714102268,-0.0005415391642600298,-0.0003984863869845867
1761466826539995100,3.5039951171875,-0.001460024155676365,-0.0010020029731094837,-0.0008550395723432302
1761466826549979100,3.513979248046875,0.0010678484104573727,0.0015988403465598822,0.000029928749427199364
1761466826559963100,3.523963134765625,-0.0014949962496757507,0.0015553426928818226,-0.0004258877597749233
1761466826569946000,3.533946044921875,0.0004693516530096531,0.0032326015643775463,-0.0004163002595305443
1761466826579930000,3.54393017578125,-0.0007647760212421417,-0.004111478105187416,-0.006793513894081116
1761466826589913000,3.5539130859375,-0.000994606874883175,0.00009844684973359108,-0.0003987317904829979
1761466826599897000,3.56389697265625,0.002103225328028202,0.0009458835702389479,-0.002658137120306492
1761466826609880300,3.57388037109375,-0.0006914963014423847,0.00146972737275064,0.004654370713979006
1761466826619864300,3.5838642578125,0.00026296591386199,-0.0008019683882594109,-0.00006495020352303982
1761466826629848000,3.59384814453125,0.0008525899611413479,0.0007168324664235115,-0.0011086431331932545
1761466826639831000,3.6038310546875,-0.0004477030597627163,-0.0001984960399568081,-0.0010130354203283787
1761466826649815000,3.61381494140625,0.002760340692475438,-0.0012081004679203033,-0.0013991938903927803
1761466826659799000,3.623799072265625,0.000215861015021801,-0.0018888319609686732,0.00020214589312672615
1761466826669782300,3.6337822265625,-0.00023474590852856636,0.0065033212304115295,0.0013132167514413595
1761466826679766300,3.643766357421875,-0.0023665279150009155,0.0005099361296743155,-0.00035770051181316376
1761466826689749000,3.6537490234375,0.0009539010934531689,-0.0022847848013043404,-0.002527377801015973
1761466826699733000,3.66373291015625,-0.0002501741982996464,0.002861626213416457,0.0006458577699959278
1761466826709717000,3.673717041015625,0.0023117868695408106,0.009027376770973206,0.0021265752147883177
1761466826719700200,3.6837001953125,0.002473822794854641,0.004005836322903633,0.0022766797337681055
1761466826729684200,3.693684326171875,0.0012796614319086075,-0.0015551098622381687,-0.0015457551926374435
1761466826739667200,3.703667236328125,-0.002535829320549965,-0.000601193867623806,0.0006135147996246815
1761466826749651200,3.713651123046875,0.0008304058574140072,-0.005345349200069904,-0.0016184805426746607
1761466826759635200,3.72363525390625,-0.0011563445441424847,-0.005258266814053059,-0.0017850154545158148
1761466826769618000,3.733617919921875,0.00021305261179804802,-0.0038369379471987486,-0.00001561129465699196
1761466826779602200,3.743602294921875,0.0007550986483693123,-0.002468840451911092,0.0017296664882451296
1761466826789585200,3.753585205078125,0.0007084934040904045,-0.002516777254641056,0.0005381684750318527
1761466826799569200,3.763569091796875,0.0009780870750546455,-0.00559675507247448,-0.00014876923523843288
1761466826809553200,3.77355322265625,0.00047235237434506416,-0.0008848239667713642,0.0004054345190525055
1761466826819536100,3.7835361328125,0.0007812292315065861,-0.00002220040187239647,-0.00020183483138680458
1761466826829520100,3.79352001953125,0.00025658635422587395,0.0022071318235248327,-0.0012047812342643738
1761466826839503000,3.803503173828125,0.0003153756260871887,0.0026613851077854633,-0.0012273017782717943
1761466826849487000,3.813487060546875,0.0008072610944509506,0.00021713599562644958,-0.0005503261927515268
1761466826859471000,3.82347119140625,0.002057421486824751,0.004561644047498703,0.0002855441998690367
1761466826869454000,3.8334541015625,0.00032476894557476044,0.0047826869413256645,0.0025601498782634735
1761466826879438000,3.84343798828125,-0.000341848935931921,0.00014253566041588783,0.0015469819772988558
1761466826889422000,3.853422119140625,-0.00013385573402047157,-0.0031507292296737432,-0.002980125369504094
1761466826899405000,3.863405029296875,-0.00008486304432153702,0.0010565544944256544,-0.0011237028520554304
1761466826909389000,3.87338916015625,-0.0006417296826839447,0.0019122280646115541,0.0006947033107280731
1761466826919372000,3.8833720703125,-0.00028206920251250267,-0.003510876791551709,-0.00293775019235909
1761466826929356000,3.89335595703125,-0.001297798939049244,-0.0020482686813920736,0.0014988100156188011
1761466826939340000,3.903340087890625,0.00008934829384088516,-0.0008397907949984074,0.0005031039472669363
1761466826949323300,3.9133232421875,-0.0012669996358454227,-0.006614855490624905,-0.0038610182236880064
1761466826959307300,3.923307373046875,0.0007163193076848984,0.00012132199481129646,0.0004365041386336088
1761466826969290000,3.9332900390625,0.0008548037149012089,-0.0018805761355906725,-0.0012071989476680756
1761466826979274000,3.94327392578125,-0.0008230051025748253,-0.0019368277862668037,0.00010569975711405277
1761466826989258000,3.953258056640625,0.0007360093295574188,-0.001509124063886702,-0.0000370456837117672
1761466826999241200,3.9632412109375,-0.0022854027338325977,0.00005512288771569729,0.000626023393124342
1761466827009225200,3.97322509765625,0.0018480895087122917,0.0014090738259255886,0.002916608238592744
1761466827019208200,3.983208251953125,-0.0008619693107903004,-0.000285580987110734,-0.0009007374756038189
1761466827029192200,3.993192138671875,-0.0014260266907513142,-0.006062509957700968,-0.001359333866275847
1761466827039176200,4.00317626953125,0.0019198469817638397,0.0013830915559083223,-0.0017076254589483142
1761466827049157000,4.0131572265625,0.00035816943272948265,0.008585876785218716,0.001884179888293147
1761466827059141000,4.02314111328125,0.0025396207347512245,-0.0033492506481707096,-0.0016239441465586424
1761466827069125000,4.033125,0.001393396407365799,-0.0033788117580115795,-0.0036828338634222746
1761466827079108000,4.043108154296875,-0.00010397518053650856,0.003835147013887763,0.004685795400291681
1761466827089092000,4.053092041015625,0.0004574190825223923,0.0023744029458612204,-0.0018453404773026705
1761466827099075000,4.063074951171875,0.0004217661917209625,-0.002559786196798086,-0.000022061169147491455
1761466827109059000,4.07305908203125,-0.0015159500762820244,-0.0013712174259126186,-0.00045642280019819736
1761466827119043000,4.08304296875,0.0014505968429148197,0.0035999652463942766,-0.0006931880488991737
1761466827129026000,4.093026123046875,-0.0017348099499940872,-0.0037460983730852604,-0.0008359334897249937
1761466827139010300,4.10301025390625,-0.0019010305404663086,-0.0022379839792847633,-0.0008536186069250107
1761466827148993000,4.112992919921875,0.001625527162104845,0.004017515107989311,0.00016797007992863655
1761466827158977000,4.12297705078125,0.0018072719685733318,-0.0009004739113152027,-0.00020554452203214169
1761466827168961000,4.1329609375,0.0006908751092851162,0.0003264443948864937,0.0009406798053532839
1761466827178944000,4.142944091796875,0.000535277184098959,0.002151715802028775,0.003537222510203719
1761466827188928000,4.152927978515625,-0.002529221586883068,-0.00751502625644207,-0.0031672855839133263
1761466827198912300,4.162912353515625,-0.0006810221821069717,-0.0029507516883313656,0.0011141325812786818
1761466827208895200,4.172895263671875,-0.0010482720099389553,0.001192328054457903,0.0044105928391218185
1761466827218879200,4.182879150390625,0.0021363580599427223,-0.0006461311131715775,-0.0005071705672889948
1761466827228862000,4.192862060546875,0.0009472565725445747,-0.002033904427662492,-0.00037614302709698677
1761466827238846000,4.202845947265625,0.00013574212789535522,0.0005541406571865082,0.0015485025942325592
1761466827248830200,4.212830322265625,0.0018633347935974598,0.0002127231564372778,0.0014142794534564018
1761466827258813200,4.222813232421875,-0.0023459196090698242,0.0008661460597068071,-0.001240438548848033
1761466827268797200,4.232797119140625,0.0014522811397910118,0.0010200764518231153,0.001989709446206689
1761466827278780200,4.2427802734375,-0.00040074484422802925,-0.004688092041760683,-0.0016523005906492472
1761466827288764000,4.252763916015625,-0.0024473839439451694,-0.002798579167574644,-0.0007297815755009651
1761466827298748000,4.262747802734375,-0.001433761790394783,-0.0012457482516765594,0.0008670100942254066
1761466827308731100,4.272731201171875,-0.0011796960607171059,0.0010381785687059164,-0.00032608630135655403
1761466827318715100,4.282715087890625,-0.0015728478319942951,0.0011945643927901983,-0.000753483735024929
1761466827328699100,4.29269921875,0.00027911411598324776,-0.0004235722590237856,-0.003710657823830843
1761466827338682000,4.30268212890625,0.0005340902134776115,-0.0037836944684386253,-0.0006620481144636869
1761466827348666000,4.312666015625,0.0005093226209282875,0.0022246630396693945,-0.0003435341641306877
1761466827358649000,4.322649169921875,0.0013387389481067657,0.000675190007314086,0.001543719321489334
1761466827368633000,4.332633056640625,-0.0012013837695121765,-0.00616833521053195,-0.002705087885260582
1761466827378617000,4.3426171875,-0.00022250786423683167,0.0011976677924394608,0.0008485261350870132
1761466827388600000,4.35260009765625,-0.0022680815309286118,0.0013430765829980373,0.0001561043318361044
1761466827398584000,4.362583984375,0.00012962007895112038,-0.002380188787356019,-0.0011764832306653261
1761466827408567300,4.3725673828125,0.0008763703517615795,-0.004025489557534456,-0.0008643607143312693
1761466827418551300,4.38255126953125,0.0012414660304784775,-0.0025672779884189367,-0.0010658621322363615
1761466827428535300,4.392535400390625,-0.0007023750804364681,0.0004673937801271677,-0.0023449782747775316
1761466827438518000,4.40251806640625,0.00010569347068667412,0.002695047529414296,-0.0002485089935362339
1761466827448502000,4.412501953125,0.0004993085749447346,0.002709961263462901,0.001896933652460575
1761466827458485200,4.4224853515625,-0.0001799529418349266,0.0013710812199860811,-0.00005826144479215145
1761466827468469200,4.43246923828125,-0.0005165766924619675,0.005617758259177208,0.0002464042045176029
1761466827478453200,4.442453369140625,0.0008090538904070854,0.0006054039113223553,0.0027930974029004574
1761466827488436200,4.452436279296875,0.0005661738105118275,0.0018581547774374485,0.0006905319169163704
1761466827498420000,4.462419921875,0.0007610470056533813,0.00131576182320714,-0.001345306751318276
1761466827508404000,4.472404052734375,-0.00018996791914105415,0.003472922369837761,0.0013434207066893578
1761466827518387200,4.48238720703125,-0.0009911125525832176,-0.00007942551746964455,0.0003038514405488968
1761466827528370400,4.492370361328125,-0.00013224314898252487,-0.0004317618440836668,-0.001344379037618637
1761466827538353400,4.502353515625,-0.0017270050011575222,0.00042077479884028435,-0.00008717109449207783
1761466827548337400,4.51233740234375,0.0007691755890846252,-0.004477577283978462,-0.003890964202582836
1761466827558321400,4.5223212890625,-0.0004127523861825466,0.0009131846018135548,-0.0014042813563719392
1761466827568304600,4.5323046875,-0.000802106224000454,0.000037537189200520515,-0.00003541656769812107
1761466827578288600,4.54228857421875,0.0004224758595228195,-0.002645913977175951,-0.0007739299908280373
1761466827588272600,4.552272705078125,-0.0001295972615480423,0.0020859905052930117,0.0020588745828717947
1761466827598256600,4.562256591796875,-0.00047449953854084015,0.0028295074589550495,0.0012124136555939913
1761466827608240600,4.57224072265625,-0.00017915526404976845,-0.0025319685228168964,-0.001437165541574359
1761466827618223400,4.582223388671875,0.0013947435654699802,0.002427465282380581,0.0020048515871167183
1761466827628207400,4.592207275390625,0.0010506631806492805,0.008671779185533524,0.0025566588155925274
1761466827638191400,4.60219140625,-0.001504730898886919,-0.0014216913841664791,-0.00041755102574825287
1761466827648174600,4.612174560546875,-0.0011982009746134281,-0.0037905732169747353,-0.0010806780774146318
1761466827658158600,4.62215869140625,0.0008803419768810272,0.002883644076064229,0.00028590764850378036
1761466827668141600,4.6321416015625,-0.0008547077886760235,0.0022064021322876215,0.0013807332143187523
1761466827678125300,4.642125244140625,0.001887666992843151,-0.003500484861433506,-0.00007572886534035206
1761466827688109300,4.652109375,0.0012269369326531887,-0.004217407666146755,-0.002538620261475444
1761466827698092500,4.662092529296875,0.00144193135201931,0.0027852943167090416,0.0035238084383308887
1761466827708076500,4.67207666015625,0.001751923467963934,-0.00008000084199011326,0.0019360315054655075
1761466827718060500,4.682060546875,-0.0011186362244188786,-0.00009522261098027229,-0.002363150706514716
1761466827728043500,4.69204345703125,-0.000988940242677927,-0.0011591555085033178,-0.0004067926201969385
1761466827738027500,4.702027587890625,0.0019601075910031796,0.0007830229587852955,-0.002074591349810362
1761466827748010500,4.712010498046875,-0.003823745995759964,0.004076820332556963,-0.0011904218699783087
1761466827757994500,4.721994384765625,-0.0011805957183241844,0.0024150910321623087,-0.0008237336296588182
1761466827767978500,4.731978515625,0.0019888319075107574,-0.0024853914510458708,-0.0024666376411914825
1761466827777961500,4.74196142578125,0.00026286859065294266,0.00524109648540616,0.0016351526137441397
1761466827787945500,4.751945556640625,0.0006500920280814171,0.005401685368269682,0.0007392654661089182
1761466827797928400,4.761928466796875,0.0007091718725860119,-0.0024696553591638803,-0.0016072847647592425
1761466827807912700,4.77191259765625,-0.0015582432970404625,-0.00133221922442317,0.0008071372285485268
1761466827817896700,4.781896728515625,0.0014516767114400864,0.00048116198740899563,0.0011678789742290974
1761466827827879400,4.79187939453125,-0.0010458356700837612,-0.004931712988764048,-0.000661180354654789
1761466827837863400,4.801863525390625,-0.0022657252848148346,-0.002727971877902746,-0.00185955420602113
1761466827847847400,4.811847412109375,-0.0008364063687622547,0.0038692106027156115,0.004247873090207577
1761466827857830400,4.821830322265625,-0.0010289056226611137,0.002293847966939211,0.0004826728254556656
1761466827867814700,4.831814697265625,0.004178373143076897,-0.0019107508705928922,0.0010675028897821903
1761466827877797600,4.841797607421875,-0.0022140867076814175,-0.002389900153502822,-0.00006952905096113682
1761466827887781400,4.851781494140625,-0.0010297787375748158,-0.0004884032532572746,0.0006993254646658897
1761466827897765400,4.861765380859375,0.0019536083564162254,0.0031435240525752306,0.000040844082832336426
1761466827907748400,4.871748291015625,-0.0010014353320002556,0.0005844926927238703,-0.000055295880883932114
1761466827917732400,4.881732421875,0.002063748426735401,0.0028353261295706034,-0.0017514134524390101
1761466827927715600,4.891715576171875,0.0004035336896777153,-0.00012823962606489658,0.00011652777902781963
1761466827937699600,4.901699462890625,0.0007496005855500698,-0.0004864421207457781,0.0007361357565969229
1761466827947683600,4.91168359375,0.001536032184958458,0.002981792436912656,0.0021095278207212687
1761466827957666300,4.921666259765625,-0.0012792167253792286,-0.00014580460265278816,0.0008520034607499838
1761466827967650300,4.931650390625,0.0009314734488725662,-0.00006857281550765038,-0.0018236743053421378
1761466827977634300,4.94163427734375,-0.0012065591290593147,-0.00015369593165814877,0.0012981034815311432
1761466827987617500,4.951617431640625,0.0005785580724477768,0.0007259461563080549,0.0011732010170817375
1761466827997601500,4.9616015625,0.0008740606717765331,-0.0008408313151448965,-0.00326871732249856
1761466828007584500,4.97158447265625,0.0010580853559076786,-0.0025463197380304337,-0.002375759184360504
1761466828017568500,4.981568603515625,-0.000493587926030159,0.0034117044415324926,0.00012391479685902596
1761466828027552500,4.991552490234375,0.0013455911539494991,-0.005848906002938747,-0.001678246189840138
1761466828037535500,5.001535400390625,0.001209096983075142,0.00035700807347893715,0.00018453644588589668
1761466828047519500,5.01151953125,-0.00027295248582959175,0.004292894154787064,0.002611475298181176
1761466828057503500,5.02150341796875,-0.00022397469729185104,-0.0039849360473454,-0.0019038019236177206
1761466828067486500,5.031486572265625,-0.0014815195463597775,0.0009901151061058044,0.001551649533212185
1761466828077470500,5.041470458984375,-0.0012137792073190212,0.0044825696386396885,0.0010976835619658232
1761466828087453700,5.05145361328125,-0.0016313628293573856,-0.001844835001975298,0.0011248479131609201
1761466828097437400,5.0614375,0.002179717645049095,-0.002283790148794651,0.0006949640810489655
1761466828107421400,5.07142138671875,-0.0004165978170931339,0.0051855770871043205,0.002560774330049753
1761466828117404400,5.081404296875,-0.001140359789133072,-0.004501071758568287,0.00023659691214561462
1761466828127388400,5.091388427734375,0.00028070295229554176,-0.0035047833807766438,0.00021475902758538723
1761466828137371600,5.10137158203125,-0.0009181313216686249,0.0017778549809008837,-0.0007608544547110796
1761466828147355600,5.111355712890625,0.000937026459723711,-0.0006248489953577518,-0.002247164724394679
1761466828157339600,5.121339599609375,0.0009607342071831226,0.001015587942674756,0.0005997850093990564
1761466828167322400,5.131322265625,-0.0005093305371701717,0.004195935092866421,-0.00000581773929297924
1761466828177306400,5.141306396484375,0.0020753685384988785,-0.0007348884828388691,0.001954089617356658
1761466828187290400,5.151290283203125,0.000808236189186573,-0.0011937511153519154,0.0003865528851747513
1761466828197273600,5.161273681640625,-0.000016801990568637848,0.0014108368195593357,-0.00008159130811691284
1761466828207257600,5.171257568359375,-0.0002943035215139389,0.0008025704883038998,0.0026348328683525324
1761466828217240600,5.181240478515625,-0.0001920107752084732,-0.0063965292647480965,-0.0022985159885138273
1761466828227224600,5.191224609375,0.0010804478079080582,0.0006440698634833097,0.0014086042065173388
1761466828237208300,5.201208251953125,-0.0027371221221983433,0.0013786221388727427,-0.0003995003644376993
1761466828247191600,5.211191650390625,-0.0014430922456085682,-0.0017833487363532186,-0.0005153478123247623
1761466828257175600,5.221175537109375,-0.00014108140021562576,0.0019256605301052332,-0.0008425107225775719
1761466828267158500,5.231158447265625,0.0016179364174604416,0.0012931597884744406,0.0006232932209968567
1761466828277142500,5.241142578125,0.0005532326176762581,0.0007201498374342918,-0.0015825191512703896
1761466828287126500,5.25112646484375,0.0023455400951206684,-0.000016480684280395508,-0.002030196599662304
1761466828297109500,5.261109619140625,0.0009801266714930534,0.0015875054523348808,-0.000894022174179554
1761466828307093500,5.271093505859375,0.0006941035389900208,0.0003986705560237169,0.0011784499511122704
1761466828317077500,5.281077392578125,0.0006360476836562157,0.00124025484547019,-0.001787050743587315
1761466828327060500,5.291060546875,0.0007636132650077343,0.00025701546110212803,0.0019248630851507187
1761466828337044500,5.30104443359375,-0.0002923659048974514,0.0012204255908727646,0.0035040508955717087
1761466828347027500,5.31102734375,-0.0011379197239875793,0.001892607193440199,0.00037803221493959427
1761466828357011500,5.321011474609375,0.002694491297006607,-0.0025687029119580984,0.0014908036682754755
1761466828366995500,5.330995361328125,-0.00237137358635664,0.0001770160160958767,-0.00046076090075075626
1761466828376978400,5.340978515625,0.00014338036999106407,0.0003224494867026806,-0.0023370948620140553
1761466828386962400,5.35096240234375,0.0016917423345148563,-0.0009872929658740759,0.00047120824456214905
1761466828396945400,5.3609453125,-0.0027935346588492393,0.002003378001973033,0.00023576966486871243
1761466828406929400,5.370929443359375,-0.00020840438082814217,-0.001245678635314107,-0.00034879427403211594
1761466828416913400,5.380913330078125,0.0015609832480549812,-0.0014313242863863707,0.001471082679927349
1761466828426896600,5.390896728515625,-0.0015392028726637363,0.0008611248340457678,-0.0008685041684657335
1761466828436880600,5.400880615234375,0.0005957153625786304,-0.0006788014434278011,0.0012343304697424173
1761466828446864400,5.410864501953125,-0.0017678402364253998,-0.00009956397116184235,0.0014724174980074167
1761466828456847400,5.420847412109375,-0.000048259273171424866,-0.003787202527746558,0.0014067927841097116
1761466828466831400,5.430831298828125,0.0008470956236124039,-0.002135243732482195,-0.000123725738376379
1761466828476814600,5.440814697265625,-0.0016639926470816135,-0.0017140760319307446,0.0020306764636188745
1761466828486798600,5.450798583984375,0.003384561976417899,-0.000054660486057400703,-0.0005536549724638462
1761466828496782600,5.460782470703125,-0.0011134715750813484,0.0038935383781790733,0.0004394326824694872
1761466828506765600,5.470765625,-0.0012793862260878086,-0.0024224144872277975,-0.0003216988407075405
1761466828516749300,5.480749267578125,0.0008237413130700588,-0.0016280674608424306,0.00034745526500046253
1761466828526732800,5.49073291015625,0.0025332241784781218,0.0008334922604262829,0.0004909997805953026
1761466828536717000,5.500717041015625,0.0010523628443479538,-0.00120944669470191,0.0014132773503661156
1761466828546701000,5.510701171875,-0.0014576665125787258,-0.0029642037115991116,0.0009759864769876003
1761466828556684000,5.52068408203125,-0.0013199429959058762,0.004361685365438461,0.0011432685423642397
1761466828566668000,5.53066796875,-0.00027092359960079193,-0.00019631464965641499,0.001093467464670539
1761466828576652000,5.540652099609375,-0.0007993141189217567,-0.0027277653571218252,-0.0009976217988878489
1761466828586634800,5.550634765625,0.0021157818846404552,-0.00004649464972317219,0.0012367703020572662
1761466828596619000,5.560618896484375,-0.0005223625339567661,0.001956051914021373,0.0009937193244695663
1761466828606602000,5.57060205078125,0.000513873528689146,-0.0003092328552156687,-0.0002798044588416815
1761466828616586000,5.5805859375,0.0004688152112066746,0.00018214690499007702,-0.0013608079170808196
1761466828626570000,5.590570068359375,-0.000954377930611372,0.000978431897237897,0.0002994067035615444
1761466828636553000,5.600552978515625,-0.000621807761490345,0.0007789100054651499,-0.0018335232743993402
1761466828646537000,5.610536865234375,0.0025276467204093933,0.002018344821408391,0.0016988934949040413
1761466828656520000,5.62052001953125,0.0003416393883526325,0.0013777317944914103,0.0014814496971666813
1761466828666504000,5.63050390625,0.0003301878459751606,-0.00044493540190160275,0.002040180843323469
1761466828676488000,5.640488037109375,-0.0008660810999572277,0.00048546120524406433,-0.001567669096402824
1761466828686471000,5.650470947265625,-0.0017281468026340008,0.0013105086982250214,-0.0011897666845470667
1761466828696455000,5.660454833984375,0.0012451186776161194,-0.002573430771008134,-0.0013372993562370539
1761466828706439000,5.67043896484375,-0.0006712917238473892,0.002168061211705208,-0.0011942875571548939
1761466828716422100,5.680422119140625,-0.0026858127675950527,0.0015305753331631422,0.002177573274821043
1761466828726406100,5.69040625,-0.0008437042124569416,-0.0004582733381539583,0.0005154944956302643
1761466828736388900,5.700388916015625,0.0008063064888119698,-0.0005340296775102615,0.0011738135945051908
1761466828746372900,5.710372802734375,0.0011184290051460266,-0.0011244525667279959,-0.0008272856939584017
1761466828756356900,5.72035693359375,-0.0005737673491239548,-0.0036458412650972605,-0.001210309099406004
1761466828766340000,5.730340087890625,0.0004992200993001461,0.000045033637434244156,0.0010352684184908867
1761466828776324000,5.740323974609375,0.0014223773032426834,0.0063038719817996025,0.002472693333402276
1761466828786307000,5.75030712890625,-0.0007606158033013344,0.002117915078997612,0.0001853045541793108
1761466828796290800,5.760290771484375,0.0005133682861924171,-0.004026788752526045,-0.0011327089741826057
1761466828806274800,5.77027490234375,-0.005868630949407816,0.0046005211770534515,0.0011770506389439106
1761466828816258000,5.780258056640625,0.0010373475961387157,-0.00047322572208940983,0.00027563399635255337
1761466828826242000,5.790241943359375,-0.000014068558812141418,-0.005014181602746248,-0.0012170677073299885
1761466828836226000,5.80022607421875,-0.00018272362649440765,0.003262215992435813,0.00021757837384939194
1761466828846209000,5.810208984375,-0.0024722437374293804,0.003006019862368703,0.0015638063196092844
1761466828856193000,5.820193115234375,-0.0007293634116649628,-0.0029256059788167477,-0.0019659865647554398
1761466828866176000,5.830176025390625,-0.00006490480154752731,0.0006403669249266386,-0.0025271144695580006
1761466828876160000,5.840159912109375,0.0016648303717374802,-0.001007539452984929,0.0004306151531636715
1761466828886144000,5.85014404296875,-0.0017373580485582352,0.003362974151968956,-0.0007166746072471142
1761466828896127000,5.860126953125,0.0010188883170485497,-0.0017744430806487799,-0.00015807128511369228
1761466828906111000,5.870111083984375,0.000620212871581316,-0.002105474006384611,-0.001159952487796545
1761466828916094000,5.880093994140625,-0.0010400624014437199,-0.0010949976276606321,-0.002287565963342786
1761466828926078200,5.890078125,0.0013131066225469112,-0.0004387947265058756,0.0013777425047010183
1761466828936062200,5.900062255859375,-0.0016708695329725742,-0.0014590478967875242,0.00023591052740812302
1761466828946045000,5.910044921875,-0.000013051554560661316,-0.0006880627479404211,-0.0018549372907727957
1761466828956029000,5.92002880859375,-0.0008731447160243988,-0.0014609762001782656,-0.0021986612118780613
1761466828966012000,5.930011962890625,-0.0017503905110061169,0.00018752040341496468,-0.0012455158866941929
1761466828975996000,5.939995849609375,-0.00009048404172062874,0.0029169998597353697,-0.0010267263278365135
1761466828985980200,5.949980224609375,0.001307941973209381,-0.00037546618841588497,0.0016122001688927412
1761466828995963100,5.959963134765625,0.0017516673542559147,0.001344714779406786,0.000002832384780049324
1761466829005947000,5.96994677734375,0.0018331599421799183,0.0017481837421655655,0.0024052702356129885
1761466829015931000,5.979930908203125,0.000482034869492054,-0.0036483954172581434,-0.0015593889402225614
1761466829025913900,5.989913818359375,0.001249557826668024,0.0008390310686081648,-0.00013353256508708
1761466829035897900,5.99989794921875,0.0012869029305875301,0.0011710410472005606,0.0011277892626821995
1761466829045881000,6.009881103515625,-0.0007168594747781754,-0.003334761131554842,0.0008974256925284863
1761466829055865000,6.019864990234375,-0.0006066896021366119,0.00039189867675304413,-0.001725008594803512
1761466829065849000,6.02984912109375,-0.00027406075969338417,-0.002240902278572321,0.0013125929981470108
1761466829075831800,6.039831787109375,0.00045572733506560326,-0.0001712464727461338,0.0008848260622471571
1761466829085815800,6.04981591796875,-0.0006135320290923119,0.0023699419107288122,-0.0008789857383817434
1761466829095799000,6.059799072265625,-0.00039696507155895233,-0.002805181313306093,0.0011689262464642525
1761466829105783000,6.069782958984375,-0.0016470528207719326,0.0009932853281497955,-0.0003607936669141054
1761466829115767000,6.07976708984375,0.001680055633187294,-0.0010095457546412945,0.0006959752645343542
1761466829125750000,6.08975,0.00034048594534397125,0.0004216369707137346,-0.0016662486596032977
1761466829135734000,6.099734130859375,-0.000698793213814497,-0.002193523570895195,0.000049451831728219986
1761466829145718000,6.109718017578125,-0.0012660464271903038,0.00008321297354996204,-0.0012182127684354782
1761466829155701000,6.119700927734375,-0.00023509329184889793,0.0006382307037711143,0.002305318834260106
1761466829165685000,6.12968505859375,0.002335123484954238,-0.00002249958924949169,-0.0009892778471112251
1761466829175668000,6.13966796875,-0.0006756470538675785,-0.0002959868870675564,-0.002307601273059845
1761466829185652000,6.14965185546875,0.0014900355599820614,0.0013405256904661655,0.00013531651347875595
1761466829195636000,6.159635986328125,0.0007721781730651855,-0.002570588607341051,-0.002344212494790554
1761466829205619200,6.169619140625,0.0013498179614543915,0.0015085749328136444,-0.0009439224377274513
1761466829215603000,6.17960302734375,-0.0011744950897991657,0.006968644913285971,0.003982579801231623
1761466829225586000,6.1895859375,-0.0019377567805349827,0.00124817481264472,0.0009966432116925716
1761466829235570000,6.19956982421875,-0.001656457781791687,-0.001371382037177682,-0.0003379720728844404
1761466829245554000,6.209553955078125,-0.0001035686582326889,-0.0026233340613543987,0.0018349008169025183
1761466829255537200,6.219537109375,-0.00005772244185209274,0.00008769519627094269,-0.0015508662909269333
1761466829265521200,6.229521240234375,0.0005004759877920151,0.0008070149924606085,-0.0005231525283306837
1761466829275505200,6.239505126953125,-0.0004907050170004368,-0.0036824927665293217,0.0012499818112701178
1761466829285487900,6.24948779296875,-0.0006803222931921482,-0.0025780797004699707,-0.003744510468095541
1761466829295471900,6.259471923828125,0.0009912610985338688,0.001418298576027155,-0.00002345908433198929
1761466829305454800,6.269454833984375,-0.0015272903256118298,-0.0005322005599737167,0.0002503138966858387
1761466829315439000,6.279439208984375,0.0019117663614451885,-0.0025482801720499992,-0.001456823549233377
1761466829325423000,6.289423095703125,-0.0028198719955980778,0.0003130200784653425,0.00024573528207838535
1761466829335406000,6.299406005859375,-0.0001233583316206932,0.004992004483938217,0.0009390572085976601
1761466829345390000,6.30939013671875,0.0007885079830884933,-0.00035082874819636345,-0.00047721201553940773
1761466829355372800,6.319372802734375,0.00014320947229862213,-0.0016950834542512894,-0.0014928162563592196
1761466829365356800,6.329356689453125,-0.0005457503721117973,0.004547632299363613,0.0014246765058487654
1761466829375341000,6.339341064453125,-0.00012810155749320984,0.00295729236677289,-0.002846021670848131
1761466829385324000,6.349323974609375,-0.0006540757603943348,-0.0010851200204342604,0.001723163528367877
1761466829395308000,6.35930810546875,-0.00044315867125988007,0.005811955779790878,0.002440359443426132
1761466829405291000,6.369291015625,-0.00014089001342654228,0.0008379698265343904,0.00034152204170823097
1761466829415275000,6.37927490234375,0.001083166804164648,-0.004423196893185377,-0.0022753230296075344
1761466829425258800,6.3892587890625,-0.0023211520165205,0.0021518815774470568,0.001377735286951065
1761466829435242000,6.399241943359375,-0.0016939728520810604,0.0021567947696894407,0.0004136590287089348
1761466829445226000,6.40922607421875,0.0020549590699374676,-0.0029341038316488266,0.00018356204964220524
1761466829455210000,6.4192099609375,-0.0005304166115820408,-0.00026372470892965794,-0.0003578304313123226
1761466829465193000,6.42919287109375,0.000590774230659008,0.00010379147715866566,-0.0025416226126253605
1761466829475177000,6.439177001953125,0.0010695927776396275,0.000577432569116354,-0.0005567234475165606
1761466829485160000,6.449159912109375,-0.0006470810621976852,-0.00021405890583992004,-0.0010270376224070787
1761466829495144000,6.45914404296875,0.001703567337244749,-0.0014476287178695202,0.003233572468161583
1761466829505128000,6.4691279296875,-0.000039738137274980545,0.001633914653211832,0.0007440499030053616
1761466829515111000,6.47911083984375,0.00023572519421577454,-0.001503755571320653,0.0014846697449684143
1761466829525095200,6.48909521484375,0.0005007097497582436,0.002059820108115673,-0.0013803589390590787
1761466829535078100,6.499078125,-0.0013817413710057735,0.0010169465094804764,0.0015063958708196878
1761466829545062100,6.509062255859375,0.000026005785912275314,-0.0009585863444954157,-0.00172987743280828
1761466829555046100,6.519046142578125,-0.0027701049111783504,0.003495516488328576,0.0002131920773535967
1761466829565029000,6.529029052734375,-0.0022696969099342823,0.000634482828900218,0.00017058150842785835
1761466829575013000,6.53901318359375,0.0013597141951322556,-0.0033755945041775703,-0.0003799444530159235
1761466829584997000,6.5489970703125,-0.002428099513053894,-0.0006341366097331047,-0.0005027162842452526
1761466829594980400,6.55898046875,-0.0006873104721307755,0.003391832811757922,0.0016002769116312265
1761466829604964400,6.56896435546875,0.0001033819280564785,-0.0028420945163816214,-0.0013142863754183054
1761466829614947000,6.578947021484375,-0.000017494428902864456,-0.00012385565787553787,-0.00012575159780681133
1761466829624931000,6.58893115234375,-0.00026570120826363564,-0.0006956362631171942,0.0006825178861618042
1761466829634915000,6.5989150390625,-0.000991293229162693,-0.0009278340730816126,-0.0007409073878079653
1761466829644898300,6.608898193359375,-0.0015915697440505028,-0.0027795301284641027,-0.0011116194073110819
1761466829654882300,6.61888232421875,0.001098564825952053,0.00048737600445747375,-0.000028368085622787476
1761466829664865300,6.628865234375,-0.001784040592610836,0.0008612838573753834,0.0007399539463222027
1761466829674849000,6.63884912109375,0.002844213740900159,0.003340794937685132,0.0032710807863622904
1761466829684833000,6.6488330078125,-0.0016229725442826748,0.002007083734497428,0.0007669103797525167
1761466829694816000,6.65881591796875,-0.0009000436402857304,0.00037270900793373585,-0.001750044641084969
1761466829704800300,6.66880029296875,-0.00028298888355493546,0.000589756527915597,0.0008476024959236383
1761466829714783200,6.678783203125,-0.0028832810930907726,0.0009110595565289259,-0.0005065870936959982
1761466829724767200,6.688767333984375,0.0012659234926104546,-0.0020312005653977394,0.0014873216859996319
1761466829734751200,6.698751220703125,0.00005619321018457413,-0.00037675187923014164,0.0022949751000851393
1761466829744734000,6.70873388671875,-0.000026897527277469635,0.0013726784382015467,-0.000726647675037384
1761466829754718000,6.718718017578125,0.00039029400795698166,-0.00042598647996783257,0.002534366911277175
1761466829764702200,6.7287021484375,0.0009173331782221794,0.0008597879204899073,0.0007234176155179739
1761466829774685200,6.738685302734375,0.0032096917275339365,-0.0012074613478034735,-0.0024681645445525646
1761466829784669200,6.748669189453125,-0.00006759399548172951,-0.002175254048779607,-0.0023933295160531998
1761466829794652200,6.758652099609375,-0.002036354038864374,-0.001381540670990944,-0.0016845094505697489
1761466829804636200,6.76863623046875,0.0013237562961876392,0.00022940547205507755,0.00037544569931924343
1761466829814620200,6.7786201171875,-0.0018598553724586964,0.0016545376274734735,-0.0008703256025910378
1761466829824603100,6.78860302734375,-0.0006435890682041645,0.004887082614004612,0.0012391642667353153
1761466829834587100,6.798587158203125,0.0023545168805867434,0.003163397777825594,0.0001133698970079422
1761466829844570000,6.808570068359375,-0.0009781629778444767,0.002130357548594475,0.001267317682504654
1761466829854554000,6.81855419921875,0.00040428340435028076,-0.0027324934490025043,-0.001275093061849475
1761466829864538000,6.8285380859375,-0.000150186475366354,0.0005469231400638819,0.0004157479852437973
1761466829874521300,6.838521240234375,-0.00007206108421087265,0.004118164069950581,0.00014785421080887318
1761466829884505000,6.848505126953125,0.003668881021440029,0.0002978593111038208,0.0006099126767367125
1761466829894488000,6.858488037109375,0.00019149575382471085,-0.0007052368018776178,-0.0011735367588698864
1761466829904472000,6.86847216796875,-0.00018534157425165176,0.00289881881326437,-0.00026539876125752926
1761466829914456000,6.8784560546875,0.002389851026237011,-0.0017651376547291875,-0.0017028262373059988
1761466829924439300,6.888439208984375,-0.002145512029528618,-0.00363494292832911,0.0003291657194495201
1761466829934423300,6.89842333984375,-0.0015637092292308807,-0.0008413500618189573,0.0004156476352363825
1761466829944407300,6.9084072265625,0.00019877078011631966,-0.0019524209201335907,-0.0016839884920045733
1761466829954390000,6.91839013671875,0.0012878593988716602,0.00010001892223954201,-0.00007553235627710819
1761466829964374000,6.9283740234375,0.000555756501853466,0.00023663905449211597,-0.00013518729247152805
1761466829974357200,6.938357177734375,-0.000097665935754776,0.0012370715849101543,-0.002042345702648163
1761466829984341200,6.94834130859375,-0.000134151428937912,-0.0011725565418601036,0.00036834762431681156
1761466829994325200,6.9583251953125,0.00013028504326939583,0.001210114685818553,0.00012616044841706753
1761466830004308200,6.96830810546875,-0.0009472300298511982,-0.001764902495779097,-0.0013239309191703796
1761466830014292200,6.978292236328125,0.002188714686781168,-0.0007280239369720221,0.00015575462020933628
1761466830024275000,6.98827490234375,0.0001524616964161396,0.002968177432194352,0.0008271373808383942
1761466830034259200,6.99825927734375,0.0009917831048369408,0.0008415330667048693,-0.0013721251161769032
1761466830044243200,7.0082431640625,0.002021094784140587,-0.0007590265013277531,-0.0014192629605531693
1761466830054226200,7.01822607421875,0.0007078549824655056,0.0011696347501128912,0.0013796412386000156
1761466830064210200,7.028210205078125,0.001874585635960102,0.0007760196458548307,-0.000686705345287919
1761466830074193200,7.038193115234375,0.0003231959417462349,-0.0023926622234284878,-0.0005100930575281382
1761466830084177200,7.04817724609375,0.0033900924026966095,0.0017261826433241367,0.0016212346963584423
1761466830094161200,7.0581611328125,0.0012210276909172535,0.006453702691942453,0.002941516460850835
1761466830104144100,7.06814404296875,-0.0011348044499754906,-0.0009096714202314615,-0.0006180647760629654
1761466830114128100,7.078128173828125,0.000581058207899332,-0.0007087795529514551,-0.00011291960254311562
1761466830124112100,7.088112060546875,-0.00020404160022735596,0.0029205766040831804,0.004570781718939543
1761466830134095000,7.09809521484375,-0.0013549365103244781,-0.002053350443020463,-0.00051129050552845
1761466830144079000,7.1080791015625,0.00042325584217906,0.0007155381608754396,-0.0004923820961266756
1761466830154062300,7.118062255859375,-0.00044056354090571404,0.0012022743467241526,0.0016984723042696714
1761466830164046000,7.128046142578125,0.0010907542891800404,0.0037985898088663816,-0.00023072143085300922
1761466830174030000,7.138030029296875,0.0004234490916132927,-0.0004561843816190958,0.001825813902541995
1761466830184013000,7.148012939453125,0.0006194580346345901,-0.001896688248962164,-0.0008623807225376368
1761466830193997000,7.1579970703125,0.0013661743141710758,-0.00022346270270645618,0.0004425270017236471
1761466830203980300,7.167980224609375,0.0012705666013062,-0.0012911239173263311,0.0019304349552839994
1761466830213964300,7.17796435546875,0.0008875415660440922,-0.0029184347949922085,0.001165540423244238
1761466830223948300,7.1879482421875,0.000877154991030693,-0.0010986968409270048,0.0011591487564146519
1761466830233931000,7.197930908203125,-0.0005298233591020107,-0.001405669841915369,-0.00003265892155468464
1761466830243915000,7.2079150390625,-0.0013503432273864746,-0.0017867680871859193,0.00026002246886491776
1761466830253898200,7.217898193359375,-0.0009650606662034988,0.0011205424088984728,-0.001947527751326561
1761466830263882200,7.22788232421875,-0.002305429894477129,-0.0017972170608118176,-0.00005801510997116566
1761466830273866200,7.2378662109375,0.001074490137398243,0.0006940532475709915,0.0018817526288330555
1761466830283849200,7.24784912109375,-0.0008701500482857227,0.0012083095498383045,-0.0011715616565197706
1761466830293833200,7.257833251953125,0.004034930374473333,-0.004058266524225473,-0.0034599644131958485
1761466830303816200,7.267816162109375,0.0006828093901276588,0.003795661497861147,-0.0001983910333365202
1761466830313800200,7.27780029296875,0.0006395331583917141,-0.0028718612156808376,-0.0026797016616910696
1761466830323784200,7.2877841796875,0.00015004398301243782,0.0010768079664558172,0.0014436705969274044
1761466830333767200,7.29776708984375,-0.0002873055636882782,0.001914552180096507,0.00045327027328312397
1761466830343751200,7.307751220703125,0.000054644420742988586,0.002166753401979804,-0.0022399844601750374
1761466830353735200,7.317735107421875,0.0042649139650166035,0.0006662909872829914,-0.00048657809384167194
1761466830363718100,7.32771826171875,0.0015157326124608517,0.0018814913928508759,-0.0002373061142861843
1761466830373702100,7.3377021484375,-0.0006735171191394329,-0.0002421131357550621,-0.0016868647653609514
1761466830383685000,7.34768505859375,-0.0006847023032605648,0.0004228781908750534,-0.0004250591155141592
1761466830393669000,7.357669189453125,-0.0001892903819680214,0.0016127526760101318,-0.00022408575750887394
1761466830403653000,7.367653076171875,-0.0019115563482046127,-0.0007020668126642704,-0.0012198418844491243
1761466830413636000,7.377635986328125,-0.0005924939177930355,-0.0010265535674989223,-0.00020027742721140385
1761466830423620000,7.3876201171875,0.0014610695652663708,0.0013889335095882416,0.0022484990768134594
1761466830433603000,7.39760302734375,0.0004710727371275425,0.0022920926567167044,0.00016845040954649448
1761466830443587000,7.407587158203125,0.0012657600454986095,-0.000003286171704530716,0.0003013419918715954
1761466830453571000,7.417571044921875,0.002361830323934555,-0.001320005627349019,-0.00015168753452599049
1761466830463554000,7.427553955078125,-0.00016044965013861656,0.0022797894198447466,-0.00020441808737814426
1761466830473538000,7.4375380859375,-0.00017949147149920464,0.0028543381486088037,0.0010236070957034826
1761466830483521300,7.447521240234375,-0.0009970823302865028,0.0001357831060886383,0.00039190519601106644
1761466830493505300,7.45750537109375,-0.000010118354111909866,0.001325015677139163,-0.0015740623930469155
1761466830503489300,7.4674892578125,-0.0006277053616940975,0.004496308043599129,-0.0002557977568358183
1761466830513472000,7.477471923828125,0.00008433591574430466,-0.002320340368896723,-0.0026246020570397377
1761466830523456000,7.4874560546875,-0.00036706961691379547,-0.0026231417432427406,0.0012657437473535538
1761466830533440000,7.49743994140625,-0.000018191523849964142,0.0010007340461015701,0.0005833317991346121
1761466830543423200,7.50742333984375,-0.0017319354228675365,-0.0005686669610440731,-0.00142256123945117
1761466830553407200,7.5174072265625,0.0007321625016629696,-0.0007316491100937128,0.0017765103839337826
1761466830563390200,7.52739013671875,0.0021063536405563354,0.001190354349091649,0.0012148497626185417
1761466830573374000,7.5373740234375,0.0005905474536120892,-0.001369160134345293,0.0020622238516807556
1761466830583358000,7.54735791015625,0.0008435477502644062,0.003200824372470379,0.0012430357746779919
1761466830593341200,7.557341064453125,0.0004540584050118923,0.002906061941757798,-0.0030098389834165573
1761466830603325200,7.5673251953125,-0.0004945592954754829,-0.0003696258645504713,-0.0031829443760216236
1761466830613308200,7.57730810546875,0.0014390256255865097,0.004294456914067268,0.0012332228943705559
1761466830623292200,7.587292236328125,-0.00031999219208955765,0.0037804667372256517,-0.0001284515019506216
1761466830633276200,7.597276123046875,0.0006285393610596657,-0.001350704114884138,-0.001991511322557926
1761466830643259100,7.607259033203125,-0.0035976306535303593,-0.00014615640975534916,0.00022104289382696152
1761466830653243100,7.6172431640625,0.001934065017849207,-0.000027247704565525055,-0.0025071713607758284
1761466830663226000,7.62722607421875,0.0008855783380568027,-0.001764960354194045,-0.0004275089595466852
1761466830673210000,7.637210205078125,0.0007307440973818302,0.0030380403622984886,0.0003980977926403284
1761466830683194000,7.647194091796875,0.00042980676516890526,0.0006411955691874027,-0.0013284295564517379
1761466830693177300,7.65717724609375,0.002160307951271534,-0.0009697929490357637,-0.0011700077448040247
1761466830703161300,7.667161376953125,-0.002283442299813032,0.282952219247818,0.10033611208200455
1761466830713144000,7.67714404296875,-0.0016654576174914837,-0.008936626836657524,-0.012135462835431099
1761466830723128000,7.687128173828125,-0.00017621787264943123,-0.07905180007219315,-0.02717806212604046
1761466830733112000,7.697112060546875,0.003097392385825515,0.13460856676101685,0.062131308019161224
1761466830743095000,7.707094970703125,-0.0002701748162508011,-0.08324119448661804,-0.03356991708278656
1761466830753079300,7.717079345703125,0.0011289357207715511,0.01725081168115139,0.0014426822308450937
1761466830763062300,7.727062255859375,0.00009376509115099907,-0.007174103986471891,-0.007905545644462109
1761466830773046300,7.73704638671875,0.0004891161806881428,-0.04648647829890251,-0.016316421329975128
1761466830783030000,7.747030029296875,0.0015884689055383205,-0.014549849554896355,-0.009994343854486942
1761466830793013000,7.757012939453125,0.0017723776400089264,-0.051811788231134415,-0.018177565187215805
1761466830802997000,7.7669970703125,-0.0014804070815443993,-0.04345345497131348,-0.014138350263237953
1761466830812980200,7.776980224609375,0.0010683191940188408,-0.044184260070323944,-0.013343238271772861
1761466830822964200,7.786964111328125,0.0009588631801307201,-0.014927035197615623,-0.0044821021147072315
1761466830832948200,7.7969482421875,0.0005173003301024437,0.019868580624461174,0.005764913745224476
