time,seconds_elapsed,z,y,x
1761466858546374700,0.113374755859375,0.002040471415966749,-0.0006030958611518145,0.000031735748052597046
1761466858556358100,0.123358154296875,-0.0017683818005025387,0.0003215535543859005,0.0014557279646396637
1761466858566341000,0.133341064453125,0.0019644699059426785,-0.00239952583797276,0.0003661327064037323
1761466858576324400,0.143324462890625,0.0012187850661575794,0.0020000161603093147,-0.00043920730240643024
1761466858586308400,0.153308349609375,-0.0003040633164346218,-0.0007787228096276522,0.00028375349938869476
1761466858596291000,0.163291015625,0.00041152816265821457,0.0011632542591542006,-0.0018832605564966798
1761466858606275000,0.173275146484375,-0.0005071158520877361,0.002279971493408084,-0.0007419544272124767
1761466858616258000,0.183258056640625,0.00018823519349098206,0.0003052374813705683,0.0010892350692301989
1761466858626241300,0.1932412109375,0.000010884832590818405,0.003196274396032095,0.0006552876438945532
1761466858636225300,0.203225341796875,-0.0017167078331112862,-0.0006301552057266235,-0.0002864061389118433
1761466858646208000,0.2132080078125,-0.0005446742288768291,0.00016666273586452007,0.00017165299504995346
1761466858656192000,0.22319189453125,0.0018745413981378078,-0.0008530616760253906,0.0016917854081839323
1761466858666175200,0.23317529296875,-0.0005658101290464401,-0.0008509643375873566,-0.000577643746510148
1761466858676158200,0.243158203125,0.002719199052080512,0.002509412122890353,0.0003403478767722845
1761466858686142200,0.25314208984375,-0.003765542060136795,0.0020942252594977617,0.0010892287828028202
1761466858696125000,0.263125,-0.0019580544903874397,-0.0008528286125510931,-0.0016583544202148914
1761466858706109000,0.27310888671875,-0.001399698667228222,-0.0006031841039657593,0.00084299361333251
1761466858716092200,0.283092041015625,-0.0006076744757592678,0.0007494355086237192,0.0018262327648699284
1761466858726075100,0.2930751953125,-0.00013936730101704597,-0.00008384999819099903,0.0021783786360174417
1761466858736059100,0.30305908203125,0.0031264671124517918,-0.002659393008798361,-0.00004296400584280491
1761466858746042000,0.3130419921875,0.0005227928049862385,0.0005415845662355423,0.001140728360041976
1761466858756026000,0.323026123046875,0.0018421225249767303,-0.003431052900850773,-0.0006944560445845127
1761466858766009000,0.333009033203125,-0.0015039672143757343,-0.0008768860716372728,0.0009831171482801437
1761466858775992000,0.342991943359375,-0.0014488399028778076,-0.000012424075976014137,-0.00016257469542324543
1761466858785976000,0.35297607421875,0.001904644537717104,0.0016311903018504381,0.0019413817208260298
1761466858795959300,0.362959228515625,-0.002723929937928915,0.001870874548330903,-0.0012051432859152555
1761466858805942000,0.37294189453125,-0.0010076030157506466,-0.00014263461343944073,-0.00005863490514457226
1761466858815926000,0.382926025390625,-0.0010898946784436703,0.003281924407929182,0.002402658574283123
1761466858825909200,0.3929091796875,-0.0015776348300278187,-0.0002412248868495226,0.001536722993478179
1761466858835893200,0.402893310546875,0.003020578995347023,-0.0022026430815458298,-0.004227422643452883
1761466858845876200,0.412876220703125,-0.0023903180845081806,0.002009803196415305,0.0010271770879626274
1761466858855859000,0.42285888671875,0.0020494379568845034,0.00020338105969130993,0.0000724338460713625
1761466858865843000,0.432843017578125,0.0020758667960762978,-0.0016461852937936783,0.0012664184905588627
1761466858875826200,0.442826171875,-0.0002522687427699566,-0.001049637096002698,-0.0021496182307600975
1761466858885809200,0.45280908203125,0.0008958196267485619,0.0000842660665512085,0.000031735748052597046
1761466858895793200,0.462793212890625,-0.0004424192011356354,0.0033266646787524223,0.0012677088379859924
1761466858905776000,0.472776123046875,-0.0001774434931576252,-0.0012956059072166681,0.0005708185490220785
1761466858915760000,0.482760009765625,0.0005674427375197411,-0.0007778874132782221,-0.0028657244984060526
1761466858925743000,0.4927431640625,-0.0003309096209704876,0.000910645816475153,0.0019621714018285275
1761466858935726000,0.50272607421875,0.0015029432252049446,-0.001481938175857067,0.00024230219423770905
1761466858945710000,0.5127099609375,-0.00300995958968997,-0.003734937170520425,-0.001852740882895887
1761466858955693000,0.522693115234375,-0.0015966203063726425,0.000578851206228137,0.003328971564769745
1761466858965677000,0.532677001953125,-0.00020706327632069588,0.000005934387445449829,-0.0011747415410354733
1761466858975660000,0.542659912109375,-0.00041159382089972496,-0.0007922151125967503,0.00004711677320301533
1761466858985643300,0.552643310546875,0.0027902727015316486,0.0032323540654033422,0.0017134565860033035
1761466858995627300,0.562627197265625,0.001356959342956543,-0.0001232291106134653,0.00024206005036830902
1761466859005610200,0.5726103515625,0.0007082461379468441,0.0018127388320863247,0.00039931153878569603
1761466859015594000,0.582593994140625,0.001264580525457859,0.0013022110797464848,0.0014185034669935703
1761466859025577000,0.592576904296875,0.0021740123629570007,0.0006941040046513081,0.0014167656190693378
1761466859035560200,0.602560302734375,0.00021339301019906998,0.0002581446897238493,-0.0014298873720690608
1761466859045544200,0.612544189453125,0.0005608419887721539,0.0010731432121247053,0.0025624665431678295
1761466859055527200,0.622527099609375,-0.0006341184489428997,0.0013005773071199656,-0.0005795310717076063
1761466859065510100,0.63251025390625,-0.00014014262706041336,-0.0036446319427341223,-0.0008758760523051023
1761466859075494100,0.642494140625,-0.0020504281856119633,-0.0011641636956483126,-0.00025615841150283813
1761466859085477000,0.65247705078125,-0.0016647204756736755,-0.0011910612229257822,-0.0010163197293877602
1761466859095461000,0.662461181640625,0.0005933740176260471,-0.005457977764308453,-0.0006251013837754726
1761466859105444000,0.672444091796875,-0.0011894265189766884,0.004322372376918793,0.0034069616813212633
1761466859115427000,0.682427001953125,0.000043350737541913986,-0.001077186781913042,0.00032461900264024734
1761466859125411000,0.6924111328125,-0.0007089478895068169,-0.0023502404801547527,0.003321416210383177
1761466859135394000,0.70239404296875,-0.00005540810525417328,-0.0007877638563513756,0.002503825817257166
1761466859145377300,0.712377197265625,0.0010650493204593658,0.0007378938607871532,0.000672448892146349
1761466859155361300,0.722361328125,-0.00014029769226908684,-0.001310077030211687,-0.0005584640894085169
1761466859165344300,0.73234423828125,-0.0015353611670434475,-0.000657576834782958,0.0009802309796214104
1761466859175328000,0.742327880859375,0.0021182296331971884,0.0003568211104720831,-0.0005004864651709795
1761466859185311000,0.75231103515625,-0.0015061823651194572,-0.0021372134797275066,-0.0009364355355501175
1761466859195294200,0.762294189453125,-0.0001442418433725834,-0.003352147527039051,-0.0012349759927019477
1761466859205278200,0.7722783203125,-0.0005910270847380161,0.0005849471781402826,0.00028315605595707893
1761466859215261200,0.78226123046875,-0.0003358963876962662,-0.0034524051006883383,0.0024272671435028315
1761466859225245200,0.7922451171875,0.0006714137271046638,0.0008359591010957956,-0.00040982081554830074
1761466859235228200,0.802228271484375,-0.000030329450964927673,0.002953971503302455,-0.0013555093901231885
1761466859245211100,0.812211181640625,0.0005027116276323795,0.0012890687212347984,0.0025280104018747807
1761466859255195100,0.822195068359375,0.001446535810828209,0.0005425848066806793,-0.0003007992636412382
1761466859265178000,0.83217822265625,-0.0008479636162519455,0.0010388561058789492,-0.0009210731368511915
1761466859275161000,0.8421611328125,0.0009677791967988014,-0.003709826385602355,0.002152747241780162
1761466859285145000,0.85214501953125,0.0016645104624330997,0.0014100661501288414,-0.0008848926518112421
1761466859295128000,0.862128173828125,-0.0008148923516273499,-0.001840854762122035,-0.0005322901997715235
1761466859305112000,0.872112060546875,0.00022383732721209526,-0.0028958225157111883,0.001178578706458211
1761466859315095300,0.88209521484375,0.0008765780366957188,0.005565306171774864,-0.0025844681076705456
1761466859325078000,0.892078125,0.002171439817175269,-0.0028839262668043375,-0.0018806303851306438
1761466859335062000,0.90206201171875,0.0015019210986793041,0.0016269360203295946,0.001736474921926856
1761466859345045000,0.912044921875,-0.00028814608231186867,0.005010710097849369,0.0013051191344857216
1761466859355029000,0.922029052734375,0.0007430296391248703,-0.004846980795264244,-0.002064312109723687
1761466859365012200,0.93201220703125,-0.0004626624286174774,0.00009135715663433075,-0.0007129826117306948
1761466859374995200,0.9419951171875,0.0031741501297801733,0.001529197907075286,-0.0028935789596289396
1761466859384979000,0.95197900390625,0.000826527364552021,-0.0004087486304342747,-0.005654919892549515
1761466859394962200,0.961962158203125,-0.001899750903248787,0.0006381398998200893,0.00007833330892026424
1761466859404945200,0.971945068359375,0.0005722977221012115,0.00003438233397901058,0.0012450157664716244
1761466859414929200,0.98192919921875,-0.0020538452081382275,-0.0014197034761309624,-0.0011968363542109728
1761466859424912100,0.991912109375,-0.001112428493797779,0.0002949980553239584,0.00034292531199753284
1761466859434896100,1.001896240234375,-0.001178208738565445,-0.0023071765899658203,-0.0032763106282800436
1761466859444879000,1.011879150390625,0.0009739845991134644,-0.0007279731798917055,-0.0006647412665188313
1761466859454862000,1.021862060546875,0.001612877007573843,0.0025551719591021538,-0.0007070854771882296
1761466859464846000,1.03184619140625,0.0013208757154643536,0.0022812390234321356,-0.0006379513069987297
1761466859474829300,1.041829345703125,-0.000893542543053627,-0.0020964648574590683,-0.000321301631629467
1761466859484812000,1.05181201171875,0.002551272278651595,-0.0002044138964265585,-0.00037908460944890976
1761466859494796000,1.061796142578125,-0.0014075166545808315,-0.004372527357190847,-0.000460577430203557
1761466859504779000,1.071779052734375,-0.00119346147403121,-0.00008197897113859653,-0.002120150253176689
1761466859514763000,1.081762939453125,-0.0015737609937787056,0.0011316235177218914,-0.00030627124942839146
1761466859524746200,1.091746337890625,-0.0007599783129990101,0.001369372708722949,-0.0019170537125319242
1761466859534729200,1.101729248046875,0.003182831918820739,0.005229891277849674,0.002678763587027788
1761466859544713000,1.111712890625,0.0014808066189289093,0.004435008857399225,0.0011722978670150042
1761466859554696400,1.121696533203125,0.000799037516117096,0.0006951317191123962,0.000015953555703163147
1761466859564680400,1.131680419921875,-0.0004750625230371952,-0.003985338844358921,-0.00038912310265004635
1761466859574663200,1.1416630859375,-0.0014559044502675533,0.0020152959041297436,0.0003320607356727123
1761466859584646100,1.151646240234375,0.0019358992576599121,0.0001962857786566019,-0.00016048760153353214
1761466859594630100,1.161630126953125,-0.00012884940952062607,0.0009118772577494383,0.0014691005926579237
1761466859604613400,1.17161328125,-0.0016682189889252186,0.0025777556002140045,0.0005602643359452486
1761466859614596400,1.181596435546875,0.0040985899977386,0.0018294071778655052,-0.0007753109093755484
1761466859624580000,1.191580078125,0.0006599714979529381,-0.00017955736257135868,0.0006949813105165958
1761466859634563300,1.201563232421875,-0.00005402183160185814,0.0032218322157859802,0.0008523743599653244
1761466859644547300,1.21154736328125,0.00205080839805305,0.0008644899353384972,0.0015853510703891516
1761466859654530300,1.2215302734375,-0.0016850740648806095,0.0009624939411878586,-0.001031204592436552
1761466859664513300,1.23151318359375,-0.00044814497232437134,0.0020684704650193453,-0.00014961464330554008
1761466859674497300,1.241497314453125,-0.0003530699759721756,0.0016626042779535055,0.001234963070601225
1761466859684480300,1.251480224609375,0.0008982098661363125,-0.002264173701405525,-0.001446109963580966
1761466859694463200,1.261463134765625,0.0008654529228806496,-0.00233741058036685,-0.0024914005771279335
1761466859704447200,1.271447265625,-0.0027377349324524403,-0.0033474767114967108,0.0018863207660615444
1761466859714430200,1.28143017578125,-0.0007392987608909607,-0.002903793938457966,-0.001334772794507444
1761466859724414500,1.29141455078125,0.00006219744682312012,-0.0022769919596612453,-0.0014736921293660998
1761466859734397200,1.301397216796875,-0.002837186213582754,0.00014089210890233517,-0.0012734223855659366
1761466859744380200,1.311380126953125,0.0003684628754854202,-0.0015745387645438313,-0.0020644022151827812
1761466859754364200,1.3213642578125,-0.0017474186606705189,0.0034505799412727356,-0.002179450821131468
1761466859764347400,1.331347412109375,0.0006074979901313782,0.002079371130093932,0.001546031329780817
1761466859774330000,1.341330078125,0.0014919335953891277,0.002619726350530982,0.002049368806183338
1761466859784314000,1.351314208984375,-0.0005484987050294876,-0.000177107285708189,-0.0007883096113801003
1761466859794297300,1.36129736328125,0.000046984292566776276,0.0014040113892406225,0.0026343849021941423
1761466859804281300,1.37128125,0.0007994323968887329,-0.002611271571367979,-0.0023685386404395103
1761466859814264300,1.381264404296875,-0.0015089954249560833,-0.00035797106102108955,-0.00021244329400360584
1761466859824247300,1.391247314453125,0.00032383156940340996,-0.0023397384211421013,0.00014559179544448853
1761466859834231000,1.40123095703125,-0.0012173401191830635,0.00011809286661446095,-0.002095990814268589
1761466859844214300,1.41121435546875,0.001668532844632864,-0.003891009371727705,-0.0036590369418263435
1761466859854197200,1.421197265625,-0.0019075595773756504,-0.0056420378386974335,-0.004083278588950634
1761466859864181200,1.43118115234375,-0.0024174898862838745,-0.008048382587730885,-0.007610299624502659
1761466859874164200,1.441164306640625,0.000395873561501503,-0.008071285672485828,-0.011485998518764973
1761466859884148500,1.4511484375,0.0013105282559990883,-0.018346311524510384,-0.014975971542298794
1761466859894131200,1.461131103515625,-0.00039629172533750534,-0.004564453847706318,0.003756970167160034
1761466859904114200,1.4711142578125,0.0009733377955853939,0.005409084726125002,0.015309495851397514
1761466859914098200,1.48109814453125,0.0009144819341599941,-0.008378099650144577,-0.004050618968904018
1761466859924081400,1.491081298828125,0.0004916898906230927,0.0012189564295113087,-0.011052926070988178
1761466859934064000,1.501064208984375,0.002598516410216689,0.01216614618897438,0.004312447737902403
1761466859944048000,1.511048095703125,-0.0007842713966965675,-0.000241751316934824,0.0017031491734087467
1761466859954031000,1.521031005859375,-0.0021145199425518513,0.0013414982240647078,-0.0024332725442945957
1761466859964015400,1.531015380859375,-0.0031480505131185055,0.004295458551496267,-0.003845446975901723
1761466859973998300,1.540998291015625,0.0004378962330520153,-0.0036567405331879854,-0.0012169069377705455
1761466859983981000,1.55098095703125,0.00015785358846187592,0.003583737649023533,0.001508655259385705
1761466859993965000,1.560965087890625,-0.002002236433327198,0.0007589231245219707,-0.0040802545845508575
1761466860003948300,1.5709482421875,0.001011197455227375,-0.006384705659002066,-0.00355563685297966
1761466860013931300,1.58093115234375,0.000761925708502531,-0.0014498683158308268,-0.0014591964427381754
1761466860023915300,1.590915283203125,-0.0021893628872931004,-0.0015473216772079468,-0.00029123364947736263
1761466860033898200,1.600898193359375,0.0004383786581456661,-0.004103956278413534,-0.001101633533835411
1761466860043882200,1.61088232421875,-0.001749460119754076,-0.0031868163496255875,0.0002693107817322016
1761466860053865200,1.620865234375,0.0011709625832736492,-0.0006727923173457384,-0.001133642392233014
1761466860063848200,1.63084814453125,0.0007092170417308807,-0.001802012324333191,-0.001962136710062623
1761466860073832200,1.640832275390625,-0.0013600587844848633,-0.0018225186504423618,-0.0011679820017889142
1761466860083815400,1.6508154296875,0.0003714403137564659,-0.00006694160401821136,-0.00004519941285252571
1761466860093798100,1.660798095703125,0.0009496123529970646,0.0016119154170155525,-0.00023268605582416058
1761466860103782100,1.6707822265625,0.0018731853924691677,-0.0012302284594625235,-0.002470174338668585
1761466860113765000,1.68076513671875,-0.002531949430704117,-0.0058588022366166115,-0.003328511258587241
1761466860123749400,1.690749267578125,0.0006648260168731213,-0.002119901357218623,0.0005157040432095528
1761466860133732400,1.700732421875,0.0011247536167502403,0.0014905461575835943,-0.003496347926557064
1761466860143715000,1.710715087890625,0.00027591781690716743,-0.0006515586283057928,-0.0017068869201466441
1761466860153699000,1.720698974609375,0.0003744545392692089,-0.0029080549720674753,0.0023999735713005066
1761466860163682300,1.730682373046875,-0.0006289477460086346,-0.000611861003562808,-0.0005486039444804192
1761466860173665300,1.740665283203125,-0.0025288471952080727,-0.0021397164091467857,-0.00031770789064466953
1761466860183649300,1.750649169921875,-0.001721186563372612,-0.0017762115458026528,-0.0026477817445993423
1761466860193632300,1.76063232421875,0.0008780583739280701,0.0005481953267008066,-0.0022576285991817713
1761466860203616300,1.7706162109375,0.000656497199088335,-0.003028376027941704,0.000530667370185256
1761466860213599200,1.78059912109375,0.0004431777633726597,0.0023959502577781677,0.0006976474542170763
1761466860223582200,1.790582275390625,0.001179794780910015,0.006844973191618919,0.0015866444446146488
1761466860233566200,1.800566162109375,-0.00035312073305249214,0.005566389299929142,0.0009171254932880402
1761466860243549400,1.810549560546875,0.001469460316002369,0.003977957181632519,-0.001555003458634019
1761466860253532200,1.8205322265625,0.0017032860778272152,0.003089792327955365,0.003633100539445877
1761466860263516200,1.83051611328125,-0.0009122244082391262,0.0018799689132720232,-0.0003613261505961418
1761466860273499100,1.8404990234375,0.0006731553003191948,0.002697825664654374,-0.0009703910909593105
1761466860283483400,1.8504833984375,0.0009499476291239262,0.002770867431536317,0.0007322095334529877
1761466860293466400,1.86046630859375,0.002649044618010521,0.000011033844202756882,0.0033378461375832558
1761466860303449000,1.870448974609375,-0.00013404851779341698,-0.0014646949712187052,-0.0032127725426107645
1761466860313433000,1.88043310546875,0.000930949579924345,-0.0016708236653357744,-0.0022934493608772755
1761466860323416300,1.890416259765625,-0.0017805779352784157,-0.00389390392228961,-0.0016867719823494554
1761466860333399300,1.9003994140625,-0.0016665947623550892,-0.0030145281925797462,-0.0024239348713308573
1761466860343383300,1.91038330078125,0.002564722206443548,-0.004373681731522083,-0.0010487616527825594
1761466860353366000,1.920365966796875,-0.0012180320918560028,-0.004002436995506287,-0.0009278540965169668
1761466860363350300,1.930350341796875,-0.0004933858290314674,-0.0012077158316969872,-0.0021355976350605488
1761466860373333200,1.940333251953125,-0.0005724816583096981,-0.002621321938931942,-0.002592862583696842
1761466860383316200,1.950316162109375,-0.0006642774678766727,-0.001172119053080678,-0.002213836880400777
1761466860393300200,1.96030029296875,-0.0005468321032822132,0.001883591990917921,0.0026213983073830605
1761466860403283500,1.970283447265625,0.0009342511184513569,-0.0005884417332708836,0.00254245288670063
1761466860413266200,1.98026611328125,-0.001992562785744667,-0.002955725649371743,-0.0008533438667654991
1761466860423250200,1.990250244140625,0.0007103560492396355,-0.002098171040415764,-0.0024359861854463816
1761466860433233200,2.000233154296875,0.0019207627046853304,0.0005817681085318327,-0.002577400067821145
1761466860443217200,2.010217041015625,0.000886047724634409,0.004087802954018116,0.0006936865393072367
1761466860453200400,2.020200439453125,-0.0002111745998263359,0.007146443240344524,0.0018351171165704727
1761466860463183000,2.03018310546875,-0.0020656255073845387,0.001170558389276266,-0.0005917216185480356
1761466860473167000,2.0401669921875,0.0027602885384112597,-0.00021961191669106483,0.0005726125091314316
1761466860483150300,2.050150390625,0.00036594271659851074,0.0021267582196742296,-0.00015309080481529236
1761466860493133300,2.06013330078125,-0.002624520566314459,-0.0002759457565844059,0.0012346827425062656
1761466860503117300,2.070117431640625,0.0007185069844126701,-0.0007882372010499239,0.0005655263084918261
1761466860513100000,2.08010009765625,-0.002324421424418688,-0.0002268427051603794,-0.0013503518421202898
1761466860523084300,2.090084228515625,-0.0019100010395050049,0.002361755119636655,0.001085562165826559
1761466860533067300,2.1000673828125,-0.00023034540936350822,0.0005172498058527708,-0.0008146031759679317
1761466860543050200,2.11005029296875,-0.0009181671775877476,-0.0006398241966962814,0.0013571542222052813
1761466860553035800,2.120035888671875,0.00040063029155135155,-0.0010765825863927603,-0.0015696599148213863
1761466860563018800,2.130018798828125,-0.0006703794933855534,-0.0006638264749199152,-0.0011692699044942856
1761466860573002000,2.140001953125,-0.001576653216034174,-0.0016787572531029582,0.00039107631891965866
1761466860582986000,2.149986083984375,0.002147401450201869,-0.00004226388409733772,0.0004976110067218542
1761466860592968700,2.15996875,-0.00047980714589357376,0.0024067789781838655,0.0008992154616862535
1761466860602952700,2.16995263671875,-0.0025545023381710052,-0.0010140696540474892,0.0020029291044920683
1761466860612935700,2.179935791015625,0.0017654108814895153,-0.00024095410481095314,0.000012482516467571259
1761466860622919000,2.1899189453125,0.0010026944801211357,0.00026030768640339375,0.00039381440728902817
1761466860632903000,2.19990283203125,0.00021093664690852165,0.0029740689788013697,0.0008990159258246422
1761466860642885600,2.2098857421875,-0.0005338587798178196,-0.001356425927951932,0.0003483160398900509
1761466860652868900,2.219868896484375,-0.0010955194011330605,-0.0034885527566075325,-0.0010644907597452402
1761466860662852900,2.229852783203125,0.0006549661047756672,0.004182042554020882,0.0006115941796451807
1761466860672835800,2.2398359375,-0.0004129614681005478,0.000682648504152894,-0.0011141342110931873
1761466860682819800,2.24981982421875,0.001607505138963461,-0.0027307947166264057,-0.0013585620326921344
1761466860692802800,2.259802734375,0.00136222830042243,-0.002335048746317625,0.00023667141795158386
1761466860702785800,2.269785888671875,0.0007305163890123367,0.0004664896987378597,0.0006410970818251371
1761466860712769800,2.279769775390625,-0.0002607121132314205,-0.006129095330834389,-0.0009820994455367327
1761466860722752800,2.289752685546875,-0.0014984873123466969,-0.003960323054343462,-0.00016798777505755424
1761466860732736000,2.299736083984375,0.0015263310633599758,-0.0021986421197652817,-0.0002681226469576359
1761466860742720000,2.309719970703125,0.00019052671268582344,-0.0034067246597260237,-0.0014653473626822233
1761466860752702700,2.31970263671875,-0.0018353397026658058,0.004681029357016087,-0.0007271191570907831
1761466860762686700,2.329686767578125,0.00026293424889445305,0.0029982333071529865,-0.001494317315518856
1761466860772669700,2.339669677734375,-0.00035305460914969444,-0.002361644757911563,-0.003213387681171298
1761466860782653000,2.34965283203125,-0.0008880877867341042,0.0038846880197525024,0.0010958453640341759
1761466860792637000,2.359636962890625,0.0010589491575956345,0.0016929064877331257,0.002747538033872843
1761466860802619600,2.36961962890625,-0.0016101743094623089,-0.003546026535332203,-0.003560357028618455
1761466860812603000,2.379602783203125,-0.002126561012119055,0.001635685795918107,-0.0003270132001489401
1761466860822587000,2.3895869140625,0.0012075980193912983,-0.0009305519051849842,0.001130727818235755
1761466860832569900,2.39956982421875,-0.0012624841183423996,-0.001247467938810587,-0.000785949407145381
1761466860842553900,2.409553955078125,0.0013340571895241737,-0.006001056171953678,-0.0024285248946398497
1761466860852536600,2.41953662109375,-0.002024988178163767,0.00008506607264280319,-0.001132630743086338
1761466860862519800,2.429519775390625,-0.002003695350140333,0.00010204501450061798,-0.0007878716569393873
1761466860872503800,2.43950390625,0.0010815765708684921,-0.002558186650276184,-0.002937841694802046
1761466860882486800,2.44948681640625,-0.0019456613808870316,-0.0011151686776429415,0.0008931101765483618
1761466860892469800,2.4594697265625,0.0021010118070989847,0.0019511952996253967,0.0016036417800933123
1761466860902454000,2.4694541015625,-0.0005142432637512684,0.006494622677564621,0.0010016376618295908
1761466860912436700,2.479436767578125,0.0004120040684938431,-0.004833664745092392,-0.0011057215742766857
1761466860922419700,2.489419677734375,-0.0007520676590502262,-0.0007576444186270237,0.00009151012636721134
1761466860932403700,2.49940380859375,0.00015393970534205437,-0.0010399394668638706,0.0013037812896072865
1761466860942387000,2.509386962890625,0.002101447433233261,0.0012524193152785301,-0.0009089822415262461
1761466860952371000,2.519370849609375,0.0000050067901611328125,0.0009141978807747364,0.0015829377807676792
1761466860962353700,2.529353759765625,-0.0008347849361598492,-0.0018439478008076549,-0.00018679024651646614
1761466860972337000,2.5393369140625,0.0008517950773239136,0.0006714079063385725,-0.00015589757822453976
1761466860982321000,2.54932080078125,-0.000653756782412529,0.0016416471917182207,0.00020921742543578148
1761466860992303900,2.559303955078125,-0.0005312515422701836,-0.0017962274141609669,0.00009097298607230186
1761466861002286600,2.56928662109375,0.0009914906695485115,0.0012603644281625748,-0.0021455539390444756
1761466861012270600,2.5792705078125,-0.001248760148882866,-0.00018919422291219234,0.00018870667554438114
1761466861022253800,2.58925390625,0.00003694882616400719,-0.0007883945945650339,0.000245214207097888
1761466861032237800,2.59923779296875,-0.0022033019922673702,-0.0023990743793547153,0.000214854022487998
1761466861042220800,2.609220703125,0.0010781586170196533,-0.0013718621339648962,-0.002111034467816353
1761466861052203800,2.619203857421875,-0.0006670108996331692,-0.0028485851362347603,-0.0011080880649387836
1761466861062188000,2.62918798828125,0.000568049494177103,0.0018973916303366423,0.0010861253831535578
1761466861072170800,2.639170654296875,-0.00038003548979759216,-0.0007971944287419319,0.0021753583569079638
1761466861082153700,2.64915380859375,-0.0007642596028745174,0.00036952970549464226,0.0014728207606822252
1761466861092137700,2.6591376953125,-0.0013014194555580616,0.000610545976087451,-0.0015027291374281049
1761466861102121000,2.669120849609375,0.00037357723340392113,0.00047054397873580456,-0.0013236539671197534
1761466861112105000,2.67910498046875,0.00007104221731424332,-0.00038539618253707886,0.00044548395089805126
1761466861122087700,2.689087646484375,0.00029439106583595276,0.0032300008460879326,0.002274781698361039
1761466861132070700,2.699070556640625,0.0005857408978044987,0.004287275951355696,0.00027208426035940647
1761466861142055000,2.709054931640625,-0.001964624971151352,0.0023793333675712347,-0.0001514831092208624
1761466861152038000,2.719037841796875,0.0017933612689375877,0.0027204842772334814,0.0008511971682310104
1761466861162020600,2.7290205078125,-0.00029518967494368553,0.0014872981701046228,0.0009517809376120567
1761466861172004600,2.739004638671875,0.00015541724860668182,0.00024733063764870167,-0.0008937893435359001
1761466861181987800,2.74898779296875,-0.0010314644314348698,-0.0013044218067079782,-0.002249296987429261
1761466861191970800,2.758970703125,-0.0011387895792722702,-0.00019947625696659088,0.0005273148417472839
1761466861201954800,2.768954833984375,-0.0007766052149236202,0.001687478506937623,-0.0005579071585088968
1761466861211937800,2.778937744140625,-0.00017206789925694466,-0.0008992496877908707,-0.0015486030606552958
1761466861221921800,2.788921875,-0.0014517037197947502,-0.001580165117047727,0.0005097216926515102
1761466861231904800,2.79890478515625,0.0005773585289716721,-0.0006941314786672592,-0.0007203924469649792
1761466861241887700,2.8088876953125,-0.0027299080975353718,-0.0014345257077366114,0.0011391416192054749
1761466861251871700,2.818871826171875,-0.0003660861402750015,-0.002432944718748331,0.0009705638512969017
1761466861261855000,2.82885498046875,-0.0005185422487556934,0.00032202317379415035,0.002578090177848935
1761466861271837700,2.838837646484375,-0.00037100305780768394,0.002076247241348028,0.00034423056058585644
1761466861281821700,2.84882177734375,0.0006894748657941818,-0.002583324909210205,-0.0005335633177310228
1761466861291804700,2.8588046875,-0.0007433057762682438,0.0015296610072255135,-0.002271009609103203
1761466861301789000,2.868788818359375,0.0001735202968120575,-0.0011714959982782602,-0.0002450274769216776
1761466861311772000,2.87877197265625,0.0017061694525182247,-0.00017147907055914402,0.0013038672041147947
1761466861321754600,2.888754638671875,0.0015224283561110497,-0.00024071894586086273,-0.001032964326441288
1761466861331738600,2.898738525390625,0.0017397422343492508,-0.0009121019393205643,0.0014408458955585957
1761466861341721900,2.908721923828125,-0.0009398609399795532,0.0003405043389648199,0.001012433785945177
1761466861351704800,2.918704833984375,-0.0018871473148465157,-0.005229496862739325,-0.0022030670661479235
1761466861361688800,2.928688720703125,-0.0003450606018304825,-0.0009189904667437077,-0.002159291412681341
1761466861371671600,2.938671630859375,-0.0014886222779750824,0.0007990149315446615,0.0009155941661447287
1761466861381654800,2.94865478515625,0.0008759880438446999,0.0008628235664218664,-0.0006971019320189953
1761466861391638800,2.958638671875,-0.0012002121657133102,-0.00012387754395604134,-0.0013426521327346563
1761466861401621800,2.968621826171875,0.0005205241031944752,0.0012076108250766993,-0.0008039101958274841
1761466861411605800,2.978605712890625,-0.0004171752370893955,0.0011303790379315615,-0.0008406618144363165
1761466861421589000,2.988589111328125,-0.002129418309777975,-0.000058115459978580475,0.0002967484761029482
1761466861431571700,2.99857177734375,-0.0021379408426582813,0.0012937048450112343,0.001281319186091423
1761466861441555700,3.0085556640625,-0.0010628136806190014,0.0010902180802077055,-0.000005634734407067299
1761466861451538700,3.01853857421875,-0.0012580235488712788,-0.005868089385330677,-0.0010051191784441471
1761466861461522000,3.02852197265625,-0.00021317880600690842,0.002359409350901842,0.001108500873669982
1761466861471506000,3.038505859375,0.0019066976383328438,-0.00035381922498345375,-0.0020441492088139057
1761466861481488600,3.048488525390625,-0.002837240695953369,-0.001996066654101014,-0.001209823414683342
1761466861491472600,3.05847265625,0.0009729438461363316,0.0032205332536250353,-0.0013815973652526736
1761466861501456000,3.068455810546875,0.00018343189731240273,0.000567674171179533,0.002074423013255
1761466861511438800,3.07843896484375,-0.0014067413285374641,0.001070212572813034,-0.001212716568261385
1761466861521422800,3.0884228515625,0.0005154791288077831,-0.00032137823291122913,0.00001560407690703869
1761466861531405600,3.098405517578125,0.0017522508278489113,-0.0009759832173585892,-0.0014081218978390098
1761466861541388800,3.108388916015625,-0.0004273112863302231,0.0007214078214019537,-0.0001833280548453331
1761466861551375400,3.118375244140625,-0.00028935959562659264,0.0004771959502249956,0.000737060559913516
1761466861561358300,3.1283583984375,0.0005201767198741436,-0.002198250265792012,-0.0008145964238792658
1761466861571341600,3.138341552734375,0.0006405515596270561,0.0012199168559163809,0.0014946302399039268
1761466861581325600,3.14832568359375,0.00002641277387738228,0.004607402719557285,0.0017999352421611547
1761466861591308500,3.15830859375,-0.0019113030284643173,0.00022943178191781044,0.0019179133232682943
1761466861601292500,3.16829248046875,-0.00011987891048192978,-0.000055080512538552284,-0.0008981535211205482
1761466861611275500,3.178275634765625,-0.002186225727200508,-0.0043933698907494545,-0.0024100299924612045
1761466861621258500,3.188258544921875,-0.0009248261339962482,-0.0007604502607136965,-0.0005825904663652182
1761466861631242500,3.198242431640625,-0.0002553071826696396,-0.003124804701656103,-0.0012832680949941278
1761466861641225500,3.2082255859375,-0.0008418764919042587,0.0032247602939605713,-0.0008677388541400433
1761466861651208400,3.21820849609375,0.00012591620907187462,0.00031259353272616863,0.00026623508892953396
1761466861661192400,3.2281923828125,-0.0011558537371456623,-0.0017394956666976213,0.00006786244921386242
1761466861671175400,3.238175537109375,-0.0015995362773537636,0.002992409048601985,-0.0019540092907845974
1761466861681159400,3.248159423828125,0.00009021814912557602,-0.002201857976615429,-0.0013078099582344294
1761466861691142700,3.258142578125,-0.0013630688190460205,0.00128262210637331,0.0013372416142374277
1761466861701125400,3.26812548828125,-0.001815782394260168,-0.00012784055434167385,0.0010732137598097324
1761466861711109400,3.278109375,0.0003882492892444134,0.0021662062499672174,-0.001376628060825169
1761466861721092400,3.28809228515625,-0.0017421543598175049,0.0008119922131299973,-0.00005982047878205776
1761466861731075600,3.29807568359375,0.0004405723884701729,0.005045619793236256,-0.0003533007111400366
1761466861741059600,3.3080595703125,-0.0013453192077577114,-0.0005678446032106876,0.001507835928350687
1761466861751042600,3.31804248046875,-0.00013917358592152596,-0.0028674842324107885,0.000040434300899505615
1761466861761025500,3.328025634765625,0.000302907545119524,-0.004324750043451786,-0.0003717795480042696
1761466861771009500,3.338009521484375,0.0009452616795897484,-0.001524702413007617,0.0017899081576615572
1761466861780992500,3.347992431640625,0.0029965760186314583,-0.0012420068960636854,-0.000702456571161747
1761466861790976500,3.3579765625,-0.00028843339532613754,0.001662702765315771,0.002171893138438463
1761466861800959500,3.36795947265625,-0.00004950910806655884,0.0008100930135697126,0.0004367541987448931
1761466861810942500,3.3779423828125,0.0007012360729277134,-0.002411533147096634,-0.002080998383462429
1761466861820926500,3.387926513671875,-0.0012257620692253113,0.0012926929630339146,0.0004494867753237486
1761466861830909400,3.397909423828125,0.0005463049747049809,0.0014910981990396976,0.0007584134582430124
1761466861840892700,3.407892578125,0.0007804660126566887,-0.0012248833663761616,0.00010573514737188816
1761466861850876700,3.417876708984375,-0.0011844141408801079,0.007225859444588423,0.0038655861280858517
1761466861860859400,3.427859375,-0.000006138812750577927,0.004110192880034447,-0.00027317670173943043
1761466861870843400,3.437843505859375,0.0008356859907507896,-0.00414667185395956,0.0006887570489197969
1761466861880826400,3.447826416015625,0.0005476824007928371,0.002346558030694723,0.0003559717442840338
1761466861890809600,3.4578095703125,-0.0006400872953236103,0.004465369042009115,-0.000019267667084932327
1761466861900793600,3.467793701171875,-0.0006742598488926888,-0.0010526138357818127,-0.0030880416743457317
1761466861910776600,3.477776611328125,0.0005912738852202892,-0.00021504960022866726,0.0016795492265373468
1761466861920759600,3.487759521484375,0.0019401321187615395,0.0016647011507302523,0.0004205554723739624
1761466861930743600,3.49774365234375,0.00027831969782710075,0.000029786722734570503,-0.002141938079148531
1761466861940726500,3.5077265625,0.0007234467193484306,-0.0024739429354667664,0.00043337326496839523
1761466861950709500,3.51770947265625,-0.0008126646280288696,-0.0021048288326710463,-0.00031550764106214046
1761466861960693500,3.527693603515625,0.0005204267799854279,0.0005829045549035072,0.0000594649463891983
1761466861970676500,3.537676513671875,-0.001903316006064415,0.0008681290782988071,0.0003657285124063492
1761466861980660500,3.547660400390625,-0.0019119489006698132,0.000478613656014204,-0.0008499214891344309
1761466861990643500,3.5576435546875,0.005402157083153725,0.0005625030025839806,0.0012925914488732815
1761466862000626700,3.567626708984375,0.0003060712479054928,0.0016682478599250317,-0.0009703105315566063
1761466862010610700,3.577610595703125,-0.000532025471329689,0.00004318682476878166,0.0003428941126912832
1761466862020593400,3.587593505859375,-0.0006144093349575996,-0.0034184574615210295,0.0010802007745951414
1761466862030576400,3.597576416015625,-0.0001353067345917225,0.001235682750120759,-0.0005358054768294096
1761466862040560400,3.607560302734375,-0.00004020938649773598,0.002969471737742424,0.000001691281795501709
1761466862050543600,3.617543701171875,-0.00013954518362879753,0.0027811862528324127,0.0024107869248837233
1761466862060526600,3.627526611328125,-0.002921625506132841,0.001165604218840599,-0.0009294073097407818
1761466862070510300,3.63751025390625,0.00156686594709754,-0.00022456608712673187,-0.0009935896378010511
1761466862080493600,3.64749365234375,-0.00021129613742232323,-0.0014841884840279818,0.00004102010279893875
1761466862090477600,3.6574775390625,0.0011373287998139858,-0.004054138902574778,-0.0007704452145844698
1761466862100460500,3.66746044921875,-0.00038783345371484756,-0.0017460862873122096,-0.000020537758246064186
1761466862110443500,3.677443603515625,-0.001025660429149866,-0.0009189085103571415,-0.0009345344733446836
1761466862120427500,3.687427490234375,0.0035135464277118444,-0.0018492555245757103,0.0020865073893219233
1761466862130410500,3.697410400390625,0.0008019157685339451,0.0003944577183574438,0.00015624798834323883
1761466862140393500,3.7073935546875,0.001632047351449728,-0.002460008254274726,-0.0018956833519041538
1761466862150377500,3.71737744140625,0.0022866521030664444,-0.001499139703810215,-0.0018360285321250558
1761466862160360400,3.7273603515625,0.0008373870514333248,0.0022929913830012083,0.0009001062717288733
1761466862170344700,3.7373447265625,0.000257883220911026,0.00041013676673173904,-0.002320720814168453
1761466862180327400,3.747327392578125,0.002364635933190584,0.0022712775971740484,0.001235100207850337
1761466862190310400,3.757310302734375,-0.0008071889169514179,0.0028201548848301172,0.00011311029084026814
1761466862200294400,3.76729443359375,0.0018852688372135162,0.002757052658125758,0.0003576881717890501
1761466862210277600,3.777277587890625,-0.001226901076734066,0.002041461644694209,0.0013656946830451488
1761466862220260400,3.78726025390625,0.0008992506191134453,-0.00012643472291529179,0.0017193076200783253
1761466862230244400,3.797244384765625,0.0007253466174006462,-0.0008406946435570717,0.0007224862929433584
1761466862240227600,3.8072275390625,0.0004926673136651516,0.0023256922140717506,0.0015962901525199413
1761466862250210600,3.81721044921875,0.001991494558751583,0.0005232649855315685,0.0005118509288877249
1761466862260194600,3.827194580078125,-0.0007791607640683651,-0.00013126526027917862,0.0006363759748637676
1761466862270177500,3.837177490234375,0.0019969181157648563,0.003275450551882386,-0.0003668367862701416
1761466862280161300,3.847161376953125,0.0010071671567857265,-0.00007520010694861412,0.001407846575602889
1761466862290144500,3.85714453125,-0.0005451892502605915,-0.0009055736009031534,0.002783103147521615
1761466862300127500,3.86712744140625,0.0020451091695576906,-0.0012420513667166233,0.00032604229636490345
1761466862310111500,3.877111572265625,-0.0007352307438850403,0.0014767698012292385,-0.0013152637984603643
1761466862320094500,3.887094482421875,-0.002861996181309223,-0.0010213837958872318,0.00005540694110095501
1761466862330077400,3.897077392578125,0.00004724087193608284,0.005102022551000118,-0.0003656386397778988
1761466862340061400,3.9070615234375,-0.0015842495486140251,0.0004579417873173952,-0.0011136913672089577
1761466862350044400,3.91704443359375,-0.00046039558947086334,0.0021831372287124395,0.0006168307736515999
1761466862360027600,3.927027587890625,0.00039404164999723434,-0.00038716988638043404,0.0008364042732864618
1761466862370011600,3.93701171875,-0.0010603107511997223,0.0005521271377801895,-0.0005031656473875046
1761466862379994400,3.946994384765625,-0.0016592210158705711,0.0010234629735350609,0.0004387281369417906
1761466862389978400,3.956978271484375,0.0010843677446246147,0.0017627566121518612,0.00018759211525321007
1761466862399961300,3.96696142578125,-0.0009325044229626656,0.0020573022775352,0.001544575672596693
1761466862409944600,3.976944580078125,0.0011213254183530807,-0.001078569795936346,0.0004588048905134201
1761466862419928600,3.986928466796875,0.00024511711671948433,0.0027957833372056484,0.002025568624958396
1761466862429911600,3.99691162109375,0.0004547080025076866,0.0023012342862784863,0.0008947902824729681
1761466862439892500,4.006892578125,-0.000007869675755500793,0.0017511530313640833,0.0016217695083469152
1761466862449875700,4.016875732421875,-0.0009013600647449493,-0.0026185617316514254,-0.0000307220034301281
1761466862459858400,4.0268583984375,-0.0004395130090415478,-0.0019993502646684647,0.00040246639400720596
1761466862469842400,4.036842529296875,-0.000918881967663765,-0.0009961372707039118,-0.0002380239311605692
1761466862479825400,4.046825439453125,-0.0002902103587985039,-0.0010446105152368546,0.0007526413537561893
1761466862489808600,4.05680859375,0.0004488169215619564,0.00047658709809184074,-0.0026380952913314104
1761466862499792600,4.066792724609375,-0.0006577656604349613,-0.0014016584027558565,-0.0010441457852721214
1761466862509775400,4.076775390625,0.0024181853514164686,0.0012311425525695086,-0.0010148510336875916
1761466862519759400,4.08675927734375,0.0008256002329289913,0.0005790852010250092,-0.0012449902715161443
1761466862529742600,4.09674267578125,-0.0008926712907850742,-0.0007740671280771494,-0.0019307542825117707
1761466862539725600,4.1067255859375,0.00232324399985373,0.0025822611059993505,0.0013496349565684795
1761466862549709600,4.11670947265625,-0.0013852077536284924,0.00048155966214835644,0.0016071628779172897
1761466862559692000,4.126692138671875,0.0007307291962206364,-0.002675045747309923,0.00007319613359868526
1761466862569675300,4.13667529296875,0.0027126537170261145,-0.0020044618286192417,-0.0020602622535079718
1761466862579659300,4.1466591796875,-0.002566007897257805,0.0006310592871159315,0.0012002377770841122
1761466862589642000,4.15664208984375,-0.0006181718781590462,-0.0015806960873305798,-0.0024341782554984093
1761466862599625200,4.166625244140625,-0.00026818225160241127,0.0021031834185123444,-0.0020881779491901398
1761466862609609200,4.176609130859375,-0.0005177203565835953,0.004873137455433607,0.0013576862402260303
1761466862619592200,4.18659228515625,0.0024399978574365377,0.0006732346955686808,-0.0023545927833765745
1761466862629576200,4.196576171875,-0.0013880301266908646,-0.00045488053001463413,0.00023985886946320534
1761466862639559200,4.20655908203125,0.0012004892341792583,0.0013021116610616446,0.00010574306361377239
1761466862649542100,4.216542236328125,0.00021059205755591393,-0.00018153549171984196,0.0005856447387486696
1761466862659526100,4.226526123046875,-0.0015509026125073433,0.00036087166517972946,0.0015006137546151876
1761466862669509000,4.236509033203125,0.00022302893921732903,-0.0024013591464608908,0.0015171256382018328
1761466862679492400,4.246492431640625,-0.0015720860101282597,-0.0002072756178677082,-0.00004655960947275162
1761466862689476400,4.256476318359375,-0.000890582799911499,0.001598347444087267,-0.0003578830510377884
1761466862699459000,4.266458984375,0.0003353338688611984,-0.0049631232395768166,0.0006492086686193943
1761466862709442000,4.276442138671875,-0.00016054697334766388,0.0012316557113081217,-0.0010658670216798782
1761466862719426000,4.286426025390625,-0.0008917306549847126,0.0006114228162914515,0.00038919132202863693
1761466862729409300,4.2964091796875,0.0009003104642033577,0.0017757571768015623,-0.00002066907472908497
1761466862739393300,4.306393310546875,-0.0009499089792370796,0.0002483546268194914,0.0014116293750703335
1761466862749376000,4.3163759765625,-0.0017472594045102596,-0.0005218316800892353,0.0009394506923854351
1761466862759359200,4.326359130859375,-0.0023545068688690662,0.001121853943914175,0.0023410627618432045
1761466862769343200,4.33634326171875,-0.0003555379807949066,-0.0008390315342694521,0.00006592436693608761
1761466862779326200,4.346326171875,-0.0009728381410241127,-0.0012858605477958918,-0.002028172370046377
1761466862789309200,4.35630908203125,-0.0008588545024394989,0.00005637272261083126,-0.001450799056328833
1761466862799293200,4.366293212890625,0.000553719699382782,-0.00025556888431310654,0.00009980821050703526
1761466862809276200,4.376276123046875,-0.0009174104779958725,0.0008155542891472578,0.0006092707626521587
1761466862819259100,4.386259033203125,0.0006267852149903774,0.0004185568541288376,-0.0009249309077858925
1761466862829243100,4.3962431640625,0.0004006829112768173,0.000841999426484108,-0.0010056246537715197
1761466862839226400,4.406226318359375,0.0016362247988581657,-0.001167881302535534,0.0014719846658408642
1761466862849209000,4.416208984375,0.0014849570579826832,0.0021232529543340206,0.00044799898751080036
1761466862859193000,4.426193115234375,-0.0004659760743379593,0.0009655184112489223,-0.0014372667064890265
1761466862869176000,4.436176025390625,-0.0003408072516322136,-0.0004235862288624048,0.0008629055228084326
1761466862879160000,4.44616015625,0.00011433148756623268,-0.002112994436174631,-0.000572943827137351
1761466862889143300,4.456143310546875,0.001133789774030447,0.0031582005321979523,-0.0003154161386191845
1761466862899126000,4.4661259765625,0.0007412424311041832,-0.004541314672678709,-0.0027250710409134626
1761466862909110000,4.476110107421875,0.0001180628314614296,0.0017741054762154818,-0.00046591158024966717
1761466862919093200,4.48609326171875,-0.001873259898275137,0.003053534310311079,0.000762103358283639
1761466862929076200,4.496076171875,0.0006546122021973133,0.0012127570807933807,0.0009919339790940285
1761466862939060200,4.506060302734375,0.0006504333578050137,0.004224060568958521,0.00014269421808421612
1761466862949043200,4.516043212890625,-0.0029544210992753506,0.005446717608720064,0.003231694921851158
1761466862959026200,4.526026123046875,-0.0014543132856488228,-0.0053148167207837105,-0.0019530775025486946
1761466862969010200,4.53601025390625,-0.0008042356930673122,-0.003697745269164443,-0.0013730409555137157
1761466862978993200,4.5459931640625,-0.0011409143917262554,-0.003280478063970804,-0.0008536227978765965
1761466862988977200,4.55597705078125,-0.0006415713578462601,0.0032754254061728716,0.001173841767013073
1761466862998960400,4.56596044921875,-0.0009192242287099361,0.0036420675460249186,-0.0016594998305663466
1761466863008943000,4.575943115234375,0.0007660244591534138,-0.0001284359022974968,0.00023054564371705055
1761466863018927000,4.585927001953125,-0.0019129402935504913,0.0027815867215394974,0.00008936738595366478
1761466863028912000,4.595912109375,0.0013749985955655575,-0.001518885837867856,0.0011122873984277248
1761466863038895000,4.60589501953125,0.0003963364288210869,-0.002770509570837021,0.0023811294231563807
1761466863048879000,4.615879150390625,-0.0007893028669059277,-0.0009587612003087997,-0.00032197916880249977
1761466863058862300,4.6258623046875,0.000792420469224453,0.000180151779204607,-0.00021438021212816238
1761466863068845300,4.63584521484375,-0.000811068806797266,-0.0015229398850351572,-0.0012330393074080348
1761466863078829000,4.6458291015625,0.0009705270640552044,0.000222883652895689,0.0011730871628969908
1761466863088812000,4.65581201171875,0.0020240736193954945,-0.0001142728142440319,0.000344577943906188
1761466863098795300,4.665795166015625,-0.0006000539287924767,0.00006546080112457275,0.00024864147417247295
1761466863108779300,4.675779296875,0.002534752944484353,-0.0008511992637068033,0.0003096279688179493
1761466863118762200,4.68576220703125,0.0001956694759428501,-0.0017894230550155044,-0.0027315644547343254
1761466863128745000,4.695744873046875,-0.0009225918911397457,0.002556056948378682,-0.0009706823620945215
1761466863138729200,4.705729248046875,-0.00038078101351857185,0.0015017495024949312,-0.00011712056584656239
1761466863148712200,4.715712158203125,-0.0035052020102739334,0.0005179781001061201,0.00036171567626297474
1761466863158696200,4.7256962890625,0.0003324570134282112,-0.0035381957422941923,0.0009244910907000303
1761466863168679200,4.73567919921875,-0.0011557177640497684,-0.0000598409678786993,-0.000073661794885993
1761466863178662100,4.745662109375,-0.002797966357320547,0.002873764606192708,0.005464963614940643
1761466863188646100,4.755646240234375,-0.000017892569303512573,-0.005111724138259888,-0.0006917319260537624
1761466863198629000,4.765629150390625,-0.000528234988451004,-0.004165887366980314,-0.0015221722424030304
1761466863208612000,4.775612060546875,0.0005170558579266071,0.002071768743917346,-0.00114000856410712
1761466863218596000,4.78559619140625,0.0010610581375658512,0.0012600384652614594,0.002193146152421832
1761466863228579300,4.795579345703125,0.00019553117454051971,-0.0036977019626647234,0.00027540395967662334
1761466863238562000,4.80556201171875,0.0020154453814029694,0.0038596484810113907,-0.002515037776902318
1761466863248546000,4.815546142578125,-0.0020322930067777634,-0.0013878440950065851,0.0012365574948489666
1761466863258529300,4.825529296875,-0.0019779736176133156,-0.0008920093532651663,-0.0002264515496790409
1761466863268513300,4.83551318359375,0.0023110471665859222,0.0006377105601131916,-0.00187228515278548
1761466863278496300,4.845496337890625,-0.00003261584788560867,0.0014335389714688063,-0.0007950242143124342
1761466863288479000,4.85547900390625,-0.0011082664132118225,-0.002064789179712534,-0.0021979776211082935
1761466863298463200,4.865463134765625,0.0013241264969110489,-0.0016131435986608267,0.0009876345284283161
1761466863308446200,4.8754462890625,-0.000817321240901947,-0.002907439833506942,-0.0028869984671473503
1761466863318429200,4.88542919921875,0.00200652820058167,-0.002067096997052431,0.00015435484237968922
1761466863328413200,4.8954130859375,0.0009220889769494534,-0.002839679829776287,-0.0019455476431176066
1761466863338396200,4.905396240234375,0.0017849532887339592,-0.00372864305973053,-0.0020403561647981405
1761466863348379100,4.915379150390625,-0.000038247089833021164,0.007294180803000927,-0.0001537729986011982
1761466863358363100,4.925363037109375,0.0001337123103439808,0.005466756876558065,0.0032306406646966934
1761466863368346000,4.93534619140625,-0.0011890796013176441,-0.006692437455058098,-0.003083980642259121
1761466863378330000,4.945330078125,-0.00028938986361026764,0.0013487781397998333,0.0022444180212914944
1761466863388313000,4.95531298828125,-0.0003794045187532902,0.0020609074272215366,0.0016534626483917236
1761466863398296000,4.965296142578125,0.001809809822589159,-0.002546926960349083,-0.00031565153039991856
1761466863408280000,4.975280029296875,-0.0011572176590561867,-0.002422291086986661,0.00011125323362648487
1761466863418263300,4.98526318359375,0.0008069565519690514,0.00010719825513660908,0.00033619184978306293
1761466863428246300,4.995246337890625,0.0010285316966474056,0.0009498223662376404,-0.0011389332357794046
1761466863438230300,5.005230224609375,0.0006702309474349022,0.0015132713597267866,0.00041328510269522667
1761466863448213000,5.015212890625,-0.0016187559813261032,-0.003263374324887991,-0.0030235243029892445
1761466863458196200,5.0251962890625,-0.00058713648468256,-0.0018554326379671693,-0.00005121249705553055
1761466863468180200,5.03518017578125,-0.0010191015899181366,0.0012418234255164862,0.00005691195838153362
1761466863478163200,5.0451630859375,0.0008830148726701736,-0.0030180448666214943,0.00041901785880327225
1761466863488146200,5.055146240234375,-0.001081865280866623,-0.0015618284232914448,-0.003017791546881199
1761466863498130200,5.065130126953125,0.002840366680175066,0.0014120044652372599,0.0014770061243325472
1761466863508113200,5.075113037109375,-0.0018076482228934765,0.0004865562077611685,-0.0019688578322529793
1761466863518097200,5.08509716796875,0.00016264477744698524,0.0006147779058665037,-0.0023857264313846827
1761466863528080100,5.095080078125,-0.00002351030707359314,0.0016851022373884916,0.00031445245258510113
1761466863538063000,5.10506298828125,0.00003772508352994919,-0.00016894307918846607,0.0020053365733474493
1761466863548047000,5.115047119140625,0.00018925871700048447,0.0002494396176189184,-0.00006686896085739136
1761466863558026200,5.125026123046875,0.0002990853972733021,-0.0010053659789264202,0.00037455628626048565
1761466863568009500,5.135009521484375,-0.004890350624918938,0.0017898876685649157,-0.00009362725540995598
1761466863577993500,5.144993408203125,0.000609144102782011,0.0029666954651474953,0.0017504438292235136
1761466863587976400,5.1549765625,0.000596094410866499,-0.0015966310165822506,0.0005299169570207596
1761466863597959200,5.164959228515625,0.0009763208217918873,-0.0026497631333768368,-0.0016017610905691981
1761466863607943400,5.174943359375,0.0008828439749777317,-0.002573064062744379,-0.0009977561421692371
1761466863617926400,5.184926513671875,-0.0035064993426203728,0.000270673306658864,0.000021364307031035423
1761466863627909400,5.194909423828125,0.0005457662045955658,0.0007140899542719126,-0.00030220975168049335
1761466863637893400,5.204893310546875,0.0004393351264297962,0.0019060878548771143,0.002709772903472185
1761466863647876400,5.21487646484375,-0.001127669122070074,-0.00025054020807147026,0.00041199754923582077
1761466863657860400,5.2248603515625,0.001008183229714632,-0.005213554948568344,0.0016047630924731493
1761466863667843300,5.23484326171875,0.0006617060862481594,-0.0025341487489640713,0.0005932943895459175
1761466863677826300,5.244826416015625,0.00006818631663918495,-0.005727631039917469,0.00038539269007742405
1761466863687810300,5.254810302734375,-0.0008868230506777763,0.0024440125562250614,0.001477288780733943
1761466863697793500,5.26479345703125,-0.000990432221442461,0.0011959981638938189,0.0007128957659006119
1761466863707776300,5.2747763671875,0.0013347738422453403,-0.00017552985809743404,0.0010641664266586304
1761466863717760300,5.28476025390625,0.00019069155678153038,0.001466365996748209,-0.001999735599383712
1761466863727743500,5.294743408203125,-0.0005118502303957939,0.0008458495140075684,0.002289817901328206
1761466863737726500,5.3047265625,-0.0007017436437308788,-0.0025593964383006096,-0.0015309775481000543
1761466863747710500,5.31471044921875,-0.0013105422258377075,0.001344797434285283,-0.0029395234305411577
1761466863757693200,5.324693115234375,-0.0009078560397028923,-0.0020598347764462233,0.0026314507704228163
1761466863767676400,5.334676513671875,0.001197106670588255,-0.0026510567404329777,-0.0011156166438013315
1761466863777660400,5.344660400390625,-0.0010203379206359386,-0.0038003535009920597,-0.0034992326982319355
1761466863787643400,5.354643310546875,0.0010020663030445576,0.001491613918915391,0.0015202932991087437
1761466863797627400,5.36462744140625,0.0007630800828337669,-0.0007334237452596426,-0.002293989062309265
1761466863807610400,5.3746103515625,-0.000047320034354925156,-0.0022535561583936214,-0.0005368352867662907
1761466863817593300,5.38459326171875,-0.0002417103387415409,0.0005308690015226603,-0.0002940304111689329
1761466863827577300,5.394577392578125,-0.00010668812319636345,-0.0015171016566455364,-0.0001009511761367321
1761466863837560300,5.404560302734375,-0.0007141227833926678,-0.00015110964886844158,-0.0022899287287145853
1761466863847543600,5.41454345703125,-0.003013229463249445,0.0023317555896937847,0.0016992201562970877
1761466863857527300,5.42452734375,-0.0015353006310760975,0.002076809760183096,0.00016764854080975056
1761466863867510300,5.43451025390625,-0.0006042593158781528,0.0029812194406986237,-0.0009127960074692965
1761466863877493500,5.444493408203125,0.0016829660162329674,-0.0004997984506189823,0.000017775222659111023
1761466863887477500,5.4544775390625,-0.0007937736809253693,0.0019998447969555855,0.0005464127752929926
1761466863897460500,5.46446044921875,-0.00017792265862226486,0.002446085913106799,0.0018339029047638178
1761466863907443200,5.474443115234375,-0.0011326656676828861,-0.00013238657265901566,-0.0012582936324179173
1761466863917427200,5.48442724609375,0.0012774295173585415,-0.0015950468368828297,-0.002644864609465003
1761466863927410400,5.494410400390625,-0.000975604634732008,0.0006260296795517206,-0.0014176799450069666
1761466863937394400,5.50439453125,-0.001000367570668459,-0.004838667809963226,0.0017011186573654413
1761466863947377400,5.51437744140625,0.0002513183280825615,-0.004988870117813349,-0.0030422373674809933
1761466863957360400,5.5243603515625,-0.00093429209664464,0.0003909519873559475,0.0003816685639321804
1761466863967344400,5.534344482421875,-0.0004165736027061939,0.0009816410019993782,0.001678361790254712
1761466863977327400,5.544327392578125,0.002904249355196953,-0.0017780652269721031,-0.0029578274115920067
1761466863987310300,5.554310302734375,-0.0014830422587692738,0.0007482091896235943,0.00009601935744285583
1761466863997294300,5.56429443359375,-0.0020142304711043835,-0.001871675718575716,-0.0001268470659852028
1761466864007277600,5.574277587890625,-0.0005510896444320679,-0.000547552015632391,0.00010378262959420681
1761466864017260300,5.58426025390625,-0.003016611561179161,0.0005161829758435488,0.0009962564799934626
1761466864027244300,5.594244384765625,-0.0002759522758424282,0.0011955553200095892,0.0017424740362912416
1761466864037227500,5.6042275390625,-0.0005588135682046413,0.0007216553203761578,-0.0027051339857280254
1761466864047210500,5.61421044921875,-0.0019292761571705341,-0.00020592357032001019,0.0011740266345441341
1761466864057194500,5.624194580078125,-0.0010083899833261967,-0.002534177154302597,-0.002729055006057024
1761466864067177200,5.63417724609375,-0.0035173543728888035,0.00026587024331092834,0.0015927227213978767
1761466864077160400,5.644160400390625,0.0007941755466163158,0.0021053231321275234,0.00016701128333806992
1761466864087144400,5.65414453125,0.00006446940824389458,-0.0032774582505226135,0.0015198972541838884
1761466864097127400,5.66412744140625,-0.000043602194637060165,0.0009623914957046509,-0.0005221909377723932
1761466864107111400,5.674111328125,-0.00020765280351042747,0.0009091286920011044,0.0025910446420311928
1761466864117094400,5.684094482421875,-0.00024873949587345123,-0.001385245705023408,-0.0007238853722810745
1761466864127077400,5.694077392578125,0.0013030841946601868,-0.0019905823282897472,-0.0010658353567123413
1761466864137061400,5.704061279296875,0.001405881717801094,0.0013407869264483452,0.000502059468999505
1761466864147044400,5.71404443359375,-0.0006719166412949562,-0.006080644205212593,-0.0014724081847816706
1761466864157027600,5.724027587890625,0.0004273010417819023,0.001513311406597495,0.00044125248678028584
1761466864167011300,5.73401123046875,0.0006760400719940662,0.001279219752177596,-0.0018179069738835096
1761466864176994300,5.743994384765625,-0.0002321256324648857,0.0006993401329964399,-0.0015836599050089717
1761466864186977300,5.753977294921875,-0.000435591209679842,-0.00391352130100131,-0.00191176135558635
1761466864196961300,5.763961181640625,-0.00016851210966706276,0.0013092770241200924,0.002392637776210904
1761466864206944500,5.773944580078125,0.0016355132684111595,-0.0023315302096307278,-0.0001781117171049118
1761466864216927200,5.78392724609375,-0.0016913819126784801,-0.0036136950366199017,0.00042508868500590324
1761466864226911200,5.7939111328125,-0.0004998832009732723,0.0031672457698732615,0.002316998550668359
1761466864236894500,5.80389453125,0.0008691116236150265,0.0019029537215828896,0.0002465220168232918
1761466864246878500,5.81387841796875,0.0007074577733874321,-0.005810093134641647,0.00025557680055499077
1761466864256861400,5.823861328125,-0.002996183931827545,0.0011184930335730314,0.00006393413059413433
1761466864266844200,5.83384423828125,-0.00125208031386137,0.002117178635671735,0.0016040403861552477
1761466864276828400,5.843828369140625,-0.0003464166074991226,-0.0006537220906466246,-0.001853965106420219
1761466864286811400,5.853811279296875,0.0014775828458368778,-0.0018841023556888103,0.0006440801080316305
1761466864296794400,5.86379443359375,-0.001145817805081606,0.0033495957031846046,0.0006176442839205265
1761466864306778400,5.8737783203125,0.0005428926087915897,-0.0018395734950900078,-0.0004843717906624079
1761466864316761300,5.88376123046875,0.0011726059019565582,0.0022613280452787876,0.001227035652846098
1761466864326744300,5.893744384765625,-0.0011944114230573177,0.0015662433579564095,-0.0013122883392497897
1761466864336728300,5.903728271484375,0.0017460398375988007,-0.002357162069529295,-0.0019733314402401447
1761466864346711300,5.913711181640625,0.00030633481219410896,-0.0015648715198040009,0.0019622878171503544
1761466864356694500,5.923694580078125,0.0005846847780048847,-0.0012540204916149378,0.00020603928714990616
1761466864366678500,5.933678466796875,0.0013908236287534237,-0.003381886286661029,0.0021208522375673056
1761466864376661200,5.9436611328125,0.0002976194955408573,0.0020861097145825624,0.000905126566067338
1761466864386644500,5.95364453125,0.00041692936792969704,0.0027673461008816957,0.0006942041218280792
1761466864396628500,5.96362841796875,0.000014929566532373428,0.003426369745284319,-0.0003043455071747303
1761466864406611500,5.973611572265625,-0.0005366108380258083,0.0008201999589800835,-0.00002577877603471279
1761466864416594200,5.98359423828125,0.0012921788729727268,-0.0017933060880750418,-0.000920632854104042
1761466864426578200,5.993578125,-0.00007828418165445328,0.003728225827217102,0.003369187004864216
1761466864436561400,6.0035615234375,-0.0008188541978597641,0.002894504927098751,-0.00006391271017491817
1761466864446545400,6.01354541015625,0.0014325822703540325,-0.004289106000214815,-0.002928142435848713
1761466864456528400,6.0235283203125,-0.00005176151171326637,0.001928557176142931,0.0017599181737750769
1761466864466511400,6.033511474609375,-0.0008256761357188225,-0.0008086396846920252,-0.0032822447828948498
1761466864476495400,6.043495361328125,-0.0023764302022755146,-0.004148988053202629,0.0004412748385220766
1761466864486478300,6.053478271484375,-0.001734075602144003,0.003844490274786949,0.002333184238523245
1761466864496461300,6.06346142578125,0.0008325297385454178,0.002218022244051099,-0.0014156027464196086
1761466864506445300,6.0734453125,-0.003238378558307886,-0.0015918959397822618,-0.0012539488961920142
1761466864516428500,6.083428466796875,-0.0013716649264097214,0.001310048857703805,0.00009133946150541306
1761466864526411300,6.093411376953125,0.0010078693740069866,-0.0016742893494665623,-0.00010626716539263725
1761466864536395300,6.103395263671875,-0.0017090924084186554,-0.00036488333716988564,0.002084485488012433
1761466864546378500,6.11337841796875,0.0033037755638360977,0.0020988069009035826,0.00009403866715729237
1761466864556362000,6.123362060546875,0.0006473599933087826,-0.0029739798046648502,-0.0009363340213894844
1761466864566346000,6.133345947265625,0.001507028006017208,0.0023659244179725647,0.0013680991251021624
1761466864576329000,6.143328857421875,0.0015378487296402454,0.0015826341696083546,0.002642490202561021
1761466864586312000,6.15331201171875,-0.001783379353582859,0.00202338770031929,0.00021981238387525082
1761466864596296000,6.1632958984375,0.001075561624020338,-0.0002414262853562832,0.0021594190038740635
1761466864606279000,6.17327880859375,-0.00079344492405653,0.001025971956551075,0.0005439452361315489
1761466864616263000,6.183262939453125,-0.0006073359400033951,0.0010477409232407808,0.001145398709923029
1761466864626246000,6.193245849609375,0.0008968175388872623,-0.0009520270396023989,0.0023371633142232895
1761466864636228900,6.203228759765625,-0.00296173058450222,0.0006250517908483744,-0.001026015030220151
1761466864646212900,6.213212890625,0.0013456656597554684,-0.0017930982867255807,0.0009657631162554026
1761466864656195800,6.22319580078125,-0.00024503516033291817,0.003141615306958556,0.001133462181314826
1761466864666178800,6.2331787109375,-0.0007643513381481171,0.00029762578196823597,-0.0009427380282431841
1761466864676163000,6.2431630859375,-0.0005598398856818676,-0.001864050980657339,-0.0008197578135877848
1761466864686146000,6.25314599609375,0.0017352723516523838,-0.0004006440285593271,0.0010945226531475782
1761466864696128800,6.263128662109375,-0.0010156272910535336,-0.0019715065136551857,-0.0016131841111928225
1761466864706112800,6.27311279296875,-0.0005218768492341042,-0.0030128024518489838,0.0003727350849658251
1761466864716096000,6.283095947265625,-0.00007708510383963585,0.00046974606812000275,-0.000657262047752738
1761466864726079000,6.293078857421875,0.0009322529658675194,-0.002736167050898075,-0.0009648571722209454
1761466864736063000,6.30306298828125,0.00033646728843450546,-0.0014869156293570995,-0.0009612927678972483
1761466864746046000,6.3130458984375,-0.0015067062340676785,0.006478332914412022,0.002629979746416211
1761466864756029000,6.32302880859375,0.00039349310100078583,-0.0009943589102476835,0.0017183602321892977
1761466864766013000,6.333012939453125,-0.00021237600594758987,-0.001529121771454811,-0.003417013445869088
1761466864775996000,6.342995849609375,-0.00000971183180809021,0.004938395693898201,-0.001362018403597176
1761466864785979100,6.352979248046875,-0.0015591392293572426,-0.003108877455815673,-0.0011135453823953867
1761466864795963000,6.362962890625,-0.0013327072374522686,-0.0022030652035027742,-0.0011959403054788709
1761466864805945900,6.37294580078125,0.0037328912876546383,0.0005985803436487913,-0.0012574592838063836
1761466864815929900,6.382929931640625,-0.00028679706156253815,0.0007108233403414488,0.0003178089391440153
1761466864825912800,6.392912841796875,-0.0005733529105782509,-0.0030215971637517214,0.0011303392238914967
1761466864835896000,6.40289599609375,-0.0014447309076786041,0.0013950983993709087,0.0014918164815753698
1761466864845880000,6.412880126953125,-0.0008077025413513184,0.001659017987549305,-0.0016041084891185164
1761466864855862800,6.42286279296875,0.0009722788818180561,0.0012631264980882406,0.0013046935200691223
1761466864865846000,6.432845947265625,-0.0004988512955605984,0.0029425157699733973,-0.00010545016266405582
1761466864875830000,6.442830078125,-0.0016492358408868313,-0.0022590672597289085,-0.002227384364232421
1761466864885813000,6.45281298828125,-0.00003908853977918625,0.0024177099112421274,0.0028768302872776985
1761466864895795700,6.462795654296875,-0.002111838199198246,0.0023992767091840506,0.0012128895614296198
1761466864905779700,6.47277978515625,0.000028810929507017136,-0.00206551281735301,-0.0011868850560858846
1761466864915763000,6.482762939453125,0.0018984423950314522,-0.0033414142671972513,0.0003519242163747549
1761466864925746000,6.492745849609375,-0.0015945592895150185,0.0013161881361156702,-0.00004302244633436203
1761466864935730000,6.50272998046875,0.0017612813971936703,-0.0031857292633503675,-0.001410713535733521
1761466864945713000,6.512712890625,-0.0026526418514549732,-0.0017822434892877936,0.003099882509559393
1761466864955695900,6.52269580078125,-0.0016795923002064228,0.005383087322115898,-0.00239497609436512
1761466864965679900,6.532679931640625,0.001324453391134739,0.0006391981150954962,0.00021625333465635777
1761466864975662800,6.542662841796875,-0.00029003946110606194,-0.0031368453055620193,-0.000903374282643199
1761466864985646000,6.55264599609375,0.0009286231361329556,0.0016342075541615486,0.0016242319252341986
1761466864995630000,6.562630126953125,-0.00057944655418396,-0.0026425491087138653,0.000018149148672819138
1761466865005612800,6.57261279296875,-0.0008244570344686508,-0.0033248511608690023,0.00001655123196542263
1761466865015596000,6.582595947265625,0.00039589591324329376,0.0016558121424168348,0.0011102138087153435
1761466865025580000,6.592580078125,-0.0007205014117062092,0.0009024038445204496,0.00045667379163205624
1761466865035563000,6.60256298828125,0.0007506422698497772,0.0004754960536956787,0.0025783050805330276
1761466865045547000,6.612547119140625,0.0009266771376132965,-0.003034550230950117,-0.0019243014976382256
1761466865055529700,6.62252978515625,0.000874742865562439,0.0022900726180523634,-0.001748845330439508
1761466865065513000,6.632512939453125,0.0006017689593136311,0.00030015851370990276,0.0015191195998340845
1761466865075497000,6.6424970703125,0.000989431980997324,-0.001207172404974699,-0.0018764667911455035
1761466865085480000,6.65247998046875,-0.0005389559082686901,-0.00005375733599066734,0.0017640742007642984
1761466865095463000,6.662462890625,0.002450734144076705,0.0013682509306818247,0.0011848171707242727
1761466865105447000,6.672447021484375,-0.0017970078624784946,0.002334712306037545,0.0027920349966734648
1761466865115430000,6.682429931640625,0.00041635939851403236,0.0001627106685191393,0.000900413142517209
1761466865125412900,6.692412841796875,-0.0005218721926212311,0.001974459271878004,0.0015499580185860395
1761466865135396900,6.70239697265625,-0.0018447041511535645,-0.0003094703424721956,-0.0015170036349445581
1761466865145380000,6.712380126953125,0.00018036412075161934,-0.001619212795048952,0.0013597430661320686
1761466865155362800,6.72236279296875,-0.0007685995660722256,0.0012718208599835634,0.0014625710900872946
1761466865165346800,6.732346923828125,0.0015843035653233528,-0.001996943261474371,-0.0011124392040073872
1761466865175330000,6.742330078125,0.0005124099552631378,-0.0018549106316640973,0.0011685220524668694
1761466865185313000,6.75231298828125,-0.0029560914263129234,-0.0020605064928531647,0.00026144925504922867
1761466865195297000,6.762297119140625,0.0007016807794570923,-0.002243143506348133,0.000424080528318882
1761466865205279700,6.77227978515625,0.00019701151177287102,-0.0018303535180166364,0.00026961718685925007
1761466865215263000,6.782262939453125,-0.001923109870404005,0.0015901494771242142,0.0014631946105509996
1761466865225247000,6.7922470703125,0.0018047834746539593,-0.0008748723194003105,-0.0018452504882588983
1761466865235230000,6.80222998046875,-0.0005640978924930096,-0.0020401296205818653,0.0015729446895420551
1761466865245214000,6.8122138671875,-0.0007752864621579647,0.004081412218511105,-0.000035071978345513344
1761466865255197000,6.822197021484375,0.00104510597884655,-0.0003248201683163643,-0.00013630627654492855
1761466865265180000,6.832179931640625,-0.0028369841165840626,-0.0021794454660266638,-0.003142482601106167
1761466865275164000,6.842163818359375,0.0020342757925391197,0.0023539303801953793,0.0012980364263057709
1761466865285147000,6.85214697265625,0.0007157446816563606,0.0033145323395729065,-0.0002838810905814171
1761466865295130000,6.862130126953125,-0.0015004263259470463,-0.0006443224847316742,0.00034083519130945206
1761466865305114000,6.872114013671875,0.00007936079055070877,-0.0005793413147330284,0.00046334066428244114
1761466865315096800,6.882096923828125,-0.0005643353797495365,0.0030665972735732794,0.0025306488387286663
1761466865325079800,6.892079833984375,-0.0004942938685417175,-0.004451506771147251,-0.0007154783234000206
1761466865335063800,6.902063720703125,-0.0006085261702537537,-0.0007660489063709974,-0.0022056838497519493
1761466865345047000,6.912047119140625,-0.0012657945044338703,-0.0035091047175228596,0.000867870170623064
1761466865355029800,6.92202978515625,-0.0000222683884203434,0.0018600597977638245,-0.0002514647785574198
1761466865365013800,6.932013671875,0.0007607010193169117,-0.0030180523172020912,0.0009485557675361633
1761466865374997000,6.9419970703125,0.002292744815349579,-0.0020149326883256435,0.0006322974804788828
1761466865384980000,6.95197998046875,0.00043146172538399696,0.00034729111939668655,-0.0005546733736991882
1761466865394964000,6.9619638671875,-0.000011712778359651566,0.0005912766791880131,-0.00046903244219720364
1761466865404946700,6.97194677734375,0.0007259827107191086,0.0017188587225973606,0.0009056911803781986
1761466865414930000,6.981929931640625,0.00209489231929183,0.0028166817501187325,-0.0014017716748639941
1761466865424914000,6.991913818359375,0.0009364173747599125,-0.0015274665784090757,-0.0017716847360134125
1761466865434897000,7.00189697265625,0.0010276902467012405,0.0009365209843963385,-0.00013860524632036686
1761466865444880100,7.011880126953125,-0.0022570528090000153,0.0022563838865607977,-0.000739414244890213
1761466865454864100,7.021864013671875,-0.001500728540122509,0.002924698404967785,-0.000120226526632905
1761466865464846800,7.031846923828125,0.0005206107161939144,-0.0035915242042392492,0.0005098774563521147
1761466865474829800,7.041829833984375,-0.0017882473766803741,0.0002284760121256113,0.0004684613086283207
1761466865484813800,7.051813720703125,0.002316749421879649,0.0026540833059698343,-0.0026093539781868458
1761466865494797000,7.061797119140625,-0.001042527612298727,-0.0027915581595152617,-0.0012112092226743698
1761466865504781000,7.071781005859375,-0.0014401376247406006,0.0017611158546060324,0.0008697847370058298
1761466865514763800,7.081763671875,0.0015345467254519463,-0.00026454217731952667,-0.0008783275261521339
1761466865524747000,7.0917470703125,0.0019966051913797855,-0.0027005355805158615,0.00036723283119499683
1761466865534731000,7.10173095703125,-0.0009149285033345222,0.0008216896094381809,-0.0007423327770084143
1761466865544714000,7.1117138671875,0.0023232088424265385,0.0009567118249833584,0.0003205349203199148
1761466865554696700,7.12169677734375,0.00010768231004476547,-0.0035708241630345583,-0.0010716107208281755
1761466865564684800,7.131684814453125,-0.0012758299708366394,-0.0011830339208245277,0.0005654343403875828
1761466865574668000,7.14166796875,0.00012944964691996574,0.0008485738653689623,0.0012780975084751844
1761466865584651000,7.151651123046875,0.000010672491043806076,-0.0013919435441493988,-0.0009573597926646471
1761466865594635000,7.161635009765625,-0.0009811688214540482,-0.0026599515695124865,-0.0007059841882437468
1761466865604617700,7.17161767578125,-0.00021444493904709816,0.0018288062419742346,-0.002036765683442354
1761466865614601000,7.18160107421875,0.0014670323580503464,0.002907912712544203,0.002411783905699849
1761466865624585000,7.1915849609375,-0.0009415308013558388,-0.002756098285317421,-0.000004236120730638504
1761466865634568000,7.20156787109375,-0.00018447823822498322,0.0011601774021983147,0.0005899793468415737
1761466865644551000,7.211551025390625,0.0011335201561450958,-0.0007426512893289328,-0.0028763911686837673
1761466865654535000,7.221534912109375,0.0003351145423948765,-0.0020137126557528973,-0.0021918797865509987
1761466865664518000,7.231517822265625,0.0011220783926546574,0.003808490000665188,-0.0002054278738796711
1761466865674500900,7.2415009765625,0.0005461815744638443,-0.0038327365182340145,0.00023943395353853703
1761466865684484900,7.25148486328125,0.0010804119519889355,-0.001956805819645524,-0.0014620597939938307
1761466865694468000,7.261468017578125,0.0012035351246595383,-0.002085436601191759,0.0008562221191823483
1761466865704450800,7.271450927734375,0.0006567882373929024,-0.000365034444257617,0.00022611813619732857
1761466865714434800,7.281434814453125,-0.001033030916005373,0.0010324823670089245,0.0006463311146944761
1761466865724418000,7.29141796875,0.0021249454002827406,-0.00004370114766061306,-0.0007987001445144415
1761466865734401000,7.301401123046875,-0.00004234910011291504,0.0005562109872698784,0.0020546449813991785
1761466865744385000,7.311385009765625,-0.000842096284031868,-0.0016536798793822527,-0.0011829601135104895
1761466865754367700,7.32136767578125,-0.002095635049045086,0.0008570316713303328,0.0010144654661417007
1761466865764351700,7.331351806640625,-0.0002801581285893917,0.00035502598620951176,-0.001543767168186605
1761466865774335000,7.3413349609375,-0.0007780375890433788,-0.0020651116501539946,-0.0008437528740614653
1761466865784318000,7.35131787109375,0.00012211082503199577,-0.003116793930530548,0.0009794470388442278
1761466865794302000,7.361302001953125,0.0008804085664451122,-0.0006125979125499725,-0.001334079192019999
1761466865804285000,7.371284912109375,0.0011595077812671661,0.0022340549621731043,0.001546928659081459
1761466865814268000,7.381267822265625,-0.00006713811308145523,-0.003351418301463127,0.000704293604940176
1761466865824252000,7.391251953125,0.000954716932028532,-0.002976445248350501,0.00212082895450294
1761466865834235000,7.40123486328125,0.0019439458847045898,0.0003380593843758106,0.0024045349564403296
1761466865844218000,7.411218017578125,-0.001728286501020193,-0.002341080456972122,-0.0009262803941965103
1761466865854202000,7.4212021484375,0.002113631460815668,-0.0009988897945731878,0.0001685088500380516
1761466865864184800,7.431184814453125,-0.0015205182135105133,0.0018922376912087202,-0.00007357238791882992
1761466865874167800,7.441167724609375,-0.0024549891240894794,0.0011889517772942781,-0.0008790281135588884
1761466865884151800,7.45115185546875,-0.0022259573452174664,0.0004166348371654749,0.0011516325175762177
1761466865894135000,7.461135009765625,-0.0014439821243286133,-0.0006539064925163984,0.0006588345859199762
1761466865904117800,7.47111767578125,-0.000054078176617622375,0.0031115368474274874,0.0002473762724548578
1761466865914101800,7.481101806640625,-0.0009780055843293667,-0.002551615471020341,-0.0009703233372420073
1761466865924085000,7.4910849609375,-0.00140464399009943,-0.0033292584121227264,-0.002242515329271555
1761466865934068000,7.50106787109375,-0.000006360933184623718,0.00231570890173316,-0.0004964391700923443
1761466865944052000,7.511052001953125,0.000834132544696331,0.003618260845541954,0.0008726920932531357
1761466865954034700,7.52103466796875,-0.0003410135395824909,-0.002219274640083313,-0.0013200721004977822
1761466865964018000,7.531017822265625,0.002884873189032078,0.004196014255285263,0.0001222959253937006
1761466865974002000,7.541001953125,-0.0019285581074655056,0.0014313880819827318,0.0007722252048552036
1761466865983985000,7.55098486328125,-0.0012497184798121452,-0.0019220644608139992,0.002280905842781067
1761466865993968000,7.560968017578125,0.0013261772692203522,0.0003792368806898594,-0.0035797515884041786
1761466866003952000,7.5709521484375,-0.0009934362024068832,-0.0015946978237479925,-0.00030299811623990536
1761466866013934800,7.580934814453125,0.0017933035269379616,0.0019748995546251535,-0.000713202403858304
1761466866023917800,7.590917724609375,-0.00009700795635581017,0.000795385567471385,0.0015968235675245523
1761466866033901800,7.60090185546875,0.00019498635083436966,0.005373307503759861,0.001451045274734497
1761466866043885000,7.610885009765625,-0.0005557588301599026,-0.0019826097413897514,0.0009162826463580132
1761466866053867800,7.62086767578125,-0.00011802790686488152,-0.0030146341305226088,0.000599853927269578
1761466866063851800,7.630851806640625,0.0019821408204734325,-0.003605323377996683,0.00134900095872581
1761466866073835000,7.6408349609375,-0.0008322261273860931,-0.0013893099967390299,-0.00018142582848668098
1761466866083819000,7.650819091796875,0.00011026673018932343,0.002014209982007742,-0.00326563254930079
1761466866093802000,7.660802001953125,0.003379520494490862,-0.003622332587838173,-0.0048297736793756485
1761466866103784700,7.67078466796875,-0.00033212685957551,0.008123539388179779,0.002552775200456381
1761466866113768700,7.680768798828125,0.0008912892080843449,0.00308133102953434,-0.0022129910066723824
1761466866123752000,7.690751953125,0.0003213728778064251,-0.002366165164858103,-0.0012233603047206998
1761466866133735000,7.70073486328125,-0.0016804281622171402,-0.0006164356600493193,0.00038249697536230087
1761466866143719000,7.710718994140625,-0.0004628309980034828,0.0005652089603245258,0.001554820453748107
1761466866153702100,7.7207021484375,-0.0006699063815176487,0.000929737463593483,0.0003433742094784975
1761466866163684900,7.730684814453125,-0.001134627964347601,-0.0010340777225792408,0.0007756052073091269
1761466866173668900,7.7406689453125,0.00019715167582035065,-0.0037328992038965225,0.0006831968203186989
1761466866183651800,7.75065185546875,0.00037531694397330284,-0.002484942087903619,-0.0018460073042660952
1761466866193635000,7.760635009765625,-0.0002971990033984184,0.0020669978111982346,-0.0011557710822671652
1761466866203619000,7.770619140625,-0.0013315705582499504,0.0006219665519893169,-0.0007704116869717836
1761466866213601800,7.780601806640625,-0.0017797849141061306,-0.0023938813246786594,-0.000356228556483984
1761466866223584800,7.790584716796875,0.0007566097192466259,0.001359045272693038,0.0020693785045295954
1761466866233569000,7.800569091796875,-0.0005787555128335953,0.0017541088163852692,-0.00018432806245982647
1761466866243552000,7.810552001953125,0.0009344522841274738,0.0017328038811683655,0.002587223658338189
1761466866253535000,7.820534912109375,0.002044632565230131,0.0011807885020971298,-0.000450680498033762
1761466866263518700,7.830518798828125,-0.002637204248458147,0.0016772020608186722,-0.0022909247782081366
1761466866273502000,7.840501953125,-0.00016112206503748894,0.0016814046539366245,0.0011152620427310467
1761466866283485000,7.85048486328125,0.00013928255066275597,0.0030571934767067432,-0.0007236506789922714
1761466866293469000,7.860468994140625,0.0006980686448514462,-0.0018957857973873615,-0.0010345515329390764
1761466866303452000,7.870451904296875,0.002862685825675726,-0.003351469524204731,0.001224075211212039
1761466866313435000,7.880434814453125,0.002184206387028098,0.0012350070755928755,0.0010020865593105555
1761466866323419000,7.8904189453125,0.000737843569368124,-0.007664212025702,-0.0016919670160859823
1761466866333401900,7.90040185546875,0.0019683698192238808,-0.0024143808986991644,0.0006735462229698896
1761466866343385000,7.910385009765625,0.0014999201521277428,-0.000005019130185246468,0.0007856655865907669
1761466866353369000,7.920369140625,0.0013309204950928688,-0.0004815564025193453,0.000407990999519825
1761466866363351800,7.930351806640625,0.000711468979716301,0.00012085051275789738,0.0012516803108155727
1761466866373334800,7.940334716796875,-0.0010906411334872246,0.0015939879231154919,-0.00038742762990295887
1761466866383318800,7.95031884765625,-0.0006757206283509731,-0.0020031435415148735,0.0007255072705447674
1761466866393302000,7.960302001953125,-0.003668947145342827,-0.0003192853182554245,-0.0010074512101709843
1761466866403285000,7.970284912109375,-0.0006686300039291382,-0.002727049170061946,-0.0007022530771791935
1761466866413268700,7.980268798828125,0.00009033642709255219,0.00023609446361660957,-0.0005868845619261265
1761466866423252000,7.990251953125,-0.0015610898844897747,0.00327662518247962,0.0005838409997522831
1761466866433235000,8.00023486328125,0.0007747076451778412,-0.0002076537348330021,-0.0009190964046865702
1761466866443217000,8.010216796875,0.0005992050282657146,0.0024184894282370806,0.0021406093146651983
1761466866453200000,8.020199951171875,-0.0005400856025516987,-0.0029755544383078814,-0.000052758725360035896
1761466866463184000,8.030183837890625,0.00010067084804177284,-0.0009382362477481365,-0.0015843427972868085
1761466866473166800,8.040166748046875,0.0006896732375025749,0.0020903688855469227,0.0008353232406079769
1761466866483150000,8.050150146484375,-0.0031902864575386047,-0.0016114253085106611,0.0011186832562088966
1761466866493134000,8.060134033203125,0.0010407231748104095,0.0009746537543833256,-0.0034553343430161476
1761466866503116800,8.07011669921875,0.0010258094407618046,0.0012955646961927414,0.000752193620428443
1761466866513100000,8.08010009765625,-0.0003531016409397125,0.0009420590940862894,-0.0012371782213449478
1761466866523084000,8.090083984375,-0.0016687032766640186,-0.002443883568048477,0.00018867827020585537
1761466866533067000,8.10006689453125,0.0014446931891143322,0.00037672859616577625,0.0011193423997610807
1761466866543049700,8.1100498046875,-0.0008112704381346703,0.0005130821373313665,-0.00010890723206102848
1761466866553033700,8.12003369140625,-0.0022544004023075104,-0.0008757754694670439,-0.0006746503058820963
1761466866563012900,8.130012939453126,0.0004907860420644283,-0.0000011934898793697357,0.0002907456364482641
1761466866572995800,8.139995849609376,-0.0010276613757014275,0.0023752686101943254,0.002255602739751339
1761466866582979800,8.149979736328126,-0.0015813326463103294,-0.0027822088450193405,-0.002126628765836358
1761466866592963000,8.159963134765626,0.0006400076672434807,-0.0012804004363715649,-0.00011757528409361839
1761466866602945800,8.16994580078125,-0.0017597666010260582,-0.00012671924196183681,-0.0017215970437973738
1761466866612929800,8.1799296875,0.0016706236638128757,0.0008608715143054724,0.001641270238906145
1761466866622912800,8.189912841796875,0.0012000431306660175,0.0009072104003280401,0.001088930293917656
1761466866632896000,8.19989599609375,0.0002553551457822323,0.00274787750095129,0.0015008971095085144
1761466866642880000,8.2098798828125,0.002289743861183524,0.0016674329526722431,0.0005850358866155148
1761466866652863000,8.219863037109375,-0.0005348995327949524,0.0006338926032185555,0.0009084793273359537
1761466866662846000,8.229845947265625,0.001991907600313425,0.004296271596103907,-0.002744578756392002
1761466866672830000,8.239829833984375,0.0007391916587948799,-0.0015369944740086794,-0.00011012679897248745
1761466866682813000,8.24981298828125,-0.0005332664586603642,-0.0013412521220743656,0.0019450343679636717
1761466866692796000,8.2597958984375,0.0015813452191650867,0.0016316946130245924,-0.0000781528651714325
1761466866702780000,8.26977978515625,0.0007797339931130409,0.0008934664074331522,0.001675538718700409
1761466866712763000,8.279762939453125,0.0015975884161889553,0.0005113547667860985,0.001558663323521614
1761466866722745900,8.289745849609375,0.0022969343699514866,-0.00005403440445661545,0.0004345430061221123
1761466866732729900,8.299729736328125,-0.0019147256389260292,-0.003330131759867072,0.001444866182282567
1761466866742713000,8.309713134765625,0.0018685613758862019,-0.00009385845623910427,-0.001111768651753664
1761466866752695800,8.31969580078125,0.0007794229313731194,0.0016145268455147743,0.0014323028735816479
1761466866762679800,8.3296796875,0.0004233582876622677,-0.0007050863932818174,0.00020378641784191132
1761466866772662800,8.339662841796875,0.0009311237372457981,0.00028068595565855503,0.0015363520942628384
1761466866782646800,8.349646728515625,-0.002315269783139229,-0.0013241348788142204,0.0008535180240869522
1761466866792630000,8.359630126953125,0.0012222896330058575,-0.0024514899123460054,-0.00021274504251778126
1761466866802613000,8.369613037109374,0.00228329305537045,0.0027304887771606445,0.0012717011850327253
1761466866812596700,8.3795966796875,0.0006891344673931599,0.0005243846680969,0.0005061887204647064
1761466866822580000,8.389580078125,0.0005029798485338688,0.0031302880961447954,0.0015171249397099018
1761466866832563000,8.39956298828125,-0.000425838865339756,-0.0026396973989903927,-0.001229458604939282
1761466866842547000,8.409546875,-0.0013025514781475067,-0.0004692212678492069,-0.0017786023672670126
1761466866852530000,8.419530029296874,0.0006684539839625359,0.003824327141046524,0.0016436160076409578
1761466866862513000,8.429512939453126,-0.0009872335940599442,-0.0017824260285124183,-0.0003004914615303278
1761466866872497000,8.439496826171874,0.0015186811797320843,9.408686310052872e-7,0.00006872578524053097
1761466866882479900,8.44947998046875,-0.0016803075559437275,0.0011772590223699808,0.0013350588269531727
1761466866892462800,8.459462890625,-0.002766252961009741,-0.0038989908061921597,-0.001622976385988295
1761466866902447000,8.469447021484376,0.0008191606029868126,-0.00015538535080850124,-0.0003214895259588957
1761466866912429800,8.479429931640626,-0.0022490541450679302,0.001132408855482936,0.0005966380704194307
1761466866922412800,8.489412841796875,0.00016803061589598656,-0.001911051687784493,-0.002262265421450138
1761466866932396800,8.499396728515626,-0.0002692192792892456,-0.0014577617403119802,0.0013316778931766748
1761466866942380000,8.509380126953126,0.0005278652533888817,-0.000029242131859064102,-0.0015578520251438022
1761466866952363000,8.519363037109375,0.001333179883658886,0.002077135257422924,0.0004331094678491354
1761466866962347000,8.529346923828125,-0.001569132786244154,0.0030470583587884903,-0.0007309583015739918
1761466866972329700,8.539329833984375,0.0017645102925598621,0.0011600730940699577,0.0015596882440149784
1761466866982313000,8.54931298828125,0.00126969488337636,-0.0027909926138818264,-0.002419074298813939
1761466866992297000,8.559296875,-0.002942074555903673,0.0036711704451590776,0.0011067367158830166
1761466867002280000,8.569280029296875,0.00221593608148396,0.0047468217089772224,0.0007842278573662043
1761466867012263000,8.579262939453125,0.00008758343756198883,-0.004627903923392296,-0.0015562301268801093
1761466867022247000,8.589246826171875,-0.0013329465873539448,0.00018362910486757755,-0.002147718332707882
1761466867032231000,8.59923095703125,0.002220615278929472,0.005897275172173977,-0.000024466775357723236
1761466867042214000,8.6092138671875,-0.00037383614107966423,-0.004528201185166836,-0.004298573825508356
1761466867052198000,8.619197998046875,0.0012591942213475704,-0.004536130931228399,0.0006611749995499849
1761466867062181000,8.62918115234375,0.002301289001479745,0.006015046965330839,0.0008145731408149004
1761466867072163800,8.639163818359375,-0.0007955459877848625,-0.003070632228627801,-0.003163138637319207
1761466867082147800,8.64914794921875,-0.00043655186891555786,-0.002630678005516529,-0.00004164758138358593
1761466867092130800,8.659130859375,-0.0002455073408782482,0.004027120769023895,0.0009332052432000637
1761466867102114000,8.669114013671875,-0.0006875917315483093,0.09827905148267746,0.03187621012330055
1761466867112098000,8.67909814453125,0.0013797730207443237,-0.04596918821334839,-0.015783654525876045
1761466867122080800,8.689080810546875,-0.0014772657305002213,-0.004835067316889763,-0.0017631773371249437
1761466867132063700,8.699063720703125,-0.0025728847831487656,0.044168658554553986,0.0125254075974226
1761466867142048000,8.709048095703125,0.0008956165984272957,-0.03669183701276779,-0.01142679713666439
1761466867152031000,8.719031005859375,0.00004917709156870842,-0.003327165963128209,0.0007693918887525797
1761466867162014000,8.729013916015624,-0.00035482458770275116,0.003775218268856406,0.002194449072703719
1761466867171998000,8.738998046875,0.0016413177363574505,-0.023384926840662956,-0.007140183821320534
1761466867181981000,8.74898095703125,0.00024156039580702782,-0.015800775960087776,-0.004689010791480541
1761466867191964000,8.7589638671875,0.0010795868001878262,-0.01092628762125969,-0.004277007654309273
1761466867201948000,8.768947998046874,0.0015187417156994343,-0.007373897824436426,-0.0028434281703084707
1761466867211931000,8.778930908203124,0.0024144432973116636,0.0075769973918795586,-0.001258792937733233
1761466867221913900,8.788913818359376,0.0031809010542929173,0.00015769735909998417,0.0010949089191854
