time,seconds_elapsed,z,y,x
1761466879910259700,0.111259765625,0.001406582072377205,-0.001862440723925829,-0.0015687186969444156
1761466879920242700,0.12124267578125,-0.0012592421844601631,-0.0011614968534559011,-0.0020206570625305176
1761466879930226700,0.131226806640625,-0.0015219277702271938,-0.005218397825956345,-0.0032699485309422016
1761466879940209700,0.141209716796875,-0.0009256456978619099,-0.0008116650860756636,0.0009026923216879368
1761466879950192600,0.151192626953125,0.0012080795131623745,-0.0016809003427624702,-0.002633670810610056
1761466879960175900,0.16117578125,0.0021311312448233366,-0.00016609416343271732,-0.0011960964184254408
1761466879970159900,0.171159912109375,-0.0015188171528279781,0.0013631968759000301,-0.0006936944555491209
1761466879980142800,0.181142822265625,0.0012101237662136555,0.000619109719991684,0.00036624353379011154
1761466879990125600,0.19112548828125,0.0023337830789387226,0.0009359598625451326,0.0013913882430642843
1761466880000108800,0.20110888671875,0.0007060589268803596,-0.0012158742174506187,-0.0010025270748883486
1761466880010092800,0.2110927734375,0.002218989422544837,0.001100283581763506,0.001439457992091775
1761466880020075800,0.22107568359375,0.0021276429761201143,0.002126399427652359,0.001962769078090787
1761466880030058500,0.23105859375,-0.00010711420327425003,-0.0022045020014047623,0.00018244911916553974
1761466880040041700,0.241041748046875,0.00046919379383325577,-0.0032452652230858803,-0.0013480696361511946
1761466880050025700,0.251025634765625,0.0006375899538397789,0.005533079616725445,0.0034126820974051952
1761466880060008700,0.2610087890625,-0.0007874676957726479,0.00005628960207104683,-0.0012017772532999516
1761466880069992000,0.270991943359375,-0.0015352512709796429,-0.00801131222397089,-0.004559710156172514
1761466880079974700,0.280974609375,-0.0011075474321842194,-0.0023041581735014915,0.0010555651970207691
1761466880089958700,0.290958740234375,0.0009672204032540321,0.0034032119438052177,0.002055853372439742
1761466880099941600,0.300941650390625,0.0016945297829806805,-0.0011004596017301083,-0.002255804603919387
1761466880109924900,0.3109248046875,-0.0014979755505919456,0.002165412763133645,0.0018510138615965843
1761466880119907600,0.320907470703125,0.002014201134443283,-0.0005840347148478031,-0.002528820652514696
1761466880129891600,0.3308916015625,0.0003674672916531563,-0.0018419709522277117,-0.0019518918124958873
1761466880139874800,0.340874755859375,-0.0035875937901437283,0.0005535425152629614,0.00040021189488470554
1761466880149857800,0.35085791015625,0.0009369715116918087,-0.0025293868966400623,0.0006480182055383921
1761466880159840800,0.3608408203125,-0.00024200975894927979,-0.0007850164547562599,-0.00041431677527725697
1761466880169824500,0.370824462890625,-0.001185656525194645,-0.00332334591075778,0.00009749853052198887
1761466880179807700,0.380807861328125,0.00008866610005497932,0.0009680718649178743,0.0007361245807260275
1761466880189790700,0.390790771484375,-0.00004120310768485069,-0.00025701476261019707,-0.0027420504484325647
1761466880199773700,0.400773681640625,0.0005273818969726562,-0.0028045945800840855,-0.0014786467654630542
1761466880209757700,0.4107578125,-0.00009128032252192497,0.0033050626516342163,0.001488372916355729
1761466880219740700,0.42074072265625,0.0019231345504522324,0.0010751979425549507,-0.0004232442006468773
1761466880229723600,0.4307236328125,-0.00017089536413550377,-0.002367460634559393,-0.0006844911258667707
1761466880239707000,0.440706787109375,-0.0018723886460065842,0.0026264989282935858,0.0001147235743701458
1761466880249691000,0.45069091796875,0.0007845512591302395,8.658971637487411e-7,-0.0012145068030804396
1761466880259673600,0.460673583984375,0.0010916134342551231,-0.0015709316357970238,-0.0008374031167477369
1761466880269656600,0.470656494140625,0.0002939058467745781,0.0020560601260513067,0.0011283624917268753
1761466880279639800,0.480639892578125,-0.0009447303600609303,-0.001186072127893567,-0.001428272225894034
1761466880289623800,0.490623779296875,-0.0017123357392847538,-0.0020114509388804436,0.0003425565082579851
1761466880299606800,0.500606689453125,-0.0000292179174721241,0.003649364225566387,0.00031033228151500225
1761466880309589500,0.510589599609375,0.00364398630335927,-0.00067509850487113,0.0006951119285076857
1761466880319572700,0.52057275390625,-0.0010975059121847153,-0.00013074837625026703,-0.0011680354364216328
1761466880329556700,0.530556640625,-0.0008797538466751575,-0.0028425075579434633,-0.002944865496829152
1761466880339539700,0.540539794921875,-0.00077429274097085,-0.00010531069710850716,-0.00033603282645344734
1761466880349523000,0.55052294921875,-0.0010839272290468216,-0.00016846158541738987,-0.00008283578790724277
1761466880359505700,0.560505615234375,0.000006104819476604462,-0.004984255880117416,-0.001856501097790897
1761466880369489700,0.57048974609375,0.0010519325733184814,-0.0027997142169624567,0.0003257559146732092
1761466880379472600,0.58047265625,-0.0009411773644387722,-0.0031413978431373835,-0.0009030266664922237
1761466880389456000,0.590455810546875,-0.0005203904584050179,-0.005401747766882181,-0.0026154592633247375
1761466880399438600,0.6004384765625,-0.0006428961642086506,-0.0028472435660660267,0.0015297511126846075
1761466880409422600,0.610422607421875,-0.0018213363364338875,0.0024980800226330757,0.0012024869211018085
1761466880419405800,0.62040576171875,0.001003212295472622,-0.005530818365514278,-0.004541684873402119
1761466880429388800,0.630388916015625,-0.0010093417949974537,0.00035902904346585274,-0.00036074244417250156
1761466880439371800,0.640371826171875,-0.0003219801001250744,-0.0012782826088368893,0.0004725605249404907
1761466880449355500,0.65035546875,-0.0018364619463682175,-0.004000392276793718,-0.0025740850251168013
1761466880459338800,0.6603388671875,0.0009444109164178371,-0.002258951310068369,0.0011937553063035011
1761466880469321700,0.67032177734375,0.0011564362794160843,-0.0006850608624517918,-0.0003778280224651098
1761466880479304700,0.6803046875,-0.0008678324520587921,-0.0032728544902056456,-0.001716598984785378
1761466880489288700,0.690288818359375,0.0019806893542408943,0.0002561712171882391,-0.0010598734952509403
1761466880499271700,0.700271728515625,0.0025098593905568123,-0.0015507836360484362,-0.0014723972417414188
1761466880509254700,0.710254638671875,0.001780657097697258,-0.00657584797590971,-0.002138040494173765
1761466880519237600,0.720237548828125,0.001784385647624731,0.000979806063696742,-0.0003396079409867525
1761466880529222000,0.730221923828125,-0.0028571514412760735,0.006280340254306793,0.0021378169767558575
1761466880539204600,0.74020458984375,-0.0011777617037296295,-0.009317794814705849,-0.001930427853949368
1761466880549187600,0.7501875,0.0011662105098366737,-0.005246060900390148,0.00031881616450846195
1761466880559170800,0.7601708984375,-0.0009206426329910755,0.002025434048846364,0.0020999382250010967
1761466880569154800,0.77015478515625,0.0009337202645838261,-0.0008602424059063196,-0.00023576384410262108
1761466880579142400,0.780142333984375,0.0011624856851994991,0.005234135314822197,0.003438865765929222
1761466880589125400,0.79012548828125,0.0004875035956501961,0.002747325925156474,-0.00028893863782286644
1761466880599108000,0.800108154296875,0.00020334403961896896,-0.005947096273303032,-0.00152544432785362
1761466880609092400,0.81009228515625,-0.000029795803129673004,-0.004182231612503529,-0.00185505417175591
1761466880619075300,0.820075439453125,-0.0013989266008138657,0.0015323793049901724,-0.00026887538842856884
1761466880629058300,0.830058349609375,0.0021626122761517763,-0.0009423927403986454,-0.0014649080112576485
1761466880639042300,0.840042236328125,-0.0008717933669686317,-0.0030201910994946957,-0.0008808767888695002
1761466880649025300,0.850025390625,0.0015020878054201603,0.0015548041556030512,-0.0013801442692056298
1761466880659008300,0.86000830078125,0.0011950256302952766,0.002494633896276355,-0.0005457757506519556
1761466880668991200,0.8699912109375,0.00008697016164660454,-0.00028022262267768383,-0.00012598210014402866
1761466880678974500,0.879974365234375,-0.0005524549633264542,-0.0055237202905118465,-0.003098868764936924
1761466880688958500,0.88995849609375,-0.0002970704808831215,-0.0010920569766312838,0.00035524857230484486
1761466880698941200,0.899941162109375,-0.0026659523136913776,-0.00252084294334054,-0.0020631682127714157
1761466880708924400,0.90992431640625,-0.00015388056635856628,0.0013596976641565561,-0.001863979734480381
1761466880718908400,0.919908447265625,-0.0013656187802553177,0.0070660533383488655,0.0024277041666209698
1761466880728891400,0.929891357421875,0.0012738807126879692,0.0022580695804208517,0.0010753050446510315
1761466880738874000,0.9398740234375,-0.0008981935679912567,0.00009957724250853062,0.0015152590349316597
1761466880748857300,0.949857421875,0.001906051766127348,0.002057853853330016,0.002644041320309043
1761466880758840300,0.95984033203125,0.003804086474701762,0.0024325603153556585,0.0010559980291873217
1761466880768824300,0.96982421875,-0.0008226563222706318,0.0036456361413002014,0.0002739648334681988
1761466880778807300,0.979807373046875,0.001914807129651308,0.00047141406685113907,0.0032511125318706036
1761466880788790300,0.989790283203125,0.000844959169626236,-0.00020150141790509224,0.0015178346075117588
1761466880798774300,0.999774169921875,0.0013408400118350983,0.011341704055666924,0.0034262556582689285
1761466880808757200,1.00975732421875,0.0015022302977740765,0.004802952520549297,0.00041502155363559723
1761466880818740500,1.019740478515625,-0.0018115416169166565,-0.0018405686132609844,0.0008405947592109442
1761466880828723200,1.02972314453125,0.0021969531662762165,0.005150632932782173,0.002026981906965375
1761466880838706200,1.0397060546875,0.0026771211996674538,0.0018626945093274117,-0.0003139367327094078
1761466880848690200,1.049690185546875,0.0007001725025475025,0.0009360597468912601,0.0003123993519693613
1761466880858673400,1.05967333984375,0.002790487837046385,0.00883206631988287,0.0014162797015160322
1761466880868656400,1.069656494140625,0.0006809122860431671,0.004959069192409515,0.0016854829154908657
1761466880878640400,1.079640380859375,0.0030945350881665945,0.002617084654048085,0.0007957210764288902
1761466880888623400,1.089623291015625,0.0023822197690606117,0.0068709105253219604,0.001866747159510851
1761466880898606300,1.0996064453125,-0.0012095854617655277,0.00470389612019062,0.0018877862021327019
1761466880908589300,1.10958935546875,0.0011016950011253357,0.0021210468839854,0.0010833435226231813
1761466880918573300,1.1195732421875,-0.0008621197193861008,0.003524532774463296,0.00011475174687802792
1761466880928556300,1.129556396484375,-0.0012588375248014927,0.001299962867051363,-0.0004142394755035639
1761466880938539300,1.139539306640625,0.002913803094998002,0.001007281243801117,0.0021093718241900206
1761466880948522200,1.149522216796875,-0.00016917521134018898,0.0007374214474111795,0.0008296712767332792
1761466880958506200,1.15950634765625,0.001962152775377035,0.004014973528683186,-0.00031974934972822666
1761466880968489500,1.169489501953125,0.001797300297766924,0.003320792457088828,0.0007421816699206829
1761466880978472200,1.17947216796875,0.002309426199644804,-0.0013218964450061321,-0.0009627738036215305
1761466880988455200,1.189455078125,0.003967252094298601,0.004796294495463371,-0.00004277587868273258
1761466880998439400,1.199439453125,0.0012524258345365524,0.0038119906093925238,-0.0009836708195507526
1761466881008422400,1.20942236328125,0.0023733528796583414,0.007097374647855759,-0.000292579410597682
1761466881018405000,1.219405029296875,0.0027208952233195305,0.00022668601013720036,-0.000559960724785924
1761466881028388400,1.229388427734375,0.0006726537831127644,0.004678262397646904,0.0014223610050976276
1761466881038372400,1.239372314453125,0.0006755832582712173,0.004489178769290447,0.0008577709086239338
1761466881048355300,1.249355224609375,-0.0006769462488591671,0.0022202900145202875,0.002103509148582816
1761466881058338300,1.25933837890625,0.0012032454833388329,-0.00039280345663428307,-0.0009018678683787584
1761466881068321300,1.2693212890625,0.002168291248381138,0.004027337767183781,0.0014910732861608267
1761466881078305300,1.27930517578125,0.000739771407097578,0.007445238530635834,0.002192017389461398
1761466881088288300,1.289288330078125,0.0015188222751021385,0.007380851544439793,0.0007313068490475416
1761466881098271500,1.299271484375,0.002816846827045083,0.004401573911309242,-0.0020682080648839474
1761466881108254200,1.309254150390625,0.002036185935139656,0.003957021981477737,0.000767215620726347
1761466881118238200,1.31923828125,0.0009815739467740059,0.0046475790441036224,0.0016346070915460587
1761466881128221200,1.32922119140625,0.0011512236669659615,-0.000028874492272734642,-0.000549709890037775
1761466881138204400,1.339204345703125,0.0014215344563126564,0.0007895149756222963,-0.0012264191173017025
1761466881148187400,1.3491875,-0.0008016703650355339,-0.003180937608703971,-0.0006845977623015642
1761466881158171400,1.35917138671875,-0.002036844380199909,0.0007826450746506453,0.0014600458089262247
1761466881168154000,1.369154052734375,0.0020419545471668243,0.0017615996766835451,0.0045432643964886665
1761466881178137300,1.379137451171875,0.0014747013337910175,-0.0007995623163878918,0.0025538832414895296
1761466881188120300,1.389120361328125,0.0017886939458549023,0.0003733502235263586,0.000051585957407951355
1761466881198104300,1.399104248046875,0.0007908078841865063,-0.0021305535919964314,-0.0005039495881646872
1761466881208087300,1.40908740234375,0.0006152126006782055,0.0020053156185895205,-0.0012632659636437893
1761466881218070300,1.4190703125,0.0019270856864750385,0.001573084620758891,-0.00145607884041965
1761466881228053200,1.42905322265625,-0.00007107621058821678,0.0009058080613613129,0.0006833795923739672
1761466881238037200,1.439037353515625,0.001125216018408537,0.0006525414064526558,-0.001325709163211286
1761466881248020500,1.4490205078125,-0.0018367525190114975,0.0013989710714668036,0.0018110943492501974
1761466881258003200,1.459003173828125,-0.0011190306395292282,-0.0024442365393042564,0.00043876725248992443
1761466881267986200,1.468986083984375,0.0006118398159742355,0.0005864540580660105,-0.0007710701320320368
1761466881277970400,1.478970458984375,-0.0007655471563339233,-0.0008761540520936251,0.0008654422126710415
1761466881287953400,1.488953369140625,0.00016336888074874878,0.0015428527258336544,0.0002862124238163233
1761466881297936100,1.49893603515625,0.0015791053883731365,-0.0009008641354739666,0.0005735675804316998
1761466881307919400,1.50891943359375,0.00002097291871905327,0.003029230050742626,0.0034622030798345804
1761466881317903400,1.5189033203125,-0.0014474941417574883,0.0006986977532505989,0.0017734926659613848
1761466881327886300,1.52888623046875,-0.001471993513405323,-0.00311191170476377,0.00015669013373553753
1761466881337869300,1.538869384765625,-0.001763876061886549,-0.002720160875469446,-0.001296064117923379
1761466881347852300,1.548852294921875,0.0009796293452382088,0.0024539742153137922,0.0030613604467362165
1761466881357836300,1.558836181640625,-0.0012502353638410568,-0.00086166150867939,-0.0004452238790690899
1761466881367819300,1.5688193359375,0.0020928317680954933,-0.0033969359938055277,-0.00009728106670081615
1761466881377802500,1.578802490234375,-0.0011564912274479866,-0.0014445725828409195,-0.0014501669211313128
1761466881387785200,1.58878515625,-0.0008214637637138367,-0.001877548173069954,0.001038957154378295
1761466881397769200,1.598769287109375,-0.0028534559532999992,0.0033001694828271866,0.0009726446587592363
1761466881407752200,1.608752197265625,-0.0007215095683932304,-0.008326697163283825,-0.0014576531248167157
1761466881417735400,1.6187353515625,-0.0007015354931354523,0.006063959561288357,0.0020651761442422867
1761466881427718400,1.628718505859375,0.001727268099784851,-0.0014570190105587244,-0.00039189192466437817
1761466881437702100,1.6387021484375,-0.0012370962649583817,-0.0023489114828407764,-0.0010185337159782648
1761466881447685000,1.64868505859375,-0.00015160022303462029,0.00464816577732563,0.002505376236513257
1761466881457668400,1.65866845703125,0.00163964182138443,0.0018124314956367016,0.00019668182358145714
1761466881467651300,1.6686513671875,0.00047079427167773247,-0.0010219612158834934,-0.000675353454425931
1761466881477635300,1.67863525390625,0.001121138222515583,0.002863058354705572,0.0011276064906269312
1761466881487618300,1.688618408203125,-0.0002942550927400589,-0.002617292106151581,-0.0009289667941629887
1761466881497601300,1.698601318359375,0.0011225463822484016,0.00043761986307799816,0.0019246102310717106
1761466881507584300,1.708584228515625,-0.000018877442926168442,0.0031136232428252697,-0.0004894647281616926
1761466881517568300,1.718568359375,0.0001036282628774643,-0.0030302894301712513,0.0005965724121779203
1761466881527551500,1.728551513671875,0.0018387623131275177,-0.0005262114573270082,-0.0002926010638475418
1761466881537534200,1.7385341796875,0.0009250319562852383,-0.0032871104776859283,-0.002075853757560253
1761466881547517200,1.74851708984375,-0.0016347025521099567,-0.001914441236294806,-0.00011779554188251495
1761466881557501400,1.75850146484375,0.0021315396297723055,0.001360714202746749,0.0009541269391775131
1761466881567484400,1.768484375,-0.0016679959371685982,-0.0008021476678550243,-0.000255621038377285
1761466881577462300,1.778462158203125,-0.0001654406078159809,0.0020823220256716013,0.0008945981971919537
1761466881587445200,1.7884453125,0.0007149111479520798,0.0015074869152158499,-0.0010967517737299204
1761466881597429200,1.79842919921875,0.0008776304312050343,0.0032276224810630083,0.0016910454723984003
1761466881607412200,1.808412109375,0.001962774433195591,0.002664875239133835,0.0010187774896621704
1761466881617395500,1.8183955078125,-0.0017933477647602558,0.0004477938637137413,-0.001956772059202194
1761466881627378200,1.828378173828125,-0.00009229034185409546,0.001021835021674633,0.0006749113090336323
1761466881637362200,1.838362060546875,0.0019428976811468601,-0.002850667340680957,-0.0010313759557902813
1761466881647345400,1.848345458984375,-0.0023939739912748337,-0.00172360148280859,-0.0004663369618356228
1761466881657328400,1.858328369140625,0.0013589528389275074,0.00166793423704803,-0.00042878626845777035
1761466881667311000,1.86831103515625,-0.00019482802599668503,-0.0039761243388056755,0.0003384263254702091
1761466881677295000,1.878295166015625,0.0007236958481371403,0.0006963915657252073,0.0006201888900250196
1761466881687278300,1.8882783203125,0.0023722911719232798,0.007794433739036322,0.001728283939883113
1761466881697261300,1.89826123046875,-0.0013854289427399635,-0.00250534201040864,-0.0013695050729438663
1761466881707244300,1.908244384765625,0.0014466587454080582,-0.00027668965049088,-0.0015168982790783048
1761466881717228300,1.918228271484375,0.0009137601591646671,-0.003760104300454259,-0.0006428488995879889
1761466881727211300,1.928211181640625,-0.0010149898007512093,0.004904419183731079,0.0009503429755568504
1761466881737194200,1.9381943359375,0.0012545562349259853,0.005494309589266777,0.0035858070477843285
1761466881747177500,1.948177490234375,0.0019602947868406773,-0.0035747645888477564,-0.0017679639859125018
1761466881757161500,1.958161376953125,0.0006044795736670494,0.00048229494132101536,0.002798292087391019
1761466881767144200,1.968144287109375,0.0004442445933818817,-0.0026548923924565315,0.0003822862636297941
1761466881777127200,1.978127197265625,-0.002051670104265213,-0.005849087610840797,-0.0006350411567837
1761466881787110400,1.9881103515625,0.0005948957987129688,-0.0015407996252179146,0.0003584777005016804
1761466881797094400,1.998094482421875,0.001616484485566616,-0.00007606111466884613,-0.00021889572963118553
1761466881807077400,2.008077392578125,-0.0018597440794110298,0.003143537091091275,0.0020098197273910046
1761466881817060400,2.018060302734375,0.0015759998932480812,0.002228209050372243,0.0030694915913045406
1761466881827043300,2.028043212890625,0.0024054606910794973,0.0012454614043235779,0.0016997633501887321
1761466881837027300,2.03802734375,0.00017479714006185532,0.0013778205029666424,0.0012512868270277977
1761466881847010300,2.04801025390625,-0.0007088766433298588,-0.0001588307786732912,-0.00017617852427065372
1761466881856993300,2.0579931640625,0.00013641081750392914,0.00012639397755265236,-0.0009905730839818716
1761466881866976300,2.067976318359375,0.0009431252256035805,0.0006403839215636253,0.00015476765111088753
1761466881876960300,2.077960205078125,-0.0008486495353281498,-0.0017748367972671986,-0.0021382139530032873
1761466881886943200,2.087943115234375,-0.0002053561620414257,0.0015452397055923939,-0.0009798079263418913
1761466881896926500,2.097926513671875,0.0005467203445732594,0.0008783843368291855,0.0011182304006069899
1761466881906909200,2.1079091796875,0.00038635963574051857,-0.004228712059557438,-0.0020037651993334293
1761466881916893200,2.11789306640625,-0.0012184609659016132,-0.00023956317454576492,0.0006167851388454437
1761466881926876400,2.12787646484375,0.0020977738313376904,-0.002281767316162586,-0.0005021553952246904
1761466881936859400,2.137859375,-0.0008287737146019936,-0.0005517778918147087,0.000715974485501647
1761466881946842000,2.147842041015625,0.0032645915634930134,-0.0038105410058051348,-0.002772756153717637
1761466881956826000,2.157826171875,0.0015694894827902317,0.0007783516775816679,0.0014571426436305046
1761466881966809300,2.167809326171875,-0.000717503484338522,0.004909768234938383,-0.0012943334877490997
1761466881976792300,2.177792236328125,0.0014582988806068897,-0.005170030053704977,0.00011714198626577854
1761466881986775300,2.187775390625,-0.0026524588465690613,-0.003283099038526416,-0.0013067133259028196
1761466881996759300,2.19775927734375,0.00030578020960092545,0.004580683074891567,0.0007785419002175331
1761466882006742300,2.2077421875,0.002276735147461295,0.00021863379515707493,0.0011526062153279781
1761466882016725200,2.217725341796875,-0.000758469570428133,-0.001958766719326377,-0.0004207892343401909
1761466882026708500,2.22770849609375,0.0014804997481405735,0.001374383457005024,-0.002414366230368614
1761466882036692500,2.2376923828125,-0.0014090300537645817,0.0006321603432297707,-0.001179458573460579
1761466882046675200,2.24767529296875,0.0005247746594250202,0.0009699580259621143,0.0010269233025610447
1761466882056658200,2.257658203125,0.0022776674013584852,-0.0011541792191565037,0.001806164626032114
1761466882066641400,2.267641357421875,-0.0006805541925132275,-0.00009109172970056534,0.002077442826703191
1761466882076625400,2.27762548828125,0.0016363956965506077,0.0017078735399991274,0.00006222887896001339
1761466882086608400,2.2876083984375,0.0029625780880451202,-0.005208706483244896,-0.0013302821898832917
1761466882096591400,2.29759130859375,-0.0012167207896709442,0.001196462195366621,0.002964597661048174
1761466882106574300,2.30757421875,0.0008845296688377857,0.0012385202571749687,0.0015072431415319443
1761466882116558300,2.317558349609375,0.00011168047785758972,-0.005587427876889706,-0.0037133516743779182
1761466882126541300,2.327541259765625,-0.001443427987396717,0.0004582174587994814,-0.0025618798099458218
1761466882136524300,2.337524169921875,0.0001589958555996418,0.001356235472485423,0.0022973238956183195
1761466882146507300,2.34750732421875,-0.0006880541332066059,-0.0018291748128831387,-0.002001250861212611
1761466882156491300,2.3574912109375,0.001477362122386694,0.0013812659308314323,0.0010078547056764364
1761466882166474200,2.36747412109375,0.0008015502244234085,-0.0020994823426008224,0.0005714676808565855
1761466882176457500,2.37745751953125,-0.0028539043851196766,0.0015852672513574362,0.0021909361239522696
1761466882186440200,2.387440185546875,-0.0006928746588528156,-0.0036719536874443293,-0.00012471037916839123
1761466882196424200,2.397424072265625,0.0007439008913934231,-0.0017560755368322134,-0.0003833032678812742
1761466882206407400,2.407407470703125,-0.0018925070762634277,0.0011826849076896906,-0.00013173767365515232
1761466882216390400,2.417390380859375,-0.0005382895469665527,0.0023347686510533094,0.0007809277158230543
1761466882226373000,2.427373046875,-0.0015659942291676998,-0.0009719538502395153,-0.0014998295810073614
1761466882236357000,2.437357177734375,0.0003120666369795799,0.003884054021909833,0.0005689139943569899
1761466882246340400,2.44734033203125,0.0008549876511096954,0.0011925119906663895,-0.0010255798697471619
1761466882256323300,2.4573232421875,-0.0008544954471290112,-0.001718056621029973,-0.00009800074622035027
1761466882266306300,2.467306396484375,0.00118284672498703,0.004056741949170828,0.0003292062319815159
1761466882276290300,2.477290283203125,-0.0029530427418649197,-0.0015121942851692438,-0.0019677700474858284
1761466882286273300,2.487273193359375,0.0014872178435325623,-0.004967597778886557,-0.0044668084010481834
1761466882296256300,2.49725634765625,0.0037881890311837196,-0.0014823190867900848,0.0019873627461493015
1761466882306239500,2.507239501953125,0.00007861526682972908,0.006080096587538719,0.003514563199132681
1761466882316223500,2.517223388671875,0.0005835508927702904,-0.0012278836220502853,-0.0026346754748374224
1761466882326206200,2.527206298828125,0.0005975691601634026,0.0033646340016275644,0.0033509251661598682
1761466882336189200,2.537189208984375,-0.0008815508335828781,0.00009134295396506786,-0.0005633891560137272
1761466882346172400,2.54717236328125,-0.001983724534511566,-0.006024024449288845,-0.0033005320001393557
1761466882356156400,2.557156494140625,-0.003036472015082836,-0.0031392883975058794,-0.002046982292085886
1761466882366139400,2.567139404296875,0.00048771314322948456,0.0052139656618237495,-0.001366157433949411
1761466882376122000,2.5771220703125,0.0011947820894420147,-0.001903332071378827,0.00037741404958069324
1761466882386105300,2.587105224609375,0.0004619704559445381,0.0003981392364948988,0.0003718591760843992
1761466882396089300,2.59708935546875,0.0004965914413332939,0.0017728626262396574,-0.0013384228805080056
1761466882406072300,2.607072265625,-0.0036678286269307137,0.004472878761589527,-0.0013097452465444803
1761466882416055300,2.61705517578125,-0.0008605909533798695,-0.0019687749445438385,-0.000180831179022789
1761466882426038300,2.627038330078125,-0.0007405709475278854,-0.0031386802438646555,0.0013371994718909264
1761466882436022300,2.637022216796875,0.00024613039568066597,-0.00006379443220794201,0.0006093576084822416
1761466882446005200,2.647005126953125,0.003436169121414423,0.0025067755486816168,0.0006700009107589722
1761466882455988500,2.656988525390625,-0.0020334310829639435,0.0005775818135589361,0.0011040959507226944
1761466882465971200,2.66697119140625,-0.002911156974732876,0.00021933182142674923,0.0014475546777248383
1761466882475955200,2.676955078125,-0.0015260465443134308,0.000603892607614398,0.0008542025461792946
1761466882485938400,2.6869384765625,-0.00010383874177932739,0.001870600739493966,0.0007641385309398174
1761466882495921400,2.69692138671875,0.0008754059672355652,0.00041518337093293667,-0.00270249811001122
1761466882505904000,2.706904052734375,0.0020336415618658066,0.003432332770898938,0.0021002383437007666
1761466882515887400,2.716887451171875,-0.0006100786849856377,0.0009646478574723005,-0.0013275163946673274
1761466882525871400,2.726871337890625,-0.0008230102248489857,-0.00014336826279759407,-0.0008835589978843927
1761466882535854300,2.736854248046875,0.000868896022439003,0.0005562442820519209,0.0000613303855061531
1761466882545837300,2.74683740234375,-0.0003357101231813431,-0.0008904940914362669,0.0000975604634732008
1761466882555820300,2.7568203125,0.003092310857027769,-0.0009000813588500023,-0.0006651687435805798
1761466882565804300,2.76680419921875,-0.0015400075353682041,-0.0008314745500683784,0.0006081501487642527
1761466882575791000,2.776791015625,-0.0002507711760699749,-0.002049338072538376,-0.0010557929053902626
1761466882585774000,2.786774169921875,0.0011127139441668987,-0.001682414673268795,-0.0009809923358261585
1761466882595758000,2.796758056640625,-0.0013586999848484993,0.00286147091537714,0.0009769636671990156
1761466882605741300,2.8067412109375,0.0007074261084198952,-0.003329541999846697,-0.003396466840058565
1761466882615724300,2.816724365234375,0.0008179470896720886,-0.0006741040851920843,0.0001870826818048954
1761466882625707300,2.826707275390625,-0.00002393638715147972,0.004808491095900536,0.0019601050298660994
1761466882635690200,2.836690185546875,0.00033532408997416496,-0.0027599462773650885,-0.0019310393836349249
1761466882645674200,2.84667431640625,0.00004318170249462128,-0.002172626554965973,0.00018650689162313938
1761466882655657200,2.8566572265625,0.0005358667112886906,-0.0018591724801808596,-0.00035384856164455414
1761466882665640200,2.86664013671875,-0.0009431988000869751,-0.0030715300235897303,-0.00025953841395676136
1761466882675623200,2.876623046875,-0.0010526543483138084,0.003439099993556738,0.0004949350841343403
1761466882685607200,2.886607177734375,0.0038577259983867407,-0.001568181673064828,-0.00026212562806904316
1761466882695590100,2.896590087890625,0.0008749854750931263,0.00007232557982206345,0.004288150928914547
1761466882705573400,2.906573486328125,0.002366759581491351,0.0017206487245857716,0.002864132635295391
1761466882715556000,2.91655615234375,-0.0005086553283035755,-0.002701796591281891,-0.0013497871113941073
1761466882725540000,2.9265400390625,-0.0011018188670277596,-0.0005379782523959875,-0.0009621051140129566
1761466882735523300,2.9365234375,0.00035306578502058983,0.0014082598499953747,0.003565535182133317
1761466882745506300,2.94650634765625,0.0009673056192696095,-0.00022834539413452148,-0.0002226186916232109
1761466882755489000,2.956489013671875,-0.001806909218430519,0.0018920635338872671,-0.0024269171990454197
1761466882765473000,2.96647314453125,-0.00006290106102824211,-0.0014239794109016657,0.001246234169229865
1761466882775456300,2.976456298828125,-0.0013063312508165836,-0.0063950358889997005,-0.003830017289146781
1761466882785439200,2.986439208984375,-0.00022251904010772705,-0.0018688463605940342,-0.0016267559258267283
1761466882795422200,2.996422119140625,0.0004283576272428036,0.005168290343135595,0.001718707149848342
1761466882805406200,3.00640625,-0.00034663453698158264,0.00232671364210546,-0.0014968784525990486
1761466882815389200,3.01638916015625,0.001311982050538063,-0.0030067991465330124,-0.00025158445350825787
1761466882825372200,3.0263720703125,-0.000516863539814949,-0.0009699198417365551,0.0005146970506757498
1761466882835355400,3.03635546875,0.001072244718670845,0.004612065386027098,0.0021354970522224903
1761466882845339400,3.04633935546875,0.000825035385787487,0.0004684305749833584,-0.0005964196752756834
1761466882855322000,3.056322021484375,-0.0018301364034414291,-0.0027457387186586857,-0.0006054744590073824
1761466882865305000,3.06630517578125,-0.00031762151047587395,0.0007843517232686281,-0.001109034288674593
1761466882875288300,3.076288330078125,0.0002855844795703888,-0.0004212611820548773,-0.001215294236317277
1761466882885272300,3.086272216796875,0.00030582863837480545,-0.003918861038982868,-0.0023703512270003557
1761466882895255300,3.09625537109375,0.0012957258149981499,0.0016631241887807846,-0.0020872573368251324
1761466882905238300,3.10623828125,0.0022685586009174585,0.003594763809815049,0.0022233668714761734
1761466882915221200,3.11622119140625,0.00021366355940699577,0.0014029822777956724,0.00012053502723574638
1761466882925205200,3.126205322265625,0.0017610033974051476,-0.003004347439855337,-0.0001676639076322317
1761466882935188200,3.136188232421875,-0.0011751316487789154,-0.0009766167495399714,-0.0006257274653762579
1761466882945171200,3.146171142578125,0.0007283021695911884,0.0039178975857794285,-0.000013467855751514435
1761466882955154200,3.156154296875,0.0017797178588807583,0.0031256070360541344,-0.002061971463263035
1761466882965138200,3.16613818359375,-0.0016438942402601242,-0.0016417717561125755,-0.0016497588949277997
1761466882975121200,3.17612109375,0.0012658755294978619,0.000897818710654974,-0.0003416142426431179
1761466882985104400,3.1861044921875,0.00018178904429078102,0.0020506689324975014,-0.0005277283489704132
1761466882995087000,3.196087158203125,0.00011600879952311516,-0.0025054672732949257,0.000034464988857507706
1761466883005071000,3.206071044921875,-0.0017909063026309013,-0.0017066276632249355,-0.0021675475873053074
1761466883015054300,3.216054443359375,-0.0011663949117064476,0.0014926274307072163,-0.00047963601537048817
1761466883025037300,3.226037353515625,-0.001461036503314972,-0.0014045708812773228,-0.0024818326346576214
1761466883035020000,3.23602001953125,0.0006252839230000973,-0.0006660763174295425,-0.0009142961353063583
1761466883045004000,3.246004150390625,0.0011285999789834023,-0.0025691830087453127,-0.0013806932838633657
1761466883054987300,3.2559873046875,0.0014329995028674603,-0.0070379674434661865,-0.0036851265467703342
1761466883064970200,3.26597021484375,-0.0004666331224143505,0.007958135567605495,0.00536928279325366
1761466883074953200,3.275953125,0.00043404800817370415,0.0012070226948708296,0.0022624386474490166
1761466883084937200,3.285937255859375,-0.001179894432425499,-0.0008573494851589203,-0.0006172989960759878
1761466883094920200,3.295920166015625,0.0015208171680569649,0.00005558202974498272,-0.0015328938607126474
1761466883104903200,3.305903076171875,0.002928885631263256,-0.0002853870391845703,0.0010405611246824265
1761466883114886400,3.315886474609375,0.00014881184324622154,0.003663015551865101,0.0022903825156390667
1761466883124870400,3.325870361328125,-0.0006608925759792328,0.0021146144717931747,0.0007932111620903015
1761466883134853000,3.33585302734375,0.003042765660211444,0.002738859038800001,0.0005468688905239105
1761466883144836000,3.345836181640625,0.0004414524883031845,0.001821508863940835,-0.0009479615837335587
1761466883154819300,3.3558193359375,-0.0006565689109265804,-0.003224382409825921,-0.0036995394621044397
1761466883164803300,3.36580322265625,0.00007812352851033211,0.0007537610363215208,-0.0003028984647244215
1761466883174786300,3.375786376953125,-0.000680344644933939,-0.00032694987021386623,-0.0008477813098579645
1761466883184769300,3.385769287109375,0.00001911027356982231,-0.00358389294706285,-0.0012714921031147242
1761466883194752300,3.395752197265625,-0.0006999433971941471,0.0028377873823046684,0.0030428289901465178
1761466883204736300,3.405736328125,-0.00037367409095168114,-0.000578765757381916,0.0001663027796894312
1761466883214719200,3.41571923828125,0.0009842715226113796,-0.00809180922806263,-0.003047333797439933
1761466883224702200,3.4257021484375,-0.00032850634306669235,0.002545308554545045,0.0019378664437681437
1761466883234685200,3.435685302734375,0.00009493622928857803,0.0016382357571274042,0.000794305233284831
1761466883244669200,3.445669189453125,0.0029757400043308735,-0.004904657602310181,0.0015345667488873005
1761466883254652200,3.455652099609375,-0.0008357763290405273,0.00261318008415401,0.0023239278234541416
1761466883264635400,3.465635498046875,-0.0013107005506753922,-0.0009900489822030067,-0.00138868170324713
1761466883274618000,3.4756181640625,0.0011623110622167587,0.001748479437083006,0.0021277563646435738
1761466883284602000,3.48560205078125,0.0005224337801337242,0.0015496935229748487,0.001776274060830474
1761466883294585300,3.49558544921875,0.0017453576438128948,0.0033404033165425062,-0.0005611821543425322
1761466883304568300,3.505568359375,-0.0009612217545509338,0.0007407439406961203,0.00141933374106884
1761466883314551000,3.515551025390625,0.0027525562327355146,0.0026928407605737448,0.0017836540937423706
1761466883324535000,3.52553515625,0.00005828076973557472,-0.0013191730249673128,-0.000651070848107338
1761466883334518300,3.535518310546875,-0.00004877801984548569,-0.0038198812399059534,-0.001335236825980246
1761466883344501200,3.545501220703125,-0.0001458614133298397,0.0006363478023558855,0.00047021382488310337
1761466883354484200,3.555484130859375,0.001534060575067997,-0.0022886020597070456,-0.0022336936090141535
1761466883364468200,3.56546826171875,0.0025836832355707884,-0.00009717349894344807,0.00008996343240141869
1761466883374451200,3.575451171875,0.0007397104054689407,0.0010509153362363577,-0.000911651412025094
1761466883384434200,3.58543408203125,0.0008762888610363007,-0.00031505338847637177,0.0004187747836112976
1761466883394417400,3.59541748046875,0.002980718621984124,-0.0009243846870958805,-0.0006829749327152967
1761466883404401400,3.6054013671875,-0.0009757769294083118,-0.00019761919975280762,-0.0023730555549263954
1761466883414384000,3.615384033203125,0.0014117471873760223,0.00012222654186189175,-0.0003711571916937828
1761466883424367000,3.6253671875,-0.000024730339646339417,0.002607563277706504,0.00046225544065237045
1761466883434350300,3.635350341796875,-0.0022143814712762833,0.00036837742663919926,0.0014606746844947338
1761466883444334300,3.645334228515625,-0.0006092400290071964,0.005108866840600967,-0.0005897469818592072
1761466883454317300,3.6553173828125,-0.00001189298927783966,0.0031008434016257524,0.0009277220815420151
1761466883464300000,3.665300048828125,0.0023785699158906937,-0.0018969714874401689,0.0020842680241912603
1761466883474283300,3.675283203125,-0.00013252487406134605,0.0016024222131818533,-0.0005674415733665228
1761466883484267300,3.685267333984375,-0.0016168947331607342,-0.0028619803488254547,-0.0025602199602872133
1761466883494250200,3.695250244140625,0.002105405554175377,-0.004141362849622965,0.0003788445610553026
1761466883504233200,3.705233154296875,0.0020584971643984318,0.0014526878949254751,0.0014460724778473377
1761466883514216200,3.71521630859375,-0.0017559481784701347,0.002220210852101445,0.0011925394646823406
1761466883524200200,3.7252001953125,0.0006353617645800114,0.0004853620193898678,-0.0008238502778112888
1761466883534183200,3.73518310546875,0.0011701243929564953,0.006191716995090246,0.0009135960135608912
1761466883544166400,3.74516650390625,0.0008973809890449047,0.0009440511930733919,-0.0009542757179588079
1761466883554149000,3.755149169921875,-0.0009724241681396961,-0.006995364557951689,-0.00079315435141325
1761466883564133000,3.765133056640625,-0.00017914408817887306,-0.0004268030170351267,-0.0012746613938361406
1761466883574113300,3.77511328125,0.0007684086449444294,-0.004153630696237087,-0.0007734545506536961
1761466883584096500,3.785096435546875,0.0008767126128077507,-0.0007703183218836784,-0.001275347312912345
1761466883594079500,3.79507958984375,0.0009606019593775272,0.0037125805392861366,0.0025273803621530533
1761466883604063500,3.8050634765625,0.0008589248172938824,0.001672746380791068,0.002603057073429227
1761466883614046200,3.815046142578125,0.0003715665079653263,0.0023680978920310736,0.0007308546919375658
1761466883624029400,3.825029541015625,0.0002704537473618984,-0.00020721717737615108,-0.0007865093648433685
1761466883634012400,3.835012451171875,0.00020334217697381973,-0.001588066341355443,0.00026570563204586506
1761466883643996400,3.844996337890625,-0.0005387533456087112,0.002268789801746607,-0.0016295864479616284
1761466883653979600,3.854979736328125,0.0002111927606165409,0.0007981923408806324,-0.0003802976571023464
1761466883663962400,3.86496240234375,-0.0011745872907340527,-0.001214989461004734,-0.00035028113052248955
1761466883673945300,3.8749453125,-0.0005159876309335232,-0.0005185727495700121,-0.0013825224013999104
1761466883683929300,3.884929443359375,0.0016225874423980713,-0.000679725082591176,-0.0005690108519047499
1761466883693912600,3.89491259765625,0.0021019564010202885,-0.0019095728639513254,0.001435017678886652
1761466883703895300,3.904895263671875,0.0015208832919597626,-0.004956887569278479,-0.002293243072926998
1761466883713878300,3.914878173828125,0.0002739913761615753,-0.0018793386407196522,0.00009028613567352295
1761466883723862500,3.924862548828125,0.0010552131570875645,-0.00042464002035558224,-0.0006360756233334541
1761466883733845500,3.934845458984375,0.0008882330730557442,-0.004494482651352882,-0.0012083889450877905
1761466883743828500,3.944828369140625,-0.00242450088262558,-0.0007835959549993277,0.0009629169944673777
1761466883753811500,3.9548115234375,-0.0006308620795607567,-0.005325350910425186,-0.0019942568615078926
1761466883763794400,3.96479443359375,-0.0000021904706954956055,-0.008286182768642902,-0.0031605258118361235
1761466883773778400,3.9747783203125,0.0010833139531314373,-0.0060595134273171425,-0.0046987677924335
1761466883783761400,3.984761474609375,0.0019646789878606796,0.004992055706679821,-0.00009403540752828121
1761466883793744400,3.994744384765625,0.004258459899574518,0.014207391999661922,0.00225860089994967
1761466883803725600,4.0047255859375,0.002478249603882432,0.008463235571980476,0.002042256761342287
1761466883813708300,4.014708251953125,-0.0026352861896157265,0.0021478161215782166,0.0009133429266512394
1761466883823691300,4.024691162109375,-0.0016311672516167164,-0.012784700840711594,-0.003673803061246872
1761466883833675300,4.03467529296875,-0.0048671746626496315,-0.00906373281031847,-0.0011840139050036669
1761466883843658500,4.044658447265625,-0.0009159245528280735,-0.0002987754996865988,0.000026953406631946564
1761466883853641500,4.054641357421875,0.001102485228329897,-0.006224309094250202,0.0005055235233157873
1761466883863624400,4.06462451171875,0.0011530299670994282,0.0032233961392194033,0.0006462133023887873
1761466883873608400,4.0746083984375,-0.0015506111085414886,0.003006082260981202,-0.0014678039588034153
1761466883883591400,4.08459130859375,-0.0008207806386053562,-0.007082912139594555,-0.000529831275343895
1761466883893574400,4.094574462890625,-0.0013203895650804043,-0.012716563418507576,-0.0007636568043380976
1761466883903557600,4.1045576171875,-0.0024441806599497795,-0.0112094571813941,-0.0033283994998782873
1761466883913540400,4.114540283203125,-0.0015219282358884811,-0.006463171448558569,-0.004807252902537584
1761466883923524400,4.1245244140625,0.0020339032635092735,-0.00430903397500515,-0.0014703114284202456
1761466883933507300,4.13450732421875,0.004032605793327093,0.006556130014359951,0.0018237524200230837
1761466883943490600,4.144490478515625,0.0022795547265559435,0.007089350372552872,-0.0016294966917484999
1761466883953474600,4.154474609375,0.0013967165723443031,0.002047986024990678,0.002275762613862753
1761466883963457300,4.164457275390625,0.00014630332589149475,-0.0019811647944152355,-0.0014331244165077806
1761466883973440500,4.1744404296875,0.0007713474333286285,-0.0002466482110321522,-0.00009435322135686874
1761466883983423500,4.184423583984375,-0.001787006389349699,0.00413151178508997,0.00234229676425457
1761466883993406500,4.194406494140625,0.00005084089934825897,0.0018638309556990862,-0.0008228702936321497
1761466884003390200,4.20439013671875,-0.0011015050113201141,0.0056576794013381,0.0005584878381341696
1761466884013373400,4.21437353515625,0.00022714631631970406,0.005187365226447582,0.0037116706371307373
1761466884023356400,4.2243564453125,0.0006886143237352371,-0.005396668799221516,-0.004826708231121302
1761466884033340400,4.23434033203125,-0.0005111396312713623,-0.004201442468911409,-0.0010476827155798674
1761466884043323400,4.244323486328125,0.002008446492254734,-0.005718237720429897,-0.0013191781472414732
1761466884053306400,4.254306396484375,0.00029816431924700737,-0.005073220003396273,-0.0021966896019876003
1761466884063289300,4.264289306640625,-0.0009500752203166485,-0.004924849607050419,-0.004277915693819523
1761466884073272600,4.2742724609375,0.0004123980179429054,0.003860386088490486,0.0025467006489634514
1761466884083256600,4.284256591796875,0.00016020657494664192,0.0014502864796668291,-0.0007580118253827095
1761466884093239300,4.2942392578125,-0.0007487302646040916,-0.003766313660889864,-0.0002669249661266804
1761466884103222300,4.30422216796875,0.0015253322198987007,0.002988147083669901,0.00021044188179075718
1761466884113205500,4.31420556640625,0.00016019586473703384,-0.0017882324755191803,-0.002069224137812853
1761466884123189500,4.324189453125,0.0016183624975383282,0.001713254489004612,0.0009420537389814854
1761466884133172500,4.33417236328125,0.0020665726624429226,0.00415057921782136,0.0005886522121727467
1761466884143155500,4.344155517578125,-0.002189677208662033,0.00906758476048708,-0.00009310897439718246
1761466884153138400,4.354138427734375,-0.00018937652930617332,0.0028251351322978735,0.0019506008829921484
1761466884163122400,4.364122314453125,-0.0013245162554085255,-0.007477543316781521,-0.0005807832349091768
1761466884173105400,4.37410546875,-0.0005735047161579132,-0.005515592638403177,-0.0029808240942656994
1761466884183088600,4.384088623046875,0.0031478216405957937,-0.004475128836929798,-0.0013017873279750347
1761466884193071400,4.3940712890625,0.0039374493062496185,-0.0026868158020079136,-0.001481817103922367
1761466884203055400,4.404055419921875,0.003175166202709079,0.0016229613684117794,0.0016299099661409855
1761466884213038300,4.414038330078125,-0.002826266922056675,0.0019899453036487103,0.0004394769202917814
1761466884223021600,4.424021484375,-0.0005875281058251858,-0.013344254344701767,-0.0005292042624205351
1761466884233004300,4.43400439453125,0.0005991766229271889,-0.009849919937551022,-0.0026738480664789677
1761466884242988300,4.44398828125,-0.002190836239606142,0.0036590024828910828,0.003610104089602828
1761466884252971500,4.453971435546875,0.0006267884746193886,0.00026933103799819946,0.0021485614124685526
1761466884262954500,4.46395458984375,0.001480241771787405,-0.004184397868812084,-0.00013341312296688557
1761466884272937500,4.4739375,-0.001644977368414402,0.0011120967101305723,0.0008415703196078539
1761466884282921200,4.483921142578125,0.0010677012614905834,0.003098635235801339,0.0009770796168595552
1761466884292904400,4.493904541015625,0.002764667384326458,0.0013345570769160986,0.001297457842156291
1761466884302887400,4.503887451171875,-0.0008311336860060692,-0.0009568806272000074,0.0007718822453171015
1761466884312870400,4.513870361328125,-0.0006649522110819817,0.0007036002352833748,-0.0016840851167216897
1761466884322854400,4.5238544921875,-0.0014433050528168678,0.006175988353788853,0.003214977914467454
1761466884332837400,4.53383740234375,0.002278462518006563,0.002119727898389101,-0.0005723033100366592
1761466884342820400,4.5438203125,0.0014029019512236118,-0.0013594096526503563,-0.0025423336774110794
1761466884352803600,4.553803466796875,-0.0014322996139526367,-0.003259574994444847,-0.0016062324866652489
1761466884362787600,4.56378759765625,-0.0000833999365568161,0.002482206327840686,-0.0005371030420064926
1761466884372770300,4.573770263671875,-0.0016749054193496704,-0.002054488519206643,-0.0022484504152089357
1761466884382753300,4.583753173828125,-0.00008171610534191132,-0.005677969194948673,-0.001084738178178668
1761466884392737300,4.5937373046875,-0.0007339240983128548,-0.0029863123781979084,-0.0013766206102445722
1761466884402721300,4.60372119140625,-0.000834236852824688,0.001416495768353343,0.000769664766266942
1761466884412704500,4.61370458984375,-0.0020102886483073235,-0.005349530838429928,-0.002582988701760769
1761466884422687500,4.6236875,0.00029014376923441887,-0.0016612703911960125,-0.0007265021558851004
1761466884432670500,4.63367041015625,-0.0007559456862509251,0.003972913138568401,0.00005992921069264412
1761466884442654500,4.643654541015625,-0.0003869142383337021,-0.005022032652050257,0.0015267576090991497
1761466884452637400,4.653637451171875,-0.0013171564787626266,-0.00508648157119751,-0.0034421682357788086
1761466884462620400,4.663620361328125,0.0009967749938368797,0.0021420116536319256,0.0013137925416231155
1761466884472603400,4.673603271484375,-0.0010045906528830528,0.0009121638722717762,0.0005755643360316753
1761466884482587400,4.68358740234375,-0.0018220078200101852,0.0021090207155793905,-0.0001271569635719061
1761466884492570400,4.6935703125,-0.0017469068989157677,-0.006963836029171944,-0.004722973797470331
1761466884502553300,4.70355322265625,0.0004066131077706814,-0.007636267691850662,-0.002756585832685232
1761466884512536600,4.71353662109375,-0.0012362911365926266,-0.004989884793758392,-0.0020953230559825897
1761466884522520600,4.7235205078125,-0.0008222092874348164,-0.0022588837891817093,-0.0001821520272642374
1761466884532503300,4.73350341796875,-0.0017130370251834393,0.00007404526695609093,0.0019451810512691736
1761466884542486500,4.743486572265625,0.0009662075899541378,-0.0034033949486911297,-0.002308016177266836
1761466884552469500,4.753469482421875,0.0017587640322744846,-0.0020912555046379566,0.00024275947362184525
1761466884562453500,4.76345361328125,-0.0028817872516810894,-0.002697876188904047,-0.0002917386591434479
1761466884572436200,4.773436279296875,0.0009331908077001572,0.004548053257167339,-0.0003529912792146206
1761466884582418400,4.78341845703125,0.0013543297536671162,-0.002189820632338524,-0.000773686682805419
1761466884592401400,4.7934013671875,-0.0012078979052603245,-0.0035269937943667173,-0.002710870001465082
1761466884602385400,4.803385498046875,0.00014428282156586647,0.006411411799490452,0.0018935173284262419
1761466884612368600,4.81336865234375,0.00079702353104949,0.004741077311336994,0.0025214909110218287
1761466884622351400,4.823351318359375,0.0022620283998548985,-0.003394081024453044,-0.0005374159663915634
1761466884632334600,4.83333447265625,0.00210436899214983,-0.0006539546884596348,-0.0012455503456294537
1761466884642318600,4.843318603515625,-0.0017960937693715096,0.0026577955577522516,0.0009624778758734465
1761466884652301600,4.853301513671875,0.001099561806768179,-0.0010139048099517822,-0.0012330322060734034
1761466884662284300,4.8632841796875,-0.0015979539602994919,0.004781399853527546,0.0027519462164491415
1761466884672267500,4.873267578125,-0.0034075723960995674,-0.0003063029143959284,-0.0010750163346529007
1761466884682251500,4.88325146484375,0.001334375236183405,-0.00032556429505348206,-0.0009793681092560291
1761466884692234500,4.893234375,0.0001966729760169983,0.003604728961363435,-0.00005684909410774708
1761466884702217500,4.903217529296875,-0.0027057211846113205,-0.0011196376290172338,-0.00027832621708512306
1761466884712200400,4.913200439453125,-0.0009594867005944252,-0.0036323298700153828,-0.0019798199646174908
1761466884722184400,4.923184326171875,-0.001717681996524334,-0.007198710460215807,0.001731925643980503
1761466884732167400,4.93316748046875,0.0007603890262544155,0.006147721316665411,0.003919712267816067
1761466884742150700,4.943150634765625,-0.0002214689739048481,-0.0072838319465518,-0.0021018655970692635
1761466884752133400,4.95313330078125,-0.001370889600366354,-0.010117435827851295,-0.005146391224116087
1761466884762117400,4.963117431640625,0.0008391742594540119,0.005911906715482473,-0.00015150546096265316
1761466884772100400,4.973100341796875,0.0012024296447634697,0.0073859659023582935,0.0026123232673853636
1761466884782083600,4.98308349609375,0.0006020292639732361,-0.006676997058093548,-0.006666217930614948
1761466884792066600,4.993066650390625,0.0029048644937574863,-0.00048301718197762966,0.0018798660021275282
1761466884802050300,5.00305029296875,0.00029014889150857925,0.0032510384917259216,-0.0009788135066628456
1761466884812033500,5.013033447265625,0.0026702159084379673,0.0029511665925383568,0.0022025988437235355
1761466884822016500,5.0230166015625,-0.000627259723842144,0.003684651106595993,0.0009530393872410059
1761466884831999500,5.03299951171875,0.0009093843400478363,-0.0013047812972217798,0.0003652796149253845
1761466884841983500,5.0429833984375,0.0011471533216536045,-0.003389977151528001,-0.004772751592099667
1761466884851966500,5.052966552734375,-0.0008217217400670052,0.010637957602739334,0.004436459857970476
1761466884861949400,5.062949462890625,0.0014552799984812737,0.0011596910189837217,0.0010543297976255417
1761466884871932400,5.072932373046875,0.0007157200016081333,-0.008300123736262321,-0.0021491865627467632
1761466884881916400,5.08291650390625,0.000046504195779561996,0.0021960148587822914,-0.00024161068722605705
1761466884891899400,5.0928994140625,0.0023807650431990623,-0.0001379796303808689,0.0010127383284270763
1761466884901882400,5.10288232421875,-0.002406689338386059,-0.008354289457201958,-0.004164530895650387
1761466884911865600,5.112865478515625,-0.001553146168589592,0.0009225660469383001,0.0000677646603435278
1761466884921849600,5.122849609375,-0.0003704950213432312,-0.0020714513957500458,-0.0005110320635139942
1761466884931832600,5.13283251953125,0.00000980449840426445,-0.0034685456193983555,0.0002508983016014099
1761466884941815300,5.142815185546875,-0.002004683483392,0.0006665179971605539,0.0025282171554863453
1761466884951798500,5.152798583984375,-0.0007716403342783451,-0.0004709181375801563,-0.001245748484507203
1761466884961782500,5.162782470703125,-0.000019525643438100815,-0.01272185705602169,-0.0033414375502616167
1761466884971765500,5.172765625,0.000052912160754203796,0.0018991639371961355,-0.001170428702607751
1761466884981748500,5.18274853515625,-0.002480548806488514,0.0080646313726902,0.0021703303791582584
1761466884991731500,5.1927314453125,-0.000615537166595459,-0.006514577195048332,-0.00476826960220933
1761466885001715500,5.202715576171875,-0.0000944407656788826,-0.0037924351636320353,-0.0024780393578112125
1761466885011698400,5.212698486328125,-0.00010189739987254143,0.001405256101861596,0.0004000389017164707
1761466885021681700,5.222681640625,-0.0005066436715424061,-0.0023594265803694725,0.001068268669769168
1761466885031664400,5.232664306640625,-0.000059765297919511795,0.0011756536550819874,0.0000786378514021635
1761466885041648400,5.2426484375,0.0011224104091525078,-0.0035408753901720047,-0.0019342233426868916
1761466885051631400,5.25263134765625,0.0033149910159409046,0.0022198085207492113,8.295755833387375e-7
1761466885061614600,5.262614501953125,0.0024304422549903393,0.005583669524639845,0.0019692187197506428
1761466885071597600,5.27259765625,0.0007816790603101254,-0.00158449518494308,0.0022544432431459427
1761466885081581300,5.282581298828125,0.0019911648705601692,-0.006126342806965113,-0.0009289241861552
1761466885091564500,5.292564453125,-0.0011580227874219418,-0.004163859412074089,-0.0010160095989704132
1761466885101547500,5.302547607421875,-0.00009314902126789093,0.003799470840021968,-0.0008947036694735289
1761466885111530500,5.312530517578125,-0.001436181366443634,0.003912654705345631,0.001674980390816927
1761466885121514500,5.322514404296875,0.0010963482782244682,-0.007276311982423067,0.00018436717800796032
1761466885131497500,5.33249755859375,0.0029147546738386154,-0.001462897751480341,-0.0016548119019716978
1761466885141480400,5.34248046875,0.0003338707610964775,0.0002295738086104393,0.00037060840986669064
1761466885151464400,5.35246435546875,-0.0017631021328270435,0.0030163056217134,0.00042174127884209156
1761466885161447400,5.362447509765625,-0.002262292429804802,-0.001212389674037695,0.002425717655569315
1761466885171430400,5.372430419921875,0.0012477543205022812,-0.004196195397526026,-0.0006936427671462297
1761466885181413400,5.382413330078125,0.000027885660529136658,-0.0014672926627099514,-0.00017671054229140282
1761466885191396400,5.392396240234375,-0.000376648735255003,0.0022797752171754837,-0.0008981609717011452
1761466885201380600,5.402380615234375,-0.0018282816745340824,0.004019464831799269,-0.0011848118156194687
1761466885211363600,5.412363525390625,0.00039412640035152435,-0.00008952687494456768,-0.001120363362133503
1761466885221346300,5.42234619140625,-0.0018344763666391373,-0.00016110623255372047,0.000021338695660233498
1761466885231329500,5.43232958984375,-0.0010400558821856976,-0.003360361559316516,0.00026981160044670105
1761466885241313500,5.4423134765625,0.0009295796044170856,-0.010577496141195297,-0.004373322706669569
1761466885251296500,5.452296630859375,-0.0016536866314709187,-0.0025406084023416042,-0.0016912532737478614
1761466885261279500,5.462279541015625,0.0007496899925172329,0.0022057639434933662,0.001980400877073407
1761466885271262500,5.472262451171875,0.003206988563761115,0.0038345535285770893,-0.00037037115544080734
1761466885281246500,5.48224658203125,0.0016136141493916512,-0.0009020196739584208,0.0004250267520546913
1761466885291229400,5.4922294921875,0.0012977635487914085,0.00004526670090854168,0.0024943030439317226
1761466885301212700,5.502212646484375,-0.0012831352651119232,-0.0034749703481793404,-0.0011422871612012386
1761466885311196700,5.51219677734375,0.001017303206026554,-0.007240413688123226,-0.0002788903657346964
1761466885321179400,5.522179443359375,-0.0025833332911133766,0.00025361310690641403,0.0023858665954321623
1761466885331162400,5.532162353515625,-0.0015798541717231274,0.0047128102742135525,0.0009139373432844877
1761466885341145600,5.5421455078125,0.0003554155118763447,-0.006465638987720013,-0.0028837251011282206
1761466885351129600,5.552129638671875,0.0017051054164767265,0.004226153716444969,-0.0011191146913915873
1761466885361112300,5.5621123046875,-0.00018312502652406693,-0.0036833707708865404,-0.0007018889300525188
1761466885371095300,5.57209521484375,-9.648501873016357e-7,-0.002480154624208808,-0.0006563488859683275
1761466885381078500,5.58207861328125,-0.0014940164983272552,0.0014695471618324518,0.0005819341167807579
1761466885391062500,5.5920625,0.0010905810631811619,-0.0024958995636552572,-0.000054561300203204155
1761466885401045500,5.60204541015625,0.001286427490413189,-0.006830786354839802,-0.0003310025203973055
1761466885411028500,5.612028564453125,-0.000922664999961853,-0.0027481606230139732,0.00019710231572389603
1761466885421011500,5.622011474609375,0.001689177006483078,-0.0009750609751790762,-0.000021096551790833473
1761466885430995500,5.631995361328125,-0.000985702034085989,-0.0016467103268951178,-0.0006035298574715853
1761466885440978400,5.641978515625,-0.0023243199102580547,-0.005184811539947987,-0.001228666165843606
1761466885450961400,5.65196142578125,-0.0012968722730875015,-0.0020289658568799496,-0.002273957012221217
1761466885460944400,5.6619443359375,-0.0020391042344272137,0.0027955197729170322,-0.005484124645590782
1761466885470928400,5.671928466796875,0.0008528223261237144,-0.005590508226305246,-0.0013924443628638983
1761466885480911600,5.68191162109375,0.0011476189829409122,-0.0019768173806369305,-0.000022250227630138397
1761466885490894600,5.69189453125,-0.0008588065393269062,-0.0006492314860224724,0.0010771024972200394
1761466885500877300,5.701877197265625,-0.0008165342733263969,-0.0006734333001077175,-0.001188894733786583
1761466885510861300,5.711861328125,0.00042263465002179146,0.0017636255361139774,0.00021645543165504932
1761466885520844500,5.721844482421875,0.00030130380764603615,-0.0004996536299586296,0.003786244662478566
1761466885530827500,5.73182763671875,0.0045192185789346695,0.0024135783314704895,0.00020828773267567158
1761466885540810200,5.741810302734375,0.0008872384205460548,0.004141584038734436,-0.0005086755845695734
1761466885550794200,5.751794189453125,0.0015753991901874542,0.005011904984712601,0.0007129162549972534
1761466885560777500,5.761777587890625,-0.00025236979126930237,-0.0020567825995385647,0.0003316400106996298
1761466885570760400,5.771760498046875,-0.0017868834547698498,-0.005872826091945171,-0.0035310089588165283
1761466885580744400,5.781744384765625,0.00045639416202902794,0.006241681985557079,0.0006862401496618986
1761466885590728400,5.791728515625,0.001184502150863409,0.006263253279030323,-0.00047809374518692493
1761466885600711700,5.801711669921875,0.003226717934012413,-0.01384687889367342,-0.004359162412583828
1761466885610694700,5.811694580078125,0.00026395125314593315,-0.002943364903330803,-0.0001891849096864462
1761466885620677400,5.821677490234375,-0.0006201318465173244,0.0035838757175952196,-0.0015207735123112798
1761466885630661400,5.831661376953125,0.00010398169979453087,0.0004980710800737143,-0.0010453993454575539
1761466885640644600,5.84164453125,-0.00006052851676940918,-0.00028402521274983883,0.0018951797392219305
1761466885650627600,5.851627685546875,-0.0004458879120647907,0.004417519550770521,0.0024903963785618544
1761466885660610600,5.861610595703125,-0.0008139698766171932,0.0014436382334679365,0.00003207637928426266
1761466885670594600,5.871594482421875,-0.0012587178498506546,-0.003659510752186179,-0.0013639525277540088
1761466885680577500,5.88157763671875,0.001102503389120102,0.0034810109063982964,0.0008034617640078068
1761466885690560500,5.891560546875,0.0012108939699828625,0.007252579554915428,0.0004287553019821644
1761466885700543700,5.901543701171875,-0.002722586505115032,-0.003727046772837639,-0.002025213558226824
1761466885710527700,5.91152783203125,0.0012708241119980812,0.006969006732106209,0.0015098662115633488
1761466885720510500,5.921510498046875,-0.001024995930492878,-0.0042293188162148,-0.0007343795150518417
1761466885730493400,5.931493408203125,0.0020123394206166267,-0.005925752222537994,-0.003418845823034644
1761466885740476700,5.9414765625,0.0017159031704068184,0.001283832360059023,-0.0012514768168330193
1761466885750460700,5.951460693359375,-0.001106515061110258,0.003178671468049288,0.0008396371267735958
1761466885760443400,5.961443359375,0.0018113958649337292,0.002792013343423605,0.0014945946168154478
1761466885770426600,5.971426513671875,-0.002159643452614546,0.0026567247696220875,-0.000013819895684719086
1761466885780409600,5.98140966796875,0.0011977599933743477,-0.0038333111442625523,0.0012615213636308908
1761466885790393600,5.9913935546875,-0.0005274354480206966,0.002834711689502001,-0.0008349190466105938
1761466885800376600,6.00137646484375,-0.0007690871134400368,0.0008101649582386017,0.000610340153798461
1761466885810359600,6.011359619140625,0.0025374938268214464,-0.006235494278371334,-0.0008173803798854351
1761466885820342500,6.021342529296875,-0.0001584906131029129,0.0040520308539271355,-0.0014027432771399617
1761466885830326500,6.031326416015625,-0.0015478618443012238,0.006802809424698353,0.0034825594630092382
1761466885840309500,6.0413095703125,0.0007367036305367947,-0.004982694052159786,0.00035840203054249287
1761466885850292500,6.05129248046875,0.0007010176777839661,-0.005004532169550657,0.0009150027763098478
1761466885860275500,6.061275390625,-0.00190307991579175,0.0010084037203341722,-0.001360673806630075
1761466885870259500,6.071259521484375,-0.0014966819435358047,-0.00028216419741511345,0.00008968380279839039
1761466885880242700,6.08124267578125,-0.00043096253648400307,-0.00008366256952285767,0.00002182088792324066
1761466885890225700,6.0912255859375,0.0017887819558382034,0.0027254398446530104,0.000846601789817214
1761466885900208400,6.10120849609375,-0.0008233692497014999,-0.0007497575134038925,0.0011902786791324615
1761466885910192400,6.1111923828125,-0.0017663943581283092,-0.0038203822914510965,-0.0024878131225705147
1761466885920175600,6.121175537109375,-0.00014815665781497955,0.0006326185539364815,0.001373151782900095
1761466885930158600,6.13115869140625,-0.0027836207300424576,-0.0038321709726005793,-0.0014037264045327902
1761466885940141300,6.141141357421875,-0.00013826973736286163,-0.0026387954130768776,-0.00005176384001970291
1761466885950125600,6.15112548828125,0.00015281373634934425,0.0016158705111593008,0.0015043211169540882
1761466885960108500,6.161108642578125,-0.002424688544124365,0.001179240643978119,0.0011065450962632895
1761466885970091500,6.171091552734375,0.0019093393348157406,-0.005593177862465382,-0.002864228328689933
1761466885980074800,6.18107470703125,-0.003467082977294922,-0.0005604613106697798,0.0004712766967713833
1761466885990058800,6.191058837890625,-0.0006318818777799606,-0.0050276475958526134,-0.0014411392621695995
1761466886000041500,6.20104150390625,-0.0010288250632584095,-0.008290600962936878,-0.0029127991292625666
1761466886010024400,6.2110244140625,-0.0010250965133309364,-0.005977911874651909,-0.0004701479338109493
1761466886020007700,6.221007568359375,0.0019271890632808208,-0.0016890706028789282,0.0010440803598612547
1761466886029991700,6.23099169921875,0.00021770596504211426,-0.00032446696422994137,-0.00020893709734082222
1761466886039974400,6.240974365234375,0.0008745635859668255,-0.004736487288028002,-0.0008011267054826021
1761466886049957600,6.25095751953125,0.0009778938256204128,-0.002398764481768012,-0.0014741073828190565
1761466886059940600,6.260940673828125,-0.0021310080774128437,-0.008304595947265625,-0.0008631630335003138
1761466886069924600,6.270924560546875,-0.0037408885546028614,-0.004370308481156826,-0.0011310770642012358
1761466886079907600,6.280907470703125,-0.0017266427166759968,-0.0013556811027228832,-0.001067471457645297
1761466886089890600,6.290890625,-0.0007766932249069214,0.000042744679376482964,0.001983179245144129
1761466886099874600,6.30087451171875,-0.000665394589304924,0.009169420227408409,0.0036221833433955908
1761466886109857500,6.310857421875,-0.00009015202522277832,0.0029301661998033524,-0.0013794994447380304
1761466886119840500,6.320840576171875,-0.00009613716974854469,-0.004769125021994114,-0.0010889999102801085
1761466886129823500,6.330823486328125,-0.0005805660039186478,-0.0008819752838462591,0.0005701493937522173
1761466886139807500,6.340807373046875,-0.0008163861930370331,-0.00249194772914052,-0.0030346938874572515
1761466886149790500,6.35079052734375,-0.0007287682965397835,-0.0017811500001698732,-0.000804829178377986
1761466886159773700,6.360773681640625,0.0018337094224989414,-0.0015004156157374382,-0.0002409250009804964
1761466886169756700,6.370756591796875,0.0003010602667927742,0.002940139267593622,-0.0006249528378248215
1761466886179740400,6.380740478515625,0.0007003676146268845,0.0005555041134357452,0.0010052637662738562
1761466886189723400,6.390723388671875,0.0018074437975883484,-0.0019515958847478032,-0.00042751687578856945
1761466886199706600,6.40070654296875,0.0005606855265796185,-0.0022553838789463043,-0.001412104582414031
1761466886209689600,6.410689697265625,0.0014179572463035583,-0.0005725324153900146,0.001776498043909669
1761466886219673600,6.420673583984375,-0.00011224532499909401,-0.005068888422101736,-0.0015289263101294637
1761466886229656600,6.430656494140625,0.0026079074013978243,0.0015788942109793425,-0.0022232122719287872
1761466886239639600,6.4406396484375,0.0003062481991946697,0.007266744505614042,0.002821306698024273
1761466886249622500,6.45062255859375,0.0009035952389240265,0.0033905133605003357,0.0006188726983964443
1761466886259606500,6.4606064453125,0.0019255680963397026,0.006539879832416773,0.002224838826805353
1761466886269589800,6.47058984375,0.0014659063890576363,0.008893048390746117,0.001459978986531496
1761466886279572500,6.480572509765625,0.000781593844294548,-0.004831372760236263,-0.0018105164635926485
1761466886289555500,6.490555419921875,0.0019334112294018269,0.0025080330669879913,0.000008422648534178734
1761466886299539500,6.50053955078125,0.0009674080647528172,0.0014734112191945314,0.0009648874402046204
1761466886309522700,6.510522705078125,-0.0017966870218515396,0.003281165147200227,0.002151592168956995
1761466886319505400,6.52050537109375,0.00030253734439611435,0.0007101329974830151,-0.00025234115310013294
1761466886329488600,6.530488525390625,0.0003547351807355881,0.0002350248396396637,0.0011271764524281025
1761466886339472600,6.54047265625,0.0018200082704424858,-0.004158870317041874,-0.0009822773281484842
1761466886349455600,6.55045556640625,0.0005574035458266735,-0.002221420407295227,-0.001567373750731349
1761466886359438600,6.5604384765625,0.0021654178854078054,-0.00756489485502243,-0.0006677669007331133
1761466886369421600,6.570421630859375,-0.00041092419996857643,-0.00041883508674800396,0.0025538592599332333
1761466886379405600,6.580405517578125,-0.0004195324145257473,0.001817458774894476,-0.001142741646617651
1761466886389388500,6.590388427734375,0.00010937126353383064,-0.002420429140329361,-0.0010513952001929283
1761466886399371500,6.60037158203125,-0.00213834410533309,-0.00280376966111362,-0.0024400886613875628
1761466886409354500,6.6103544921875,-0.00013271719217300415,0.0012146742083132267,0.0022952777799218893
1761466886419338500,6.62033837890625,0.0033725376706570387,-0.0035463639069348574,-0.0006008704658597708
1761466886429321500,6.630321533203125,-0.0009923833422362804,-0.0026416881009936333,-0.002506628632545471
1761466886439304700,6.6403046875,-0.00010776985436677933,0.00478473212569952,0.001090868143364787
1761466886449287700,6.65028759765625,-0.0017264392226934433,0.0010864001233130693,0.0005241476465016603
1761466886459271400,6.660271484375,-0.0011869687587022781,-0.0026915227063000202,-0.00007196213118731976
1761466886469254400,6.67025439453125,-0.0001488686539232731,0.0003071967512369156,0.0003818406257778406
1761466886479237600,6.680237548828125,0.003382925409823656,0.0027438104152679443,0.000020421575754880905
1761466886489220600,6.690220703125,0.00020976876839995384,-0.0012245660182088614,-0.001576409675180912
1761466886499204600,6.70020458984375,0.002110908040776849,-0.0003326397854834795,0.002499182941392064
1761466886509187600,6.7101875,0.00028104986995458603,-0.0016620897222310305,-0.0007229754701256752
1761466886519170600,6.720170654296875,0.0016299490816891193,-0.0008806057740002871,0.0022208404261618853
1761466886529153500,6.730153564453125,-0.0010763551108539104,-0.004204497206956148,-0.0009616368915885687
1761466886539137500,6.740137451171875,-0.0028755883686244488,-0.006387278437614441,-0.0005110236816108227
1761466886549120800,6.750120849609375,-0.0004300074651837349,-0.001290787011384964,0.0006130966357886791
1761466886559103500,6.760103515625,0.0002529071643948555,0.002648732392117381,0.00148702971637249
1761466886569086500,6.77008642578125,-0.001748192124068737,-0.000772364204749465,-0.0016200800891965628
1761466886579073300,6.7800732421875,0.001008815597742796,-0.000492011895403266,-0.0014577695401385427
1761466886589056300,6.79005615234375,-0.000837287399917841,0.00031465967185795307,0.0004000517074018717
1761466886599039200,6.800039306640625,0.0012721940875053406,-0.0010036113671958447,0.00034871301613748074
1761466886609022200,6.810022216796875,0.0004761754535138607,-0.00030746101401746273,-0.002628701040521264
1761466886619006200,6.820006103515625,-0.0002982751466333866,0.00018053455278277397,0.0005724190268665552
1761466886628989200,6.8299892578125,-0.000032757874578237534,0.003657291177660227,-0.002192474901676178
1761466886638972200,6.83997216796875,-0.0015997523441910744,-0.0026673367246985435,-0.0012899341527372599
1761466886648955100,6.849955078125,0.001768880058079958,0.0029431446455419064,0.002290952019393444
1761466886658939100,6.859939208984375,-0.001120836939662695,0.00009112292900681496,-0.0013486983953043818
1761466886668922000,6.869922119140625,-0.002146153710782528,0.0011438708752393723,0.002467611338943243
1761466886678905300,6.8799052734375,0.001415472012013197,0.0013476936146616936,-0.00105298962444067
1761466886688888300,6.889888427734375,0.0007044081576168537,-0.0047605326399207115,-0.0034293283242732286
1761466886698872300,6.899872314453125,0.0011577168479561806,0.002776442328467965,0.004525657277554274
1761466886708855000,6.90985498046875,-0.00021940376609563828,-0.00313550909049809,0.0015943162143230438
1761466886718838300,6.91983837890625,-0.0001260708086192608,0.0013460791669785976,0.00040734349749982357
1761466886728821200,6.9298212890625,-0.0011125053279101849,-0.002449990250170231,-0.0010518026538193226
1761466886738805200,6.93980517578125,-0.0016874251887202263,-0.0022383066825568676,-0.001086113741621375
1761466886748788200,6.949788330078125,0.00001779664307832718,0.0031471378169953823,0.0037121037021279335
1761466886758771200,6.959771240234375,0.003048533573746681,0.00017664767801761627,0.0008649986702948809
1761466886768754200,6.969754150390625,-0.0009318268857896328,-0.0033389911986887455,-0.002317478647455573
1761466886778738200,6.97973828125,0.0007793447002768517,-0.0032515889033675194,-0.0024422183632850647
1761466886788721400,6.989721435546875,0.0005226158536970615,-0.001477657351642847,-0.0018504640320315957
1761466886798704000,6.9997041015625,-0.0005822936072945595,0.002447737380862236,-0.0019926181994378567
1761466886808687000,7.00968701171875,-0.00014207279309630394,0.0044720065779984,-0.0014647796051576734
1761466886818671000,7.019671142578125,-0.0037411642260849476,0.0010327345225960016,0.00038820039480924606
1761466886828654300,7.029654296875,0.0007193642668426037,-0.006261397153139114,-0.0028826938942074776
1761466886838637000,7.039636962890625,0.0010132575407624245,-0.00047029927372932434,-0.001900944160297513
1761466886848620300,7.049620361328125,0.001172514632344246,-0.0018181251361966133,-0.0006788196042180061
1761466886858604300,7.059604248046875,0.0019475971348583698,-0.0007230760529637337,-0.0011056633666157722
1761466886868587300,7.069587158203125,0.0009521073661744595,0.0029126713052392006,0.0014970439951866865
1761466886878570200,7.0795703125,-0.001057211309671402,-0.0040110317058861256,0.001997079700231552
1761466886888553200,7.08955322265625,0.0002796957269310951,-0.001053857384249568,-0.00006154365837574005
1761466886898537200,7.099537109375,-0.002276602666825056,-0.000041561434045434,0.0034899155143648386
1761466886908520200,7.109520263671875,-0.0023999069817364216,-0.0015837980899959803,0.001239544479176402
1761466886918503200,7.119503173828125,0.0012211804278194904,0.00030722329393029213,-0.00019857892766594887
1761466886928486100,7.129486083984375,-0.00009894883260130882,-0.0005457873921841383,0.0010128929279744625
1761466886938470100,7.13947021484375,0.00034781452268362045,-0.002625527558848262,-0.0007580076344311237
1761466886948453000,7.149453125,-0.0027973786927759647,-0.0030859881080687046,-0.000791297061368823
1761466886958436400,7.159436279296875,-0.00011666910722851753,0.006117485463619232,0.0007777761202305555
1761466886968419300,7.16941943359375,0.00021303026005625725,-0.003138330765068531,-0.0013937655603513122
1761466886978403300,7.1794033203125,-0.0008912826888263226,-0.003380516543984413,-0.003343917429447174
1761466886988386000,7.189385986328125,0.0017505730502307415,-0.00021774647757411003,-0.00008660508319735527
1761466886998369300,7.199369384765625,-0.0018326705321669579,0.00019176071509718895,-0.0004552723839879036
1761466887008353300,7.209353271484375,-0.0014779376797378063,0.0015739412046968937,-0.0015503643080592155
1761466887018336300,7.219336181640625,0.00020031491294503212,0.007596305105835199,0.002375473501160741
1761466887028319200,7.2293193359375,0.0004341402091085911,-0.002652070950716734,0.0006023410242050886
1761466887038302200,7.23930224609375,-0.0019341297447681427,-0.0003685138653963804,-0.0022480282932519913
1761466887048286200,7.2492861328125,-0.0003040092997252941,-0.0007930216379463673,-0.00031563849188387394
1761466887058269200,7.259269287109375,0.0006049284711480141,-0.00734782125800848,-0.002421563258394599
1761466887068252400,7.26925244140625,0.0002744304947555065,-0.0010449180845171213,-0.0013192809419706464
1761466887078235100,7.279235107421875,0.0013102279044687748,0.002291712909936905,0.0020925733260810375
1761466887088219100,7.28921923828125,-0.0009254957549273968,-0.004704144783318043,-0.0012571506667882204
1761466887098202000,7.2992021484375,0.0030713968444615602,0.00028850394301116467,0.00014021527022123337
1761466887108185300,7.309185302734375,-0.0007829959504306316,0.0004885073285549879,0.002206561854109168
1761466887118168000,7.31916796875,-0.0003753881901502609,-0.005314449779689312,-0.000587153248488903
1761466887128152000,7.329152099609375,-0.00034316396340727806,-0.0007524548564106226,-0.0002329528797417879
1761466887138135300,7.33913525390625,0.0020721061155200005,0.0005463447887450457,0.000912622082978487
1761466887148118300,7.3491181640625,0.0019021965563297272,-0.0035682390443980694,-0.0013590544695034623
1761466887158101200,7.359101318359375,0.001136617735028267,0.004860249813646078,-0.00008721509948372841
1761466887168085000,7.3690849609375,0.0014008032158017159,0.006340701598674059,0.0017506321892142296
1761466887178068200,7.379068115234375,0.0009656385518610477,0.005063286051154137,-0.0015956676797941327
1761466887188051200,7.38905126953125,0.0016175801865756512,0.0024453981313854456,0.00004217633977532387
1761466887198034200,7.3990341796875,0.00011599482968449593,0.0006431082729250193,-0.00034942361526191235
1761466887208018200,7.40901806640625,0.0021431930363178253,0.0017528475727885962,0.0006724311970174313
1761466887218001200,7.419001220703125,-0.0029539158567786217,0.007714157924056053,0.0019681290723383427
1761466887227984100,7.428984130859375,0.0029100985266268253,-0.0004431039560586214,0.00032202922739088535
1761466887237967400,7.43896728515625,0.0012990692630410194,-0.0019130220171064138,-0.003412526100873947
1761466887247951400,7.448951416015625,0.0007464634254574776,0.007798727601766586,0.0035207474138587713
1761466887257934300,7.458934326171875,-0.001975470222532749,-0.0012311332393437624,0.00015248009003698826
1761466887267917000,7.4689169921875,0.0018461658619344234,-0.00728662870824337,-0.0017410274595022202
1761466887277900300,7.478900390625,-0.0007688822224736214,0.00582345575094223,0.000960927689447999
1761466887287884300,7.48888427734375,0.00158588495105505,0.0023805212695151567,-0.0004769132938235998
1761466887297867300,7.4988671875,-0.001888299360871315,-0.004571839701384306,-0.0016155615448951721
1761466887307850200,7.508850341796875,-0.00032475730404257774,-0.00005458574742078781,-0.001496251905336976
1761466887317833200,7.518833251953125,0.003335049143061042,0.000937620410695672,0.0009744621347635984
1761466887327817200,7.528817138671875,-0.0006668828427791595,-0.0054302639327943325,-0.0035822063218802214
1761466887337800200,7.53880029296875,0.00026646535843610764,0.001203545369207859,0.002527468139305711
1761466887347783400,7.548783447265625,-0.0002041156403720379,0.0013777157291769981,0.0003812264185398817
1761466887357766100,7.55876611328125,0.0017343130894005299,-0.001902516232803464,0.001905608456581831
1761466887367750100,7.568750244140625,0.00011617643758654594,0.0018349641468375921,-0.0005887080915272236
1761466887377733000,7.578733154296875,-0.0007990607991814613,0.0027992618270218372,0.0016789205837994814
1761466887387716400,7.58871630859375,0.00026460597291588783,-0.0021323799155652523,-0.0027975868433713913
1761466887397699000,7.598698974609375,-0.0004583536647260189,0.0016722825821489096,0.002154300455003977
1761466887407683000,7.60868310546875,0.00000690016895532608,-0.00047848629765212536,-0.00159116939175874
1761466887417666300,7.618666259765625,0.0025394754484295845,0.0028018164448440075,-0.002643396146595478
1761466887427649300,7.628649169921875,-0.002110137138515711,-0.0006999738980084658,0.00033455039374530315
1761466887437632300,7.63863232421875,0.00046780239790678024,-0.001923430128954351,-0.0027274382300674915
1761466887447616000,7.648615966796875,0.002014300087466836,-0.0014488548040390015,-0.002358856610953808
1761466887457599200,7.65859912109375,-0.0003782878629863262,-0.00011695781722664833,0.0012615215964615345
1761466887467582200,7.668582275390625,-0.0008499338291585445,-0.006571394857019186,-0.0010349219664931297
1761466887477565200,7.678565185546875,0.0001944713294506073,-0.0057479082606732845,-0.0012853126972913742
1761466887487549200,7.688549072265625,0.0019207322038710117,-0.00007590791210532188,0.0012369672767817974
1761466887497532200,7.6985322265625,-0.00039701443165540695,-0.004118744749575853,-0.004625451285392046
1761466887507515100,7.70851513671875,-0.00011152355000376701,-0.0046282075345516205,-0.0014075536746531725
1761466887517498400,7.718498291015625,0.00003272341564297676,-0.0017056236974895,-0.00022326107136905193
1761466887527482400,7.728482421875,0.001581085380166769,-0.0022241410333663225,-0.003282967023551464
1761466887537465000,7.738465087890625,0.0012518311850726604,0.0027357125654816628,-0.0014377218903973699
1761466887547448000,7.748447998046875,-0.0013540717773139477,0.005194343160837889,0.0025293228682130575
1761466887557431300,7.758431396484375,0.0005080136470496655,0.0012916959822177887,0.0012372953351587057
1761466887567415300,7.768415283203125,0.001203098800033331,0.0031162272207438946,-0.00012011779472231865
1761466887577398300,7.778398193359375,0.0005690949037671089,0.0002201152965426445,-0.00002926611341536045
1761466887587378200,7.788378173828125,-0.0008133519440889359,-0.000021166866645216942,-0.00006814813241362572
1761466887597361400,7.798361328125,0.0017992914654314518,-0.0014874374028295279,0.0003939308226108551
1761466887607345200,7.80834521484375,-0.0027049127966165543,-0.001716469181701541,0.0012850246857851744
1761466887617328000,7.818328125,0.0016147391870617867,-0.0012866850011050701,-0.001214182237163186
1761466887627311000,7.82831103515625,-0.00017650285735726357,0.00017459155060350895,0.0005395093467086554
1761466887637294300,7.83829443359375,-0.01085231825709343,0.347708523273468,0.11839862912893295
1761466887647278300,7.8482783203125,0.0007271058857440948,-0.07104611396789551,-0.024741746485233307
1761466887657261000,7.858260986328125,0.0026905620470643044,-0.09865299612283707,-0.031827934086322784
1761466887667244300,7.868244384765625,0.0034463671036064625,0.0885389968752861,0.03805287927389145
1761466887677227300,7.878227294921875,-0.0016458542086184025,-0.07831218838691711,-0.03209783881902695
1761466887687211300,7.888211181640625,0.0008516581729054451,-0.015839222818613052,-0.006310449913144112
1761466887697194000,7.898194091796875,-0.0002548014745116234,-0.021009843796491623,-0.00561013026162982
1761466887707177200,7.90817724609375,0.0015710615552961826,-0.040947865694761276,-0.014816678129136562
1761466887717160200,7.91816015625,-0.001109500415623188,-0.011197606101632118,-0.004878073465079069
1761466887727144200,7.928144287109375,0.0031965647358447313,-0.028794175013899803,-0.010849946178495884
1761466887737127400,7.93812744140625,0.00037352554500102997,-0.025784607976675034,-0.008591363206505775
1761466887747110100,7.948110107421875,-0.0005617765709757805,-0.014642475172877312,-0.006770825944840908
1761466887757093000,7.958093017578125,0.003067051526159048,-0.004217047709971666,-0.0017917763907462358
1761466887767077000,7.9680771484375,-0.0018531382083892822,0.00016411812976002693,0.0006221127696335316
1761466887777060400,7.978060302734375,0.0008708261884748936,-0.008986116386950016,-0.0010649592150002718
1761466887787043300,7.988043212890625,-0.0017459960654377937,-0.0035111901815980673,-0.002377631375566125
