time,seconds_elapsed,z,y,x
1761466868674278700,0.124278564453125,-0.0026848576962947845,0.0005737058818340302,-0.0008934142533689737
1761466868684261600,0.13426171875,0.0029291920363903046,-0.00048798578791320324,0.0024907824117690325
1761466868694244600,0.14424462890625,-0.0007507638074457645,0.0009376045782119036,0.0002595861442387104
1761466868704228600,0.154228515625,0.0029901647940278053,0.0012158916797488928,0.0005711116828024387
1761466868714211600,0.164211669921875,0.0013054492883384228,0.001466495217755437,-0.00012876722030341625
1761466868724194800,0.17419482421875,-0.0004146518185734749,-0.0011333285365253687,-0.0026802574284374714
1761466868734177500,0.184177490234375,0.0018583564087748528,0.00006536021828651428,-0.000781157286837697
1761466868744161500,0.19416162109375,-0.0003668563440442085,0.0006406879983842373,0.0013199152890592813
1761466868754144800,0.204144775390625,0.0004440764896571636,-0.0009172612335532904,-0.0004582775291055441
1761466868764127700,0.214127685546875,0.00043771974742412567,-0.0032771143596619368,0.00035519362427294254
1761466868774111700,0.22411181640625,-0.0016557909548282623,-0.0017199639696627855,0.0006055308040231466
1761466868784094500,0.234094482421875,0.0016022496856749058,0.004000771790742874,0.0004273653030395508
1761466868794077700,0.24407763671875,-0.0031546885147690773,-0.002038744278252125,-0.00015853019431233406
1761466868804061700,0.254061767578125,0.0007213475182652473,-0.001614671666175127,-0.00046063167974352837
1761466868814044700,0.264044677734375,0.0027229792904108763,0.0002322306390851736,-0.002027369337156415
1761466868824027600,0.274027587890625,-0.0011425460688769817,0.0025417818687856197,-0.0006103203631937504
1761466868834011600,0.28401171875,-0.00011136988177895546,0.00011750636622309685,0.0009686676785349846
1761466868843994600,0.29399462890625,-0.0010457439348101616,-0.00038199196569621563,-0.0010269868653267622
1761466868853977600,0.3039775390625,0.0007955655455589294,0.0012907397467643023,0.0021672083530575037
1761466868863961600,0.313961669921875,0.0019764844328165054,0.00007394119165837765,0.0002934082876890898
1761466868873944800,0.32394482421875,-0.0003077085129916668,-0.0012874666135758162,-0.0014573538210242987
1761466868883927600,0.333927490234375,0.00022881943732500076,-0.003195913741365075,-0.0011748058022931218
1761466868893911600,0.34391162109375,0.0008711740374565125,-0.002068597823381424,-0.002892278367653489
1761466868903894800,0.353894775390625,-0.0015281802043318748,0.0032927803695201874,0.0036983450409024954
1761466868913877800,0.363877685546875,-0.002550034783780575,0.0017665228806436062,-0.00010305107571184635
1761466868923861800,0.37386181640625,-0.0017164656892418861,0.0017390921711921692,0.0005891043692827225
1761466868933844500,0.383844482421875,0.001791119109839201,-0.0009868082124739885,0.00040371064096689224
1761466868943827700,0.39382763671875,0.0005609574727714062,-0.00454632518813014,-0.0017648108769208193
1761466868953810700,0.403810791015625,0.00004243990406394005,-0.0013404118362814188,-0.0007991485763341188
1761466868963794700,0.413794677734375,-0.00042031705379486084,0.0028528522234410048,0.002271282020956278
1761466868973777400,0.42377734375,0.002702239202335477,-0.001852953340858221,-0.00048375828191637993
1761466868983760600,0.4337607421875,0.00021990714594721794,0.00024484447203576565,0.001475009834393859
1761466868993744600,0.44374462890625,0.0009083342738449574,0.0003236739430576563,0.0024388080928474665
1761466869003727600,0.4537275390625,-0.0033533694222569466,0.002430897206068039,0.001581291202455759
1761466869013710800,0.4637109375,0.0006032884120941162,-0.0004074997268617153,0.002222048118710518
1761466869023694800,0.47369482421875,0.0009469520300626755,0.0009973179548978806,0.0011490602046251297
1761466869033677600,0.483677490234375,-0.0017811902798712254,-0.00153375044465065,-0.0014350047567859292
1761466869043660500,0.49366064453125,-0.00008141621947288513,-0.002676915843039751,0.00043866573832929134
1761466869053644500,0.50364453125,-0.0003274921327829361,-0.0013991312589496374,-0.0013110311701893806
1761466869063627800,0.513627685546875,-0.001439935527741909,-0.003375865751877427,-0.0007285748142749071
1761466869073610500,0.523610595703125,0.00195266492664814,-0.0013137802015990019,0.00007197121158242226
1761466869083594500,0.533594482421875,0.000919305719435215,-0.00118619529530406,-0.0034456271678209305
1761466869093577700,0.54357763671875,0.001370444893836975,-0.0014005796983838081,0.0011805500835180283
1761466869103560700,0.553560791015625,0.002492321189492941,-0.0024193553254008293,-0.0007699846755713224
1761466869113544700,0.563544677734375,-0.0013338420540094376,0.0002952045761048794,0.003023687982931733
1761466869123527700,0.573527587890625,0.0026616661343723536,0.0004194313660264015,-0.0006444272585213184
1761466869133510700,0.5835107421875,0.0001324620097875595,0.006211540661752224,0.0022650763858109713
1761466869143493600,0.59349365234375,-0.0004730457440018654,-0.00018449616618454456,-0.0006737869698554277
1761466869153477600,0.6034775390625,-0.0022107581607997417,0.005094422027468681,0.00010625296272337437
1761466869163460600,0.613460693359375,-0.001398138701915741,0.0018604220822453499,-0.00040517328307032585
1761466869173443600,0.623443603515625,-0.0007943999953567982,-0.0014996882528066635,-0.001369503908790648
1761466869183427600,0.633427490234375,-0.0006262999959290028,0.0005975121166557074,-0.001601672382093966
1761466869193410600,0.64341064453125,0.000686105340719223,-0.0005710830446332693,-0.00026955921202898026
1761466869203393800,0.653393798828125,0.0021425068844109774,0.0007524557877331972,0.000780866015702486
1761466869213377800,0.663377685546875,0.0007459451444447041,0.0006006557960063219,0.0004596887156367302
1761466869223360500,0.673360595703125,-0.0007289447821676731,-0.0021472908556461334,-0.0008085474837571383
1761466869233343500,0.683343505859375,-0.0006847362965345383,-0.005474910605698824,-0.003017639508470893
1761466869243327700,0.69332763671875,0.000180036760866642,0.0023086711298674345,0.0009341631084680557
1761466869253310700,0.703310791015625,0.0015904470346868038,-0.0007781991735100746,0.0018691988661885262
1761466869263293700,0.713293701171875,-0.0017361105419695377,-0.006115875206887722,-0.0019196821376681328
1761466869273277700,0.723277587890625,-0.0018354463391005993,0.0032230315264314413,0.0017735897563397884
1761466869283260700,0.7332607421875,-0.0003078347072005272,-0.0002890282776206732,0.0017241854220628738
1761466869293243600,0.74324365234375,-0.0020500742830336094,-0.0061463844031095505,-0.0007131395395845175
1761466869303227600,0.7532275390625,-0.0005605020560324192,0.0020730653777718544,0.0015292097814381123
1761466869313210600,0.763210693359375,-0.0006111022084951401,0.004093339666724205,0.0035271132364869118
1761466869323193600,0.773193603515625,-0.0009319004602730274,0.0007475195452570915,0.0008856409694999456
1761466869333177600,0.783177490234375,0.0030191652476787567,-0.0016506570391356945,0.0023431892041116953
1761466869343160600,0.79316064453125,0.002310860436409712,0.0037208092398941517,0.002207016572356224
1761466869353143800,0.803143798828125,0.0007819393649697304,0.0027242545038461685,0.0005534596275538206
1761466869363126800,0.813126708984375,0.0011260262690484524,-0.004056498408317566,0.0005530165508389473
1761466869373110500,0.823110595703125,-0.00002179620787501335,-0.0012577823363244534,0.0008968308102339506
1761466869383093500,0.833093505859375,0.0009949011728167534,0.00215286947786808,0.00043000164441764355
1761466869393076700,0.84307666015625,0.001963226590305567,-0.0006660863291472197,-0.0011673624394461513
1761466869403060700,0.853060791015625,0.0017953594215214252,-0.0027128029614686966,0.000265512615442276
1761466869413043700,0.863043701171875,0.0014957538805902004,0.0020736965816468,0.0012700571678578854
1761466869423026700,0.873026611328125,-0.0016201375983655453,0.00021988246589899063,-0.0004361397586762905
1761466869433010700,0.8830107421875,0.00047470489516854286,-0.0021013286896049976,-0.000832950696349144
1761466869442993700,0.89299365234375,0.0033202071208506823,0.0038574940990656614,0.0014981890562921762
1761466869452976600,0.9029765625,0.0004919301718473434,0.0072727324441075325,0.0020340171176940203
1761466869462960600,0.912960693359375,0.0004803435876965523,0.00008599669672548771,-0.00004402059130370617
1761466869472943600,0.922943603515625,-0.00007066410034894943,0.0027472933288663626,0.0008681123144924641
1761466869482926600,0.932926513671875,-0.000938131008297205,-0.0042807431891560555,-0.0012672763550654054
1761466869492910600,0.94291064453125,0.0012451284565031528,-0.0016340936999768019,0.002495237858965993
1761466869502893600,0.9528935546875,0.0008960403501987457,0.003285174025222659,0.00007370300590991974
1761466869512876800,0.962876708984375,-0.0008557871915400028,-0.003949302714318037,-0.00010819081217050552
1761466869522859500,0.972859619140625,-0.001863372977823019,-0.0025246674194931984,0.0008247022051364183
1761466869532843500,0.982843505859375,-0.002105986699461937,0.00017071771435439587,-0.0009106136858463287
1761466869542826800,0.99282666015625,0.0030444308649748564,-0.0060104853473603725,-0.0022355332039296627
1761466869552809700,1.002809814453125,0.0010332115925848484,-0.0008186527993530035,0.0026425791438668966
1761466869562789600,1.01278955078125,-0.0007201777771115303,0.001896342495456338,-0.0018579891184344888
1761466869572772600,1.022772705078125,0.0029171674977988005,-0.005194324068725109,-0.0025064689107239246
1761466869582755600,1.032755615234375,-0.0009591882117092609,-0.0024731189478188753,-0.0000750902108848095
1761466869592739600,1.042739501953125,0.00003523612394928932,0.003060130635276437,0.0037031364627182484
1761466869602722600,1.05272265625,-0.001264539547264576,-0.0004500520881265402,-0.0014183963648974895
1761466869612705500,1.06270556640625,0.0002848873846232891,-0.0030130783561617136,0.0002356930635869503
1761466869622689500,1.072689453125,0.0002094525843858719,0.0018895871471613646,-0.0006935764104127884
1761466869632672500,1.082672607421875,0.0015918994322419167,-0.002216208493337035,-0.00023338221944868565
1761466869642655500,1.092655517578125,0.003126129973679781,0.0051526413299143314,-0.0004382026381790638
1761466869652639700,1.1026396484375,-0.000025987625122070312,0.0014401949010789394,-0.0004368710797280073
1761466869662622500,1.11262255859375,0.0006974227726459503,-0.0013240301050245762,0.0014953920617699623
1761466869672605400,1.12260546875,0.0031975985039025545,-0.0023216502740979195,-0.0018894856330007315
1761466869682589400,1.13258935546875,-0.0006017512641847134,-0.002497392939403653,-0.0022336861584335566
1761466869692572700,1.14257275390625,0.0004107826389372349,0.0025772603694349527,-0.00023817969486117363
1761466869702555600,1.1525556640625,0.0015214979648590088,-0.0004918116610497236,-0.0012981781037524343
1761466869712538400,1.162538330078125,-0.0009107673540711403,-0.0006614550948143005,0.00006562657654285431
1761466869722522600,1.172522705078125,0.00036940211430191994,0.004591402597725391,0.0038651027716696262
1761466869732505600,1.182505615234375,-0.000965906772762537,-0.0017778134206309915,0.00039660208858549595
1761466869742488600,1.192488525390625,0.0011249235831201077,0.00005573430098593235,-0.0014447158901020885
1761466869752472600,1.20247265625,0.0010442300699651241,0.0037375541869550943,0.0014623908791691065
1761466869762455600,1.21245556640625,0.001492964569479227,-0.00006030779331922531,-0.0007355967536568642
1761466869772438500,1.2224384765625,0.000047400593757629395,0.000012662727385759354,-0.0009454539977014065
1761466869782422500,1.232422607421875,-0.0005566542968153954,0.000624579843133688,-0.001513879862613976
1761466869792405500,1.242405517578125,-0.00022908532992005348,-0.0020247327629476786,-0.0014270608080551028
1761466869802388700,1.252388671875,-0.00015388987958431244,-0.0025426927022635937,0.0025735304225236177
1761466869812372700,1.262372802734375,0.0013918089680373669,-0.0003509111702442169,0.0025506268721073866
1761466869822355500,1.27235546875,0.0002108672633767128,-0.0009864512830972672,-0.0025204019621014595
1761466869832338700,1.282338623046875,0.0016641542315483093,-0.0016367952339351177,-0.0007025280501693487
1761466869842322700,1.29232275390625,-0.001863811630755663,-0.0015605904627591372,-0.0017523557180538774
1761466869852305700,1.3023056640625,-0.0004257047548890114,-0.003017872106283903,-0.0005885541904717684
1761466869862288400,1.312288330078125,0.001720912754535675,0.0007105532567948103,-0.002411754336208105
1761466869872271600,1.322271728515625,0.002850625663995743,0.001290057087317109,0.0009773843921720982
1761466869882255600,1.332255615234375,0.0003345864824950695,0.0009865674655884504,-0.0010145416017621756
1761466869892238600,1.342238525390625,-0.0012230961583554745,0.0019266630988568068,0.0019570135045796633
1761466869902221600,1.3522216796875,-0.0005110460333526134,-0.00006422493606805801,0.000965731916949153
1761466869912205600,1.36220556640625,-0.0005661738105118275,-0.002360935090109706,-0.00029713893309235573
1761466869922188500,1.3721884765625,-0.0012750518508255482,0.0049353595823049545,0.0002687503583729267
1761466869932171500,1.382171630859375,0.0016847853548824787,0.001989903626963496,-0.00029157870449125767
1761466869942155500,1.392155517578125,-0.00014160526916384697,-0.007130720652639866,-0.0016288099577650428
1761466869952138800,1.402138671875,0.0008709286339581013,0.0035349729005247355,0.003383259056136012
1761466869962121500,1.41212158203125,0.002066655782982707,0.003181882668286562,-0.0009907966013997793
1761466869972105500,1.42210546875,-0.0021738954819738865,-0.00284005724824965,-0.002465388737618923
1761466869982088400,1.43208837890625,0.004069037735462189,-0.002664327621459961,0.0001311174128204584
1761466869992071700,1.44207177734375,-0.0003715166822075844,0.0011533137876540422,0.00047200219705700874
1761466870002055700,1.4520556640625,-0.0018252348527312279,-0.003369357204064727,-0.0002962679136544466
1761466870012038400,1.462038330078125,0.00034204544499516487,0.00014947750605642796,0.00024781585671007633
1761466870022021600,1.472021728515625,-0.00354289123788476,0.0021847430616617203,0.001251713139936328
1761466870032004600,1.482004638671875,0.0019101975485682487,-0.0004840109031647444,-0.0025568734854459763
1761466870041988600,1.491988525390625,-0.0002806498669087887,0.002936118748039007,0.00176879926584661
1761466870051971600,1.5019716796875,-0.0022484594956040382,0.003946788143366575,-0.00035933288745582104
1761466870061954600,1.51195458984375,0.0012042154558002949,-0.0020390173885971308,0.000264275586232543
1761466870071938600,1.5219384765625,-0.0009074048139154911,0.0017274913843721151,0.002775902859866619
1761466870081921500,1.531921630859375,0.0014505241997539997,0.0010603114496916533,-0.0001804542262107134
1761466870091904800,1.54190478515625,0.0011064438149333,0.0005276792217046022,-0.0005556936375796795
1761466870101888800,1.551888671875,-0.00010371394455432892,0.001996574690565467,-0.0014478616649284959
1761466870111871500,1.56187158203125,0.0006518247537314892,0.002035723300650716,-0.0002260033506900072
1761466870121854500,1.5718544921875,-0.0008133738301694393,-0.0015851433854550123,-0.0044832993298769
1761466870131838500,1.58183837890625,0.000006613321602344513,-0.0003201419021934271,-0.001376721658743918
1761466870141821700,1.59182177734375,0.0003989744000136852,-0.0005587092600762844,-0.0006633892189711332
1761466870151804400,1.601804443359375,0.00013558799400925636,0.0009670157451182604,0.0004391595721244812
1761466870161787400,1.611787353515625,0.0005975537933409214,-0.0016162958927452564,-0.00025116163305938244
1761466870171771600,1.621771728515625,0.0025198233779519796,0.0022508802358061075,-0.00020455638878047466
1761466870181754600,1.631754638671875,0.00004479009658098221,-0.0001798318699002266,0.002528994344174862
1761466870191737600,1.641737548828125,0.0015332307666540146,-0.0005071344785392284,0.00162937818095088
1761466870201721600,1.6517216796875,0.0007151998579502106,-0.0007168813608586788,0.0005229536909610033
1761466870211704600,1.66170458984375,-0.00025658775120973587,-0.002472170628607273,-0.0006648162379860878
1761466870221687600,1.6716875,0.0016088061966001987,-0.0006528478115797043,0.0011579215060919523
1761466870231671600,1.681671630859375,-0.0023526460863649845,0.001260366989299655,-0.0012317326618358493
1761466870241654500,1.691654541015625,0.0016673956997692585,-0.0026395590975880623,0.0018460163846611977
1761466870251637500,1.701637451171875,0.0003568539395928383,-0.003018526826053858,0.0004513189196586609
1761466870261621500,1.71162158203125,-0.003119970206171274,0.0008244914934039116,-0.0017407593550160527
1761466870271604500,1.7216044921875,0.0007101874798536301,0.0008513894863426685,-0.0009665784891694784
1761466870281587700,1.731587646484375,-0.00029063131660223007,0.006346341222524643,0.0007366512436419725
1761466870291571700,1.74157177734375,0.0009394828230142593,-0.00034245382994413376,0.0008048282470554113
1761466870301554700,1.7515546875,-0.0011428836733102798,0.0015344840940088034,-0.00019011064432561398
1761466870311537400,1.761537353515625,-0.0006573894061148167,0.002683105645701289,0.0004756797570735216
1761466870321520600,1.771520751953125,0.0018535279668867588,0.0017864578403532505,0.00136338802985847
1761466870331504600,1.781504638671875,0.0006497791036963463,0.0012303898110985756,0.002113067777827382
1761466870341487600,1.791487548828125,0.0006974935531616211,-0.0005882920231670141,-0.0008799061179161072
1761466870351470600,1.801470703125,-0.0010700467973947525,-0.0018386461306363344,-0.002164082368835807
1761466870361454600,1.81145458984375,-0.001763420645147562,0.0021522585302591324,0.00033172243274748325
1761466870371437600,1.8214375,-0.0008193301036953926,0.0010971142910420895,-0.0007303461898118258
1761466870381420500,1.831420654296875,-0.000508373137563467,-0.002075709868222475,-0.0018827643943950534
1761466870391404500,1.841404541015625,-0.0025297123938798904,0.001856713555753231,0.001445121830329299
1761466870401387500,1.851387451171875,-0.0006107911467552185,0.002382037229835987,0.0015337357763200998
1761466870411370500,1.86137060546875,-0.001765803899616003,-0.0036308476701378822,0.001192052150145173
1761466870421353500,1.871353515625,0.00032179150730371475,0.0016939479392021894,0.001401419285684824
1761466870431337500,1.88133740234375,0.001032589003443718,0.0024830426555126905,-0.00021618488244712353
1761466870441320700,1.89132080078125,-0.00142256123945117,-0.0018165999790653586,0.000007204944267868996
1761466870451303400,1.901303466796875,0.00099905114620924,0.0026852076407521963,0.001092709368094802
1761466870461287400,1.911287353515625,-0.002131155226379633,-0.0018382349517196417,-0.0024927370250225067
1761466870471270700,1.921270751953125,-0.0005058278329670429,-0.0027322580572217703,0.0015499414876103401
1761466870481253600,1.931253662109375,-0.00041909143328666687,-0.0018155922880396247,0.00041288184002041817
1761466870491237600,1.941237548828125,-0.0009914049878716469,-0.0020259818993508816,0.00003471295349299908
1761466870501220400,1.951220458984375,-0.0005628750659525394,-0.0006238599307835102,0.0006366204470396042
1761466870511203600,1.96120361328125,0.002835850929841399,0.002295230980962515,-0.0014723368221893907
1761466870521187600,1.9711875,-0.0005234885029494762,-0.0026781181804835796,0.00046739308163523674
1761466870531170600,1.981170654296875,0.0006578895263373852,-0.0008754245936870575,0.001497770193964243
1761466870541153800,1.99115380859375,0.0003789607435464859,-0.002762705087661743,-0.0018242920050397515
1761466870551137500,2.001137451171875,-0.0007195933721959591,0.0017990232445299625,-0.0016703613800927997
1761466870561120500,2.01112060546875,0.002265894552692771,-0.0003415762912482023,0.0005827490240335464
1761466870571107000,2.021107177734375,0.00038144178688526154,0.004018018022179604,0.0006450668442994356
1761466870581090300,2.03109033203125,0.0015077544376254082,0.000895797973498702,-0.00035378080792725086
1761466870591074300,2.04107421875,-0.002415081951767206,-0.0011833319440484047,-0.0006629738491028547
1761466870601057000,2.05105712890625,-0.00039545632898807526,0.00046472949907183647,-0.00046808295883238316
1761466870611040000,2.0610400390625,-0.0001555057242512703,-0.002291908720508218,0.0016904089134186506
1761466870621024300,2.071024169921875,-0.0016581476666033268,-0.00201016734354198,-0.0012032375670969486
1761466870631007200,2.08100732421875,-0.0007180515676736832,-0.00047805067151784897,0.00018107355572283268
1761466870640990200,2.090990234375,-0.0011273818090558052,0.005048699676990509,0.0015352717600762844
1761466870650974000,2.100973876953125,-0.0012698611244559288,-0.002097893040627241,-0.000025074230507016182
1761466870660957200,2.110957275390625,0.0010526468977332115,-0.00003053364343941212,-0.00247555086389184
1761466870670940200,2.120940185546875,-0.001216100063174963,0.002421705285087228,0.0021221304778009653
1761466870680924200,2.130924072265625,-0.00003852229565382004,-0.00046537723392248154,-0.0010108181741088629
1761466870690907100,2.1409072265625,0.00025682197883725166,0.0030244288500398397,-0.0009192056022584438
1761466870700890000,2.15089013671875,0.00047350628301501274,0.00022768881171941757,0.000052840448915958405
1761466870710873000,2.160873046875,-0.0002985442988574505,-0.0014485048595815897,-0.00027659256011247635
1761466870720857000,2.170857177734375,-0.00030872970819473267,0.004518973641097546,0.0003123760689049959
1761466870730840300,2.18084033203125,-0.001258945558220148,-0.005873213522136211,0.0005185047630220652
1761466870740823000,2.190822998046875,-0.0005289353430271149,0.0005470770411193371,0.0009179823100566864
1761466870750807000,2.20080712890625,0.0017600515857338905,0.002214482519775629,-0.00032331724651157856
1761466870760790000,2.2107900390625,-0.00032502319663763046,-0.003076756838709116,0.0003040577284991741
1761466870770773200,2.220773193359375,-0.0020193266682326794,-0.004548951983451843,-0.0018754733027890325
1761466870780757200,2.23075732421875,-0.0009663566015660763,-0.0015888160560280085,-0.00045215641148388386
1761466870790740200,2.240740234375,0.0008168960921466351,0.00003384798765182495,0.00007568229921162128
1761466870800723200,2.25072314453125,-0.001730810385197401,-0.000267283758148551,0.0008860251400619745
1761466870810707200,2.260707275390625,-0.00029296986758708954,-0.0007535771001130342,0.00027083512395620346
1761466870820690200,2.270690185546875,0.00013106223195791245,0.0014750116970390081,0.00019647623412311077
1761466870830673200,2.280673095703125,-0.000028194859623908997,-0.0011865512933582067,-0.00003628409467637539
1761466870840657200,2.2906572265625,-0.0004051993601024151,0.0004414101131260395,0.0013222354464232922
1761466870850640100,2.30064013671875,-0.0003063962794840336,0.0007649841718375683,0.0006718912627547979
1761466870860623000,2.310623046875,-0.001868420746177435,0.0005382739473134279,0.0008662778418511152
1761466870870606000,2.320606201171875,0.0019430951215326786,0.005351671017706394,0.0015946521889418364
1761466870880590000,2.330590087890625,0.00037740683183074,-0.004118293523788452,-0.000008858740329742432
1761466870890573300,2.3405732421875,-0.0003043622709810734,-0.0013499376364052296,-0.000518854008987546
1761466870900556000,2.35055615234375,0.0041055502369999886,-0.0028909705579280853,0.00111835403367877
1761466870910540000,2.3605400390625,-0.0006796177476644516,0.0041232630610466,0.0006054292898625135
1761466870920523300,2.370523193359375,-0.0015171132981777191,-0.002950036898255348,-0.0021010085474699736
1761466870930506200,2.38050634765625,0.002803332870826125,-0.002995843067765236,-0.001926837838254869
1761466870940490200,2.390490234375,-0.002635988872498274,0.0038345030043274164,0.003667095908895135
1761466870950473000,2.400472900390625,0.0009089442901313305,0.0017561723943799734,0.00019539939239621162
1761466870960456200,2.410456298828125,0.0008115270175039768,0.004201594740152359,0.002175483852624893
1761466870970439200,2.420439208984375,0.0008088639006018639,-0.002431274391710758,0.00044576101936399937
1761466870980423200,2.430423095703125,-0.00020731473341584206,0.0014758347533643246,0.0021404807921499014
1761466870990406100,2.44040625,-0.0004970664158463478,0.0004843398928642273,-0.000835868064314127
1761466871000389000,2.45038916015625,-0.0017633438110351562,-0.005912411957979202,-0.0018494084943085909
1761466871010373000,2.460373046875,-0.0016163373365998268,0.0013537569902837276,0.0015354692004621029
1761466871020356000,2.470356201171875,0.0007183090783655643,-0.003973175305873156,0.0006745171267539263
1761466871030339300,2.48033935546875,0.003447782713919878,-0.0011939003597944975,0.0005525441374629736
1761466871040323300,2.4903232421875,0.00110265938565135,0.0035267311614006758,0.001497811172157526
1761466871050306000,2.50030615234375,0.0006674989126622677,-0.003724257694557309,-0.0006300543900579214
1761466871060289000,2.5102890625,0.000353087205439806,0.000168240861967206,-0.0011978037655353546
1761466871070273300,2.520273193359375,0.000024186912924051285,-0.0008919637184590101,-0.00033866800367832184
1761466871080256300,2.53025634765625,0.0001056138426065445,0.0002565791364759207,0.00014153053052723408
1761466871090239000,2.540239013671875,-0.0006464631296694279,-0.0004670016933232546,-0.001055027823895216
1761466871100222200,2.55022216796875,-0.000684026163071394,-0.00028836517594754696,-0.00022394233383238316
1761466871110206200,2.560206298828125,-0.000133550725877285,0.0034970520064234734,-0.0004116951022297144
1761466871120189200,2.570189208984375,-0.001224372535943985,-0.0038894747849553823,-0.00412128958851099
1761466871130172200,2.580172119140625,-0.0011860230006277561,0.0020602934528142214,0.0026902775280177593
1761466871140156000,2.590156005859375,0.0020231781527400017,0.006641163490712643,0.0022171642631292343
1761466871150139100,2.60013916015625,-0.0037212600000202656,0.0007446587551385164,0.000009936513379216194
1761466871160122000,2.6101220703125,0.000010441523045301437,-0.003273134585469961,-0.00258251978084445
1761466871170106000,2.620106201171875,0.0020695975981652737,-0.0035128190647810698,-0.00189808732829988
1761466871180089300,2.63008935546875,-0.00011601997539401054,0.0004945495165884495,-0.0006001940928399563
1761466871190072000,2.640072021484375,0.00241531478241086,-0.0005217127036303282,0.0009985014330595732
1761466871200056000,2.65005615234375,-0.00288216769695282,-0.0029690535739064217,-0.0011375327594578266
1761466871210039000,2.6600390625,0.0021362933330237865,0.0007375339046120644,0.0016031262930482626
1761466871220022300,2.670022216796875,0.002295798622071743,-0.001977351726964116,-0.0015484526520594954
1761466871230005200,2.680005126953125,0.0006627482362091541,-0.0010476422030478716,-0.0017564456211403012
1761466871239989000,2.689989013671875,-0.0006145108491182327,0.002888750284910202,-0.0005167569033801556
1761466871249972200,2.69997216796875,-0.0010869554243981838,-0.0005366073455661535,0.0012771484907716513
1761466871259955200,2.709955078125,0.0011008805595338345,-0.002968690823763609,0.00018434878438711166
1761466871269939200,2.719939208984375,0.002523807343095541,-0.0004999404773116112,-0.00005213986150920391
1761466871279922200,2.729922119140625,-0.0004353923723101616,0.0018636477179825306,0.0035523620899766684
1761466871289905200,2.7399052734375,0.0010996535420417786,-0.0016381428577005863,0.0002556352410465479
1761466871299889200,2.74988916015625,-0.0009296070784330368,-0.0024803963024169207,-0.00029211025685071945
1761466871309872000,2.7598720703125,-0.0028841006569564342,-0.0018465640023350716,0.0001406532246619463
1761466871319855000,2.769855224609375,0.0020443792454898357,0.0009660308714956045,0.000409464817494154
1761466871329838000,2.779838134765625,-0.00005818624049425125,0.0011260865721851587,0.0008808441925793886
1761466871339822000,2.789822021484375,0.001197438221424818,0.0007588670123368502,0.0016513634473085403
1761466871349805000,2.79980517578125,-0.0009067254140973091,-0.003193530486896634,-0.000643216073513031
1761466871359788300,2.809788330078125,0.0016161687672138214,0.00006086868233978748,-0.0012325150892138481
1761466871369772300,2.819772216796875,0.0005325288511812687,0.006199188996106386,0.0030048403423279524
1761466871379755300,2.82975537109375,-0.0011076480150222778,0.0016270405612885952,-0.0020841844379901886
1761466871389738000,2.839738037109375,-0.001038405578583479,-0.00035568256862461567,-0.0006801658309996128
1761466871399722000,2.849721923828125,-0.0004448583349585533,0.00116826337762177,0.0006407580804079771
1761466871409705200,2.859705322265625,-0.0027713957242667675,0.0018545601051300764,-0.0001504670362919569
1761466871419688200,2.869688232421875,-0.0015611904673278332,-0.002444594632834196,-0.0011826320551335812
1761466871429672200,2.879672119140625,0.0009187450632452965,0.0001935325562953949,0.00015880214050412178
1761466871439655200,2.8896552734375,0.0003360137343406677,0.001350324833765626,0.0016335779801011086
1761466871449638100,2.89963818359375,0.0019062133505940437,-0.0024345596320927143,-0.0014154750388115644
1761466871459621000,2.90962109375,-0.0008598128333687782,-0.0002172368112951517,0.0010516245383769274
1761466871469605000,2.919605224609375,-0.000723725650459528,-0.0037211577873677015,-0.0013958207564428449
1761466871479588000,2.929588134765625,-0.00034901872277259827,-0.002155219204723835,-0.0010104612447321415
1761466871489571000,2.939571044921875,0.0017145941965281963,-0.00045308819971978664,-0.0014839599607512355
1761466871499555000,2.94955517578125,0.0026934046763926744,-0.001055832952260971,0.00044275494292378426
1761466871509538000,2.9595380859375,0.0003748568706214428,0.0004547121934592724,0.001175923040136695
1761466871519521300,2.969521240234375,-0.0007053399458527565,-0.0013306660111993551,-0.0009249835275113583
1761466871529505300,2.97950537109375,-0.0009420951828360558,-0.0001655330415815115,0.0011019480880349874
1761466871539488000,2.989488037109375,0.0009469408541917801,0.002720477292314172,0.0009750965982675552
1761466871549471200,2.99947119140625,-0.002035799901932478,0.0021953016985207796,-0.000040632905438542366
1761466871559454200,3.0094541015625,0.0009407084435224533,-0.0026570954360067844,-0.002370635513216257
1761466871569435600,3.019435546875,0.0011220700107514858,0.0003093993291258812,0.0016446122899651527
1761466871579418400,3.02941845703125,0.001983709866181016,-0.002420925535261631,-0.0010584841948002577
1761466871589401600,3.039401611328125,0.0011562658473849297,-0.0022227864246815443,0.00035938271321356297
1761466871599385600,3.049385498046875,0.0019634037744253874,-0.0008391833398491144,0.0000010486692190170288
1761466871609368600,3.05936865234375,-0.0011274609714746475,0.0006881395820528269,-0.0015592974377796054
1761466871619351600,3.0693515625,-0.00040221400558948517,0.0014170741196721792,-0.0008053272031247616
1761466871629335600,3.07933544921875,0.00023428164422512054,-0.0006412833463400602,0.0006969617679715157
1761466871639318500,3.089318603515625,0.0017179688438773155,0.003322499804198742,0.0007266695611178875
1761466871649301500,3.099301513671875,-0.00016222288832068443,-0.000282887602224946,-0.003175127785652876
1761466871659285500,3.109285400390625,-0.00011591287329792976,-0.00034481589682400227,-0.0013168336590752006
1761466871669268700,3.119268798828125,-0.0039556585252285,0.0006418852135539055,0.0005503084976226091
1761466871679251500,3.12925146484375,-0.0006706430576741695,0.0027597935404628515,0.0009227388072758913
1761466871689235500,3.1392353515625,0.0016774660907685757,-0.0028695964720100164,-0.0015196462627500296
1761466871699218400,3.149218505859375,-0.0025947578251361847,-0.0046854568645358086,-0.003132546553388238
1761466871709201700,3.15920166015625,0.0021355492062866688,0.0008469938766211271,0.000024364562705159187
1761466871719184600,3.1691845703125,0.0006892462261021137,-0.00045535643585026264,0.0016461408231407404
1761466871729168400,3.17916845703125,-0.0004870719276368618,-0.002112907823175192,-0.0007725420873612165
1761466871739151400,3.1891513671875,0.002268778858706355,0.003305969061329961,0.0012302165850996971
1761466871749134600,3.199134521484375,-0.0006678886711597443,-0.002228346187621355,0.0009250184521079063
1761466871759118600,3.20911865234375,-0.0027124714106321335,-0.0014386472757905722,-0.0019421909237280488
1761466871769101600,3.2191015625,-0.00018992507830262184,0.000802669208496809,0.0005417393986135721
1761466871779084500,3.22908447265625,-0.0008151582442224026,-0.00024610315449535847,0.0014447160065174103
1761466871789068500,3.239068603515625,0.0009726220741868019,0.00799664668738842,0.0026617804542183876
1761466871799051500,3.249051513671875,0.0006473488174378872,-0.0007864912040531635,0.00003091548569500446
1761466871809034500,3.259034423828125,0.00028755562379956245,0.0009336443617939949,0.00240299291908741
1761466871819017500,3.269017578125,0.0005241353064775467,0.0016961267683655024,0.00019308761693537235
1761466871829001500,3.27900146484375,-0.0005232859402894974,-0.001981165958568454,-0.0013795088743790984
1761466871838984400,3.288984375,0.00022904714569449425,-0.001439328072592616,-0.0006812787614762783
1761466871848967700,3.2989677734375,0.0007014917209744453,-0.0008462422993034124,-0.0032203365117311478
1761466871858951700,3.30895166015625,-0.00034174928441643715,-0.0015321762766689062,-0.000006871530786156654
1761466871868934700,3.3189345703125,0.002196509623900056,-0.0014986204914748669,0.00039366772398352623
1761466871878917400,3.32891748046875,0.0002811574377119541,0.000044143060222268105,0.00008023995906114578
1761466871888901400,3.3389013671875,0.00043641962110996246,0.0020657486747950315,0.00007065245881676674
1761466871898884600,3.348884521484375,0.0005092998035252094,0.0005466623697429895,0.0014070491306483746
1761466871908867600,3.35886767578125,-0.0013474561274051666,0.004038332961499691,-0.00007846206426620483
1761466871918850300,3.368850341796875,0.0008398909121751785,0.003512273309752345,-0.0013619338860735297
1761466871928834600,3.37883447265625,-0.0010994230397045612,0.002175898989662528,0.001108680386096239
1761466871938817500,3.388817626953125,0.00006393110379576683,-0.0018963266629725695,-0.0014322916977107525
1761466871948800500,3.398800537109375,-0.0006825532764196396,-0.0030265720561146736,0.0019802828319370747
1761466871958784500,3.408784423828125,-0.0020918878726661205,-0.0008607741910964251,0.0008298330940306187
1761466871968767700,3.418767822265625,0.0011278740130364895,-0.0006618360057473183,-0.002176342997699976
1761466871978750500,3.42875048828125,-0.0007162820547819138,0.00019012275151908398,0.0007772985845804214
1761466871988734500,3.438734375,-0.003054005093872547,-0.004145503509789705,0.00024493271484971046
1761466871998717400,3.448717529296875,0.0009291986934840679,-0.004599748179316521,0.000977211631834507
1761466872008700700,3.45870068359375,-0.003833864815533161,-0.001179184066131711,0.0003910500090569258
1761466872018684700,3.4686845703125,0.0003019338473677635,-0.0019027844537049532,-0.0019720173440873623
1761466872028667400,3.47866748046875,0.0005341614596545696,-0.002068166621029377,-0.000463070347905159
1761466872038650600,3.488650634765625,0.0014900574460625648,0.002355733886361122,0.0019405805505812168
1761466872048633600,3.498633544921875,0.0006266608834266663,0.00021561747416853905,0.0014548199251294136
1761466872058617600,3.50861767578125,-0.001191208604723215,0.0006977594457566738,-0.0009052872192114592
1761466872068600300,3.518600341796875,0.0007089567370712757,0.00026339804753661156,0.000401525991037488
1761466872078583600,3.52858349609375,0.001261657103896141,0.0022369821090251207,0.0001239590346813202
1761466872088567600,3.538567626953125,0.0005465983413159847,0.0007509381975978613,0.004202856682240963
1761466872098550500,3.548550537109375,0.0014969054609537125,0.002148051979020238,0.0009688953869044781
1761466872108533500,3.558533447265625,0.002491595922037959,0.0007115427870303392,-0.0014050464378669858
1761466872118517800,3.568517822265625,-0.0019436473958194256,-0.00013695191591978073,-0.0007614812348037958
1761466872128500500,3.57850048828125,0.0012502819299697876,0.0033853452187031507,-0.0009566908702254295
1761466872138483500,3.5884833984375,-0.0009366082958877087,-0.0017089908942580223,0.00007722200825810432
1761466872148466700,3.598466796875,-0.0008404683321714401,0.0004686757456511259,-0.00015740236267447472
1761466872158450700,3.60845068359375,-0.0013120295479893684,-0.004974065348505974,-0.00210848031565547
1761466872168433400,3.618433349609375,0.0008435328491032124,-0.0010158088989555836,-0.0014402931556105614
1761466872178416400,3.62841650390625,0.0015305420383810997,0.0009624776430428028,0.0009551765397191048
1761466872188400400,3.638400390625,0.0026488034054636955,-0.0037313434295356274,0.0006369287148118019
1761466872198383600,3.648383544921875,-0.0020946399308741093,0.003292087698355317,0.0013762956950813532
1761466872208366600,3.65836669921875,-0.00011937366798520088,-0.0013010662514716387,0.0017531330231577158
1761466872218350300,3.668350341796875,-0.0004140213131904602,-0.0019365258049219847,-0.0011823342647403479
1761466872228333600,3.67833349609375,-0.000500574242323637,-0.002145317615941167,-0.001310432213358581
1761466872238316500,3.688316650390625,-0.0021534995175898075,-0.0016852559056133032,-0.0014823786914348602
1761466872248300500,3.698300537109375,-0.002714626956731081,-0.0030932691879570484,-0.0009247127454727888
1761466872258283500,3.708283447265625,-0.0009193918667733669,0.0013081890065222979,0.0010410312097519636
1761466872268266500,3.7182666015625,0.000437222421169281,0.002582245273515582,0.0015102799516171217
1761466872278249500,3.72824951171875,-0.00037059932947158813,-0.0026577517855912447,-0.0018919428111985326
1761466872288233500,3.7382333984375,0.0007258239202201366,0.0005505580920726061,0.00025083660148084164
1761466872298216700,3.748216796875,0.0010188007727265358,-0.0014846159610897303,0.00013458658941090107
1761466872308199400,3.758199462890625,-0.0012507447972893715,-0.0004715495742857456,0.0005553660448640585
1761466872318183400,3.768183349609375,0.003819198114797473,0.00031522568315267563,-0.0018150421092286706
1761466872328166400,3.77816650390625,0.0008495072834193707,0.005613051354885101,0.0015136427246034145
1761466872338149600,3.788149658203125,0.0003798943944275379,0.0015194821171462536,-0.0014230456436052918
1761466872348133600,3.798133544921875,0.000359121710062027,-0.00034260028041899204,0.0006361105479300022
1761466872358116600,3.80811669921875,-0.00019339146092534065,-0.0016817227005958557,0.0015717805363237858
1761466872368099300,3.818099365234375,0.0008934447541832924,-0.00392090855166316,-0.0018908613128587604
1761466872378082600,3.82808251953125,-0.001132601872086525,0.0010822818148881197,-0.0020910529419779778
1761466872388066600,3.838066650390625,0.0018935482949018478,-0.00003731134347617626,0.0014072754420340061
1761466872398049500,3.848049560546875,0.002813308732584119,0.00021699629724025726,-0.00036716414615511894
1761466872408032500,3.858032470703125,0.0002058078534901142,-0.0010804957710206509,0.0006970351096242666
1761466872418016500,3.8680166015625,-0.0003035138361155987,0.0006947915535420179,0.0009932599496096373
1761466872427999500,3.87799951171875,0.0007279287092387676,-0.00009350408799946308,-0.0014935998478904366
1761466872437982500,3.887982421875,-0.0005913726054131985,0.0020234950352460146,-0.000323320971801877
1761466872447966500,3.897966552734375,-0.0019272142089903355,0.003212063806131482,0.0012119915336370468
1761466872457949700,3.90794970703125,-0.0001737317070364952,-0.0005996858235448599,0.0005347479600459337
1761466872467932400,3.917932373046875,0.00039325514808297157,0.005609740503132343,0.0008551264181733131
1761466872477915600,3.92791552734375,0.001141596119850874,0.003139326348900795,0.000030946917831897736
1761466872487899600,3.937899658203125,0.0030505498871207237,-0.004053338896483183,0.0005254959687590599
1761466872497882600,3.947882568359375,0.0014994782395660877,-0.00017838762141764164,-0.00047811190597712994
1761466872507865300,3.957865234375,0.000017961952835321426,0.004269624128937721,-0.0013092844747006893
1761466872517849300,3.967849365234375,-0.0016158418729901314,-0.0017203057650476694,0.0007185840513557196
1761466872527832600,3.97783251953125,-0.001749532762914896,0.0005638876464217901,0.0006554669234901667
1761466872537815600,3.987815673828125,-0.003149352502077818,-0.00041392864659428596,-0.0016217436641454697
1761466872547799600,3.997799560546875,0.0003476436249911785,-0.0004679907578974962,-0.00018257135525345802
1761466872557781500,4.007781494140625,-0.0027216635644435883,0.000672629801556468,0.0012981898616999388
1761466872567764200,4.01776416015625,-0.0005040490068495274,-0.00042991875670850277,-0.0010613708291202784
1761466872577748200,4.027748291015625,0.0028019174933433533,-0.0002806335687637329,0.0007420538458973169
1761466872587731500,4.0377314453125,0.0003504776395857334,-0.0010076765902340412,0.0027351637836545706
1761466872597714200,4.047714111328125,0.00107929902151227,0.0005418409127742052,0.0008791547734290361
1761466872607698200,4.0576982421875,0.0036298080813139677,0.003243085229769349,0.0005992564838379622
1761466872617681200,4.06768115234375,-0.0007415995933115482,-0.0045073749497532845,0.00006393599323928356
1761466872627664400,4.077664306640625,0.0003260616213083267,-0.0023217187263071537,0.00023757410235702991
1761466872637647400,4.0876474609375,-0.00042503466829657555,0.0024999729357659817,0.002609995426610112
1761466872647631000,4.097631103515625,0.0020700807217508554,-0.0017083542188629508,0.0022267664317041636
1761466872657614300,4.1076142578125,0.0012299492955207825,0.003242325270548463,-0.0013916465686634183
1761466872667597300,4.117597412109375,-0.00041961297392845154,0.0004601206164807081,0.0012552691623568535
1761466872677581300,4.127581298828125,0.0011213701218366623,0.004022054374217987,0.0014529549516737461
1761466872687564300,4.137564208984375,0.0000848677009344101,-0.004621501080691814,-0.0013287169858813286
1761466872697547300,4.14754736328125,-0.00020346464589238167,0.00277368794195354,0.0017143911682069302
1761466872707531300,4.15753125,0.0007323701865971088,0.000001603737473487854,0.0016451487317681313
1761466872717514200,4.16751416015625,-0.0002336464822292328,-0.0006722994148731232,0.0021427134051918983
1761466872727497200,4.177497314453125,-0.00048771174624562263,-0.0009639156050980091,-0.00037663686089217663
1761466872737480200,4.187480224609375,-0.0005917567759752274,0.001055040629580617,-0.00009162002243101597
1761466872747464200,4.197464111328125,-0.0016461024060845375,-0.000636599026620388,0.00012622657231986523
1761466872757447200,4.207447265625,0.0007811081595718861,0.003704624716192484,0.0010744249448180199
1761466872767430400,4.217430419921875,-0.0007057348266243935,-0.0018563218181952834,-0.001265960861928761
1761466872777414400,4.227414306640625,-0.0006568240933120251,-0.0020248666405677795,-0.0011362996883690357
1761466872787397400,4.2373974609375,-0.0002283216454088688,-0.0013303142040967941,-0.0011565396562218666
1761466872797380000,4.247380126953125,-0.0020860526710748672,0.00021700141951441765,0.0008093114010989666
1761466872807364400,4.2573642578125,0.0019784641917794943,0.0021898711565881968,0.000027141300961375237
1761466872817347300,4.267347412109375,0.000024626031517982483,0.004920091480016708,0.0010829470120370388
1761466872827330300,4.277330322265625,-0.0003242478705942631,-0.000289850402623415,0.0002768083941191435
1761466872837313300,4.287313232421875,-0.000001612585037946701,0.000125921331346035,-0.0027859557885676622
1761466872847297300,4.29729736328125,-0.0017092316411435604,-0.002896766411140561,-0.00075689353980124
1761466872857280300,4.3072802734375,-0.002057910431176424,-0.002617258345708251,-0.0018918465357273817
1761466872867263200,4.31726318359375,0.0006867432966828346,0.0064036669209599495,-0.00021352246403694153
1761466872877247200,4.327247314453125,0.001092142891138792,0.0051950011402368546,0.0015085635241121054
1761466872887230200,4.337230224609375,0.002761146053671837,0.0006849381607025862,-0.0011306290980428457
1761466872897213200,4.347213134765625,-0.0011937590315937996,0.0015000549610704184,0.0022833868861198425
1761466872907197200,4.357197265625,-0.001999898348003626,-0.004958643112331629,0.00021730666048824787
1761466872917180400,4.367180419921875,0.00018562143668532372,-0.0036163388285785913,-0.0007312681991606951
1761466872927163400,4.377163330078125,-0.00032117823138833046,-0.0018219008343294263,-0.0013608395820483565
1761466872937147400,4.3871474609375,0.0002842368558049202,-0.002077383454889059,0.0007927571423351765
1761466872947130000,4.397130126953125,-0.0008942116983234882,0.0007554213516414165,-0.003093593753874302
1761466872957113300,4.40711328125,-0.0007004053331911564,0.003127380972728133,0.000579901272431016
1761466872967096300,4.417096435546875,-0.0006798990070819855,0.0020509313326328993,-0.00011305324733257294
1761466872977080300,4.427080322265625,-0.0019551534205675125,0.0025498399045318365,0.0020751631818711758
1761466872987063300,4.437063232421875,0.000852351076900959,0.0004004023503512144,0.00038219173438847065
1761466872997046300,4.44704638671875,-0.0011219470761716366,0.0008721582125872374,-0.0006635107565671206
1761466873007030300,4.4570302734375,0.0020208493806421757,0.001227423781529069,-0.0013434157008305192
1761466873017013200,4.46701318359375,0.0019105561077594757,-0.0008389090653508902,0.0019195484928786755
1761466873026996500,4.47699658203125,-0.0026780706830322742,-0.0017070994945243,-0.0012544068740680814
1761466873036980500,4.48698046875,0.0005100448615849018,-0.002757373498752713,-0.001046189572662115
1761466873046963200,4.496963134765625,0.0028600182849913836,-0.0006492151878774166,0.002002597087994218
1761466873056946200,4.5069462890625,-0.00010990304872393608,0.002523856470361352,0.0015742569230496883
1761466873066929400,4.516929443359375,0.002783621195703745,0.0029422391671687365,-0.000854279613122344
1761466873076913400,4.526913330078125,0.00019850349053740501,0.0031928750686347485,0.0010397322475910187
1761466873086896000,4.536896240234375,-0.0016561220400035381,0.0029555875808000565,-0.0006425867322832346
1761466873096879400,4.54687939453125,0.0024985005147755146,0.0036030628252774477,-0.00024618441238999367
1761466873106863400,4.55686328125,0.0023166066966950893,-0.00020898575894534588,0.0003972353879362345
1761466873116846300,4.566846435546875,0.00008076243102550507,-0.0018367430893704295,-0.003012180794030428
1761466873126829300,4.576829345703125,-0.0019767964258790016,0.0016051260754466057,-0.00015114666894078255
1761466873136813000,4.58681298828125,-0.0020386502146720886,-0.00006989738903939724,-0.0011654866393655539
1761466873146798300,4.59679833984375,0.000754473265260458,-0.00036257877945899963,-0.003456604201346636
1761466873156781300,4.60678125,0.002401353558525443,-0.0012923358008265495,-0.0018226945539936423
1761466873166764300,4.616764404296875,0.0005435324274003506,-0.0011226923670619726,-0.0033287121914327145
1761466873176748300,4.626748291015625,0.0006016339175403118,0.00039342627860605717,0.00008060433901846409
1761466873186731300,4.636731201171875,-0.0013057217001914978,-0.0008753039874136448,0.0008760904893279076
1761466873196714200,4.64671435546875,0.0002630096860229969,-0.004979943390935659,-0.0024508959613740444
1761466873206697200,4.656697265625,-0.0012275618501007557,0.005122225731611252,0.0008836479391902685
1761466873216681200,4.66668115234375,-0.0010195407085120678,0.0009016287513077259,-0.0001002682838588953
1761466873226664200,4.676664306640625,0.0022833114489912987,-0.0029045611154288054,-0.0028742169961333275
1761466873236647400,4.6866474609375,-0.0016976641491055489,0.002359438221901655,0.0014888334553688765
1761466873246631400,4.69663134765625,0.0006602983921766281,-0.0019495564047247171,-0.0009234577883034945
1761466873256614100,4.7066142578125,-0.0004668915644288063,-0.00392557866871357,-0.0005291195120662451
1761466873266597400,4.716597412109375,-0.003139639738947153,0.0031299341935664415,0.0010530645959079266
1761466873276581400,4.726581298828125,-0.0027155959978699684,-0.0036825749557465315,0.0003949352540075779
1761466873286564400,4.736564453125,0.000054623931646347046,-0.001411164877936244,0.0018301126547157764
1761466873296547000,4.746547119140625,-0.00046997424215078354,0.00014621345326304436,-0.003995283506810665
1761466873306531000,4.756531005859375,0.000740166287869215,0.000380305340513587,-0.0004929604474455118
1761466873316514300,4.766514404296875,-0.0017082230187952518,-0.00044824229553341866,-0.0005175597034394741
1761466873326497300,4.776497314453125,0.0001586531288921833,0.0019478036556392908,0.0012457191478461027
1761466873336480300,4.786480224609375,0.000041552819311618805,-0.001918216934427619,-0.0009781974367797375
1761466873346464300,4.79646435546875,-0.0010359622538089752,0.002116738585755229,-0.0013489093398675323
1761466873356447200,4.806447265625,-0.0022682645358145237,0.008342034183442593,0.0005435894709080458
1761466873366430200,4.81643017578125,-0.0007452028803527355,-0.0009254997130483389,-0.0001235324889421463
1761466873376414200,4.826414306640625,-0.002022090367972851,-0.0007265894673764706,-0.0009316920768469572
1761466873386397400,4.8363974609375,0.0005760891363024712,0.005297214724123478,0.0012094895355403423
1761466873396380200,4.846380126953125,-0.0027106888592243195,-0.003630519611760974,-0.0021222608629614115
1761466873406363100,4.856363037109375,0.00032371701672673225,0.0008606351912021637,-0.0010809649247676134
1761466873416347400,4.866347412109375,0.001392117701470852,0.0004287364427000284,0.0007638807874172926
1761466873426330400,4.876330322265625,-0.0016742460429668427,-0.0006013740785419941,-0.00025025103241205215
1761466873436313300,4.886313232421875,-0.0006086798384785652,-0.0005996145773679018,-0.0010174312628805637
1761466873446297000,4.896297119140625,0.0006938725709915161,0.0009538072627037764,0.0007924530655145645
1761466873456280300,4.9062802734375,0.0007189628668129444,-0.0009759713429957628,0.003546559251844883
1761466873466263300,4.91626318359375,-0.0016989209689199924,-0.002841782057657838,-0.004192054271697998
1761466873476247300,4.926247314453125,-0.0013999827206134796,-0.0004766422789543867,-0.0013115628389641643
1761466873486230300,4.936230224609375,0.0009025861509144306,0.0041229031048715115,0.002189961262047291
1761466873496213200,4.946213134765625,-0.00038144271820783615,0.00008507980965077877,-0.0034953290596604347
1761466873506196200,4.9561962890625,-0.0002363002859055996,-0.0003404933959245682,-0.0003823600709438324
1761466873516180200,4.96618017578125,0.0010007545351982117,0.0014374374877661467,-0.001211805734783411
1761466873526163500,4.97616357421875,-0.0006269696168601513,-0.001987654250115156,-0.001458947081118822
1761466873536146200,4.986146240234375,0.00003632204607129097,-0.00004308507777750492,0.001213678391650319
1761466873546130200,4.996130126953125,0.0009194263257086277,0.0016067430842667818,0.0006014176178723574
1761466873556113200,5.006113037109375,-0.0019375267438590527,-0.0006613330915570259,0.002347538946196437
1761466873566095000,5.01609521484375,0.0017858385108411312,-0.0003904895856976509,0.00030782376416027546
1761466873576079000,5.0260791015625,-0.00035497965291142464,-0.00208370853215456,-0.0024169497191905975
1761466873586062000,5.03606201171875,0.002229884499683976,0.0018686889670789242,0.0005812370218336582
1761466873596045300,5.04604541015625,0.0005483077839016914,0.0002346825785934925,-0.00043410412035882473
1761466873606028000,5.056028076171875,-0.0009941947646439075,-0.0007171311881393194,-0.0016234718495979905
1761466873616012000,5.066011962890625,0.001081033144146204,0.0013744302559643984,-0.001400135224685073
1761466873625995300,5.075995361328125,-0.002154974266886711,-0.0019055188167840242,0.0017091052141040564
1761466873635978200,5.085978271484375,-0.000023472588509321213,-0.00003509572707116604,-0.0009805848821997643
1761466873645962200,5.095962158203125,0.0006708134897053242,0.0027159496676176786,0.0003944053314626217
1761466873655945000,5.105945068359375,-0.000993039458990097,-0.0020257895812392235,0.001373152481392026
1761466873665928200,5.11592822265625,0.0007904795929789543,0.0004405637737363577,0.001611239043995738
1761466873675912200,5.125912109375,0.0003585983067750931,-0.0014791898429393768,-0.0008184332400560379
1761466873685895200,5.135895263671875,-0.0017620767466723919,-0.0029085082933306694,0.00047639571130275726
1761466873695878100,5.145878173828125,0.0010742871090769768,-0.001637167762964964,0.0004010675475001335
1761466873705861000,5.155861083984375,-0.0010676933452486992,-0.002151424065232277,-0.0008586077019572258
1761466873715845000,5.16584521484375,0.0020741906482726336,0.00021129637025296688,-0.00012468616478145123
1761466873725828000,5.175828125,0.0006209034472703934,0.0011127765756100416,-0.00038221385329961777
1761466873735811300,5.185811279296875,0.0005651088431477547,0.0017670942470431328,0.0013571020681411028
1761466873745795300,5.19579541015625,0.0006535258144140244,0.0009039635770022869,0.0004063535016030073
1761466873755778000,5.205778076171875,0.0015163864009082317,0.003100429428741336,0.0010971236042678356
1761466873765761000,5.215760986328125,-0.0018301415257155895,0.001717183506116271,0.001265169121325016
1761466873775745300,5.225745361328125,0.0003753993660211563,-0.0038875103928148746,0.00005844747647643089
1761466873785728300,5.235728271484375,0.0008193482644855976,0.0013195022474974394,-0.0007767197676002979
1761466873795711000,5.2457109375,-0.0009267046116292477,0.0016939288470894098,0.0015705309342592955
1761466873805694200,5.255694091796875,0.0022033085115253925,-0.0014110507909208536,0.00024188007228076458
1761466873815678200,5.26567822265625,-0.0002093450166285038,-0.00023976434022188187,0.0002643677871674299
1761466873825661200,5.2756611328125,0.0005070450715720654,0.001267851097509265,0.0009986015502363443
1761466873835644200,5.28564404296875,0.0004234248772263527,-0.0014087827876210213,-0.000617016339674592
1761466873845628200,5.295628173828125,0.0006402060389518738,-0.0003347299061715603,-0.0014753532595932484
1761466873855611100,5.305611083984375,0.003064393065869808,-0.0021231661085039377,0.0009588622488081455
1761466873865594000,5.315593994140625,-0.0015788283199071884,-0.0015766855794936419,0.0004414101131260395
1761466873875577000,5.3255771484375,0.000614553689956665,-0.0019328546477481723,0.0015319669619202614
1761466873885561300,5.335561279296875,0.0016334792599081993,-0.0008284416981041431,0.002653690055012703
1761466873895544000,5.3455439453125,-0.000658262986689806,0.00087574846111238,0.003250469220802188
1761466873905527000,5.355527099609375,-0.0008348305709660053,-0.0008417242206633091,-0.0009059261064976454
1761466873915511000,5.365510986328125,-0.0009923907928168774,-0.00201434176415205,-0.0020733096171170473
1761466873925494300,5.375494384765625,0.0007045753300189972,0.002680811332538724,0.00003484869375824928
1761466873935477200,5.385477294921875,0.0018863012082874775,0.0033975860569626093,0.0014474582858383656
1761466873945461000,5.3954609375,-0.0028224335983395576,-0.0034307590685784817,-0.0009358045645058155
1761466873955444200,5.4054443359375,-0.0012119370512664318,0.002056484343484044,0.0006907831411808729
1761466873965427200,5.41542724609375,-0.0016561523079872131,0.003642396768555045,0.0014178261626511812
1761466873975410200,5.42541015625,-0.0005315765738487244,-0.00035719946026802063,0.0018070968799293041
1761466873985394200,5.435394287109375,-0.001467944122850895,-0.00614344934001565,-0.0017974915681406856
1761466873995377200,5.445377197265625,-0.000660730991512537,0.0005149380303919315,0.0020376872271299362
1761466874005360000,5.455360107421875,0.0005494095385074615,-0.0022736580576747656,-0.0008635602425783873
1761466874015344000,5.46534423828125,0.00010896706953644753,-0.0019941837526857853,0.0002822543028742075
1761466874025327000,5.4753271484375,-0.0008931807242333889,0.0004623162094503641,-0.0017430796287953854
1761466874035310300,5.485310302734375,0.0013579893857240677,-0.0006074756383895874,-0.00040484126657247543
1761466874045294000,5.495294189453125,0.0006612539291381836,0.0006480624433606863,-0.0006001375149935484
1761466874055277000,5.505277099609375,-0.00030686240643262863,-0.001528819790109992,0.0006456314586102962
1761466874065260300,5.51526025390625,0.0005866279825568199,-0.006417318247258663,-0.0020273830741643906
1761466874075243300,5.5252431640625,-0.0014188005588948727,-0.002952650422230363,0.0001617269590497017
1761466874085227300,5.535227294921875,-0.0018377159722149372,0.0019459680188447237,0.00010153953917324543
1761466874095210000,5.5452099609375,0.001376846805214882,0.00021819467656314373,0.001533623319119215
1761466874105193200,5.555193115234375,-0.0019486425444483757,0.001468815142288804,0.0027107405476272106
1761466874115177200,5.56517724609375,-0.0010300735011696815,0.0007103327661752701,0.0014209127984941006
1761466874125160200,5.57516015625,-0.002244208939373493,-0.0012340410612523556,-0.0006150738336145878
1761466874135143200,5.58514306640625,-0.0013545015826821327,-0.0012013749219477177,0.0008166930638253689
1761466874145126100,5.595126220703125,0.002232510130852461,0.0009003917220979929,0.0025496119633316994
1761466874155110100,5.605110107421875,-0.0004602302797138691,0.003497155150398612,0.0002685117069631815
1761466874165093000,5.615093017578125,0.0010756147094070911,-0.0016190435271710157,0.0012176621239632368
1761466874175076400,5.625076416015625,-0.00015832483768463135,-0.001912976149469614,0.00021017598919570446
1761466874185060400,5.635060302734375,-0.002399374730885029,-0.0036008874885737896,-0.000014062272384762764
1761466874195043000,5.64504296875,0.0038022412918508053,-0.00012190989218652248,-0.0025795353576540947
1761466874205026000,5.655026123046875,-0.0015206187963485718,-0.0018835909431800246,0.0004660557024180889
1761466874215010000,5.665010009765625,-0.0007050507701933384,-0.005173180252313614,-0.001419599400833249
1761466874224993300,5.6749931640625,0.001622818410396576,-0.0018389024771749973,0.0001982708927243948
1761466874234976000,5.68497607421875,-0.0028068488463759422,0.001957039814442396,0.0006043741013854742
1761466874244959200,5.694959228515625,-0.00010533817112445831,-0.0030302619561553,-0.0006015051621943712
1761466874254943200,5.704943115234375,0.0006634513847529888,0.0033043420407921076,0.0011785139795392752
1761466874264926200,5.71492626953125,-0.001173330470919609,0.0007522350642830133,0.0005308331456035376
1761466874274909200,5.7249091796875,0.00039366167038679123,0.0005935959052294493,-0.0013244886649772525
1761466874284893000,5.734892822265625,-0.0007538944482803345,0.0007714948151260614,-0.0009607009124010801
1761466874294876200,5.744876220703125,-0.0008309474214911461,0.0017143446020781994,-0.0011541342828422785
1761466874304859100,5.754859130859375,-0.0009947316721081734,-0.0026348638348281384,-0.0017770476406440139
1761466874314842000,5.764842041015625,-0.001239578239619732,-0.002462367294356227,-0.0009178244508802891
1761466874324826400,5.774826416015625,0.0011958824470639229,-0.0014967052266001701,-0.001343131298199296
1761466874334809000,5.78480908203125,0.0008313148282468319,-0.001112411031499505,-0.0005301551427692175
1761466874344792000,5.7947919921875,-0.00038388557732105255,-0.0018399865366518497,-0.0010862231720238924
1761466874354776000,5.804776123046875,-0.0006742519326508045,0.0005255381111055613,0.00024577206932008266
1761466874364759300,5.81475927734375,-0.00022124825045466423,-0.0016513296868652105,0.00015469198115170002
1761466874374742000,5.824741943359375,0.001787116751074791,-0.0006205395329743624,0.0011617771815508604
1761466874384726000,5.83472607421875,0.0020824612583965063,0.004355310462415218,0.00021662120707333088
1761466874394709000,5.844708984375,0.00021779071539640427,0.002842498244717717,0.002934871008619666
1761466874404692200,5.854692138671875,0.0014636171981692314,0.001793745206668973,0.001135639613494277
1761466874414675200,5.86467529296875,-0.00033766869455575943,0.0018699499778449535,0.00033106585033237934
1761466874424659200,5.8746591796875,-0.0008633770048618317,0.0056127565912902355,0.0009944592602550983
1761466874434642200,5.88464208984375,0.0019843413028866053,-0.00005445047281682491,0.0012835778761655092
1761466874444625200,5.894625244140625,-0.0024554147385060787,0.0006377049721777439,-0.0006032718811184168
1761466874454609200,5.904609130859375,0.00029367720708251,0.0021524401381611824,-0.00021555041894316673
1761466874464592100,5.914592041015625,-0.0001859581097960472,-0.0040300884284079075,0.0011469230521470308
1761466874474575000,5.9245751953125,-0.0011997437104582787,-0.0021656579338014126,-0.0000856136903166771
1761466874484558000,5.93455810546875,0.000738771166652441,0.001394189428538084,0.001597503898665309
1761466874494542000,5.9445419921875,0.000699611846357584,-0.003426546696573496,0.00010323850437998772
1761466874504525300,5.954525390625,-0.0004918863996863365,-0.005128839518874884,-0.0011002440005540848
1761466874514508300,5.96450830078125,0.0017793281003832817,0.0005024895071983337,-0.0004167091101408005
1761466874524492300,5.9744921875,-0.0013440269976854324,-0.004023552872240543,0.0002011442556977272
1761466874534475000,5.98447509765625,-0.002849709242582321,0.0013819446321576834,0.0003127860836684704
1761466874544458200,5.994458251953125,-0.0005213073454797268,0.00045729498378932476,0.0022931124549359083
1761466874554442200,6.004442138671875,-0.0008141221478581429,-0.00231569679453969,0.0005356308538466692
1761466874564425200,6.01442529296875,0.0028727580793201923,0.001976253464818001,0.002403039252385497
1761466874574409000,6.024408935546875,-0.0009059370495378971,0.0020789732225239277,0.0003168317489326
1761466874584392000,6.034391845703125,0.0004402906633913517,0.0020816363394260406,-0.00025415001437067986
1761466874594376000,6.0443759765625,0.0016774004325270653,0.0007423122879117727,-0.000608215807005763
1761466874604359000,6.05435888671875,0.0016931132413446903,-0.0009067172650247812,0.0010607873555272818
1761466874614342000,6.064341796875,0.0026097623631358147,-0.0013371664099395275,-0.0012202750658616424
1761466874624326000,6.074325927734375,-0.0024832668714225292,-0.0028157534543424845,0.00159548525698483
1761466874634308900,6.084308837890625,0.000022849533706903458,0.00009070336818695068,0.001858208328485489
1761466874644291800,6.094291748046875,-0.0008229706436395645,-0.000648856395855546,-0.0008496935479342937
1761466874654274800,6.10427490234375,-0.0011645574122667313,0.002499393653124571,-0.000994103029370308
1761466874664259000,6.114259033203125,-0.0006953086704015732,0.0010375846177339554,0.0008687779773026705
1761466874674241800,6.12424169921875,0.002534096594899893,-0.0021218573674559593,-0.00250141229480505
1761466874684224800,6.134224853515625,-0.002819123212248087,0.0015005741734057665,0.00125950388610363
1761466874694208800,6.144208740234375,0.0008299839682877064,0.0014353252481669188,0.0020270145032554865
1761466874704192000,6.15419189453125,-0.00002568960189819336,-0.003652111394330859,-0.002192764077335596
1761466874714175000,6.164175048828125,0.0016596722416579723,-0.002686041407287121,-0.000905041815713048
1761466874724159000,6.174158935546875,0.002043700311332941,0.002873573452234268,0.0013043168000876904
1761466874734142000,6.184141845703125,-0.002927553839981556,-0.0008753056172281504,-0.00008755899034440517
1761466874744125000,6.194125,0.0015297792851924896,-0.0029025038238614798,-0.0007597408257424831
1761466874754108000,6.20410791015625,-0.000915843527764082,0.004908601753413677,0.003486459609121084
1761466874764092000,6.214091796875,-0.00037522194907069206,0.0021330546587705612,-0.00038231443613767624
1761466874774075000,6.224074951171875,0.001386615913361311,0.00035558221861720085,-0.0003712612669914961
1761466874784057900,6.234057861328125,-0.0020091808401048183,0.0024142060428857803,0.0007810883689671755
1761466874794041900,6.244041748046875,0.0016996217891573906,-0.00026003108359873295,-0.0027270005084574223
1761466874804024800,6.25402490234375,0.0004521971568465233,0.0019362776074558496,0.0021953200921416283
1761466874814008000,6.264008056640625,0.00028323521837592125,0.002748920116573572,0.001715813297778368
1761466874823990800,6.27399072265625,0.0003042742609977722,-0.0037651716265827417,-0.0009833003859966993
1761466874833974800,6.283974853515625,-0.0011518914252519608,-0.0021907882764935493,0.00042317272163927555
1761466874843958000,6.2939580078125,0.000741349533200264,0.0010026080999523401,0.001909482991322875
1761466874853941000,6.30394091796875,0.000619376078248024,-0.004834989085793495,-0.0021005154121667147
1761466874863925000,6.313925048828125,0.0004526618868112564,0.0005536514800041914,-0.000426985090598464
1761466874873907700,6.32390771484375,-0.000666747335344553,0.0016582123935222626,0.00021009868942201138
1761466874883891000,6.333890869140625,-0.0002638110890984535,-0.00012077949941158295,-0.002866917522624135
1761466874893875000,6.343875,0.0008164509199559689,-0.00026425765827298164,-0.000027538510039448738
1761466874903858000,6.35385791015625,0.0007996726781129837,0.003221287624910474,0.0000022889580577611923
1761466874913841000,6.3638408203125,-0.0006949822418391705,0.00008853967301547527,-0.0016824983758851886
1761466874923823900,6.373823974609375,-0.0006049671210348606,0.0010701809078454971,0.0006701380480080843
1761466874933807900,6.383807861328125,-0.0019599804654717445,-0.0039596217684447765,-0.0005880263634026051
1761466874943790800,6.393790771484375,0.0020627242047339678,-0.00492768082767725,-0.0029550439212471247
1761466874953774000,6.403774169921875,0.002132319612428546,0.0005711237899959087,-0.00021690549328923225
1761466874963758000,6.413758056640625,0.0006912830285727978,-0.0036108382046222687,-0.0014869669685140252
1761466874973740800,6.42374072265625,0.0028630890883505344,-0.000713214511051774,-0.00011052889749407768
1761466874983723800,6.433723876953125,0.0014388305135071278,0.0015536684077233076,-0.000722257187590003
1761466874993707000,6.44370703125,-0.001836414448916912,-0.003675519721582532,-0.0011673426488414407
1761466875003691000,6.45369091796875,0.001053115352988243,-0.0007561626844108105,-0.00040195020847022533
1761466875013673700,6.463673828125,0.0017537898384034634,0.0005525110755115747,-0.002027569804340601
1761466875023657000,6.473656982421875,0.001342065166682005,0.0032793215941637754,-0.0008616379927843809
1761466875033641000,6.483640869140625,-0.0005353880114853382,0.002334863878786564,0.0004801042377948761
1761466875043624000,6.4936240234375,-0.00017532845959067345,0.002633937168866396,0.0010694616939872503
1761466875053607000,6.50360693359375,-0.0010120724327862263,-0.0006861067377030849,-0.0010891025885939598
1761466875063591000,6.5135908203125,-0.0006355014629662037,-0.003435820573940873,-0.0004656563978642225
1761466875073574000,6.523573974609375,-0.003080026712268591,-0.0005232072435319424,-0.0005915777292102575
1761466875083556900,6.533556884765625,-0.0005255225114524364,0.0008355376776307821,-0.0011604289757087827
1761466875093539800,6.543539794921875,0.0019716606475412846,0.00021504005417227745,-0.00031469156965613365
1761466875103524000,6.553524169921875,0.0018848413601517677,-0.0011809892021119595,0.0015974580310285091
1761466875113506800,6.5635068359375,0.0013220100663602352,-0.00233749533072114,0.0007916181348264217
1761466875123489800,6.57348974609375,0.0021284150425344706,-0.0007611701730638742,-0.0010843125637620687
1761466875133473800,6.583473876953125,0.0005480772815644741,-0.0012049954384565353,0.0006022101733833551
1761466875143457000,6.59345703125,0.0017853816971182823,0.0006443038582801819,0.0013441666960716248
1761466875153440000,6.60343994140625,-0.002941638696938753,0.001536140451207757,-0.0002698528114706278
1761466875163422700,6.613422607421875,0.00004855869337916374,-0.0005339344497770071,-0.0012909088982269168
1761466875173406700,6.62340673828125,-0.0008599748834967613,0.0036419392563402653,-0.003561461577191949
1761466875183390000,6.633389892578125,-0.00030337413772940636,0.002085587941110134,0.002019725041463971
1761466875193373000,6.643373046875,0.004007413052022457,-0.0017628325149416924,-0.0008281327318400145
1761466875203357000,6.65335693359375,0.000887786503881216,-0.002105847466737032,0.0009034546092152596
1761466875213340000,6.66333984375,0.0005478118546307087,0.002963565057143569,-0.0018036325927823782
1761466875223323000,6.673322998046875,-0.0014993599615991116,-0.0019435756839811802,-0.000776184955611825
1761466875233307000,6.683306884765625,-0.0002094479277729988,-0.0021623256616294384,-0.0013937738258391619
1761466875243289900,6.693289794921875,0.002806582022458315,0.00023744860664010048,0.002133582951501012
1761466875253273000,6.703273193359375,-0.0007560946978628635,-0.002582377288490534,-0.001248612068593502
1761466875263255800,6.713255859375,0.002020250540226698,-0.00011868705041706562,-0.0017471559112891555
1761466875273239800,6.72323974609375,0.0025934947188943624,0.0020232361275702715,0.000987368868663907
1761466875283223000,6.73322314453125,0.00019185617566108704,0.003776128636673093,0.0006973505951464176
1761466875293206000,6.7432060546875,-0.0009427294135093689,-0.0029767914675176144,-0.0022064463701099157
1761466875303190000,6.75318994140625,0.0013260170817375183,-0.0015261678490787745,-0.001329733757302165
1761466875313172700,6.7631728515625,0.0005565914325416088,0.0014667254872620106,-0.0017202870221808553
1761466875323156000,6.773156005859375,0.0006439434364438057,-0.0009652730077505112,-0.0004899066407233477
1761466875333139000,6.783138916015625,-0.004026762675493956,0.004011057782918215,0.0024648248217999935
1761466875343123000,6.793123046875,0.0015102154575288296,0.0004666564054787159,-0.0035464626271277666
1761466875353105700,6.803105712890625,-0.0012695244513452053,0.0003853116650134325,-0.0016940032364800572
1761466875363089000,6.8130888671875,0.0009773848578333855,0.0002335116732865572,0.0013659687247127295
1761466875373073000,6.823072998046875,0.0013986816629767418,-0.0016990785952657461,-0.003142566652968526
1761466875383056000,6.833055908203125,0.0016942922957241535,0.001852512825280428,0.0014929315075278282
1761466875393039000,6.8430390625,0.0010310928337275982,-0.0011314440052956343,-0.0007574325427412987
1761466875403021800,6.853021728515625,0.003075601300224662,-0.0029682263266295195,-0.0005845932755619287
1761466875413005800,6.863005859375,0.0011678123846650124,0.0031254272907972336,0.0012001891154795885
1761466875422988800,6.87298876953125,0.002188069513067603,0.004105204716324806,0.0014888758305460215
1761466875432972000,6.882971923828125,0.001721640583127737,0.0005961633287370205,-0.0033354400657117367
1761466875442956000,6.8929560546875,0.00040204403921961784,0.0005351770669221878,-0.00044644298031926155
1761466875452938800,6.902938720703125,0.00012371595948934555,-0.0008603755850344896,-0.001388148870319128
1761466875462922000,6.912921875,-0.001811070367693901,0.000706628430634737,-0.002206271979957819
1761466875472905000,6.922905029296875,0.000032265204936265945,0.003777355421334505,0.0014321161434054375
1761466875482889000,6.932888916015625,0.0005241511389613152,-0.0005875658243894577,-0.0018488983623683453
1761466875492872000,6.942871826171875,0.0005378797650337219,-0.0012783096171915531,-0.00035854894667863846
1761466875502855000,6.95285498046875,0.0015629306435585022,0.005980402231216431,0.0036484431475400925
1761466875512839000,6.9628388671875,-0.0016589080914855003,-0.0018896349938586354,-0.002231890568509698
1761466875522822000,6.97282177734375,0.0001387256197631359,-0.0022339816205203533,-0.0009383931756019592
1761466875532804900,6.982804931640625,0.0017658672295510769,0.0003478699363768101,0.002684684470295906
1761466875542788900,6.992788818359375,-0.002632610034197569,0.00036597903817892075,-0.0004647697787731886
1761466875552771800,7.002771728515625,0.00129702128469944,0.0015959953889250755,-0.00017242669127881527
1761466875562754800,7.0127548828125,0.0009473483078181744,-0.0006056397687643766,-0.001058194087818265
1761466875572741600,7.02274169921875,-0.0006555547006428242,-0.001047175144776702,-0.0011637916322797537
1761466875582725400,7.032725341796875,0.0006427359767258167,-0.0007166769355535507,0.0015204083174467087
1761466875592708400,7.042708251953125,-0.0022790217772126198,-0.0005091927014291286,0.0012282943353056908
1761466875602691300,7.05269140625,0.000469893217086792,-0.004079692997038364,-0.00110117276199162
1761466875612675300,7.06267529296875,-0.0019766432233154774,-0.0012583374045789242,-0.0016205307329073548
1761466875622658600,7.072658447265625,-0.0023087388835847378,0.0018346577417105436,0.003909523133188486
1761466875632641300,7.082641357421875,0.001399278175085783,-0.006286959629505873,-0.0020880906376987696
1761466875642624300,7.092624267578125,-0.003934766631573439,0.000058021629229187965,0.0014264830388128757
1761466875652608500,7.1026083984375,0.0008465484715998173,0.0018956060521304607,0.0006573500577360392
1761466875662591500,7.112591552734375,0.0001298920251429081,0.0004148883745074272,-0.0014209807850420475
1761466875672574200,7.12257421875,0.001468372531235218,0.001606477191671729,0.000053416937589645386
1761466875682558200,7.13255810546875,0.0029038162901997566,-0.001601833151653409,0.00019323290325701237
1761466875692541400,7.14254150390625,-0.000978528056293726,-0.0003123159985989332,0.0013335591647773981
1761466875702524400,7.1525244140625,-0.0003090095706284046,0.0020395214669406414,0.0015359593089669943
1761466875712508400,7.16250830078125,0.0005172877572476864,-0.0010501877404749393,-0.002399860415607691
1761466875722491400,7.172491455078125,-0.004218611400574446,0.0009604988154023886,0.00007261824794113636
1761466875732474400,7.182474365234375,-0.0010107168927788734,-0.0010660430416464806,0.0001100185327231884
1761466875742457300,7.192457275390625,0.000426324550062418,-0.0007912046276032925,-0.0006449874490499496
1761466875752441300,7.20244140625,0.0009903204627335072,0.0021082500461488962,-0.0009989305399358273
1761466875762424600,7.212424560546875,0.0005767317488789558,-0.0027411000337451696,-0.0007765565533190966
1761466875772407300,7.2224072265625,0.0016173049807548523,0.0033794527407735586,0.002755305962637067
1761466875782391300,7.232391357421875,-0.0012972583062946796,-0.0014469942543655634,-0.004004063084721565
1761466875792374300,7.242374267578125,-0.0014136619865894318,0.0006224613171070814,0.0011685092467814684
1761466875802357500,7.252357421875,-0.0030395216308534145,0.006208175793290138,0.0011309587862342596
1761466875812340500,7.262340576171875,0.000619442667812109,-0.0002916436642408371,-0.0024132041726261377
1761466875822324500,7.272324462890625,0.0018338439986109734,-0.003781982697546482,0.0009218724444508553
1761466875832307500,7.282307373046875,-0.0011722384952008724,0.0004025707021355629,-0.0002048383466899395
1761466875842290400,7.29229052734375,0.0024035878013819456,0.0008100341074168682,-0.004484271630644798
1761466875852274400,7.3022744140625,0.0010424545034766197,0.00023643136955797672,0.0016493014991283417
1761466875862257400,7.31225732421875,-0.002782111521810293,-0.00032629468478262424,0.0015648789703845978
1761466875872240400,7.322240478515625,-0.0008718017488718033,-0.00022142310626804829,0.0015043409075587988
1761466875882223400,7.332223388671875,-0.0013431813567876816,-0.0026960321702063084,-0.0009721326641738415
1761466875892207400,7.342207275390625,-0.0017725885845720768,-0.00009614950977265835,0.002245055977255106
1761466875902190300,7.3521904296875,0.0020908592268824577,-0.0009033535607159138,-0.0010255719535052776
1761466875912173600,7.362173583984375,-0.0031387777999043465,-0.001382147427648306,0.0006523777265101671
1761466875922157300,7.3721572265625,0.0018666335381567478,-0.0005842642858624458,-0.0009077019058167934
1761466875932140300,7.382140380859375,0.000003834255039691925,-0.0020671552047133446,-0.00117187958676368
1761466875942123500,7.39212353515625,-0.000555163249373436,0.0024503651075065136,0.001205524429678917
1761466875952107500,7.402107421875,-0.000681830570101738,0.0011287806555628777,0.0006144207436591387
1761466875962090500,7.412090576171875,-0.0013723885640501976,-0.0024899225682020187,-0.002034625504165888
1761466875972073200,7.4220732421875,-0.00048143602907657623,-0.000862625427544117,0.001750631956383586
1761466875982056400,7.432056396484375,-0.001852431334555149,0.0017083901911973953,-0.0007439509499818087
1761466875992040400,7.44204052734375,-0.0008608861826360226,-0.00015931902453303337,-0.001792839728295803
1761466876002023400,7.4520234375,-0.0030153836123645306,-0.00295217614620924,-0.0026802050415426493
1761466876012006400,7.46200634765625,-0.00020645884796977043,-0.00408575963228941,-0.0006406651809811592
1761466876021990400,7.471990478515625,-0.000308724120259285,0.0031109002884477377,0.000008613336831331253
1761466876031973400,7.481973388671875,0.0006298641674220562,-0.0007033124566078186,-0.0004462094511836767
1761466876041956400,7.491956298828125,-0.00142316659912467,-0.00032700784504413605,-0.002090711612254381
1761466876051939600,7.501939697265625,0.003206829773262143,0.0009022736921906471,-0.00005522090941667557
1761466876061923600,7.511923583984375,-0.0009184069931507111,-0.000900419894605875,0.0017626527696847916
1761466876071906300,7.52190625,-0.0024088011123239994,0.001203406136482954,0.0005848454311490059
1761466876081889300,7.53188916015625,0.0006040330044925213,0.002840717788785696,0.0011052272748202085
1761466876091873300,7.541873291015625,0.0005111722275614738,-0.0020193266682326794,0.001589480321854353
1761466876101856500,7.5518564453125,-0.0004574195481836796,0.00013011088594794273,0.0005678914021700621
1761466876111839200,7.561839111328125,-0.000004414469003677368,-0.0008705968502908945,-0.00022357353009283543
1761466876121822500,7.571822509765625,-0.001141051296144724,-0.0026373378932476044,0.001150085125118494
1761466876131806500,7.581806396484375,0.002050303854048252,-0.000007661059498786926,-0.0013996727066114545
1761466876141789400,7.59178955078125,-0.0009215176105499268,-0.0031179669313132763,0.0007343182805925608
1761466876151772400,7.6017724609375,-0.00159130385145545,-0.0019737679976969957,-0.0009186442475765944
1761466876161756400,7.61175634765625,0.00017623603343963623,-0.002030759584158659,0.0008691358380019665
1761466876171739400,7.621739501953125,0.0003780159167945385,0.0009797150269150734,0.0014547391328960657
1761466876181722400,7.631722412109375,-0.0011338605545461178,0.0012742606922984123,0.002509883837774396
1761466876191706400,7.641706298828125,-0.000954099465161562,-0.0022115539759397507,-0.0011259617749601603
1761466876201689600,7.651689697265625,-0.0015613003633916378,0.00222953362390399,0.0016202901024371386
1761466876211672300,7.66167236328125,-0.0005562198348343372,0.002950934460386634,0.00024915440008044243
1761466876221655300,7.6716552734375,-0.004138171207159758,-0.003949582111090422,-0.0008619164582341909
1761466876231639300,7.681639404296875,-0.0013191234320402145,0.0026907098945230246,0.002651229267939925
1761466876241622500,7.69162255859375,-0.0014943592250347137,0.004281948320567608,0.0006083182524889708
1761466876251605500,7.70160546875,0.0003762482665479183,0.00027903448790311813,0.001901187002658844
1761466876261589200,7.71158935546875,-0.0025441739708185196,0.0017147446051239967,0.00021434063091874123
1761466876271572200,7.721572265625,0.0003303089179098606,-0.0011000791564583778,-0.000537671847268939
1761466876281555500,7.731555419921875,-0.0009930157102644444,-0.0038838812615722418,-0.0007832155097275972
1761466876291538400,7.741538330078125,0.001285037025809288,-0.0009686013218015432,0.000706452177837491
1761466876301522400,7.7515224609375,-0.00040180888026952744,-0.0009001581929624081,-0.0002501553390175104
1761466876311505400,7.76150537109375,-0.00045173056423664093,0.0008980762213468552,0.0015733928885310888
1761466876321488400,7.77148828125,0.00020580412819981575,0.00018408242613077164,0.0014306472148746252
1761466876331472400,7.781472412109375,-0.0008651432581245899,-0.001504887593910098,0.0006251165177673101
1761466876341455400,7.791455322265625,0.002398560754954815,0.004126366693526506,0.0005635975394397974
1761466876351438300,7.801438232421875,-0.0007943599484860897,-0.0011394144967198372,-0.0003217528574168682
1761466876361421300,7.81142138671875,-0.00037810811772942543,-0.00033860187977552414,0.0023403428494930267
1761466876371405300,7.8214052734375,-0.0029609249904751778,-0.0009639943018555641,-0.0012982756597921252
1761466876381388500,7.831388427734375,-0.0007100207731127739,-0.0004481400828808546,-0.0008436741773039103
1761466876391371500,7.84137158203125,-0.0020591719076037407,-0.0011724361684173346,-0.0019827522337436676
1761466876401355500,7.85135546875,-0.00036060716956853867,-0.0009679053910076618,0.0004031739663332701
1761466876411338200,7.861338134765625,0.0005033067427575588,-0.0023442476522177458,-0.0012499114964157343
1761466876421321500,7.871321533203125,0.00006255367770791054,-0.0007021424826234579,0.00007847324013710022
1761466876431304400,7.881304443359375,0.0007158792577683926,0.003443339141085744,0.00019974890165030956
1761466876441288400,7.891288330078125,0.000303089153021574,0.0019274682272225618,0.00013077282346785069
1761466876451271200,7.901271240234375,0.0005027935840189457,-0.002641254337504506,0.0007692293729633093
1761466876461254400,7.91125439453125,-0.0000886945053935051,0.0005374948959797621,0.0024582063779234886
1761466876471238400,7.92123828125,0.001661511603742838,0.0027389386668801308,0.001186989713460207
1761466876481221400,7.931221435546875,0.0003166152164340019,-0.0020547511521726847,0.0000045460183173418045
1761466876491204600,7.94120458984375,-0.0007021594792604446,0.0012148043606430292,0.0004104136023670435
1761466876501187300,7.951187255859375,0.00029333028942346573,0.0019658158998936415,0.0024426719173789024
1761466876511171300,7.96117138671875,-0.0004331138916313648,-0.0038089724257588387,-0.001076430780813098
1761466876521154300,7.971154296875,0.00014106370508670807,-0.002396964468061924,0.000030645402148365974
1761466876531137500,7.981137451171875,0.00042239343747496605,0.002019607461988926,0.00023911171592772007
1761466876541121500,7.99112158203125,0.0001949593424797058,-0.004449211061000824,-0.0007894011214375496
1761466876551104300,8.001104248046875,-0.0005156104452908039,0.00025047012604773045,-0.0008519850671291351
1761466876561085400,8.01108544921875,-0.0008956436067819595,0.0013253220822662115,-0.00013479567132890224
1761466876571066400,8.02106640625,-0.000904373824596405,-0.0025363333988934755,0.0015165421646088362
1761466876581049000,8.031049072265626,0.0018575903959572315,-0.0009509536903351545,-0.000812391983345151
1761466876591032300,8.0410322265625,-0.0018162401393055916,0.0027356601785868406,-0.002933866111561656
1761466876601016300,8.051016357421876,-0.0003748452290892601,0.0009495294652879238,-0.0010642586275935173
1761466876610999300,8.060999267578126,-0.0001528891734778881,-0.00313186040148139,0.00036557880230247974
1761466876620982300,8.070982177734376,0.0004029124975204468,-0.0009733682963997126,0.0010292385704815388
1761466876630965200,8.08096533203125,-0.0015073372051119804,0.00414960365742445,0.0020369847770780325
1761466876640949200,8.09094921875,-0.002416007686406374,0.003028679406270385,-0.0010608043521642685
1761466876650932200,8.10093212890625,0.0009825224988162518,0.0009176456369459629,0.0005207592621445656
1761466876660915500,8.11091552734375,0.0015548360534012318,-0.0035937491338700056,-0.000673934817314148
1761466876670899500,8.1208994140625,-0.001137725543230772,-0.002852984704077244,-0.0008205270860344172
1761466876680882200,8.130882080078125,0.001013576053082943,0.001603282755240798,-0.0006327743176370859
1761466876690865200,8.140865234375,0.0006962837651371956,-0.002986225299537182,0.0008502181153744459
1761466876700848400,8.150848388671875,-0.00024168146774172783,-0.0002982967998832464,0.000055797165259718895
1761466876710832400,8.160832275390625,-0.0011935322545468807,0.0005669412203133106,0.00019441149197518826
1761466876720815000,8.170815185546875,-0.0022622584365308285,0.0008351216092705727,0.00017470424063503742
1761466876730798300,8.18079833984375,0.0005164043977856636,-0.001311911502853036,-0.0006032604724168777
1761466876740782300,8.1907822265625,-0.0009629814885556698,-0.00010869535617530346,-0.0019406999927014112
1761466876750765300,8.200765380859375,0.0005397489294409752,0.001944295596331358,0.000585123198106885
1761466876760748300,8.210748291015625,0.0020718653686344624,-0.0032643149606883526,-0.00036029890179634094
1761466876770731300,8.220731201171875,0.00048849917948246,0.0042169541120529175,-0.00040130969136953354
1761466876780715300,8.23071533203125,0.00003948993980884552,0.0049314796924591064,0.001091924961656332
1761466876790698200,8.2406982421875,-0.00003123283386230469,-0.0041688610799610615,-0.0023227946367114782
1761466876800681500,8.250681396484374,-0.0015031620860099792,-0.00500349560752511,0.0006881752051413059
1761466876810665500,8.26066552734375,-0.000004497356712818146,-0.002299178158864379,-0.00014669145457446575
1761466876820648200,8.270648193359374,-0.0008234195411205292,-0.0007260490674525499,-0.0033496753312647343
1761466876830631200,8.280631103515624,-0.0007578190416097641,0.0009332103654742241,0.00149764702655375
1761466876840614400,8.290614501953126,0.002131178043782711,-0.004388850647956133,-0.0011253003031015396
1761466876850598400,8.300598388671874,0.0008776113390922546,0.0008508390747010708,-0.0006450579967349768
1761466876860581000,8.3105810546875,0.0019189072772860527,0.003748358227312565,0.000761623727157712
1761466876870564000,8.320564208984376,0.0008989814668893814,-0.000768653117120266,0.002398367039859295
1761466876880548400,8.33054833984375,0.0003021666780114174,0.0009962236508727074,-0.00048157526180148125
1761466876890531300,8.34053125,-0.0005672215484082699,-0.0002545884344726801,0.0027077170088887215
1761466876900514300,8.350514404296876,-0.0005339318886399269,0.002239195629954338,0.0008331178687512875
1761466876910497300,8.360497314453125,0.0018655708990991116,0.00020687724463641644,0.0017203909810632467
1761466876920481300,8.370481201171875,0.0014072409830987453,0.0013357915449887514,0.003251974703744054
1761466876930464300,8.38046435546875,0.0005890862084925175,-0.000232253922149539,0.0003618919290602207
1761466876940447200,8.390447265625,0.0012162607163190842,-0.00247357040643692,0.0006202184595167637
1761466876950431200,8.40043115234375,-0.0007966067641973495,-0.003145676339045167,0.00037027010694146156
1761466876960414200,8.410414306640625,-0.0014517446979880333,0.00020005274564027786,-0.0003714202903211117
1761466876970397200,8.420397216796875,0.0028679724782705307,-0.002976205199956894,-0.001743665081448853
1761466876980380400,8.43038037109375,-0.00007082568481564522,0.00011892057955265045,0.00025050994008779526
1761466876990364400,8.440364501953125,0.0006394023075699806,0.0006078840233385563,0.0007020675111562014
1761466877000347400,8.450347412109375,0.0007589780725538731,-0.0020781802013516426,-0.0012377789244055748
1761466877010330000,8.460330078125,-0.0008088401518762112,0.0012002442963421345,0.0001142153050750494
1761466877020314000,8.470314208984375,-0.0022703828290104866,0.004993384703993797,0.0002479059621691704
1761466877030297300,8.48029736328125,-0.0000892062671482563,0.0008498234674334526,-0.002896599704399705
1761466877040280300,8.4902802734375,0.0006639356724917889,-0.0007989394944161177,0.0006310234311968088
1761466877050263000,8.500262939453124,0.0017156563699245453,0.002227138727903366,-0.0013914313167333603
1761466877060247300,8.510247314453125,-0.0018793451599776745,0.0002731774002313614,0.000123640988022089
1761466877070230300,8.520230224609374,-0.002019749954342842,0.0009841083083301783,-0.0008871511090546846
1761466877080213200,8.530213134765624,0.001093218568712473,-0.0015709283761680126,-0.0011297650635242462
1761466877090197200,8.540197265625,-0.0006791935302317142,0.0018545486964285374,0.00017968588508665562
1761466877100180500,8.550180419921874,-0.0006637470796704292,-0.001487718429416418,0.0020023533143103123
1761466877110163200,8.5601630859375,-0.0011797365732491016,-0.0003559170290827751,0.00011173496022820473
1761466877120147200,8.570147216796874,0.00008792802691459656,-0.0026350500993430614,-0.00006589782424271107
1761466877130130200,8.580130126953126,-0.0006959647871553898,-0.004455231130123138,-0.002412990666925907
1761466877140113400,8.590113525390626,-0.0006917035207152367,0.0028618036303669214,0.002732768887653947
1761466877150099200,8.60009912109375,-0.0007784916087985039,0.006466302089393139,0.0026175035163760185
1761466877160082400,8.61008251953125,0.001943525392562151,-0.0037043094635009766,-0.002522930270060897
1761466877170066400,8.62006640625,-0.0010814452543854713,0.005565767176449299,0.0006131469272077084
1761466877180049200,8.630049072265624,-0.0013610771857202053,0.03350552171468735,0.019011860713362694
1761466877190032100,8.6400322265625,-0.0022343299351632595,0.14979106187820435,0.04724670946598053
1761466877200016400,8.650016357421874,0.0029817374888807535,-0.1741499900817871,-0.05311717838048935
1761466877209999400,8.659999267578126,-0.0032498775981366634,0.14690294861793518,0.04651040956377983
1761466877219982300,8.669982421875,-0.00005887821316719055,-0.043914929032325745,-0.013871174305677414
1761466877229965300,8.67996533203125,0.0001469794660806656,-0.012612512335181236,-0.004508006852120161
1761466877239949300,8.68994921875,0.00021275924518704414,0.02743983268737793,0.007741202600300312
1761466877249932300,8.699932373046876,0.00007383245974779129,-0.03901725634932518,-0.012523551471531391
1761466877259915300,8.709915283203125,-0.0015008947812020779,0.0030170129612088203,-0.0006253465544432402
1761466877269899300,8.719899169921876,-0.00021484959870576859,-0.028350064530968666,-0.010266679339110851
1761466877279882200,8.72988232421875,0.00019580963999032974,-0.027382006868720055,-0.009824860841035843
1761466877289865200,8.739865234375,0.0011525005102157593,-0.03307178616523743,-0.012344135902822018
1761466877299848200,8.74984814453125,0.00021666567772626877,-0.02563437446951866,-0.009399211965501308
1761466877309832400,8.75983251953125,0.0021751574240624905,-0.0013953985180705786,-0.0017540939152240753
