time,seconds_elapsed,z,y,x
1761467533068556800,0.118556884765625,3.333192821317911,0.7360875388994813,-5.042884277337789
1761467533078539500,0.12853955078125,3.536679504165053,0.49347544497475027,-5.085327580791711
1761467533088522800,0.138522705078125,3.641286126065254,0.2807958402380347,-5.023260708457231
1761467533098505700,0.148505615234375,3.630611587315798,0.13059987194314598,-5.025946586540341
1761467533108488700,0.15848876953125,3.885954129606485,-0.15824381180256605,-5.198000604769587
1761467533118471700,0.1684716796875,4.275458181844652,-0.6305396906264126,-5.492332510668039
1761467533128454700,0.17845458984375,4.3816818835526705,-0.9243193694695829,-5.714968715143203
1761467533138437600,0.188437744140625,4.351601802587509,-1.0662186340622604,-5.804217024391889
1761467533148420600,0.198420654296875,3.949675491149723,-1.1378856939129531,-5.4746665055960415
1761467533158403600,0.208403564453125,2.984999561372399,-1.1368398381218314,-4.928436644902825
1761467533168390000,0.218389892578125,1.876539137777686,-0.956729354687035,-3.8719197590351104
1761467533178374000,0.228373779296875,0.9773819743543862,-0.5986375088006257,-2.3897803365826604
1761467533188356900,0.23835693359375,0.3153077661707997,-0.3579261339306831,-0.7825473845183849
1761467533198339600,0.248339599609375,-0.5073240837156773,0.11339987694770097,1.0603291376322508
1761467533208322800,0.25832275390625,-2.046762433448434,1.2878197964012623,3.5951194181740282
1761467533218305800,0.268305908203125,-3.986930870571732,2.423311580915004,6.2110717321425675
1761467533228288800,0.278288818359375,-6.028873336517811,2.3030120075814424,8.0742440233469
1761467533238271700,0.288271728515625,-7.778045739054679,0.6320261297918855,9.20574279270172
1761467533248254700,0.298254638671875,-8.21027688012421,-1.7858710248589516,9.819750304591656
1761467533258238000,0.308238037109375,-6.938454278799891,-3.4433033013314005,9.894674320411681
1761467533268221000,0.318220947265625,-5.313054970926046,-3.1114924363881347,9.20658391970098
1761467533278205000,0.328204833984375,-4.922130238234996,-1.7079443200916051,8.24017459025979
1761467533288187600,0.338187744140625,-5.28766450908184,-0.683596450292319,7.404779997172951
1761467533298171000,0.3481708984375,-4.822106852471828,-0.1930930068656802,6.8369105516016475
1761467533308153900,0.35815380859375,-3.372921020594239,-0.13664894284904003,6.10213088043034
1761467533318136600,0.368136474609375,-2.3448580757945776,-0.3423236372597515,5.032996505051851
1761467533328119800,0.378119873046875,-1.7430203096479175,-0.5657273189760744,3.769229199889302
1761467533338102800,0.388102783203125,-0.9963023634016513,-0.7765401069276034,2.5988252380788324
1761467533348085800,0.398085693359375,0.21043021837472914,-0.7684343957528471,1.3529589157879351
1761467533358068700,0.40806884765625,0.7730059414520859,-0.8324727142907679,0.01737023699581623
1761467533368051700,0.4180517578125,1.0316191759765148,-0.9547289746500551,-1.2052256843447684
1761467533378035000,0.428034912109375,1.4179279393047093,-1.081408019887656,-2.2374673761337993
1761467533388019000,0.43801904296875,1.8229823196351527,-1.188879529699683,-3.05885156404674
1761467533398002000,0.448001953125,1.9004694639414548,-1.2076963122420012,-3.880419291833043
1761467533407984600,0.457984619140625,1.8067609604135155,-1.1269663866221904,-4.577549323567748
1761467533417967900,0.4679677734375,1.9007038572192192,-0.8279553829967975,-5.066161108028888
1761467533427950800,0.477950927734375,2.631312964707613,-0.5571336781539022,-5.592347713124751
1761467533437933800,0.487933837890625,3.2056156581968067,-0.4369074623174965,-6.1788604843676085
1761467533447916800,0.497916748046875,3.2708424558669327,-0.47217926670685406,-6.947530734702944
1761467533457899800,0.507899658203125,3.457898228394985,-0.57956923571527,-7.618468925082683
1761467533467882800,0.5178828125,3.6524230216294526,-0.6567397152878344,-7.93806211348772
1761467533477865700,0.52786572265625,3.66890507761389,-0.7120723109312355,-8.138286579668522
1761467533487848700,0.5378486328125,3.4387717953816055,-0.7591969040691852,-8.21639565526545
1761467533497832700,0.547832763671875,3.0456881310909987,-0.5574573571503162,-8.183219361850618
1761467533507816000,0.55781591796875,3.106113665959239,-0.0962406523540616,-7.731770310091972
1761467533517799000,0.567798828125,3.0284231080353257,0.4385863553151488,-6.9546437815785405
1761467533527781600,0.57778173828125,3.0862673942387104,1.3519354179590939,-6.070666067108512
1761467533537764900,0.587764892578125,3.2456051387578246,1.9245431440986691,-5.05679531379044
1761467533547747800,0.597747802734375,2.899032758012414,2.0077650326646865,-3.203414933282137
1761467533557730800,0.607730712890625,1.5306167453736066,1.7432457889668642,-0.7470248202383518
1761467533567713800,0.6177138671875,0.11381634879410266,0.9554825694963336,1.9967583393514154
1761467533577696800,0.62769677734375,-0.5439589931517839,-0.1305776601113379,5.173929408830404
1761467533587679700,0.6376796875,-1.755675500820577,-1.072779453882575,7.579452088946104
1761467533597663000,0.6476630859375,-3.2092478772193194,-1.5810947405926883,8.727602717894316
1761467533607646700,0.657646728515625,-5.145425783401727,-1.3642222142107785,8.955676144987343
1761467533617629700,0.667629638671875,-7.620715242704748,-0.9546507948473095,8.5209350669235
1761467533627613000,0.677613037109375,-8.822658252117037,-0.15941183266863226,7.619176196569204
1761467533637596000,0.687595947265625,-7.866850980710983,1.111239825180173,6.785521725147962
1761467533647578600,0.69757861328125,-5.993521452629566,2.1289861047573386,5.8196501558452844
1761467533657561900,0.707561767578125,-3.933599677878618,2.7340041083753106,4.87320400250256
1761467533667544800,0.717544921875,-2.6508409642592072,3.1377555894136426,4.0028748741567135
1761467533677527800,0.72752783203125,-2.305180729922652,3.416745549273491,3.3145161778986454
1761467533687510800,0.7375107421875,-2.000830118834972,3.393274365054071,2.879246692046523
1761467533697493800,0.74749365234375,-1.5585802725762128,3.0682343094199895,2.351718024691939
1761467533707477800,0.757477783203125,-1.1928741522938013,2.396554506892711,1.6143740559905766
1761467533717461000,0.7674609375,-0.8727765214979648,1.6358353616923094,0.9225193343102931
1761467533727443700,0.777443603515625,-0.5204077294334769,0.9099519675515592,0.4084463608562946
1761467533737426700,0.7874267578125,-0.1728092205107212,0.27279475848153234,0.019704817423224448
1761467533747410000,0.797409912109375,0.27328444169461724,-0.1055056165665388,-0.41475861274302006
1761467533757393000,0.807392822265625,0.7188111176669597,-0.3631004678286612,-0.9565133738487959
1761467533767375600,0.817375732421875,1.1784037283927202,-0.35146249087452885,-1.5635773502111434
1761467533777358800,0.82735888671875,1.6072949113845825,-0.18716990042701362,-2.087715790605545
1761467533787341800,0.837341796875,1.9880226597100494,0.08120748000368476,-2.595024092230201
1761467533797324800,0.84732470703125,2.2092159719005227,0.3366260101400316,-3.1277444830089807
1761467533807307800,0.857307861328125,2.3854908226951954,0.5382379851564765,-3.5465637693196532
1761467533817291800,0.867291748046875,2.6128777288287877,0.6582296615846455,-3.980581209284067
1761467533827274800,0.877274658203125,2.796432507498562,0.7615531118065119,-4.2875235904306175
1761467533837258000,0.887258056640625,2.9521938548356292,0.877258781478554,-4.532586146247387
1761467533847241000,0.897240966796875,3.201895176368952,0.8551936646647751,-4.802523031079769
1761467533857223700,0.9072236328125,3.3796751710295676,0.6863309898227453,-5.074282455164194
1761467533867207000,0.91720703125,3.6011873399108647,0.4264221625298261,-5.224308181458711
1761467533877190000,0.92718994140625,3.8836724484100937,0.1865102674745023,-5.235041756919026
1761467533887172600,0.937172607421875,4.0399481750100845,-0.12732596483901143,-5.11063796313703
1761467533897155800,0.94715576171875,4.270208298492431,-0.4121951919957995,-4.7595671019285914
1761467533907138800,0.957138916015625,4.778403904345631,-0.43481896560564637,-4.139271888071298
1761467533917121800,0.967121826171875,4.930382518273592,-0.3168772074446082,-3.32355230179131
1761467533927105800,0.977105712890625,4.55378617066443,-0.23118965941742062,-2.3532670076996087
1761467533937088800,0.9870888671875,3.8747476759374138,-0.05601137168779969,-1.4797294387012718
1761467533947071700,0.99707177734375,2.5191747782588005,-0.10275105716139077,-0.6542804855674504
1761467533957055000,1.007054931640625,0.4579378292560577,-0.09784180394038558,0.3428168276041746
1761467533967038000,1.017037841796875,-1.4041174406170844,0.08833148666471242,1.4486100778162478
1761467533977020700,1.027020751953125,-2.492088618412614,0.5425660774886608,2.5836346832096577
1761467533987004000,1.03700390625,-3.124430243894458,0.7318867262087762,3.407186278289556
1761467533996987000,1.04698681640625,-3.623832886961102,0.5242509608581661,3.849368904531002
1761467534006969600,1.056969482421875,-4.49651003973782,0.1771837823331356,4.355867643338442
1761467534016952800,1.066952880859375,-5.566373313912749,-0.361190104162693,5.12236873294115
1761467534026936800,1.076936767578125,-6.009553134498,-0.871677620345354,5.76152529913485
1761467534036919800,1.086919921875,-5.54809589894414,-1.1447494422025979,6.231490835314989
1761467534046902800,1.09690283203125,-4.522077611714601,-1.1990220073990523,6.479566601473093
1761467534056885800,1.1068857421875,-3.63827233120203,-0.9125624423108994,6.578292348641157
1761467534066868700,1.11686865234375,-3.1539789944618937,-0.7493000716939568,6.481770833519101
1761467534076852000,1.12685205078125,-2.601152219721675,-0.9344789444342255,6.217667477145791
1761467534086835000,1.1368349609375,-1.91977183804363,-1.0509539910435677,5.8371507412225005
1761467534096817700,1.146817626953125,-1.2541782235622405,-1.2813007698960601,5.201375634160637
1761467534106801000,1.15680078125,-0.7608388260573148,-1.5050807375788688,4.302538204210997
1761467534116783900,1.166783935546875,-0.4280845427840948,-1.6084570870317518,3.1702649433523415
1761467534126766800,1.176766845703125,-0.08835925145447254,-1.5417260222785174,1.8613024056792258
1761467534136750600,1.18675048828125,0.3778548232376575,-1.2589721798405051,0.6368167250692844
1761467534146733800,1.19673388671875,0.8624798761501907,-0.9134494542784989,-0.4953554135024547
1761467534156716800,1.206716796875,1.3014707206130027,-0.6429800700046122,-1.5597341187864542
1761467534166697200,1.216697265625,1.7186229504942894,-0.43319983997121453,-2.51348738027215
1761467534176680400,1.226680419921875,2.1592954644337294,-0.2646091139383614,-3.22112711558342
1761467534186663200,1.2366630859375,2.4501956423178313,-0.2235058269165456,-3.718063076275587
1761467534196646100,1.246646240234375,2.6747973016470667,-0.3265548441112041,-4.141007333561777
1761467534206629400,1.25662939453125,2.9218343724071976,-0.38424350136145946,-4.584997301486134
1761467534216612400,1.2666123046875,3.212437613171339,-0.358164180470258,-4.878583357453346
1761467534226595000,1.276594970703125,3.657444356922805,-0.3095734603025019,-5.023740016406774
1761467534236579000,1.2865791015625,4.007205012315511,-0.17415040598660705,-5.16310230986774
1761467534246562300,1.296562255859375,4.558642378523945,-0.2070464211553335,-5.40174739985764
1761467534256545300,1.306545166015625,4.659532902510464,-0.3870030292026698,-5.667518981704116
1761467534266528300,1.3165283203125,4.686009113764762,-0.2537552730992436,-5.739881038081646
1761467534276511200,1.32651123046875,4.700847201934456,0.08981967939585447,-5.508051473325491
1761467534286494200,1.336494140625,4.738274723052978,0.3601657295510173,-4.9158659171432255
1761467534296477400,1.3464775390625,4.582733448207378,0.606155775476247,-4.396390207862853
1761467534306460200,1.356460205078125,4.143258327358961,0.7761591447860002,-4.184956365403533
1761467534316443100,1.366443115234375,3.273080005660653,0.5941437045127153,-4.171736818346381
1761467534326426400,1.37642626953125,1.58212189168334,0.30767624837905166,-3.909859905850887
1761467534336410400,1.386410400390625,-0.20951602613925932,0.15916735638827084,-3.113379857569933
1761467534346393000,1.39639306640625,-1.2057789343133567,-0.024335838224738834,-1.783380377086997
1761467534356376000,1.4063759765625,-1.909818307045102,-0.17571444043293594,-0.11166530824005604
1761467534366359300,1.416359375,-2.8730896307215095,-0.25809344843402504,1.6441694747954605
1761467534376342300,1.42634228515625,-4.170200694820284,-0.46863487209826704,2.923730561417341
1761467534386325200,1.4363251953125,-5.335722729808092,-0.24444135517850515,4.520901553672552
1761467534396308200,1.44630810546875,-7.2632736774206155,-0.23947335750758647,7.685797663468122
1761467534406291200,1.456291259765625,-9.886128610384464,-0.1560232131436467,11.001066705560683
1761467534416274400,1.4662744140625,-11.747780560153721,0.12867840236127376,12.577533932483195
1761467534426257200,1.476257080078125,-10.493516996395588,0.8738410819895565,12.06556289974451
1761467534436240100,1.486240234375,-7.9296607803672545,1.5527261397205292,10.388765997588633
1761467534446224100,1.49622412109375,-6.010128888559341,1.5996439582400024,7.993992090502381
1761467534456207400,1.506207275390625,-4.565785236015915,1.5129086547255515,5.694563640496135
1761467534466190300,1.5161904296875,-3.0791859115451574,1.8652984895780682,4.099579929152131
1761467534476173000,1.526173095703125,-1.8569383652508258,2.1776224176324903,2.902279777109623
1761467534486156300,1.53615625,-0.9507225154876708,1.8801893308483064,1.648803564336896
1761467534496139300,1.54613916015625,-0.38875644874125714,1.212228694974631,0.3821557353019714
1761467534506122200,1.556122314453125,-0.1690139198809862,0.5864838374093174,-0.7713181344956159
1761467534516105200,1.566105224609375,0.19772651188522575,0.30317265334948895,-1.9449585940092802
1761467534526088200,1.576088134765625,0.6534101324737072,0.09531462355032563,-3.3596669867455957
1761467534536071400,1.586071533203125,0.9885410817503929,-0.45172991452664135,-4.490708659982681
1761467534546055400,1.596055419921875,1.650789477457106,-0.6182888424709438,-5.055734991082549
1761467534556038100,1.6060380859375,2.237643317222595,-0.5043775088697672,-5.210152230334281
1761467534566021000,1.616021240234375,2.4285335533469916,-0.27583807170018554,-4.985129422983527
1761467534576004400,1.62600439453125,2.5513068233177063,-0.10446633664667605,-4.7518093274086715
1761467534585987300,1.6359873046875,2.577417708390951,-0.09378916754871607,-4.826865445175767
1761467534595970000,1.645969970703125,2.4486457825273273,-0.16066928538382053,-5.031584884688258
1761467534605953300,1.655953369140625,2.4453069934934377,-0.34321430248916146,-5.048914205151796
1761467534615936300,1.665936279296875,2.4946985086500644,-0.46300388047397134,-4.848029813757538
1761467534625919200,1.675919189453125,2.549403327783942,-0.46401101168990133,-4.888901337850093
1761467534635902200,1.685902099609375,2.5695705020219086,-0.4134548366680741,-5.102472776859998
1761467534645886200,1.69588623046875,2.647950503514707,-0.29647300958037376,-5.3655543889701365
1761467534655869200,1.705869140625,2.6354443654239175,-0.3014845541320741,-5.650567846903205
1761467534665852400,1.715852294921875,2.680718216128647,-0.23694968424886464,-5.84196427898407
1761467534675835100,1.725835205078125,2.816330509406328,0.016179858167469502,-5.734978652992845
1761467534685818000,1.735818115234375,3.2902757628723975,0.14471578331813215,-5.619808551502228
1761467534695801300,1.74580126953125,3.727443775822222,-0.04860518708452582,-4.988348969551921
1761467534705784300,1.755784423828125,3.6986399984031912,-0.2672027836933732,-3.7151270228236912
1761467534715767000,1.76576708984375,3.459785941837728,-0.3051955374792218,-2.040556564545631
1761467534725750300,1.775750244140625,2.407655600491166,-0.09021496232375502,-0.26447628133893014
1761467534735733200,1.785733154296875,0.7450877146959305,-0.015566110183298587,1.5443173539459705
1761467534745717200,1.79571728515625,-0.9924056482240557,0.13814458823427558,2.8507798914968965
1761467534755700200,1.8057001953125,-2.8609070254966613,0.5168738562189042,4.538898398134112
1761467534765683200,1.81568310546875,-5.099969854128361,1.3744764817215502,7.188667056986689
1761467534775666200,1.825666259765625,-6.584512830591201,1.7536401956006884,10.132772297912835
1761467534785649400,1.8356494140625,-6.840372090232372,0.8853351204283535,12.088358084398507
1761467534795632000,1.845632080078125,-5.566843269512057,-0.2939011132657528,12.410730089867114
1761467534805615000,1.855614990234375,-4.054854944501817,-1.3227910104088485,11.202170292663574
1761467534815598300,1.865598388671875,-3.1315596573829647,-1.9127415010154245,9.336018693387508
1761467534825581300,1.875581298828125,-2.721275267444551,-2.022239109827578,7.741634116980433
1761467534835564000,1.88556396484375,-2.106294818869233,-1.7095276437602935,6.412527201423049
1761467534845548000,1.895548095703125,-1.3650225708082317,-1.1098232363805174,5.205144046783447
1761467534855531300,1.90553125,-0.5961667347729206,-0.6284947407953441,3.8996746119230985
1761467534865514200,1.91551416015625,-0.022696400454640386,-0.3544089195899665,2.4238731603205204
1761467534875497200,1.925497314453125,0.21905191624760625,-0.28286124833524223,1.1410440118134022
1761467534885480200,1.935480224609375,0.26723756274580956,-0.25721798077374697,0.03540449085831642
1761467534895463200,1.945463134765625,0.4800839023515582,-0.2757433791540563,-1.0546090064197777
1761467534905446400,1.9554462890625,0.9250807092308998,-0.4561123673945665,-2.048369868645072
1761467534915429000,1.96542919921875,1.2801841869562864,-0.7181380407109856,-2.884882652106881
1761467534925412000,1.975412109375,1.7522060711443423,-0.9245619460538029,-3.686206633287668
1761467534935395300,1.985395263671875,2.2287387107551098,-1.018091878144443,-4.362797734862566
1761467534945378300,1.99537841796875,2.732263402187824,-1.037114120130986,-4.893829441902041
1761467534955362300,2.0053623046875,2.914640076988935,-1.0268031539969145,-5.246005634003877
1761467534965345000,2.015344970703125,2.9337071810305115,-0.8569698805570601,-5.59501722459495
1761467534975328300,2.025328369140625,3.2575776083633303,-0.48527810999378557,-5.8546145017206666
1761467534985311200,2.035311279296875,3.7444890186473727,-0.3008998861119151,-6.115797002211213
1761467534995294200,2.045294189453125,4.280795743480325,-0.2797716117568314,-6.24866467295587
1761467535005277200,2.055277099609375,4.692803888471424,-0.30619273182302714,-6.22128800573051
1761467535015260200,2.06526025390625,4.774142739769816,-0.4288309772372246,-5.970583060112595
1761467535025243400,2.075243408203125,4.382816440540552,-0.33067017047554254,-5.464538494813442
1761467535035226000,2.08522607421875,3.5887609890580174,-0.09109656746387482,-4.995704008489847
1761467535045209000,2.095208984375,2.902062627227604,0.08379501227885484,-4.544318669617176
1761467535055193000,2.105193115234375,2.6578710090264677,0.3070084321200847,-4.179358399266004
1761467535065176300,2.11517626953125,2.699939633949101,0.5916844747923314,-3.7742028966486454
1761467535075159300,2.1251591796875,2.5810829529002306,0.8423924891501665,-3.495668279340863
1761467535085142000,2.13514208984375,2.2719696574553847,1.1683403072789311,-2.9019986220806837
1761467535095125200,2.145125244140625,1.437337865434587,1.6891174545466898,-1.8941005134314297
1761467535105108200,2.155108154296875,0.4724290036842227,1.9209817983552813,-0.9145014475494623
1761467535115091200,2.16509130859375,-0.43242227972745895,1.5646676296658812,0.05533318016529083
1761467535125074200,2.17507421875,-1.5914140361636877,1.0469472396202384,1.20880354283154
1761467535135057200,2.18505712890625,-2.833951798553765,0.4640850998394191,2.450093643248081
1761467535145040400,2.195040283203125,-4.011201972997188,-0.07310366852506994,3.857296190398931
1761467535155024400,2.2050244140625,-5.395440993189811,-0.37918826379850507,5.279492893064022
1761467535165007000,2.215007080078125,-6.334936012220382,-0.5507601975992321,6.462289887979626
1761467535174993200,2.2249931640625,-6.181894152975082,-0.05928980883657932,7.206129648441076
1761467535184976100,2.23497607421875,-5.043402748253941,0.6226952607363462,7.683278958645462
1761467535194959000,2.244958984375,-4.285898619577289,1.118779134643823,7.716203323125839
1761467535204942300,2.2549423828125,-4.475598476873338,1.3748155044175683,7.2577633895665405
1761467535214925300,2.26492529296875,-4.678812772519886,1.5668218850903213,6.584239858868718
1761467535224908000,2.274907958984375,-4.382526517683267,1.5772586695611477,5.889860587146878
1761467535234891300,2.284891357421875,-3.511300148236751,1.378151809233427,4.934792151409387
1761467535244875300,2.294875244140625,-2.6597064077600834,1.300681616061926,4.0028900717258455
1761467535254858200,2.304858154296875,-2.1919930344209075,1.1733121043421328,3.1458067939221857
1761467535264841000,2.314841064453125,-1.881121497131884,1.1020583014674483,2.241466090381145
1761467535274824200,2.32482421875,-1.4052917450934648,0.9492623798072337,1.2321265507519243
1761467535284807200,2.33480712890625,-0.7583966936022043,0.6976539094783365,0.012759528329968451
1761467535294790100,2.3447900390625,-0.18809885184019803,0.391524452149868,-1.2081646604061127
1761467535304773000,2.354773193359375,0.19115122514814137,0.061129737614840265,-2.3737504082798955
1761467535314756000,2.364756103515625,0.49915159091502426,-0.252517109606415,-3.3776907192140815
1761467535324739300,2.3747392578125,0.9347796809464692,-0.4508702289573848,-4.158369387251138
1761467535334722300,2.384722412109375,1.4327958380907773,-0.46443172132000327,-4.893692079257965
1761467535344705000,2.394705078125,1.775748567034304,-0.4606070484653115,-5.394788666760921
1761467535354689000,2.40468896484375,2.1109151721462607,-0.4468579245761037,-5.7155602512955666
1761467535364672300,2.41467236328125,2.5772487815648315,-0.5159120254494249,-5.977957388272881
1761467535374655200,2.4246552734375,2.8045705135077235,-0.5223896970309316,-5.985649696341157
1761467535384638000,2.434637939453125,2.7213281666755673,-0.22638722757175564,-5.765307155761122
1761467535394621200,2.44462109375,2.5641283109679818,-0.08962401069328188,-5.502005178898573
1761467535404604200,2.454604248046875,2.580004217752814,-0.04340761844143271,-5.399221680772304
1761467535414587100,2.464587158203125,2.9273160186886784,-0.11291326247453688,-5.375616348779201
1761467535424570000,2.474570068359375,3.6082208918094634,-0.389057915905863,-5.49897092576921
1761467535434553000,2.484552978515625,4.465144010615348,-0.9037484367363154,-5.4490626932621
1761467535444537000,2.494537109375,4.910063368344306,-1.2508056783892214,-4.880502342817187
1761467535454520300,2.504520263671875,5.057909997034073,-1.2891646351389585,-3.9752643981754776
1761467535464503300,2.51450341796875,4.814986206811666,-1.1593160199545323,-2.9305536854356524
1761467535474486000,2.524486083984375,4.100938358023763,-0.8021405582606792,-1.7575959474891423
1761467535484469200,2.53446923828125,2.7914900826603173,-0.36574367581382394,-0.18878011210262774
1761467535494452200,2.5444521484375,0.7077221528977156,0.12665595662295817,1.5451456214636563
1761467535504435200,2.554435302734375,-1.4711305371820926,0.7042234971269965,2.9496190359115597
1761467535514418200,2.564418212890625,-3.711515262067318,1.578640917699784,4.457279268589615
1761467535524401200,2.574401123046875,-5.462752780440449,2.6942534050062297,6.0868631686717265
1761467535534384000,2.584384033203125,-6.466730500775575,3.083835783177614,7.736014523532986
1761467535544367000,2.5943671875,-7.285827454534172,2.9535365016162394,9.376222108960151
1761467535554351000,2.60435107421875,-6.4413108128368854,2.69241537592411,10.016191745102406
1761467535564334000,2.614333984375,-4.554689256983995,2.3739171431489288,9.128169723677635
1761467535574317300,2.6243173828125,-3.3467820784702895,1.8156269884362817,7.861790190190076
1761467535584300300,2.63430029296875,-3.0620757867902517,1.043844597429782,7.057284656363725
1761467535594283000,2.644282958984375,-3.076931118355691,0.19593407551050185,6.198697988259792
1761467535604266200,2.654266357421875,-2.302687451802194,-0.7756484187848866,5.0506695243865245
1761467535614249200,2.664249267578125,-1.5890604587748647,-1.6923174196317792,3.891890533918142
1761467535624232200,2.674232177734375,-1.2515376459255814,-2.4328892643384634,2.981515810909867
1761467535634215200,2.684215087890625,-1.278707684662938,-2.813393286910653,2.1145658036082984
1761467535644199200,2.69419921875,-1.1493486065611243,-2.8344571177273985,1.0552660090237855
1761467535654182100,2.70418212890625,-0.46885172971934075,-2.5962919202089307,-0.13989830003380774
1761467535664165400,2.714165283203125,0.4079211679384112,-2.1767491419292986,-1.393174606320262
1761467535674148000,2.724148193359375,1.043081065711379,-1.5760748666040598,-2.489374683278799
1761467535684131000,2.734131103515625,1.3474918825536966,-1.012648664177209,-3.3790579159140584
1761467535694114300,2.7441142578125,1.728772588586807,-0.6975656466729938,-4.0871909877002235
1761467535704097300,2.75409716796875,2.2501868647143244,-0.4869751231700182,-4.61549765368998
1761467535714080000,2.764080078125,2.4629180535078046,-0.4534576151020825,-4.838136780774593
1761467535724063200,2.774063232421875,2.349676289731264,-0.44595279242992397,-5.012670925381779
1761467535734046200,2.784046142578125,2.217975616939366,-0.5475982264369725,-4.9388908188998695
1761467535744030200,2.7940302734375,2.056248054674268,-0.7070692419469357,-4.590915001097321
1761467535754013200,2.80401318359375,1.8687953917831182,-0.8989620792426168,-4.143283461800217
1761467535763996200,2.81399609375,1.7994240416541694,-1.1688893194638192,-3.7403053032219407
1761467535773979100,2.823979248046875,1.6880752520173787,-1.3798862318105996,-3.4443887584805486
1761467535783962400,2.83396240234375,1.4894614359036087,-1.468672768766433,-3.193417855402827
1761467535793945000,2.843945068359375,1.3591037021532655,-1.4240434995755553,-3.055838938227296
1761467535803928000,2.853927978515625,1.4039575738802552,-1.315175274708122,-3.025574732866883
1761467535813911300,2.863911376953125,1.6079101206734776,-1.0148390138283372,-3.083684976530075
1761467535823894300,2.873894287109375,2.008858234728873,-0.4504140096224844,-3.098462858945131
1761467535833877000,2.883876953125,2.330341766925156,0.2042582517415285,-3.012790654617548
1761467535843860200,2.893860107421875,2.328644315357506,0.8302844104662537,-2.794665205565095
1761467535853844200,2.90384423828125,2.046143424767256,1.4834265396535395,-2.395118775001168
1761467535863827200,2.9138271484375,1.665325075548887,2.0636377265341577,-1.7128864526689052
1761467535873810200,2.92381005859375,1.3606138144552706,2.267353395831585,-0.823088653743267
1761467535883793200,2.933793212890625,0.7397717803701758,1.8923808500319719,0.30358430289030075
1761467535893776100,2.943776123046875,-0.15673223819583654,1.0904911977924405,1.531432737931609
1761467535903759400,2.95375927734375,-1.2349737568765877,0.5272092261418699,2.824872712302208
1761467535913742000,2.9637421875,-2.5305548349291085,0.3298598770059645,3.8612218394100664
1761467535923725000,2.97372509765625,-3.632664428192377,0.20856617806851863,4.675390104594826
1761467535933708300,2.983708251953125,-4.505100465689599,0.2562812844455242,5.263617863062024
1761467535943691300,2.993691162109375,-4.798919745890796,0.6082639998018742,5.620636819019913
1761467535953675300,3.00367529296875,-4.145944497703016,1.0568759284384548,5.456723437148332
1761467535963658000,3.013657958984375,-3.4480092870652674,1.3384582428790628,5.00319582554996
1761467535973641200,3.02364111328125,-3.1689734422370788,1.3311603409558534,4.469516234350205
1761467535983624200,3.033624267578125,-2.920496986323595,1.2543886514425278,3.918262408015132
1761467535993607200,3.043607177734375,-2.661109844817221,1.1120187005981803,3.5604613617688416
1761467536003590100,3.053590087890625,-2.2362886877432464,0.9459250520780682,3.009630729281902
1761467536013573000,3.063572998046875,-1.701222902882099,0.8693769421875477,2.406189619591832
1761467536023556400,3.073556396484375,-1.1173434027522802,0.7905689245410263,1.621872302791476
1761467536033539300,3.083539306640625,-0.5868132154941559,0.609253741491586,0.7659335188478231
1761467536043522000,3.09352197265625,-0.3965530939668417,0.5072060102939605,0.05816343515515327
1761467536053506000,3.103506103515625,-0.2778700159192085,0.30656229578778144,-0.6400824488669633
1761467536063489300,3.1134892578125,-0.23252105415165422,0.09013049891069531,-1.3763549889445303
1761467536073472300,3.12347216796875,-0.345216289961338,-0.030120559106022116,-2.005985601902008
1761467536083455000,3.133455078125,-0.46022769375890493,-0.06665303108096123,-2.5289848091334104
1761467536093438200,3.143438232421875,-0.2963020369276404,-0.05874766478389501,-3.071885233142972
1761467536103421200,3.153421142578125,0.36741818489730355,0.1338904379211366,-3.7695845891982316
1761467536113404200,3.163404052734375,1.1678893486410378,0.2899602666854858,-4.561709364879131
1761467536123387100,3.17338720703125,1.717052924698591,0.08637231542095541,-5.14226878067553
1761467536133370000,3.1833701171875,1.8294670054793356,-0.26206512854397296,-5.401928017121553
1761467536143353300,3.193353271484375,1.766065377409756,-0.4713232343994081,-5.364275455075502
1761467536153337300,3.20333740234375,1.5594368894055486,-0.7303549865968525,-5.139484118393063
1761467536163320000,3.213320068359375,1.6598866838872433,-0.9282141849510371,-4.864730188667774
1761467536173299200,3.22329931640625,1.968782244928181,-0.9491992514431477,-4.498311536201834
1761467536183282400,3.233282470703125,2.100440539883077,-0.8068637873902916,-4.159097117003798
1761467536193265200,3.24326513671875,1.957513831938803,-0.6431944434076547,-3.9712861421942707
1761467536203248400,3.253248291015625,2.117809315574169,-0.533754556132108,-4.149917200726271
1761467536213231400,3.2632314453125,2.801895449079573,-0.23334625292941927,-4.348097593858838
1761467536223214300,3.27321435546875,3.2972961630284785,0.26345804420709606,-3.9797734000325202
1761467536233197300,3.283197265625,3.627710312916338,0.6640893473982811,-3.1714176205188034
1761467536243180300,3.29318017578125,3.3640704824015497,0.7765832154169678,-2.2342998520135877
1761467536253164300,3.303164306640625,2.3319366349011657,0.7223990591563284,-0.9262193578720093
1761467536263147300,3.313147216796875,1.219176468285918,0.5325251604676247,0.9081009328573941
1761467536273130500,3.323130615234375,0.20416560502201317,0.4346254888601601,2.7410622101932764
1761467536283113200,3.33311328125,-0.9618833764493465,0.42172143749296664,4.491439896866679
1761467536293096200,3.34309619140625,-1.9355305481895804,0.7408226045973598,6.2097384377121925
1761467536303079400,3.353079345703125,-2.8967183435901998,1.1152505221262574,8.046292771103978
1761467536313062100,3.363062255859375,-4.426440185950696,1.135551113485545,9.750132578486204
1761467536323045400,3.37304541015625,-5.218350734359026,0.7906738462202251,10.573030678093433
1761467536333028400,3.3830283203125,-4.1741760281920435,0.371424351798743,10.20714101793766
1761467536343011300,3.39301123046875,-3.075111209452152,0.17029913738593458,8.66188842896819
1761467536352994300,3.402994384765625,-2.784303386026621,0.10716975038647651,7.370620537939668
1761467536362978300,3.412978271484375,-2.257639811068773,0.09209317728579043,6.178472361832857
1761467536372961300,3.422961181640625,-1.619834074962139,-0.07454699920117855,4.945214176702499
1761467536382944300,3.4329443359375,-0.6828790958032012,-0.3007796207331121,3.582933890339732
1761467536392927500,3.442927490234375,0.049556934851408004,-0.4466827141396701,2.3283418252795935
1761467536402910200,3.45291015625,0.4963406251475215,-0.4730300383172929,1.0525509048461914
1761467536412893200,3.46289306640625,1.1004325999617577,-0.44638928415104745,-0.10474515358805656
1761467536422876400,3.47287646484375,1.5924404566019772,-0.3356551192812621,-1.1222037022650242
1761467536432859400,3.482859375,1.7069097163468598,-0.2557015848614275,-2.0229472580969334
1761467536442842400,3.49284228515625,1.9709967061072586,-0.2377041558779776,-2.815235115385055
1761467536452825300,3.502825439453125,1.8721447022110222,-0.4838917702019214,-3.146968238916993
1761467536462809300,3.512809326171875,1.7203157258868216,-0.6168738611064851,-3.0470109041273594
1761467536472792300,3.522792236328125,1.4627104993611573,-0.7987579300850629,-2.8184096537679433
1761467536482775300,3.532775390625,1.1874193940192461,-1.113481174366176,-2.588869661253691
1761467536492758300,3.54275830078125,1.0664701246052979,-1.289211543020606,-2.434039165025949
1761467536502741200,3.5527412109375,1.4873133179590106,-1.2148850547023118,-2.702913389062881
1761467536512724500,3.562724365234375,2.797803503590822,-1.2957425522245465,-3.0913585798978804
1761467536522707200,3.572707275390625,4.118667783720791,-1.2224736101351679,-3.8028316097617147
1761467536532690200,3.582690185546875,4.74494762494564,-0.9775687290981412,-4.757076454156637
1761467536542673400,3.59267333984375,4.2043320970028635,-0.660953533590585,-5.157814724853634
1761467536552656400,3.602656494140625,2.862157025557756,-0.41222091095894575,-4.831828036019206
1761467536562640100,3.61264013671875,1.7800600004926324,-0.5180353012137114,-4.472399680832028
1761467536572623400,3.622623291015625,1.8700629275009035,-0.6255166017673909,-4.4646138492614025
1761467536582606300,3.6326064453125,2.441521921996772,-0.7947837657570839,-4.718149634391069
1761467536592589300,3.64258935546875,2.6629440745070574,-0.6498378269448876,-5.0658448816865675
1761467536602572300,3.652572265625,3.1025375610381363,-0.26074410907328127,-5.238619615405797
1761467536612555300,3.66255517578125,3.673223817595839,0.19819632135406134,-5.245793452557921
1761467536622538200,3.672538330078125,4.379831871771812,0.5983332651570439,-4.934795074018836
1761467536632521500,3.682521484375,5.00629086895585,0.69962433276847,-4.410138747230172
1761467536642504200,3.692504150390625,4.69839747069478,0.6611470103360713,-3.6797494199723
1761467536652487200,3.702487060546875,3.605900924429297,0.5640564631544053,-2.6576778245419264
1761467536662470400,3.712470458984375,1.7338704962477087,0.22150778496712445,-1.0120558128505945
1761467536672454400,3.722454345703125,-0.5451297904968262,-0.17663257819116115,1.209338964882493
1761467536682437400,3.732437255859375,-3.112585492321849,-0.8096838132470846,3.5499580879330632
1761467536692420400,3.74242041015625,-4.435713917991519,-1.2121667356543242,5.1682688988506795
1761467536702403300,3.7524033203125,-4.89405565187335,-0.27260785760730505,6.280880596905947
1761467536712386300,3.76238623046875,-4.520163887047767,0.9320831353388727,7.312161334708333
1761467536722369300,3.772369384765625,-5.807133788621425,2.435561552287638,8.8310654304564
1761467536732352300,3.782352294921875,-7.847113430061936,3.4130759208500385,10.296119278073311
1761467536742335200,3.792335205078125,-7.342765731808543,3.632812896752357,10.229309595125914
1761467536752318500,3.802318359375,-5.7545946230888365,3.743233173367381,9.601581016397475
1761467536762301200,3.81230126953125,-4.5339211942434305,3.447511858937144,8.758516327074169
1761467536772284200,3.8222841796875,-3.3941739442422985,2.901971734073758,7.663726116913557
1761467536782268200,3.83226806640625,-2.2839617085441946,2.460378890419006,6.457096995511651
1761467536792251400,3.84225146484375,-1.4291034133136271,2.2102802401311696,5.199120548710226
1761467536802234400,3.852234375,-0.5709525062784552,1.9841576548449693,3.623290450647473
1761467536812217300,3.86221728515625,-0.08074351575374603,1.825088205873221,2.0473814421296117
1761467536822200300,3.872200439453125,0.2674614346295595,1.453191852648556,0.498689526361227
1761467536832183300,3.882183349609375,0.2802402521818876,0.9820182558529078,-0.9337573521614074
1761467536842166500,3.89216650390625,0.1700575837150216,0.5375222381025553,-2.1801187644928692
1761467536852149200,3.902149169921875,0.3911389599636197,0.30600656160116196,-3.2744425261855126
1761467536862132200,3.91213232421875,0.6775111390292644,0.31633535565286874,-4.301281482148171
1761467536872115500,3.922115478515625,0.9121925860852003,0.36721009510457514,-5.033666951659321
1761467536882099500,3.932099365234375,1.3962772485107182,0.43499797543436286,-5.5930555691331625
1761467536892082200,3.942082275390625,1.7867103982925414,0.3787167007640004,-6.074445585647225
1761467536902065200,3.952065185546875,2.1129764885902405,0.26925080226436254,-6.479736112821102
1761467536912048400,3.96204833984375,2.367925063127279,0.03034823038205504,-6.816316091862321
1761467536922031400,3.97203125,2.479141458556056,-0.4516100875392556,-6.9749027257531875
1761467536932014300,3.982014404296875,2.519844640344381,-1.037154744402319,-7.003612687408924
1761467536941997300,3.991997314453125,2.5049887242570517,-1.4256509347721933,-6.913816681149601
1761467536951980300,4.001980224609375,2.693881941345334,-1.7161290878519415,-6.925226548436283
1761467536961963500,4.011963623046875,2.987052694509923,-1.982364049426466,-7.215214287650585
1761467536971946200,4.0219462890625,3.1357804899483916,-2.341735998251289,-7.554156904169917
1761467536981929200,4.03192919921875,3.855249194741249,-2.4591928955048323,-7.77582572491765
1761467536991913200,4.041913330078125,3.7489898371979593,-2.157141793531179,-7.534191974505782
1761467537001896400,4.051896484375,3.6878339422285555,-1.6961122818700969,-6.748377112624048
1761467537011879200,4.061879150390625,3.502011510887742,-1.2321917249426244,-5.014556008476019
1761467537021862100,4.071862060546875,1.7387429245896637,-0.5416121377646923,-2.944357754382491
1761467537031845400,4.081845458984375,0.5821297338530421,1.0623585976332426,-0.004108019840717315
1761467537041828400,4.091828369140625,-1.1847408224597573,1.8177884042538701,3.0374767675846814
1761467537051811300,4.101811279296875,-4.7701785123139615,2.9755320603251456,6.25138796043992
1761467537061794300,4.111794189453125,-5.983516775965691,3.249520850896835,8.580200910362601
1761467537071777300,4.12177734375,-4.5193595849275585,2.2043572798229754,10.323191993916033
1761467537081760500,4.131760498046875,-4.514890915080905,-0.021568711598962544,11.67935759679079
1761467537091743200,4.1417431640625,-4.487992971283197,-1.9119934591270982,12.840741801321506
1761467537101727200,4.151727294921875,-3.835554314190149,-3.5413732149392363,14.229979652714729
1761467537111710200,4.161710205078125,-3.603496785897016,-3.8994875649183984,13.045941717827318
1761467537121693400,4.171693359375,-3.214085380378365,-2.8289076669067144,10.509115547543763
1761467537131676200,4.18167626953125,-2.254171550436318,-2.1186973504550752,8.362701484254002
1761467537141659100,4.1916591796875,-1.6283526047214865,-1.7978458325520157,6.537464663690328
1761467537151642400,4.201642333984375,-1.3715014114335178,-1.864941492833942,4.564009458515048
1761467537161625300,4.211625244140625,-1.1897761862784624,-1.8399724712722003,2.2621581652760505
1761467537171608600,4.221608642578125,-0.8975292699605226,-1.3165898176811635,0.5508014063924551
1761467537181591600,4.231591552734375,-0.2756426952585578,-0.6744958828613161,-0.18033084818720815
1761467537191574300,4.24157421875,0.6657558193057775,-0.27762860837876796,-0.6457254231899976
1761467537201558300,4.251558349609375,1.2213003285720945,-0.37529520188272,-1.364602591830492
1761467537211541500,4.26154150390625,1.3888751555606722,-0.3314082754917443,-1.9918945327073334
1761467537221524500,4.2715244140625,1.577718688288331,-0.20097163128629325,-2.2269132488936183
1761467537231507500,4.281507568359375,1.8686583213999866,-0.14976736761927603,-2.35496153665781
1761467537241490400,4.291490478515625,2.217773664626479,-0.20094781201928852,-2.76433027305603
1761467537251473400,4.301473388671875,2.3741651265606283,-0.19805325962156056,-3.262203222337365
1761467537261456400,4.311456298828125,2.467956924457848,-0.09552987373620271,-3.758685009521246
1761467537271439600,4.321439697265625,2.4097522805094718,0.06104395902752876,-4.2125189105898135
1761467537281422300,4.33142236328125,2.4229583835631607,0.24830928265303373,-4.562725848445296
1761467537291405300,4.3414052734375,2.6839111669510602,0.32154622216895223,-5.063046775400638
1761467537301388500,4.351388427734375,2.897853192839026,0.2140909328393638,-5.540795805063843
1761467537311372500,4.36137255859375,2.769139719164371,0.024755086550116538,-5.878020511749386
1761467537321355300,4.371355224609375,2.2516002386435865,-0.12505538955852388,-6.1119064245134584
1761467537331338500,4.38133837890625,1.9777178310558199,-0.23491598646417258,-6.400313616538047
1761467537341321500,4.391321533203125,1.727669011259079,-0.4569146236881613,-6.842955676984786
1761467537351304400,4.401304443359375,1.7116133639931679,-0.6743591047391295,-7.441424843481182
1761467537361287400,4.411287353515625,1.8008499828040598,-0.768279059060663,-7.805145927426219
1761467537371270400,4.4212705078125,1.2745908969938755,-0.532435874748975,-7.791400310668349
1761467537381253400,4.43125341796875,0.6022934009596705,-0.2525783382743597,-7.216355274379253
1761467537391236600,4.441236572265625,0.03693623047024011,-0.20877967468872666,-5.968863981235027
1761467537401219300,4.45121923828125,-0.8608060977190732,-0.5906641918338835,-4.4044215386271475
1761467537411203300,4.461203369140625,-1.3609244878396392,-1.2999616312243043,-2.3892396538347005
1761467537421186600,4.4711865234375,-0.8326596151649951,-1.53060125554353,0.13740706773996353
1761467537431169500,4.48116943359375,-0.254220844784379,-1.3786777328036726,2.558631174856424
1761467537441152300,4.49115234375,0.9891068989396095,-1.077585392859578,4.211927374437451
1761467537451135500,4.501135498046875,1.6834464231729507,-0.2367841184236109,5.582150728759169
1761467537461118500,4.511118408203125,-1.6258780313014982,1.0421437848612665,7.712444847375154
1761467537471101400,4.521101318359375,-6.687410895007848,2.0966253655090927,10.41354037336111
1761467537481084400,4.53108447265625,-7.755662057811021,2.868638204270601,11.393009675383567
1761467537491067400,4.5410673828125,-5.525636229854822,3.544777470424771,11.380449469017982
1761467537501050400,4.55105029296875,-4.448993670803309,3.860853590619564,10.818775370955466
1761467537511033600,4.56103369140625,-4.2237116279944775,3.6629210347682237,9.103163877236842
1761467537521016300,4.571016357421875,-4.163912116070091,2.986764232957363,7.623617393887042
1761467537531000300,4.581000244140625,-3.9004792063042517,2.369048952590674,6.6128475291937585
1761467537540983600,4.590983642578125,-2.788143402580917,1.658679500054568,5.24268145801723
1761467537550966500,4.600966552734375,-1.5719024032250046,1.0630569551609457,3.6909172951966522
1761467537560949200,4.61094921875,-0.6628600978642701,0.4890072135195136,2.1446149049133063
1761467537570932500,4.620932373046875,0.013291443249583243,-0.039255174937099215,0.7952332630902529
1761467537580915500,4.63091552734375,0.49946226429939267,-0.358153805206716,-0.37981297156810756
1761467537590898400,4.6408984375,0.7033677570804954,-0.41776203234270215,-1.3505676367372275
1761467537600881400,4.65088134765625,0.7427972656711935,-0.3704423550240695,-2.2214304335683583
1761467537610864400,4.660864501953125,0.776709764406085,-0.3819000069752335,-2.907335306933522
1761467537620847400,4.670847412109375,0.6945645651608705,-0.25590017617344857,-3.289850523197651
1761467537630831400,4.680831298828125,0.4959580555707216,-0.10525924059003591,-3.4245155987530946
1761467537640814600,4.690814697265625,0.4756508883401751,0.18850582520589232,-3.44589682495594
1761467537650797300,4.70079736328125,0.50455871065557,0.5636544582247733,-3.555044597417116
1761467537660780500,4.710780517578125,0.46915188170969485,0.8447606795862317,-3.746077456882596
1761467537670763500,4.720763427734375,0.5471542820617556,1.0327763831876218,-3.996646208900213
1761467537680746200,4.730746337890625,0.8783756566792726,1.1315504995420576,-4.366655579334497
1761467537690729500,4.7407294921875,1.3956839587926864,1.1643209886349737,-4.814750644490123
1761467537700712400,4.75071240234375,2.13670953861624,1.070450572543591,-5.347166499364376
1761467537710695400,4.7606953125,2.8552240114241836,0.817118639422953,-5.793069607433677
1761467537720678400,4.770678466796875,3.2217367719143626,0.6039642567813396,-5.968156709748506
1761467537730661400,4.780661376953125,3.242062936106324,0.41308585722520946,-5.926855562067032
1761467537740645400,4.790645263671875,3.1909856598198414,0.19395693021863697,-5.66738103453815
1761467537750628400,4.80062841796875,3.3411130929231643,0.061561114769428965,-5.564310536164045
1761467537760611600,4.810611572265625,2.9635438086286183,0.15866116043180226,-5.474032883867621
1761467537770594300,4.82059423828125,2.752521177318692,0.028802169983834027,-5.136068756991625
1761467537780577500,4.83057763671875,2.389115442933142,-0.1219973171621561,-4.7280409138083455
1761467537790560500,4.840560546875,1.9864283762559294,-0.3789218679472804,-4.238335488891601
1761467537800543500,4.85054345703125,1.6141022533118723,-0.7202160160288215,-3.745523330131173
1761467537810526500,4.8605263671875,1.6589301138147712,-1.0574151498816906,-3.3118741389572617
1761467537820509400,4.870509521484375,1.6580273197561501,-1.3527899889618158,-2.671201322981715
1761467537830492400,4.880492431640625,1.232589784349501,-1.4959116349563002,-1.7968933541327714
1761467537840475400,4.890475341796875,0.288587224766612,-1.5161869457438588,-0.7237514966785907
1761467537850459400,4.90045947265625,-0.7523492301315069,-1.5828592660471796,0.6136363404899835
1761467537860442400,4.9104423828125,-2.1389447503224015,-1.3587842609405516,2.205132209718227
1761467537870425300,4.92042529296875,-3.507998476342857,-0.8008686386287212,4.30941335067749
1761467537880408600,4.93040869140625,-4.05162253845185,-0.09992153282389044,6.773736010286211
1761467537890391300,4.940391357421875,-4.133493304669857,0.03100654816031456,9.230584388491511
1761467537900374500,4.95037451171875,-4.9335284150838845,-0.5412735534600913,11.773238826537131
1761467537910357500,4.960357421875,-5.00142297065854,-1.3848175507329403,13.770692746937273
1761467537920340500,4.970340576171875,-3.956986983206868,-1.928227093308419,14.448212069272994
1761467537930323500,4.980323486328125,-3.5191985002711412,-1.8658529085904358,13.109392737996577
1761467537940306400,4.990306396484375,-3.483842816990614,-1.606718718931824,10.414410141932963
1761467537950290400,5.00029052734375,-2.73482536163032,-0.8252601525634526,8.102989640837908
1761467537960273400,5.0102734375,-1.6390730284392834,0.4982542036838829,6.335104354524612
1761467537970256400,5.02025634765625,-0.9751189978584647,1.2654168259352445,4.592202118298411
1761467537980239400,5.0302392578125,-0.668069356945157,1.669717173027992,2.6573119138389822
1761467537990222300,5.040222412109375,-0.5454167907446622,1.7478521137185394,0.8869903402894734
1761467538000205600,5.05020556640625,-0.3447136011362076,1.4491032681606708,-0.8701157778561115
1761467538010188300,5.060188232421875,0.5175064550340175,0.7351536190502345,-2.50824714153111
1761467538020171500,5.070171630859375,1.1791381801471112,0.04498626593500375,-4.025851845118403
1761467538030154500,5.080154541015625,3.033197482830286,-0.5148338748238981,-5.420722733962536
1761467538040137500,5.090137451171875,3.5105835243999954,-0.760588650688529,-6.4538768644213675
1761467538050120400,5.100120361328125,3.3015123194187876,-0.7934409728460013,-7.286435357299447
1761467538060103400,5.110103515625,3.466335509611666,-1.0409838011711836,-7.762212794628739
1761467538070087400,5.12008740234375,4.071131248781085,-1.318385907317698,-8.030290899851918
1761467538080070400,5.1300703125,4.020364938139915,-1.4359317980289459,-8.09582164890468
1761467538090053400,5.140053466796875,3.553083818738162,-1.6729872807398438,-8.049900440207123
1761467538100036400,5.150036376953125,3.049616702711582,-2.0273829024568197,-7.952668730989098
1761467538110019300,5.160019287109375,2.66734084816128,-2.2310312056064605,-7.786020371195674
1761467538120002600,5.17000244140625,2.050346137154102,-2.3883926816165446,-7.813404052683711
1761467538129985300,5.1799853515625,1.0433344559505582,-2.3593898744940756,-7.87211576937139
1761467538139968500,5.189968505859375,0.7204670681804418,-1.7264026445850729,-7.466468683844805
1761467538149951500,5.199951416015625,1.0600883146137,-0.7263982117950916,-6.566721153312921
1761467538159934500,5.2099345703125,0.8211074167981743,-0.19696634116768835,-5.526680185949802
1761467538169918200,5.219918212890625,-0.42883711471706626,0.31560821042209863,-3.9975317595630884
1761467538179902200,5.229902099609375,-1.9705498391225933,0.8892696833983064,-1.8188292916089295
1761467538189885200,5.23988525390625,-2.457199675861001,0.7767202858000993,0.5388806669741869
1761467538199868200,5.2498681640625,-0.2685942380517721,0.06993745957911014,2.8791765494197605
1761467538209851400,5.259851318359375,1.6840765377700329,0.4559010627314448,5.667426042723656
1761467538219834400,5.26983447265625,-0.6734960581690073,0.9891758725225925,8.723429231601953
1761467538229817000,5.279817138671875,-4.4729272118374706,1.6276546855852008,11.421122840189932
1761467538239800300,5.28980029296875,-8.959605301129818,2.0796325835235416,12.185443663144111
1761467538249783300,5.299783203125,-11.68825401995182,2.357112577211857,12.940519687891006
1761467538259766300,5.309766357421875,-7.118775190114975,2.4387819756388662,11.45596969716549
1761467538269749200,5.319749267578125,-4.1671550435140725,2.345429007550329,8.966606119802593
1761467538279732200,5.329732177734375,-4.138262126506865,2.688155964913964,6.947491571736335
1761467538289716200,5.33971630859375,-4.145445900531113,3.791355691501498,5.646264012229442
1761467538299699200,5.34969921875,-2.8559739530086516,4.704802661561966,4.370757169434428
1761467538309682200,5.35968212890625,-1.440674316380918,4.9459647028088565,2.87494461093843
1761467538319665200,5.3696650390625,-0.6703478232711553,4.007333607131242,1.5068676209956406
1761467538329648400,5.3796484375,-0.01852788259834051,2.6288012741476297,0.4010843076556921
1761467538339631400,5.38963134765625,0.4878115739941597,1.5672468325041233,-0.3051291942447424
1761467538349614000,5.399614013671875,0.5563379977315664,0.6122672440938651,-1.0392658913373947
1761467538359597300,5.409597412109375,0.40149698010981083,-0.3044251376286149,-1.8656535866260529
1761467538369580300,5.419580322265625,0.38666415263712406,-0.836010240767151,-2.4782313579738138
1761467538379563300,5.429563232421875,0.5702420199215412,-0.9495512797512113,-2.9453876819521185
1761467538389546200,5.439546142578125,0.7956418438911438,-0.9500899166725575,-3.3941496865838765
1761467538399530200,5.4495302734375,1.090332646229863,-0.8926265926107764,-3.7959833513021466
1761467538409513200,5.45951318359375,1.6695537991598248,-0.6931437385775149,-4.294128103262186
1761467538419496200,5.46949609375,2.3602289556667206,-0.6516692801557481,-4.7777539160043
1761467538429479200,5.479479248046875,2.7284780384302136,-0.7579321448303759,-5.22809588330388
1761467538439462100,5.489462158203125,3.0732609054103492,-1.045226699437946,-5.6588826707839965
1761467538449445000,5.499445068359375,3.453638232862949,-1.4635231309182941,-6.130715169879794
1761467538459428400,5.509428466796875,3.9530113575741646,-1.9638133704744278,-6.566060059055686
1761467538469411000,5.5194111328125,4.374854667881131,-2.4313629315540193,-6.831168793079256
1761467538479394300,5.529394287109375,4.648793481831253,-2.7142075210154055,-7.004172074857354
1761467538489377300,5.539377197265625,4.43492773604989,-2.7260373672798273,-7.023288863259554
1761467538499360300,5.5493603515625,3.966839684179425,-2.1985393873244523,-6.719390672114491
1761467538509343200,5.55934326171875,3.0334377213269472,-1.699045704973489,-6.0195192327171565
1761467538519327200,5.5693271484375,1.993064745530486,-1.386717685265839,-5.33332034484148
1761467538529310200,5.579310302734375,1.2876210589587687,-1.1149531466148792,-4.492483268439769
1761467538539293200,5.589293212890625,0.7409069218799471,-0.7918706547893584,-3.4188276162445543
1761467538549276200,5.599276123046875,0.19050006776303052,-0.6571738689213991,-2.3033184431821105
1761467538559259100,5.609259033203125,-0.5046574948549271,-0.32199338141456246,-1.238477965605259
1761467538569242000,5.6192421875,-0.8683651347965001,0.6708025813013315,-0.03439502155482769
1761467538579225300,5.629225341796875,-0.2791682390362024,2.5431156258165837,1.8642215079963207
1761467538589208000,5.6392080078125,-0.6735933810636401,4.127100388762354,4.1280525749206545
1761467538599191300,5.64919140625,-2.7330054527267813,4.465825270877779,7.099608717352152
1761467538609174300,5.65917431640625,-4.998680393952131,3.082879505366087,9.449103220775722
1761467538619157200,5.6691572265625,-4.505975202697515,0.3076677728116512,9.666168931642174
1761467538629141200,5.679141357421875,-2.745982715460658,-1.9365151753127574,9.51765010277927
1761467538639124200,5.689124267578125,-1.8743582866072654,-2.9071333546206355,9.917176075077057
1761467538649107200,5.699107177734375,-2.054822990307212,-3.124156687650084,9.918396556782723
1761467538659090200,5.709090087890625,-2.5407734466046095,-2.780381244146824,9.150607180935143
1761467538669073400,5.719073486328125,-2.184401848639548,-1.9581499378852545,8.240806458422542
1761467538679056100,5.72905615234375,-1.4978706600695848,-1.3506987157709895,6.92083269739151
1761467538689039000,5.7390390625,-1.15988432136178,-0.9899738910324871,5.319292988532781
1761467538699022300,5.749022216796875,-1.1486986182197927,-1.000083050984144,3.768835232135653
1761467538709005000,5.759005126953125,-1.2192919113591312,-0.8642933553129434,2.5092379061341283
1761467538718988300,5.76898828125,-0.6849027105852961,-0.669037325194478,1.4302508297830818
1761467538728971300,5.77897119140625,0.21158464910686015,-0.4688058447510004,0.4226929128736257
1761467538738954200,5.788954345703125,0.9224275643736124,-0.2513186936020851,-0.5017056593120098
1761467538748938200,5.798938232421875,1.4888468111366033,-0.09856792625784873,-1.331386550927162
1761467538758921200,5.808921142578125,1.8973963401064275,-0.12688318950757382,-2.0811761597037313
1761467538768904200,5.818904296875,2.0627385857373475,-0.22617139286398885,-2.700014160490036
1761467538778887200,5.82888720703125,2.170238590991497,-0.4612997069045901,-3.249524942550063
1761467538788870400,5.838870361328125,2.1607532620266077,-0.6780019912861287,-3.661573711812496
1761467538798853000,5.84885302734375,1.9643150363862514,-0.6948748001538216,-4.150145748785138
1761467538808836000,5.858836181640625,1.889696725514531,-0.7510871012412011,-4.763258942183852
1761467538818819300,5.8688193359375,1.7375789953768253,-0.7825856707021593,-5.426581981384754
1761467538828802000,5.878802001953125,1.5305933644980192,-0.7910361036613583,-6.109208855992556
1761467538838785300,5.888785400390625,1.5333876713916659,-0.8466646135114133,-6.70508742147386
1761467538848768300,5.898768310546875,1.6529104151338339,-0.7772093844912946,-7.136622396972775
1761467538858752300,5.908752197265625,1.8895593628704548,-0.67046034373492,-7.485938523468374
1761467538868735200,5.9187353515625,2.4838752090796827,-0.4329404583826661,-7.800650369572639
1761467538878718200,5.92871826171875,2.8836715227514502,-0.13430647137612103,-7.839904521596432
1761467538888701200,5.938701171875,2.9667066565737126,0.11979074702858925,-7.324598206955194
1761467538898684200,5.94868408203125,2.6621424027353524,0.3925798064216971,-6.283082490864396
1761467538908667400,5.95866748046875,2.1685461078599095,0.6964118004627525,-4.901835053703189
1761467538918650000,5.968650146484375,1.606773517858982,0.8121677390173078,-3.598800152513385
1761467538928633000,5.978633056640625,1.087673363892734,0.7673363713830709,-2.2851304600626228
1761467538938616300,5.9886162109375,0.7823629678621887,0.561470246053487,-0.5897486844241618
1761467538948599300,5.998599365234375,0.5196826300293207,0.023273908081650734,1.4173679673343895
1761467538958582300,6.008582275390625,0.15698972008824347,-0.5471234485320746,3.443832293641567
1761467538968566300,6.018566162109375,-0.39027182174026964,-0.6878039849847555,5.003442493787408
1761467538978549200,6.02854931640625,-0.9260837487936019,-0.20907924215719104,5.897457033625245
1761467538988532200,6.0385322265625,-2.457566755607724,0.5471260788805783,6.864553760808706
1761467538998515200,6.04851513671875,-5.273531354311109,0.662633011110127,7.416652805796265
1761467539008498200,6.058498291015625,-6.89211046077609,0.5858867482990026,7.200839140817522
1761467539018481200,6.068481201171875,-5.684303527766466,0.9604325931191444,6.992507940548658
1761467539028464400,6.07846435546875,-3.8499423205047845,1.2915442237518726,6.479325778454542
1761467539038447000,6.088447021484375,-2.6883362899169323,1.2723377112396062,5.620462631496787
1761467539048430000,6.09843017578125,-2.237356609235704,1.1440545918062328,4.783016951099038
1761467539058413300,6.108413330078125,-2.2208646163791417,1.2425189115591346,4.2224020067006345
1761467539068396300,6.118396240234375,-2.225142439828813,1.3512557651318609,3.8745436777979134
1761467539078380000,6.128380126953125,-1.9431933379024267,1.2004125849746168,3.3550644613862035
1761467539088363300,6.13836328125,-1.4574848736673593,0.951954979892075,2.6805612720012664
1761467539098346200,6.14834619140625,-0.7651496749937534,0.677425068181008,1.8884727366775274
1761467539108329200,6.1583291015625,-0.08322042726129293,0.3914399887368083,1.0041799649089573
1761467539118312200,6.168312255859375,0.5582119749099016,0.1741965832158923,0.021546645897626875
1761467539128295200,6.178295166015625,0.8026245423853396,0.14093451121374964,-0.9289970058917999
1761467539138278100,6.188278076171875,0.5866331827521324,0.193157742664963,-1.6833230890542268
1761467539148261400,6.198261474609375,0.15576631577312947,0.34216961574181914,-2.125966903066635
1761467539158244000,6.208244140625,-0.04198854542374611,0.4974560390435159,-2.3812223515957593
1761467539168227000,6.21822705078125,-0.03286591229140758,0.6356979501724243,-2.6179344276964662
1761467539178210300,6.228210205078125,0.23986206456422804,0.8520805010803043,-2.89329567566514
1761467539188193300,6.238193359375,0.5928744152292609,0.9783480429075658,-3.2934090924620625
1761467539198177300,6.24817724609375,1.1700462344139815,1.01482893082574,-3.744698569744825
1761467539208160500,6.258160400390625,1.5704840608596802,0.9731643566593527,-4.118537143078446
1761467539218143200,6.268143310546875,1.9870979460805653,0.7861052231304347,-4.369622027924657
1761467539228126200,6.278126220703125,2.4413871897011994,0.49499651706218717,-4.686372101858258
1761467539238109400,6.288109375,2.8287258805990216,0.1279071257278323,-5.049860546091199
1761467539248092400,6.298092529296875,3.1965543998628854,-0.15520049858391283,-5.317105123099684
1761467539258075100,6.3080751953125,3.451616956168413,-0.36005890817567704,-5.422829350852966
1761467539268058400,6.318058349609375,3.7572295500159263,-0.46395372854471206,-5.347359391587973
1761467539278041300,6.328041259765625,3.8866707534432408,-0.4369597770266235,-5.220632123294473
1761467539288024300,6.3380244140625,3.6226094826459883,-0.5053193197645247,-4.829752983310819
1761467539298007300,6.34800732421875,2.992371843706071,-0.5356995527200401,-4.115829637685418
1761467539307991300,6.3579912109375,2.3443787678450345,-0.4637479768395424,-3.2269746725678443
1761467539317974300,6.367974365234375,1.6628712526559828,-0.4680515192523598,-2.3137650183945895
1761467539327957500,6.37795751953125,0.42231764982044695,-0.5540561704047023,-1.4693623584657907
1761467539337940200,6.387940185546875,-1.00755090264678,-0.492853952075541,-0.8412339667648077
1761467539347923200,6.397923095703125,-1.7426883012145757,-0.028060265575349328,-0.13074585628509522
1761467539357906400,6.407906494140625,-1.8513491669416426,0.7062834983967244,1.0764064122080803
1761467539367889400,6.417889404296875,-1.7500521079808473,1.4915959637142717,2.977139495521784
1761467539377872100,6.4278720703125,-2.1934686599314213,1.8105056998997926,5.731625835433602
1761467539387855400,6.43785546875,-3.834523217576742,1.3440119314834476,8.970420709654688
1761467539397838300,6.44783837890625,-6.419971087688207,0.2561589732401073,11.990318565928936
1761467539407821300,6.4578212890625,-6.38982729383707,-1.347921798403561,12.905032194924354
1761467539417804300,6.46780419921875,-4.925921447211504,-2.4798721109181643,11.310339575481414
1761467539427788300,6.477788330078125,-3.8470004218339917,-2.710107392220199,8.855051286199688
1761467539437771300,6.487771240234375,-2.7632869014829398,-2.380137186707556,7.018994380936026
1761467539447754500,6.49775439453125,-1.6651634552463888,-2.061735400044173,5.357707182601094
1761467539457737200,6.5077373046875,-0.7926613667756318,-1.9969408563114701,3.5162884580433365
1761467539467720200,6.51772021484375,-0.4003714832112193,-1.8922949253141879,1.6325053404867649
1761467539477703400,6.527703369140625,-0.10574585506319999,-1.5454941426403819,0.04895838443636894
1761467539487686400,6.537686279296875,0.8100161139413714,-1.1520735014803707,-1.1133633932054041
1761467539497669000,6.547669189453125,1.725253474549949,-0.7698407554194331,-1.9629864181309937
1761467539507652400,6.55765234375,2.0065549262225626,-0.5035334592610597,-2.87919642316401
1761467539517635300,6.56763525390625,2.1326851054057476,-0.45638738494366404,-3.587491992035508
1761467539527618300,6.577618408203125,1.8126444654941558,-0.6768934455223381,-4.088022762349247
1761467539537601300,6.587601318359375,0.8518550217613577,-0.8719207814514637,-4.010342725819349
1761467539547585300,6.597585205078125,0.5172194547861814,-0.8079654650218784,-3.5684137820780277
1761467539557568300,6.607568359375,0.7711790182858705,-0.9597190380223095,-3.5788019051015376
1761467539567551500,6.617551513671875,1.2512453849807381,-1.1478078068599105,-4.045875226971507
1761467539577534200,6.6275341796875,1.69159758092463,-0.8951625408291816,-4.241054100200533
1761467539587517200,6.63751708984375,1.8811410786151885,-0.5171472663328052,-4.216004414618015
1761467539597500400,6.64750048828125,2.2439204977959393,-0.13943331287056207,-4.149681053882837
1761467539607483400,6.6574833984375,2.470336220809817,0.2096210939489305,-4.051510602509976
1761467539617466000,6.667466064453125,2.4684648739799857,0.47293680707588787,-4.055055727770925
1761467539627449300,6.677449462890625,2.412923896282911,0.6331940045274794,-4.1458091808855535
1761467539637432300,6.687432373046875,2.5655367164611813,0.64226607651636,-4.327512486469745
1761467539647415300,6.697415283203125,2.6338483284041283,0.7296640817232429,-4.336901661583781
1761467539657399300,6.7073994140625,2.767620254512131,0.9811379658870398,-4.020160355478525
1761467539667382300,6.71738232421875,2.9897154839783906,1.2231810277521609,-3.5326650078266857
1761467539677365200,6.727365234375,2.92624985076189,1.163365587606281,-2.832481433740258
1761467539687348500,6.737348388671875,2.134090588289499,0.8822634578980505,-2.0204203699678183
1761467539697331200,6.747331298828125,1.1045914732068776,0.24970906644836066,-1.070664653685689
1761467539707314200,6.757314208984375,-0.13087649692744016,-0.39246377882659433,-0.10590309145152568
1761467539717297400,6.76729736328125,-1.266447338026762,-0.9799109083101153,0.6820031897515058
1761467539727280400,6.7772802734375,-2.248652202492952,-1.3260479663781821,1.6059294682502745
1761467539737263000,6.78726318359375,-2.9465444507718086,-1.0301001497156916,2.5274644676983353
1761467539747246300,6.797246337890625,-3.105068833081424,0.052600978722423315,3.3055320764541625
1761467539757229300,6.807229248046875,-3.4511478773519393,1.338506465934962,4.02084132348001
1761467539767212300,6.81721240234375,-4.720254205454886,2.1659585755847393,4.843011108812689
1761467539777196300,6.8271962890625,-6.224093126279115,2.377389495434612,5.6304076869279145
1761467539787179300,6.83717919921875,-6.073807287743687,2.3217383353613315,5.813305170732736
1761467539797162200,6.847162353515625,-4.837393268930912,2.0677958691269156,5.603817786166071
1761467539807145500,6.8571455078125,-3.9215409912943837,1.7391349926471709,5.249527378389239
1761467539817128400,6.86712841796875,-3.214538969364762,1.3223521806001663,4.575055168664455
1761467539827111200,6.877111083984375,-2.890742484050989,1.2677100514389574,3.805537361589074
1761467539837094400,6.887094482421875,-2.67742063588798,1.4142692706666886,3.168287505799532
1761467539847077400,6.897077392578125,-2.3518700003832578,1.4694497444882988,2.4584797787994144
1761467539857060000,6.90706005859375,-1.729604947757721,1.4213086677841842,1.7247504934638738
1761467539867043300,6.917043212890625,-1.0115554621130227,1.209994652312249,1.0139671994298696
1761467539877026300,6.9270263671875,-0.403654450404644,0.7863027915291487,0.41782676814198494
1761467539887009300,6.93700927734375,-0.08662380596399306,0.17020371418744323,-0.15827157659232616
1761467539896993300,6.9469931640625,0.09351590356528758,-0.33018340987190603,-0.6980389632731676
1761467539906976300,6.956976318359375,0.2750523281499743,-0.5108002353936434,-1.2250269478797913
1761467539916959200,6.966959228515625,0.3799661163032055,-0.390688878108561,-1.8580542175382375
1761467539926942500,6.9769423828125,0.38124972637295723,-0.14644611424207687,-2.427366847655177
1761467539936925400,6.986925537109375,0.3864703836306929,0.1468999954894185,-2.8207366354107855
1761467539946908200,6.996908203125,0.5024637842029333,0.421414855761826,-3.075727295523882
1761467539956891400,7.006891357421875,0.6521487342357635,0.6252759248793125,-3.4528485437899827
1761467539966874400,7.016874267578125,1.0789642799973487,0.6514779953673482,-3.780651926657557
1761467539976857300,7.026857421875,1.4010989695787428,0.7270061145603657,-4.023317942726612
1761467539986840300,7.03684033203125,1.755285916981101,0.7334297178670763,-4.24121016754508
1761467539996823300,7.0468232421875,2.2379861393108964,0.7390753225386142,-4.337710055357218
1761467540006807300,7.056807373046875,2.560837452729046,0.6440810169838368,-4.538472281676531
1761467540016790300,7.066790283203125,2.7461002043604847,0.42291430053934453,-4.7985032740443945
1761467540026773200,7.076773193359375,2.929042111828923,0.21895722370147705,-4.893437227714061
1761467540036756200,7.086756103515625,3.3387463637918233,0.07213336218819022,-4.760507013127207
1761467540046739500,7.096739501953125,3.8353742814481255,-0.17568331464231013,-4.340732033526897
1761467540056722400,7.106722412109375,4.111652059739828,-0.4524795638501644,-3.684032211858034
1761467540066705200,7.116705078125,4.112955835814774,-0.6247574539631605,-2.6832278608620164
1761467540076688400,7.1266884765625,3.7172488372832535,-0.6956878701023756,-1.4498399118721483
1761467540086671400,7.13667138671875,2.8497894191548228,-0.7297796709269285,-0.2140226899087429
1761467540096654300,7.146654296875,1.7772826447337864,-0.8216806866414844,0.6784247467428446
1761467540106637300,7.15663720703125,0.4346487236052751,-0.8689775676064193,1.263230129545927
1761467540116620300,7.166620361328125,-1.045328552377224,-0.765781689286977,1.8715490744054317
