time,seconds_elapsed,z,y,x
1761467614613110300,0.1181103515625,1.2656094258978963,-0.8149804583504796,0.056009471991658205
1761467614623093200,0.12809326171875,0.4617138406634331,0.651047494995594,1.9204513447403906
1761467614633076500,0.138076416015625,-0.076575290158391,2.07238524274379,3.791795836484432
1761467614643059500,0.1480595703125,-1.207179156500101,3.361201941227913,5.83295562762022
1761467614653043500,0.15804345703125,-2.944271537403762,4.333874714978039,7.74775815281868
1761467614663026400,0.1680263671875,-4.549562415489554,4.007069987758994,9.236775644347071
1761467614673009400,0.178009521484375,-5.8176394005447625,2.8586016711637376,10.071716648447513
1761467614682992400,0.187992431640625,-5.656816970425844,2.3706642788328227,9.682298813188076
1761467614692975600,0.1979755859375,-4.683638000719249,1.7353735942870379,8.520544021779298
1761467614702958300,0.207958251953125,-3.1733941812887787,1.1085909181065856,7.497997794574498
1761467614712941300,0.21794140625,-1.8857117475315928,1.0597058911673725,6.45495355374217
1761467614722924500,0.227924560546875,-1.4440847093462943,0.7469878492288291,5.85229628790617
1761467614732907500,0.237907470703125,-1.402915663611889,0.24535569354444742,5.537006934174895
1761467614742890200,0.24789013671875,-1.1636194162368774,-0.2145616190910339,5.0237148819655175
1761467614752873500,0.25787353515625,-0.8207412138342857,-0.8073989171802997,4.3817087715595955
1761467614762857500,0.267857421875,-0.3251975842833519,-1.316700584579259,3.5380414401680227
1761467614772840400,0.27784033203125,0.2786962376102805,-1.5603995969578623,2.5138608897596595
1761467614782823400,0.287823486328125,0.8825091032221912,-1.631711121369153,1.3614835830271244
1761467614792806400,0.297806396484375,1.2801818488687275,-1.6945900407388805,0.06417582731246949
1761467614802789400,0.307789306640625,1.5235194805890322,-1.6336571408703922,-1.1958926233321427
1761467614812772600,0.317772705078125,1.843097763685882,-1.4843392705842853,-2.1565186931967735
1761467614822755300,0.32775537109375,1.9531752182126043,-1.2434551694959401,-2.8269559483170505
1761467614832738300,0.33773828125,2.1558757191181184,-1.1505690882667898,-3.2728380135983226
1761467614842721500,0.347721435546875,2.538651047623157,-1.025730994720757,-3.4482781671345233
1761467614852705500,0.35770556640625,2.8664848256289956,-1.0179895868137478,-3.474415063431859
1761467614862688500,0.3676884765625,3.0862291080549356,-0.983732804685831,-3.540624442398548
1761467614872671500,0.37767138671875,3.3561870356753465,-0.9399807567209005,-3.660214113897085
1761467614882654500,0.387654541015625,3.7200831839263437,-0.9451616664901376,-3.732079911190271
1761467614892637400,0.397637451171875,3.9151726253062487,-0.8323135782063007,-3.8307454526036975
1761467614902620400,0.407620361328125,3.8700522115975615,-0.5963666412591934,-3.9740035844594237
1761467614912603400,0.417603271484375,3.959841788116097,-0.37544951566159723,-4.091888205605745
1761467614922586400,0.42758642578125,4.132562161299586,-0.1328460434347391,-4.241927960425615
1761467614932569600,0.437569580078125,4.106147324843705,0.03165478293597698,-4.475943637049198
1761467614942552300,0.44755224609375,3.866587750357389,0.0598790069013834,-4.659496954414248
1761467614952536300,0.457536376953125,3.438152786700427,-0.008403671208024025,-4.794893266853689
1761467614962519300,0.467519287109375,2.790343542973697,0.00988660324215889,-4.928437813946604
1761467614972502500,0.47750244140625,1.9657664042383431,0.02855126396268606,-4.847559273636341
1761467614982485500,0.487485595703125,1.026068556112051,0.2279910095065832,-4.296624596253038
1761467614992468500,0.497468505859375,0.29645664296746255,0.39609453654438254,-3.3938936659961936
1761467615002451500,0.507451416015625,0.18341127854585645,0.3212517692670226,-2.1000082859456537
1761467615012434400,0.517434326171875,-0.1753238336801529,0.1653381539776921,-0.2387052957445383
1761467615022417400,0.52741748046875,-1.0156453617751597,0.022957974000275133,1.7981407238453626
1761467615032400400,0.537400390625,-1.9445272168546914,-0.1668318996667862,3.5406980921566484
1761467615042383400,0.54738330078125,-2.962458059218526,-0.3356009048759937,4.843174774941802
1761467615052367400,0.557367431640625,-3.7328944424435493,-0.33740094003528354,5.803157286205887
1761467615062350600,0.5673505859375,-4.383841399674117,0.02013034935891628,6.341817003905772
1761467615072333300,0.577333251953125,-5.012401460790634,0.8099927330657839,6.624784050703048
1761467615082316300,0.58731640625,-4.974007724988461,1.6329314569443463,6.715929718005657
1761467615092299500,0.597299560546875,-4.902307931911945,2.233843048156798,6.572186432981491
1761467615102282500,0.607282470703125,-4.51999086856842,2.4279008084014055,6.295953662875294
1761467615112265500,0.617265380859375,-4.069637795352936,2.655164088155329,6.215588332784176
1761467615122248400,0.62724853515625,-3.500511043196916,2.6162866604894397,5.973437280499935
1761467615132231400,0.6372314453125,-2.869074257600307,2.5572707001581785,5.282113889217376
1761467615142214700,0.647214599609375,-2.3188453903988004,2.483925185701251,4.373206900674105
1761467615152198400,0.657198486328125,-1.6786182723641394,2.4551734307304023,2.98576294696033
1761467615162181400,0.667181396484375,-0.998003906622529,2.215650681123137,1.5766490132302045
1761467615172164400,0.677164306640625,-0.22768092064410447,1.8454796903863548,0.39681554429531096
1761467615182147600,0.687147705078125,0.6349065075337886,1.310112584491074,-0.6209376034140587
1761467615192130300,0.69713037109375,1.1948808159410953,0.7680868974894285,-1.3695552458018063
1761467615202113300,0.70711328125,1.4495797996312378,0.15911971785426138,-1.9900836838930844
1761467615212096500,0.717096435546875,1.383245332980156,-0.36649317900687456,-2.675259073939919
1761467615222079500,0.72707958984375,1.3108610647708177,-0.7682888498023152,-3.377564462485909
1761467615232062500,0.7370625,1.5146034759446978,-0.9244602392449974,-3.935471901491284
1761467615242045400,0.74704541015625,1.8907237304747104,-0.9544795299336314,-4.537797743415832
1761467615252033300,0.757033203125,2.327064937211573,-1.1383309534624217,-5.114972192949057
1761467615262016300,0.767016357421875,2.928924915190041,-1.2184358790516852,-5.724139279070497
1761467615271999200,0.776999267578125,3.471387240043282,-1.4378274025171995,-6.269706876462697
1761467615281982200,0.786982177734375,3.899360139146447,-2.084839358386397,-6.627391018331051
1761467615291965200,0.796965087890625,3.7734447717577217,-2.497683077418804,-7.054659568557143
1761467615301948400,0.806948486328125,3.147624949260056,-2.7451915650829672,-7.301578565895557
1761467615311931100,0.81693115234375,2.547019939778745,-2.8901430568531152,-7.058480588150024
1761467615321914000,0.8269140625,2.1369699431180953,-2.786213019040227,-6.80078183812201
1761467615331897300,0.8368974609375,1.7549617995932698,-2.5476664209887385,-6.699620388239622
1761467615341881300,0.84688134765625,1.5212418910458683,-2.039928203514218,-6.415170993930101
1761467615351864000,0.856864013671875,1.7328952214747666,-1.5698343647792934,-5.857418453225493
1761467615361847000,0.866846923828125,1.643029364849627,-1.1996472996905445,-4.991696526414156
1761467615371830300,0.876830322265625,1.1789844508901237,-0.6499626223683357,-3.9860049878984687
1761467615381813200,0.886813232421875,1.2084934539690613,-0.08636047885268926,-2.386159807997942
1761467615391796200,0.896796142578125,0.8456874390423298,0.5837485672265291,0.20277824231684208
1761467615401779200,0.906779296875,-0.33799569105803967,1.4172998705342412,3.3482968669474125
1761467615411762200,0.91676220703125,-2.0672183614999056,2.06497145935595,6.057689681157469
1761467615421745400,0.926745361328125,-3.504282962951064,1.8108296711571514,8.199728013581037
1761467615431728000,0.93672802734375,-4.2265272699370975,1.1235562859177588,9.899855522441863
1761467615441712000,0.946712158203125,-4.761978254723549,0.4058817710652947,10.57878003540039
1761467615451695000,0.956695068359375,-4.9278883633702995,0.19053280098885297,10.181363602602481
1761467615461678300,0.96667822265625,-4.880636782851815,-0.03416004375517368,9.136749920496344
1761467615471661300,0.976661376953125,-4.539394657218456,-0.6522007566839456,8.272478777015209
1761467615481644000,0.98664404296875,-4.323921476240455,-0.7749265342511236,7.880453974127769
1761467615491627300,0.996627197265625,-4.275216774304211,-0.8704359497211873,7.177482815149426
1761467615501610200,1.0066103515625,-3.7663431230589746,-0.9505736085362732,6.32188539198935
1761467615511593200,1.01659326171875,-2.858043452759087,-1.0025568937517702,5.2843187057852745
1761467615521576200,1.026576171875,-2.1184493670433757,-1.2070827103883028,3.9693285783857104
1761467615531560200,1.036560302734375,-1.6782842181041835,-1.44550553592965,2.6721646150559186
1761467615541543200,1.046543212890625,-1.2186024677902458,-1.6392238350868225,1.6000731434375046
1761467615551526400,1.0565263671875,-0.7298220487639308,-1.7240023054450748,0.7135767241448163
1761467615561509000,1.066509033203125,-0.27556699967384335,-1.7576625829845667,-0.056068508702516555
1761467615571492000,1.0764921875,0.08856763350814581,-1.6931521168902515,-0.8600380359560251
1761467615581475300,1.086475341796875,0.4898302203401923,-1.712551667756587,-1.6533178268909454
1761467615591458300,1.096458251953125,0.7915580817088484,-1.5794336755126714,-2.326214750123024
1761467615601441000,1.10644091796875,1.1195879668086766,-1.3886150433197617,-2.896441572475433
1761467615611424300,1.11642431640625,1.5273630042746662,-1.4172002095520495,-3.3580022684037685
1761467615621407200,1.1264072265625,1.9377730664193629,-1.2835663767404855,-3.881717514950037
1761467615631391200,1.13639111328125,2.4804309138447045,-1.015361284136772,-4.3308086054056885
1761467615641374200,1.146374267578125,2.989429068252444,-0.6539223197795451,-4.8412762478441
1761467615651357200,1.156357177734375,3.2970486180081964,-0.3546725389622152,-5.242188706064224
1761467615661340200,1.166340087890625,3.5119656264081596,-0.18302432505488395,-5.510752548977733
1761467615671323400,1.176323486328125,3.653268824803829,-0.11011296423152088,-5.900999820798635
1761467615681306000,1.18630615234375,3.5430440707609057,-0.19548574722111223,-6.380115462639927
1761467615691289000,1.1962890625,3.647752107208967,-0.4894380061522126,-6.821020908552407
1761467615701272300,1.206272216796875,3.6735461814180015,-0.6317899829484522,-7.0815253636509174
1761467615711255300,1.21625537109375,3.023626521408558,-0.46225116241052744,-7.036037870195508
1761467615721239300,1.2262392578125,1.9990791835144162,-0.07502411519363522,-6.729173814982175
1761467615731222300,1.23622216796875,1.3506389484077692,0.2116065686777234,-5.954053950116038
1761467615741205200,1.246205322265625,0.8916232607871294,0.5349126401260494,-5.057003403583169
1761467615751188200,1.256188232421875,0.42996173483282324,0.8833093136891722,-4.087544038921594
1761467615761171200,1.266171142578125,0.4789896773740649,1.0652657172515987,-2.7725732007443904
1761467615771154200,1.276154296875,0.34032764113694425,1.2111340316057204,-0.6282318520754575
1761467615781137200,1.28613720703125,-0.6482794915869832,1.038502798010409,1.8712907157301901
1761467615791120400,1.296120361328125,-1.8613889149188994,0.8256260632663964,4.303329646849632
1761467615801103000,1.30610302734375,-3.2246164190039037,0.888608296880126,6.595567308568954
1761467615811086000,1.316086181640625,-4.952480952835082,1.2178627553388475,8.35621504484415
1761467615821070000,1.326070068359375,-5.80457007561326,1.3960077839195728,9.317114086431264
1761467615831053300,1.33605322265625,-5.639865835624933,1.632753177767992,9.258316445025802
1761467615841036300,1.346036376953125,-5.117664500772952,2.1513436286464334,8.691054317697882
1761467615851019300,1.356019287109375,-4.475835500499606,2.7404563532546162,8.072782718622683
1761467615861002200,1.366002197265625,-3.831166308364272,3.1016014492318034,7.388301156058907
1761467615870985200,1.375985107421875,-3.3298464334994553,3.33692440906167,6.528892650178075
1761467615880968400,1.385968505859375,-2.890762650056183,3.363353274042904,5.4934062773793935
1761467615890951200,1.395951171875,-2.2842054541721937,2.8852359955891966,4.3564936662822955
1761467615900934100,1.40593408203125,-1.4185244438931346,2.3082833721131086,3.049565849307179
1761467615910917400,1.41591748046875,-0.5225108391925692,1.7167185781776904,1.5257850874334573
1761467615920901400,1.4259013671875,0.2522936761140823,1.1310812745951115,0.08323065639436245
1761467615930884000,1.435884033203125,0.8074260974481702,0.6254205940470099,-1.120762271285057
1761467615940867000,1.4458671875,1.2133829795762896,0.10842734923213719,-2.0788059234410525
1761467615950850300,1.455850341796875,1.3724743481189012,-0.3269353678613901,-2.868351204022765
1761467615960833300,1.465833251953125,1.380119309914112,-0.6986151557259261,-3.5062095470994707
1761467615970816300,1.475816162109375,1.414118610149622,-1.0109924214027821,-4.142438243147731
1761467615980799200,1.48579931640625,1.4807117277368902,-1.361355572733283,-4.751333526590466
1761467615990782200,1.4957822265625,1.7035066299051045,-1.6652153315640985,-5.215615756437182
1761467616000765400,1.505765380859375,2.0630758548676966,-1.9307355689980088,-5.544125826269388
1761467616010749200,1.515749267578125,2.3290692627713083,-1.9588240377545356,-5.828006480780243
1761467616020732200,1.525732177734375,2.802622886571288,-1.9791125002846122,-6.150023096939921
1761467616030715100,1.535715087890625,3.2422657652020455,-1.9649226468905805,-6.447007563173771
1761467616040698400,1.545698486328125,3.5308936142399907,-1.8475374996989964,-6.758851744887233
1761467616050681000,1.55568115234375,3.6943463928624984,-1.730051084090024,-6.932611982512474
1761467616060664000,1.5656640625,3.6980168980687855,-1.6041517910532652,-6.88401600164771
1761467616070647300,1.575647216796875,3.4470416110768913,-1.2829770325452088,-6.561711216196417
1761467616080630300,1.58563037109375,3.1980221343278883,-0.8732080447830259,-5.870149339982867
1761467616090613200,1.59561328125,2.949119561956823,-0.7263501348696648,-4.952545834764838
1761467616100596200,1.60559619140625,2.799588048920035,-0.6509519256666302,-3.8213533548802134
1761467616110580200,1.615580322265625,2.72619986436516,-0.4361103205904364,-2.2995044378519056
1761467616120563200,1.625563232421875,2.380618832744658,-0.04383811881318688,-0.46795244279205794
1761467616130546400,1.63554638671875,1.633717054364085,0.38887773703336714,1.4863865585029123
1761467616140529200,1.645529052734375,0.3909451909571886,0.8566394795589148,3.41642932293117
1761467616150512000,1.65551220703125,-1.1358601794347167,1.0789949673965573,5.261239443492889
1761467616160495400,1.665495361328125,-2.6051401203140614,1.3197699090220034,7.134713933002948
1761467616170478000,1.67547802734375,-3.926486631003022,1.5927302333287894,8.535397892040013
1761467616180461000,1.6854609375,-4.626080422502755,1.8951381859160958,8.969908668479324
1761467616190444300,1.6954443359375,-4.220912352664769,2.032874631740898,8.681439517134427
1761467616200428300,1.70542822265625,-3.532923658762872,1.7263855473197995,7.553937708461284
1761467616210411300,1.715411376953125,-2.83681361772567,1.1723727776654065,6.259172038444876
1761467616220394200,1.725394287109375,-2.461382806764543,1.041702763095498,5.561138335868716
1761467616230377200,1.735377197265625,-2.689339914001524,0.7179083236083388,5.240918539997935
1761467616240360200,1.745360107421875,-2.7400302367970344,0.27805662453249097,5.087837517786026
1761467616250343400,1.755343505859375,-2.5925498110711573,-0.19093962822407484,4.816287352538109
1761467616260326400,1.765326416015625,-2.196453520961106,-0.587914308603853,4.260655457249284
1761467616270309000,1.77530908203125,-1.6024343196108937,-0.8630793033480644,3.485688737118244
1761467616280292400,1.785292236328125,-0.852943693780899,-1.1661126943573354,2.640057412177324
1761467616290275300,1.795275390625,-0.1149210951656103,-1.5108185505785048,1.7017162393569945
1761467616300259300,1.80525927734375,0.4104284745842218,-1.8064146311938762,0.6684557259142399
1761467616310242300,1.8152421875,0.8608744867801665,-1.8893090413711964,-0.4323246645718813
1761467616320225300,1.825225341796875,1.2367854824736713,-1.832589375283569,-1.2572726824462412
1761467616330208300,1.835208251953125,1.3303957863241433,-1.5727973062381146,-2.094414995983243
1761467616340191500,1.84519140625,1.5189152016639709,-1.3000570544227956,-2.8443530733197924
1761467616350174200,1.85517431640625,1.7888564704105256,-1.0876868078961968,-3.427737483409047
1761467616360157200,1.8651572265625,2.1374954282969236,-0.8757990841895341,-3.9971845535606145
1761467616370140400,1.875140380859375,2.379437806266546,-0.6985853451095521,-4.737608952620625
1761467616380123400,1.885123291015625,2.6178429500207305,-0.5305285798229277,-5.574690475881099
1761467616390107400,1.895107421875,2.9929581191614267,-0.33533991585224865,-6.322702553591132
1761467616400090000,1.905090087890625,3.4089944967553016,-0.2082622266858816,-6.966634663623571
1761467616410073300,1.9150732421875,3.6374469862937926,-0.09178674168512224,-7.605169883048534
1761467616420056300,1.925056396484375,3.404357484604418,0.14439312723502515,-8.045047739478946
1761467616430039300,1.935039306640625,3.0557369391575455,0.49580242661759255,-8.06104142742455
1761467616440022300,1.945022216796875,2.5383748610302805,0.8245672018632292,-7.741077067619561
1761467616450005200,1.955005126953125,2.0517069041132925,1.0848549454711376,-6.885981748762727
1761467616459988500,1.964988525390625,1.5721753749474883,1.0889916068844496,-5.754964625445008
1761467616469971200,1.97497119140625,0.8141931073650718,1.0532140449300407,-4.203766279813647
1761467616479954200,1.9849541015625,0.4383087074175477,1.0358025991410016,-1.9465783041656015
1761467616489938200,1.994938232421875,0.7586617742791771,0.8280605969369411,0.7541536492049694
1761467616499921400,2.00492138671875,0.14807283866107462,0.5830374963477254,3.7639854540169235
1761467616509904400,2.014904296875,-1.6287483260408042,0.35021541342288254,6.204589384385943
1761467616519887000,2.02488720703125,-3.629152912940085,0.12733634010255335,7.662895511308312
1761467616529870300,2.034870361328125,-4.921943775752187,-0.009157996706664562,8.595451670986414
1761467616539853300,2.044853271484375,-4.867988605941831,0.3932832785159349,8.771585652005673
1761467616549836300,2.054836181640625,-4.643748765662313,1.4309563477039335,7.999320592048764
1761467616559819300,2.0648193359375,-4.15555023817718,2.1628674777016044,7.28721160236895
1761467616569802200,2.07480224609375,-3.3128596428632733,2.556576872675121,6.68453621635437
1761467616579786200,2.0847861328125,-2.5881325791507956,2.6525001296430823,5.9477387756198645
1761467616589769500,2.09476953125,-2.3419635233968497,2.468169690425694,5.201363943722844
1761467616599752200,2.104752197265625,-2.2907728498637674,2.1703666012853384,4.4420589031040665
1761467616609735200,2.114735107421875,-2.0629957753688095,1.825393180169165,3.587351706781983
1761467616619718400,2.124718505859375,-1.5010826078534125,1.4873527731865643,2.5646651943236587
1761467616629701400,2.134701416015625,-0.7482146145448089,1.1881328029856084,1.3334428989350795
1761467616639684000,2.14468408203125,-0.048151744228601454,0.8376157762676477,0.047365562286972994
1761467616649667300,2.154667236328125,0.4004544853195548,0.48430561169981956,-1.0181979688674212
1761467616659650300,2.164650390625,0.6043161389589309,0.1722287902742624,-1.807313625860214
1761467616669633300,2.17463330078125,0.552101383075118,-0.06397285208627582,-2.352442247313261
1761467616679617300,2.1846171875,0.4833391047552228,-0.15580957039296625,-2.6806238158434628
1761467616689600300,2.194600341796875,0.34755028586685655,-0.24025091775134205,-2.9224352609097957
1761467616699583200,2.204583251953125,0.21895079396069048,-0.31594606407433745,-3.202468592342734
1761467616709566500,2.21456640625,0.2832090388596058,-0.43208764094561336,-3.504292315301299
1761467616719549200,2.224549072265625,0.679136402143538,-0.5065855403080582,-3.960084364700317
1761467616729532200,2.2345322265625,1.2088310153603552,-0.5354480621770024,-4.506784765514731
1761467616739515400,2.244515380859375,1.7026777778655289,-0.587531008374691,-5.058824189269543
1761467616749498400,2.254498291015625,2.2380530670672654,-0.7636746340051292,-5.65039132129252
1761467616759481000,2.264481201171875,2.948633532005548,-1.0345157742008566,-6.340275619682669
1761467616769465000,2.274465087890625,3.6407144636571407,-1.2750623138979076,-6.842343098044395
1761467616779448300,2.2844482421875,4.075509025473893,-1.4367805238127707,-7.233160278707742
1761467616789431300,2.294431396484375,4.059552162407338,-1.532512642122805,-7.441287480837106
1761467616799414300,2.304414306640625,3.814339968986809,-1.6811812547199427,-7.300605921471118
1761467616809397200,2.314397216796875,3.5189477403804656,-1.8532197831191122,-6.877427855429053
1761467616819380200,2.324380126953125,3.084180943353474,-1.9209683543518183,-6.282797828704118
1761467616829363500,2.334363525390625,3.0836221404269337,-1.4668655732139944,-5.078717222741246
1761467616839346400,2.344346435546875,2.6978178194895386,-1.0549414532445371,-3.4408231749534606
1761467616849329200,2.3543291015625,1.5281071006402371,-0.863916484824568,-1.683673217666149
1761467616859313200,2.364313232421875,0.6280453895926476,-0.7836313803628087,0.49675885055959224
1761467616869296400,2.37429638671875,0.1655290003746748,-0.5706253201507031,2.996554974609613
1761467616879279400,2.384279296875,-0.8308487663507461,0.04116656151637435,5.2579176055938
1761467616889262000,2.394261962890625,-2.3318276215687392,1.4277927691064773,7.12686029689312
1761467616899245300,2.404245361328125,-3.417662079596519,2.7557600131094455,8.503415192323923
1761467616909228300,2.414228271484375,-3.069984075696766,3.3215894772857424,9.03075096745491
1761467616919211300,2.424211181640625,-2.673747792594135,3.354571709433198,8.452706749349833
1761467616929194200,2.4341943359375,-3.0906501393675803,3.074414459359646,7.542302215725183
1761467616939177200,2.44417724609375,-3.747330087292194,2.352991551759094,6.714663643592596
1761467616949161200,2.4541611328125,-3.5344185734957456,1.2526779020018874,6.354947703635692
1761467616959144400,2.46414453125,-3.2386125033915043,0.6076223408974707,6.026887715658545
1761467616969127400,2.47412744140625,-3.037775166009366,0.36650735366269943,5.770242274075747
1761467616979110100,2.484110107421875,-2.611728851054609,0.30267391004711386,5.5425400183826685
1761467616989093400,2.49409326171875,-2.1751737093061205,0.17103943435922264,5.108669877934456
1761467616999076400,2.504076416015625,-1.94814774543941,0.04824190673008561,4.380985133460164
1761467617009059000,2.51405908203125,-1.5666881757080553,-0.10141308655589819,3.5429455788224935
1761467617019042300,2.524042236328125,-0.9446399807035922,-0.39816710503473873,2.51026081944108
1761467617029025300,2.534025390625,-0.32498014214038845,-0.7856547028839588,1.4123440016925335
1761467617039008300,2.54400830078125,0.31232962714284657,-1.1767676516234875,0.3329273017525673
1761467617048992500,2.553992431640625,0.7803831922218203,-1.5987958169780672,-0.7070382622867822
1761467617058975200,2.563975341796875,1.1006941735073923,-1.869918550594151,-1.7096522930532694
1761467617068958200,2.573958251953125,1.2444351204439996,-1.9862762544341384,-2.7198136704593896
1761467617078941400,2.58394140625,1.4709326765224338,-2.0668647257566453,-3.578584462958574
1761467617088924400,2.59392431640625,1.8098703246057033,-2.0197011157825586,-4.310573626628518
1761467617098907100,2.6039072265625,2.274270627874136,-2.0987962798073885,-5.028047942733765
1761467617108890400,2.613890380859375,2.803312914662063,-2.084675692257285,-5.486039548003673
1761467617118873300,2.623873291015625,3.31761268260926,-1.6991551566973329,-6.0169584423184395
1761467617128856000,2.63385595703125,3.604974164973199,-1.4760111488305032,-6.275559694144129
1761467617138840300,2.64384033203125,3.640849488213658,-1.2969817386306821,-6.422791405805945
1761467617148823300,2.6538232421875,3.614431729148328,-1.1119941506788134,-6.448489326164126
1761467617158806300,2.66380615234375,3.544818971478939,-0.8838815606191753,-6.410957175627351
1761467617168789500,2.67378955078125,3.657384443429112,-0.6641632894173264,-6.268493409019708
1761467617178772200,2.683772216796875,3.508658109295368,-0.3892737506136298,-6.089279582163691
1761467617188755200,2.693755126953125,3.2566455882102248,-0.05221563266664743,-5.868468255028128
1761467617198738400,2.703738525390625,3.1888714441448447,0.26791663105115293,-5.336150015309452
1761467617208721400,2.713721435546875,2.991547375580668,0.5365409719802439,-4.370750739693642
1761467617218704100,2.7237041015625,2.364133854150772,0.957729910031706,-3.186177967277169
1761467617228687400,2.733687255859375,1.5471926171213388,1.3477008491292595,-1.576288363224268
1761467617238671400,2.74367138671875,0.4858329673975706,1.2342090561144052,0.646256169065833
1761467617248651000,2.753651123046875,-0.6317302155852318,0.9540583819121122,3.135415748289227
1761467617258634000,2.763634033203125,-1.6790581250861285,0.88310823815912,5.488948713448643
1761467617268617200,2.7736171875,-3.256861569048464,0.8374751987531781,7.230928574132919
1761467617278600000,2.783599853515625,-4.87572212280333,0.8805287430599331,8.280120231679081
1761467617288583200,2.793583251953125,-5.196718748265504,1.1263789421230554,8.603203015765548
1761467617298566100,2.803566162109375,-4.653235263670981,1.7381582565695046,8.168739001077412
1761467617308549000,2.813549072265625,-4.456880624660849,2.3531290605336426,7.282189390292763
1761467617318532000,2.823531982421875,-4.404450472460687,2.442676644989848,6.477654630371928
1761467617328516000,2.83351611328125,-3.9665015382662414,2.420403146122396,5.740461468318104
1761467617338499000,2.8434990234375,-3.4727933074489234,2.382364215107262,5.274028197917342
1761467617348482000,2.85348193359375,-3.2162416816294193,2.1994641009539366,4.819503976497054
1761467617358465300,2.86346533203125,-2.80601311353147,2.0598238673344254,4.058547661539912
1761467617368448000,2.873447998046875,-2.211080012206733,1.8035332305386662,3.0660844379097223
1761467617378431000,2.883430908203125,-1.605096524557471,1.5362833928331732,1.997796450227499
1761467617388414200,2.893414306640625,-0.9508055175960063,1.122506922995299,0.8930658608108758
1761467617398397200,2.903397216796875,-0.32586773862987756,0.7485166662313044,-0.13021627945303915
1761467617408380000,2.9133798828125,0.29683482863008975,0.35429786043092604,-1.0538169792592524
1761467617418364200,2.9233642578125,0.6660460344240069,0.004848901335895061,-1.888189828082919
1761467617428347100,2.93334716796875,0.9223799258396029,-0.2553274908520281,-2.5683669714510438
1761467617438330000,2.943330078125,1.1906897939920424,-0.5147942734658718,-3.064114599141478
1761467617448313000,2.95331298828125,1.4092033655792473,-0.7102440725907683,-3.428792545419931
1761467617458296000,2.963296142578125,1.7008642987027762,-0.8792455713815986,-3.812129599460959
1761467617468279000,2.973279052734375,1.8780773071303962,-1.0124754995673895,-4.236949002969265
1761467617478262300,2.98326220703125,2.1032573508694767,-0.9487364562369882,-4.562014485305547
1761467617488245000,2.993244873046875,2.3737653135880827,-0.9226987825304269,-4.756485502526163
1761467617498228000,3.00322802734375,2.5028350533545014,-0.9056561700537801,-5.010334006866812
1761467617508211200,3.013211181640625,2.7603178225442764,-0.9372368648402393,-5.127140185126662
1761467617518195200,3.0231953125,2.9943983810976147,-1.0512263782441615,-5.163669880622625
1761467617528178000,3.033177978515625,3.2459251644924283,-1.2164528885409236,-5.277319640678167
1761467617538161200,3.0431611328125,3.6882609354689717,-1.255777767713368,-5.306071103388071
1761467617548144000,3.05314404296875,3.970715064308047,-1.5168515471324324,-5.107642872974276
1761467617558127000,3.063127197265625,4.282404347720742,-1.63459836724326,-5.118946357277036
1761467617568110000,3.073110107421875,4.5572076695457095,-1.9939364137984812,-4.83642646972537
1761467617578093000,3.083093017578125,4.193281126156449,-1.8460493069678543,-4.1610979354321955
1761467617588076000,3.093075927734375,3.1510996396332978,-1.8053937637135384,-2.931401826697588
1761467617598059300,3.103059326171875,1.5981576652050018,-1.2325886153057217,-1.6041729799717663
1761467617608043300,3.113043212890625,-0.05681698898226022,-0.9503107198163866,-0.30414018320739267
1761467617618026000,3.12302587890625,-1.2771236303418874,-0.42407910653501746,1.4210136303603649
1761467617628009000,3.133009033203125,-1.7154647787243127,0.7084925527483225,3.330760625734925
1761467617637992200,3.1429921875,-2.149618996810913,1.687427601763606,4.471915696707367
1761467617647975200,3.15297509765625,-2.638608966934681,2.5473048941999674,5.091432327407598
1761467617657958100,3.162958251953125,-3.202136876170337,2.914932045672834,5.770688264277577
1761467617667941000,3.172941162109375,-3.9647164084151383,2.838975179673731,6.391515393054485
1761467617677924000,3.182924072265625,-4.628316803252697,2.076099879352748,6.746847418838739
1761467617687907000,3.192906982421875,-4.412469236004353,1.089916028252989,6.88897742344737
1761467617697890000,3.20289013671875,-3.516234389768541,0.19680252890810368,6.899647286021709
1761467617707874000,3.2128740234375,-2.6395383567392825,-0.2089097308091819,6.815556213405728
1761467617717857000,3.22285693359375,-2.1157965144470334,-0.27721608205512166,6.375476112401485
1761467617727840300,3.23284033203125,-1.7039114113137126,-0.25948285696581,5.5549242836594575
1761467617737823000,3.242822998046875,-0.9829892928421496,-0.255660522198677,4.47081036581397
1761467617747806000,3.252805908203125,-0.4352466894984245,-0.2987625818222761,3.261610517141223
1761467617757789200,3.2627890625,-0.12838058845847844,-0.3067597180560231,2.1084669022113083
1761467617767772200,3.272772216796875,0.25357903974950313,-0.3120579705946147,1.2019593760251999
1761467617777755100,3.282755126953125,0.691605715355277,-0.34761852879747746,0.3966472019910812
1761467617787738000,3.292738037109375,1.2320119844615458,-0.43919206612333656,-0.3936515273064375
1761467617797722000,3.30272216796875,1.8194114754110573,-0.41781960774883625,-1.160740645930171
1761467617807705000,3.312705078125,2.182012030893564,-0.3922314313754439,-1.9868062696576116
1761467617817688000,3.32268798828125,2.611225285446644,-0.3719235334925353,-2.7535037586152553
1761467617827671000,3.332671142578125,3.1100539280176163,-0.46198184394985436,-3.312643954285979
1761467617837654000,3.342654052734375,3.342344096022844,-0.5215726815596222,-3.918267084190249
1761467617847637200,3.35263720703125,3.4144390258967876,-0.6120103467233479,-4.620444462442398
1761467617857620000,3.362619873046875,3.4938860720992087,-0.7563616806432605,-5.237357048124075
1761467617867603000,3.37260302734375,3.41527313863337,-0.9096195207267999,-5.83511894313395
1761467617877586200,3.382586181640625,3.5169483832567927,-1.0595537693455814,-6.433096526721119
1761467617887569200,3.392569091796875,3.6696459591090678,-1.2194193371310829,-6.9445824062913655
1761467617897553200,3.40255322265625,3.507881864225864,-1.253415568626672,-7.264979896816611
1761467617907536100,3.4125361328125,3.2032769861161707,-1.2944555811539291,-7.292806645897031
1761467617917519000,3.42251904296875,2.853452325576544,-1.0014503938145936,-7.086741052472591
1761467617927502000,3.432502197265625,2.2488217138409614,-0.7019086443133652,-6.312366453015804
1761467617937485000,3.442485107421875,1.0312953508496283,-0.5767703987769782,-4.882526542121171
1761467617947468000,3.452468017578125,-0.5521481448262929,-0.4763732112653553,-3.312543416520953
1761467617957451000,3.462450927734375,-0.8316714809104799,-0.5082973126620054,-1.615686307632923
1761467617967434200,3.472434326171875,-0.11852116548418998,-0.9881345467761158,0.35829029106795784
1761467617977417000,3.4824169921875,-0.2975380084633827,-1.4493964058883488,2.3243483717292546
1761467617987401000,3.49240087890625,-1.7147002240926026,-1.5011688248321413,4.112377451404929
1761467617997384200,3.50238427734375,-3.294650616955757,-0.9646218615025282,5.726430020356178
1761467618007367200,3.5123671875,-3.791749074733257,0.0870114901073277,6.884574220052361
1761467618017350100,3.52235009765625,-3.2902386457324027,1.2435045615956186,7.57861856073141
1761467618027333000,3.5323330078125,-2.9716748003751037,2.337431871316582,7.8352745237082235
1761467618037316000,3.542316162109375,-2.739132118913531,3.1941534762009978,7.822932344007492
1761467618047299000,3.552299072265625,-2.5612410650938746,3.3930566306501624,7.809777094358205
1761467618057282000,3.562281982421875,-2.658319921837747,3.3350860877186057,7.470752060252428
1761467618067265000,3.57226513671875,-2.7603347736790775,3.0162375802010297,6.849602275392413
1761467618077248000,3.582248046875,-1.9547522582709789,2.4221622647494074,5.875694699150324
1761467618087232000,3.59223193359375,-0.9869920987427234,1.9333084882259368,4.423489811712503
1761467618097215200,3.60221533203125,-0.6687792587801814,1.724288282779604,3.0612311526596545
1761467618107198000,3.612197998046875,-0.7030354563862085,1.6824800623588263,1.7282184618353842
1761467618117181200,3.62218115234375,-0.5823416230380535,1.5951244349889457,0.6445242307066917
1761467618127164200,3.6321640625,-0.3370703929066658,1.451307500206679,-0.28675767125189305
1761467618137147100,3.642147216796875,-0.15873714827746152,1.0656741519220172,-1.0273884065389634
1761467618147130000,3.652130126953125,-0.17786475033462046,0.6809170019499957,-1.8058873924493788
1761467618157113000,3.662113037109375,-0.059895081253349775,0.23470775054097173,-2.510194183945656
1761467618167096000,3.672095947265625,0.16320727942883967,-0.1781073269188404,-3.050632017233968
1761467618177080000,3.682080078125,0.4397299723923206,-0.4130350038208067,-3.609657646614313
1761467618187063000,3.69206298828125,0.7227700844258069,-0.4807968729265034,-4.448434283354878
1761467618197046000,3.7020458984375,0.9597136311948299,-0.42605420600026844,-4.994685186836123
1761467618207029000,3.712029052734375,1.2633131316542625,-0.4259688658043742,-5.3041994642972945
1761467618217012200,3.72201220703125,1.3775041589796542,-0.550202855977416,-5.457495006042719
1761467618226995000,3.731994873046875,1.31709528298527,-0.3077602734006941,-5.37395864470005
1761467618236978200,3.741978271484375,1.4637211377084254,0.0461072327889502,-5.177589684903621
1761467618246961200,3.751961181640625,1.691180232295394,0.2732198520258069,-4.955785839599371
1761467618256943000,3.761943115234375,1.890592213049531,0.3250459008529782,-4.480087897247076
1761467618266927400,3.77192724609375,2.1563602877646684,0.42242695541381836,-3.804775729566812
1761467618276910000,3.78191015625,2.301559032294154,0.41349166154712436,-3.0918916638612743
1761467618286893000,3.79189306640625,2.3186560053065417,0.3660506959363818,-2.296857138213515
1761467618296876300,3.801876220703125,2.359609070202708,0.3758861535131931,-1.539696708407998
1761467618306859300,3.811859375,2.4709394473999735,0.4453440128818154,-0.8697481135874986
1761467618316842000,3.821842041015625,2.308038165180385,0.5630814806424081,-0.22119944967031477
1761467618326825200,3.8318251953125,1.7495698774218558,0.7189744915351272,0.38484161338508127
1761467618336808200,3.84180810546875,0.9181623081445693,0.9706083885662257,0.9277893836677074
1761467618346791200,3.851791259765625,0.14393120881170032,1.1597022427931427,1.4820055669397114
1761467618356775200,3.861775146484375,-0.22497721464335918,1.305378103315085,1.8499474834501741
1761467618366758100,3.871758056640625,-0.3153098119974136,1.2839648745387793,1.9917863961577413
1761467618376741000,3.8817412109375,-0.3327224268302321,0.9756491592124104,1.9630746809363364
1761467618386724400,3.891724365234375,-0.22827158001363276,0.8492594523102045,1.943041362211108
1761467618396707000,3.90170703125,-0.33467151507139203,0.8203050143741071,1.9522358915358782
1761467618406690000,3.91168994140625,-0.9067632545128465,0.7015968018852173,2.1872879254698754
1761467618416673300,3.92167333984375,-1.5537842704713343,0.4556855202846229,2.6065514484167096
1761467618426656300,3.93165625,-1.7578946381747722,0.36793884777054187,2.9233272413134572
1761467618436639000,3.941638916015625,-1.5549056757166981,0.3682824005112052,3.1775632836669683
1761467618446622200,3.951622314453125,-1.3487211320877075,0.29254473022073507,3.383532430979609
1761467618456606200,3.961606201171875,-1.111750697311759,0.10258023063912987,3.5862095510095355
1761467618466589200,3.971589111328125,-0.7792863368958234,-0.025525486400723454,3.6272266210526225
1761467618476572200,3.981572265625,-0.40510172660350796,-0.2428146307595074,3.5621506300300356
1761467618486555100,3.99155517578125,-0.2073722921088338,-0.455689027415961,3.368719477251172
1761467618496536300,4.001536376953125,-0.1357455642685294,-0.7077784131295979,3.082502488747239
1761467618506519000,4.01151904296875,-0.1543354061871767,-0.9505036120399832,2.8457465735048055
1761467618516502000,4.021501953125,-0.15685118840038775,-1.0584624669775367,2.443831075721979
1761467618526486300,4.031486328125,0.014439151979982853,-1.0405936328098178,1.7661989406615495
1761467618536469200,4.04146923828125,0.4208902473658323,-1.1234789828978478,1.0622913776159286
1761467618546452200,4.0514521484375,0.970955740699172,-1.2397628908492624,0.30087212132215496
1761467618556435200,4.061435302734375,1.6555366719841955,-1.439167126688361,-0.4135772940039634
1761467618566418200,4.071418212890625,2.1152719060510394,-1.4888247454352677,-1.20841191316545
1761467618576401200,4.081401123046875,2.0538743112802504,-1.3211163551948963,-1.7472171768158673
1761467618586384100,4.091384033203125,1.8023448975369334,-0.8796461150065064,-2.184694401845336
1761467618596367000,4.1013671875,1.4348337736591696,-0.6643608578160405,-2.5017238772422075
1761467618606350000,4.11135009765625,1.2480007039710879,-0.3484564409263432,-2.766529244405031
1761467618616333300,4.121333251953125,1.4901242837265134,-0.18457681519389152,-2.9925223580926654
1761467618626317300,4.1313173828125,1.7590245189875364,-0.09772168469205499,-3.2891981967687607
1761467618636300000,4.141300048828125,1.8863795637905596,-0.05931304358169436,-3.65681102745533
1761467618646283300,4.151283203125,2.2940029178261754,-0.12730857531279324,-4.160237519210577
1761467618656266200,4.161266357421875,2.8262252959549423,-0.15191227069348096,-4.804619711098074
1761467618666249200,4.171249267578125,3.174971513608098,-0.15631445117518306,-5.446486120772361
1761467618676232200,4.181232177734375,3.012251140913367,0.2394027764894068,-5.772132617866992
1761467618686215200,4.191215087890625,2.1426167168334125,0.9017001259043812,-5.205931982290744
1761467618696198100,4.2011982421875,0.7331476860553026,1.0903417063191532,-3.6395021652579307
1761467618706181400,4.211181396484375,-0.43946050780117507,1.070877419653535,-1.6048627158015965
1761467618716165000,4.2211650390625,-1.16851946323812,0.6874357361942529,0.0015647650986909865
1761467618726148000,4.231148193359375,-1.1297294215947389,0.1513832783833146,1.7466145347476005
1761467618736131000,4.241131103515625,-1.7592621271356939,-0.1169300969004631,3.3089602973371743
1761467618746114300,4.2511142578125,-3.0681296800017357,0.042214755395054815,4.1998470605432985
1761467618756097000,4.261096923828125,-3.6779777341246604,0.45987668836414813,4.454484669435024
1761467618766080300,4.271080322265625,-3.9421538634732363,0.9270283361673355,4.639775185856223
1761467618776063200,4.281063232421875,-4.254219286721945,1.3586632649093866,4.830127661842107
1761467618786046200,4.291046142578125,-4.516925635778904,1.7857921144038438,4.9988767933070655
1761467618796029200,4.301029296875,-4.520775881466269,1.6482836321160197,5.23926785018146
1761467618806012200,4.31101220703125,-4.1541137756332756,1.3471303557649255,5.420667788904905
1761467618815996200,4.32099609375,-3.561810730551183,1.292189974309504,5.185123587539792
1761467618825979100,4.330979248046875,-2.818870257017016,1.3429022166758775,4.48929353248775
1761467618835962000,4.340962158203125,-2.039243728381395,1.409817405824363,3.535138704463839
1761467618845945000,4.350945068359375,-1.2095593296349048,1.3298736621461809,2.346424009937048
1761467618855928000,4.360927978515625,-0.49596448531150816,1.1111197059318423,1.1682441534280776
1761467618865911300,4.370911376953125,0.09987930111736058,0.9834930045805871,0.12816869927346705
1761467618875894000,4.38089404296875,0.7025856667920947,0.676648384720087,-0.8917734829127788
1761467618885877200,4.390877197265625,1.15407505056113,0.2868978103749454,-1.8006535834491253
1761467618895860200,4.400860107421875,1.4628706583589315,-0.08589666073322295,-2.563752755653858
1761467618905844200,4.41084423828125,1.6034826596200464,-0.4714898231379688,-3.1439836701482533
1761467618915827200,4.4208271484375,1.8051622930452227,-0.5235786145545542,-3.6445974425703285
1761467618925810200,4.43081005859375,2.0859324143201112,-0.3779905784465372,-4.235060412743687
1761467618935793200,4.440793212890625,2.465436758330464,-0.23290990733876824,-4.923883803904056
1761467618945776000,4.450776123046875,2.873576829716563,-0.13659823557510972,-5.474302932980656
1761467618955759400,4.46075927734375,3.2252345509022473,-0.09960720617771147,-5.778662896418571
1761467618965742000,4.4707421875,3.6263986457958817,-0.29243060232177376,-6.077150168430805
1761467618975725000,4.48072509765625,4.1663177159070965,-0.7254166534118354,-6.251361656954884
1761467618985708300,4.490708251953125,4.705169741308689,-0.9672793902739882,-6.158923611754179
1761467618995691000,4.50069091796875,5.021663794654607,-1.2990814873889087,-6.058355451589822
1761467619005675000,4.510675048828125,4.82519897326827,-1.650050934049487,-5.898461826753616
1761467619015658200,4.520658203125,4.226936727520823,-1.740682075958699,-5.490516985678672
1761467619025641200,4.53064111328125,3.667549863612652,-1.6210593789733945,-4.940163907575607
1761467619035624200,4.540624267578125,3.1729560821324587,-1.3184747546449302,-4.368060769957304
1761467619045607200,4.550607177734375,2.496200145384669,-0.947445393513143,-3.63346054700613
1761467619055590100,4.560590087890625,1.9013310492068527,-0.5048367969445884,-2.517980600038171
1761467619065573000,4.570572998046875,1.1148761358559132,0.06262655204385519,-0.9976163686096667
1761467619075556400,4.580556396484375,0.14746931980997324,0.784154819715023,0.8819353949874639
1761467619085542100,4.590542236328125,-1.105739474198222,1.7641041603393852,3.0030595341980457
1761467619095525400,4.600525390625,-2.6960364890307185,2.469060501785576,4.935603467792272
1761467619105508000,4.610508056640625,-4.244375938099623,2.912881835144758,6.374402345690131
1761467619115491000,4.620490966796875,-5.077094005453587,2.854505049499869,7.174524549865723
1761467619125475000,4.63047509765625,-4.942491473740339,2.434404637337476,7.300287941563129
1761467619135458300,4.640458251953125,-4.119508033937215,1.8134141346924006,6.955062883773445
1761467619145441000,4.65044091796875,-3.574455984851718,0.9797307294376194,6.659400606054067
1761467619155424000,4.660424072265625,-3.7133544601932167,0.2954359216175973,6.7592977350890635
1761467619165407200,4.6704072265625,-4.1959357323184605,-0.3759843531906605,6.867032133620977
1761467619175390200,4.68039013671875,-4.214883886155486,-0.8114572526603937,6.533422110301256
1761467619185373200,4.690373291015625,-3.8578029708772896,-1.2863254661902785,5.924947682619094
1761467619195356200,4.700356201171875,-3.261026579773426,-1.4937836830168962,5.181982366904616
1761467619205339100,4.710339111328125,-2.582854638747871,-1.6410910902634261,4.248365884518623
1761467619215322400,4.720322265625,-1.7207529482603072,-1.7603338480204342,3.259780379104614
1761467619225306400,4.730306396484375,-0.8426903030529618,-1.8941797161474823,2.1328280210077764
1761467619235289000,4.7402890625,-0.17150690574049948,-2.0171990698337554,0.8631517840623855
1761467619245272000,4.75027197265625,0.4012301458671689,-2.066326527226716,-0.3549503329902887
1761467619255256300,4.76025634765625,0.8472022275194525,-2.012410374252498,-1.3274638245254755
1761467619265239300,4.7702392578125,1.2220423791110515,-1.6484947906486689,-1.810497516593337
1761467619275222300,4.78022216796875,1.4742361019819974,-1.3104784951940178,-2.1109528738081456
1761467619285205200,4.790205322265625,1.6121879441231488,-1.022241691300273,-2.6764135046720505
1761467619295188200,4.800188232421875,1.7139271938934921,-0.6537617223903537,-3.1888907333672045
1761467619305171200,4.810171142578125,1.6825015435382722,-0.4336000913351774,-3.447368651074171
1761467619315155200,4.8201552734375,1.6831757895380257,-0.2136453810289502,-3.289146758842468
1761467619325138400,4.830138427734375,1.707584839129448,-0.10526713163554668,-3.1285148828595877
1761467619335121400,4.840121337890625,1.9548142175912855,-0.11834390922114252,-3.03684489942193
1761467619345104100,4.850104248046875,2.2820576284885403,0.05826338839828968,-3.3747061504453417
1761467619355087400,4.86008740234375,2.4457386629089712,0.06271043093502521,-3.9779952844440936
1761467619365070300,4.8700703125,2.5858675568282603,-0.10469970701113343,-4.683342524904012
1761467619375053300,4.88005322265625,2.7446330544173714,-0.33378859475702044,-5.251389080607891
1761467619385036300,4.890036376953125,2.9031399010702965,-0.5360077418863773,-5.6970537037461995
1761467619395019300,4.900019287109375,3.0463483485653993,-0.611254852180928,-6.018793256530166
1761467619405003300,4.910003173828125,3.120394120246172,-0.6523937950380146,-6.1274751650452615
1761467619414986500,4.919986572265625,3.0296663860946893,-0.39317894135862586,-5.90022591381669
1761467619424969200,4.92996923828125,2.5648826364666224,-0.2491639997862279,-5.171346406599879
1761467619434952200,4.9399521484375,1.5104714907065033,-0.28352760328948495,-3.947242418783903
1761467619444935400,4.949935302734375,0.40646307808458804,-0.3800336285814643,-2.2389199130296706
1761467619454918400,4.95991845703125,-0.07864508216977119,-0.6533521186761557,-0.24643559773564339
1761467619464901000,4.969901123046875,-0.5942652850657701,-0.8203212348565458,1.684201040932536
1761467619474884400,4.97988427734375,-1.4059776815310119,-1.083271914063394,3.0612089408278464
1761467619484867300,4.989867431640625,-2.5351719733357427,-1.2198347860641776,3.9114965671420094
1761467619494850300,4.999850341796875,-3.872642520351708,-0.7400634567931293,4.5837312270730735
1761467619504833300,5.009833251953125,-5.221935607108473,0.06415566130727529,5.21472436055541
1761467619514817300,5.0198173828125,-6.275469677773118,0.6528877160347998,5.807098717308044
1761467619524800300,5.02980029296875,-7.086392092904448,1.1504761492863296,6.261190977051854
1761467619534783500,5.039783447265625,-7.357393976619839,1.758687542118132,6.201304371365905
1761467619544766200,5.04976611328125,-6.463458347237109,2.463290393951535,5.8672571256726975
1761467619554749200,5.059749267578125,-4.779504851324856,2.9338354835852978,5.255704605719447
1761467619564732400,5.069732421875,-3.595809738525748,3.0007559334307907,4.581041841858625
1761467619574715400,5.07971533203125,-2.6580221079349515,3.0437410886764527,4.081217173987627
1761467619584698000,5.089697998046875,-1.5456225913256405,2.841349799850583,3.717928051719069
1761467619594681300,5.099681396484375,-0.5230395392417907,2.5885037505507467,3.1439754868417977
1761467619604665300,5.109665283203125,0.28114392302334307,2.0614979380264877,2.3259055380433797
1761467619614648300,5.1196484375,0.8043798616200685,1.4769855468206108,1.3054606670320033
1761467619624631300,5.12963134765625,0.8060609465748071,0.7289395668409764,0.3161567842155695
1761467619634614300,5.1396142578125,0.525560582152009,0.1173506604000926,-0.7487409765064716
1761467619644597200,5.14959716796875,0.5136074017688632,-0.38445524441599843,-1.8858131620794534
1761467619654580500,5.15958056640625,0.5953966271832585,-0.9418646707713604,-2.7718898946553465
1761467619664563200,5.169563232421875,0.14383096330761908,-0.7519548239864409,-3.0210563786596056
1761467619674546200,5.179546142578125,0.39003888976722956,-0.9173656048089265,-3.0710932059824465
1761467619684529400,5.189529296875,1.5854410992339252,-1.7685019569069147,-6.0223068176090715
1761467619694512400,5.199512451171875,1.3582643287196754,-1.536930750826001,-6.432479271605611
1761467619704496400,5.209496337890625,1.9749898673966526,-1.7714353800103066,-6.497608454120159
1761467619714479000,5.21947900390625,2.7806097922056914,-1.999066324032843,-7.038992628347874
1761467619724462300,5.22946240234375,3.1739187896847723,-2.4744404412582517,-7.378312846007943
1761467619734445300,5.2394453125,3.535189557868242,-2.793936306768656,-7.840796502000093
1761467619744428300,5.24942822265625,3.648682666057348,-3.0373513876393434,-8.262151444268227
1761467619754411300,5.259411376953125,3.7476089042335747,-3.2240503095537423,-8.116946854519844
1761467619764394200,5.269394287109375,3.894963950014114,-2.979233252930641,-7.449902748969197
1761467619774377500,5.27937744140625,3.6792043533101677,-2.633733469852805,-6.179336869707703
1761467619784360400,5.2893603515625,3.069568772894144,-1.7792916464686392,-4.447222569477558
1761467619794344200,5.29934423828125,1.932095605304837,-0.7868333912745118,-2.3998382047384976
1761467619804327200,5.3093271484375,1.2491817304491997,-0.1265270695462823,-0.4776666120767593
1761467619814310400,5.319310302734375,0.9246069542393088,0.8056158331558108,1.580469448301196
1761467619824293400,5.32929345703125,0.33832331557720896,1.8674838707931338,3.8012452173531055
1761467619834276000,5.339276123046875,-0.5905240527108311,2.7908915322452783,5.892338959959149
1761467619844259300,5.34925927734375,-1.6266332335829734,3.502647470703721,7.714568415400385
1761467619854242300,5.3592421875,-3.0271304378762838,3.8659143811404704,9.160561588716506
1761467619864225300,5.369225341796875,-5.021292038732767,3.470549912436306,9.805015092274546
1761467619874208300,5.379208251953125,-5.60426728349924,2.379381253773719,9.67056161364317
1761467619884191200,5.389191162109375,-4.564732219831646,0.6684297146901488,8.554841428178548
1761467619894175200,5.39917529296875,-3.1373043385148045,-0.8650777836889028,7.152995439624786
1761467619904158500,5.409158447265625,-2.4358187419191,-1.1966425649166106,6.1960682242780925
1761467619914141400,5.419141357421875,-2.100287979669869,-1.562052624861896,5.605017809605598
1761467619924124200,5.429124267578125,-2.0500234810709954,-1.6030338929392396,4.913913029509782
1761467619934107400,5.439107421875,-1.9241344171673058,-1.9006902670852839,4.453612562775612
1761467619944090400,5.44909033203125,-1.5803768015816806,-2.1459134202912447,3.940976344126463
1761467619954073000,5.459072998046875,-1.1246651239424943,-2.31057469792068,3.2638375455409285
1761467619964056300,5.469056396484375,-0.7499749022155999,-2.224044123198092,2.616549110817909
1761467619974039300,5.479039306640625,-0.332239611749351,-2.2261907798379656,1.7348907792061565
1761467619984023300,5.489023193359375,0.4320283119738102,-2.1838656959362326,0.5558060828119517
1761467619994006300,5.49900634765625,1.1683967136412858,-1.8098881525233388,-0.6035802258998155
1761467620003989200,5.5089892578125,1.8669930185362695,-1.2994992744095624,-1.5900374871134757
1761467620013972200,5.51897216796875,2.440854105737805,-0.622882015480101,-2.4227988090872765
1761467620023955500,5.52895556640625,2.588346514162421,-0.07746288664788008,-2.8745535657942294
1761467620033938400,5.5389384765625,2.4772230577141046,0.3817810567706823,-3.0257232014268634
1761467620043921200,5.548921142578125,2.1774191501453517,0.5484719405315817,-3.150625592380762
1761467620053904400,5.558904296875,1.9703779896870255,0.403531408546865,-3.3811604411512612
1761467620063887400,5.568887451171875,1.9723519201084971,0.31079701074808835,-3.861060511368513
1761467620073870000,5.5788701171875,2.1376687390372155,0.13705810817182063,-4.464118759220838
1761467620083854000,5.58885400390625,2.3971751230090854,-0.028069910186529157,-5.012720609742403
1761467620093837300,5.59883740234375,2.6548113291949034,-0.1314693482540548,-5.432583852148055
1761467620103820300,5.6088203125,2.9475045279756187,-0.11755568145290017,-5.733313934651017
1761467620113803300,5.61880322265625,3.4094127221673727,-0.23724267584607003,-5.943813711130619
1761467620123786200,5.6287861328125,3.74912866114676,-0.3316032135419547,-5.977255377483368
1761467620133769200,5.638769287109375,3.8515558931812643,-0.4479997880876064,-5.763168974688649
1761467620143752400,5.64875244140625,3.8701439815342424,-0.16639628472849727,-5.131719329610466
1761467620153735400,5.6587353515625,3.4497283659428355,0.19571517206281422,-4.358506759670377
1761467620163718100,5.66871826171875,2.659168063099682,0.304766206151247,-3.521636833333969
1761467620173701400,5.678701416015625,2.644132698792219,0.17328809006884693,-2.9757962642192837
1761467620183685400,5.688685302734375,1.646540880101919,-0.04516512963324785,-1.732025452902913
1761467620193668400,5.69866845703125,0.29097032051086424,-0.1591704251281917,0.19321487967967985
1761467620203651000,5.708651123046875,-0.6479594658523797,-0.16817571549117563,2.192801135933399
1761467620213634300,5.71863427734375,-1.271370765903592,-0.4956257548764348,3.9495618016421794
1761467620223617300,5.7286171875,-1.8120517602980135,-0.9116314450711012,4.970589440977573
1761467620233600300,5.738600341796875,-2.4604712448775765,-0.7460247032850981,5.0091275536865
1761467620243583200,5.748583251953125,-3.676348379357159,-0.28231647393405435,4.944420395976305
1761467620253565200,5.758565185546875,-4.737043719953299,0.6963944109365343,4.9443385629117484
1761467620263548400,5.76854833984375,-5.051816940855979,1.5743290458500385,4.779280687180162
1761467620273531100,5.77853125,-4.857344462330639,2.1270479763016104,4.745142270734906
1761467620283515100,5.78851513671875,-4.082249731905758,2.534106682191789,4.983513804480433
1761467620293498400,5.798498291015625,-3.3444270397767424,2.8091005581527946,5.265948936358094
1761467620303481300,5.8084814453125,-2.873550526231527,2.887778665809333,5.272976058515906
1761467620313464300,5.81846435546875,-2.4874989525347946,2.8090207709148522,5.087789002469182
1761467620323447300,5.828447265625,-2.061862971946597,2.4967253383025527,4.492715908151864
1761467620333430300,5.83843017578125,-1.5260250336691736,2.114173881681263,3.50956762535572
1761467620343413200,5.848413330078125,-0.9735334822326898,1.7390911535054445,2.3452403531104324
1761467620353396500,5.858396484375,-0.5383072510004043,1.4851672458410263,1.3119827622771263
1761467620363379200,5.868379150390625,-0.34347792186141013,1.2213017898768186,0.6900602394789457
1761467620373362200,5.878362060546875,-0.0470563502073288,0.9262021144762634,0.16380056914687155
1761467620383346400,5.888346435546875,0.38538551100343466,0.4711877714514732,-0.47375674515664573
1761467620393329400,5.898329345703125,0.6493114649832248,-0.016381810480356217,-1.141872279331088
1761467620403312000,5.90831201171875,0.8180556280121207,-0.4003630076438188,-2.0021651668310163
1761467620413295400,5.91829541015625,0.7264432199805975,-0.5114882176578045,-2.919774517267942
1761467620423278300,5.9282783203125,0.587629792574048,-0.47063306017816064,-3.6302941919296976
1761467620433261300,5.93826123046875,0.6947600877329707,-0.4373638277828693,-4.33848980755806
1761467620443244300,5.948244384765625,0.9142056794732809,-0.45917613887935876,-5.062231367364525
1761467620453227300,5.958227294921875,1.282072192659974,-0.44616848100721834,-5.542356478509307
1761467620463210200,5.968210205078125,2.038214969855547,-0.5808557683944702,-6.019076749646663
1761467620473193500,5.978193359375,3.0693735425829884,-0.6379080274373292,-6.410430521404743
1761467620483177200,5.98817724609375,4.188080050382018,-0.9975178766712546,-6.428703260198235
1761467620493160200,5.99816015625,4.825023032179475,-1.3922542766049504,-6.2886068072438235
1761467620503143400,6.008143310546875,4.766038343769312,-1.5046902769565582,-5.995200784018635
1761467620513126400,6.01812646484375,4.2795647403806445,-1.5634931790590285,-5.5851972568482156
1761467620523109000,6.028109130859375,3.5870150221735235,-1.5361892848089336,-5.144592839708924
1761467620533092400,6.03809228515625,2.8784882748946545,-1.5809589853838084,-4.546301367866993
1761467620543075300,6.048075439453125,2.5146312896102665,-1.7911001576840877,-3.836272107070684
1761467620553058300,6.058058349609375,2.7858219738960264,-2.1516993102163076,-3.0143536661505697
1761467620563041300,6.068041259765625,3.3163810949876904,-2.5132196692466735,-1.782089752754569
1761467620573025300,6.078025390625,2.9495751967698336,-2.5208140698984263,-0.07979308316111564
1761467620583008300,6.08800830078125,0.9937772288382053,-2.0695864058054982,1.7687895416766404
1761467620592991200,6.0979912109375,-1.5238222629278897,-1.5294211058482527,3.5343420011281963
1761467620602974500,6.107974365234375,-3.4523557918369767,-0.5689243614517152,4.962779644009471
1761467620612957200,6.117957275390625,-4.22520771177113,0.42717678028941153,5.69863775806725
1761467620622940400,6.1279404296875,-4.402760911938548,1.965970548508316,6.346158247980475
1761467620632923400,6.13792333984375,-4.36094187786281,3.2271360006093976,7.690206712082028
1761467620642906000,6.147906005859375,-4.463566678296029,3.3325650448083874,7.519223537954687
1761467620652889300,6.157889404296875,-4.478237885466218,2.7318840474814174,6.68466539569199
1761467620662872300,6.167872314453125,-3.5719793656051158,1.636517352607101,6.3000014769613735
1761467620672856300,6.177856201171875,-2.3319927490025756,0.749859166881442,6.344083779793977
1761467620682839300,6.18783935546875,-1.87088038136363,0.13818302054852247,6.440635105532407
1761467620692822300,6.197822265625,-1.958081110432744,-0.42242827058807014,6.3797127270579335
1761467620702805200,6.20780517578125,-1.9690122542917727,-0.9089723088644445,5.742886649638414
1761467620712788200,6.217788330078125,-1.7882228486821055,-1.0375680013783275,4.693793776291608
1761467620722771500,6.227771484375,-1.2146341486811638,-1.055642148859799,3.525006017506122
1761467620732754200,6.237754150390625,-0.445165733705461,-1.0735719194345175,2.419782091614604
1761467620742737400,6.2477373046875,0.19904899266064166,-1.1750061949089168,1.2637053458422423
1761467620752720400,6.257720458984375,0.6891837489053606,-1.3055465917497873,-0.020700842723250387
1761467620762703000,6.267703125,1.0057371312230825,-1.4270153549931943,-1.1905401563882827
1761467620772687000,6.27768701171875,1.3890700936108826,-1.3873369862079619,-2.2571090651929375
1761467620782670300,6.28767041015625,1.8017647595614195,-1.2122777948133647,-3.2746178827524184
1761467620792653300,6.2976533203125,2.0891382246240973,-1.2092758365184069,-4.054336765846609
1761467620802636300,6.30763623046875,2.376658989202976,-1.200207563921809,-4.66896737807095
1761467620812619300,6.317619384765625,2.7689816059932113,-1.3259711017496882,-5.259685784310102
1761467620822602200,6.327602294921875,3.095954090994596,-1.4563266435429454,-5.6847179537862536
1761467620832585200,6.337585205078125,3.4086446604043243,-1.4257893203295766,-5.912859185418486
1761467620842568400,6.347568359375,3.43328985683918,-1.415930189616233,-6.040580725446343
1761467620852551200,6.35755126953125,3.422344099932909,-1.4800050407722591,-6.097751642432809
1761467620862534400,6.367534423828125,3.5905887890070676,-1.455978268496692,-6.033825405967235
1761467620872518400,6.377518310546875,3.853365280690789,-1.2734240451715886,-6.142094642028212
1761467620882501400,6.38750146484375,3.532927458155155,-1.3201771746486424,-7.0063727997720235
1761467620892484000,6.397484130859375,3.6022231126993893,-0.6000289631590247,-7.641033223590254
1761467620902467300,6.40746728515625,3.997086353883147,0.39529870999157424,-7.083823119199276
1761467620912450300,6.4174501953125,3.0682343094199895,1.0898325877532362,-6.092469902637601
1761467620922433300,6.427433349609375,1.5157114371865987,2.515603934034705,-4.227573271858692
1761467620932416300,6.437416259765625,-0.08460369831323623,2.484618720923364,-2.460412792688608
1761467620942399200,6.447399169921875,-1.816409370985627,2.277183592711389,0.22116145574748514
1761467620952382200,6.45738232421875,-2.957165213507414,2.115451938793063,3.7390859905600546
1761467620962365400,6.467365478515625,-3.6419793690264224,1.6477248291894793,6.334540290901065
1761467620972349400,6.477349365234375,-4.4690568001449105,1.1455600279331206,8.366536532372235
1761467620982332200,6.487332275390625,-4.291099695351719,1.051553710502386,9.40444224127233
1761467620992315400,6.4973154296875,-4.4122225677669045,1.357467040862143,9.416294007107615
1761467621002298400,6.50729833984375,-4.931364515048265,1.6297579414747654,8.803346233403682
1761467621012281000,6.517281005859375,-4.8737207198530434,2.5953911719769236,7.288277185773849
1761467621022264300,6.527264404296875,-4.428237298500537,2.7612410748690364,6.253235049611329
1761467621032247300,6.537247314453125,-3.619780981221795,2.423145576698333,5.6249523441314695
1761467621042230300,6.547230224609375,-3.438932831162214,2.008971339714527,4.717952650514245
1761467621052213200,6.557213134765625,-3.361184405571222,1.5682979489922522,3.771315943035483
1761467621062196200,6.5671962890625,-2.7546704643070696,1.25009957594648,2.7574586337208746
1761467621072180200,6.57718017578125,-1.9300690679132937,1.0646877712331713,1.8522510842174291
1761467621082163500,6.58716357421875,-1.0658177981764076,0.8206653721190988,0.8883329870700836
1761467621092146400,6.597146484375,-0.22196166621446609,0.5712872911907733,-0.17835165706872938
1761467621102129200,6.607129150390625,0.6071253511607646,0.22112243891134856,-0.9740724114149808
1761467621112112400,6.6171123046875,1.2477046436339616,-0.04728402148336172,-1.4608698399305342
1761467621122095400,6.627095458984375,1.4606459680467843,-0.2504815121255815,-1.8382605527877807
1761467621132078300,6.637078369140625,1.126653667411208,-0.47615065455585714,-2.2359289145201444
1761467621142061300,6.647061279296875,0.577502950835228,-0.7175894669175148,-2.6415298228174446
1761467621152044300,6.657044189453125,0.028960137024521826,-0.8110496947728097,-3.0111534088045357
1761467621162027300,6.66702734375,-0.15991759023368357,-0.9369649160310626,-3.305762378078699
1761467621172011300,6.67701123046875,0.11649345904886722,-1.0736565289780498,-3.648994800746441
1761467621181994200,6.686994140625,0.38572657952606676,-1.0754852057099342,-3.9431472584247587
1761467621191977200,6.696977294921875,0.5414356121540069,-1.0604355206161737,-4.258462915641069
1761467621201960400,6.70696044921875,0.9760323133111,-1.0747098374232649,-4.556887059289217
1761467621211943400,6.716943359375,1.4554378780096768,-0.9834279765203594,-4.983613757723569
1761467621221926100,6.726926025390625,1.76215112657547,-0.834422240923345,-5.259550175231695
1761467621231909400,6.736909423828125,2.2341455382347104,-0.5565016638606787,-5.319656561148166
1761467621241892400,6.746892333984375,2.597104405635595,-0.29944618017226454,-5.3862908875286575
1761467621251876000,6.7568759765625,3.0470214255213737,-0.14295651856064795,-5.532810651528835
1761467621261859000,6.766859130859375,3.5431139211267233,-0.0731762953698635,-5.5383606868714095
1761467621271843000,6.776843017578125,3.908890476296842,-0.24259295083284377,-5.2405409388571975
1761467621281826000,6.786825927734375,4.026561454692483,-0.4655059264227748,-4.663772147515416
1761467621291809000,6.79680908203125,4.021278545853495,-0.6535638617306947,-3.9016257459908723
1761467621301792300,6.806792236328125,3.916523163132369,-0.8316109828948974,-2.8995395384907723
1761467621311775200,6.816775146484375,3.665079674106836,-1.0960182906508444,-1.9176205052286386
1761467621321758000,6.826758056640625,2.9658927098423242,-1.37047148386389,-0.537220624807477
1761467621331741200,6.8367412109375,1.81368082280457,-1.1509183400958776,1.171122923734784
1761467621341724200,6.84672412109375,0.46720483929514883,-0.8928896274611353,2.5513743355959653
1761467621351707000,6.856706787109375,-0.7205243513256311,-0.3901414733588695,3.5119361080527303
1761467621361690000,6.866690185546875,-1.3386153331369162,0.4501803469970822,4.501297858536243
1761467621371674000,6.876674072265625,-1.9582441920399665,1.437408592583239,5.571924518299102
1761467621381657000,6.886656982421875,-3.004861615183949,2.4000017247371375,6.301840967348218
1761467621391640000,6.89664013671875,-4.4076738184213635,2.7507155892014503,6.582914747744798
1761467621401623000,6.906623046875,-5.32147734683454,2.523233113738894,6.4231134773671625
1761467621411606000,6.91660595703125,-5.1355584693819285,2.2643623973220586,5.8511213989079
1761467621421589200,6.92658935546875,-4.12227983673811,2.134801805298775,5.525923814624548
1761467621431572200,6.936572265625,-3.0992008178308605,2.1608231123924253,5.300580689278244
1761467621441555000,6.946554931640625,-2.231733508656919,1.9020381745629011,5.225363243469595
1761467621451538200,6.9565380859375,-1.1550558782920242,1.3460410992234944,4.990561969426274
1761467621461521200,6.966521240234375,-0.5256774865299463,0.9783421976886689,4.892622404199838
1761467621471505200,6.976505126953125,-0.20845658021420238,0.4116442801147699,4.87035036663711
1761467621481488000,6.98648779296875,0.1600575832262635,-0.2715742767758667,4.286926793581247
1761467621491471000,6.99647119140625,0.44591772111654276,-0.9815952081352471,3.2683120606064793
1761467621501454000,7.0064541015625,0.6126978905960917,-1.39971029169932,2.2048966473966836
1761467621511437000,7.01643701171875,0.9391527814641595,-1.705579344525933,1.1128355699390173
1761467621521420000,7.026419921875,1.2335136211961506,-1.9555727808736263,-0.15343699604272842
1761467621531403000,7.036403076171875,1.3550228625804186,-2.0395862582087516,-1.290761110550165
1761467621541386200,7.04638623046875,1.2772764828160403,-2.0597223066560923,-2.277910445681214
1761467621551369200,7.056369140625,0.6613315731227397,-1.9692485472656784,-3.1125387305706735
1761467621561352000,7.06635205078125,-0.008183014194667338,-1.802157996662706,-3.7598318414688108
1761467621571335200,7.076335205078125,-0.15575345629155635,-1.5373527756303549,-4.367258805924654
1761467621581319200,7.086319091796875,0.12454232546985149,-1.2312015448614955,-5.017129073834419
1761467621591302100,7.09630224609375,0.7349126499012112,-1.0247479750327766,-5.784212347239255
1761467621601284900,7.106284912109375,1.5453203935086726,-0.8972858165934682,-6.286141878435015
1761467621611268000,7.11626806640625,2.2726509177178142,-0.7816914983414113,-6.501489094945788
1761467621621251000,7.1262509765625,2.7192598359689115,-0.6639800418049097,-6.61153878468275
1761467621631234000,7.136234130859375,2.8292247700318693,-0.7100343753628432,-6.741420717614889
1761467621641217000,7.146217041015625,2.681843713027239,-0.7751834316216408,-6.5017246572673315
1761467621651200000,7.156199951171875,2.7222879516184326,-0.5043173031151295,-5.870837322247028
1761467621661183200,7.166183349609375,2.764524334323406,0.1221026772327721,-5.15105239111185
1761467621671166200,7.176166259765625,2.7954546023771165,0.7723689587228,-4.535606955373287
1761467621681150200,7.186150146484375,2.9553461813867092,0.8524958038829267,-3.518499704352021
1761467621691133000,7.1961328125,3.04072378668189,0.7416441501133143,-2.1302409271240235
1761467621701116200,7.2061162109375,2.9691631098151205,0.05064589913189411,-0.5351888267189264
1761467621711099100,7.21609912109375,2.23686999476254,-0.5950045591257512,0.9837924259185791
1761467621721081900,7.226081787109375,0.22060674447417258,-0.9626815410897135,2.907585482302308
1761467621731065000,7.236065185546875,-1.9855401952445506,-0.9775573309212923,4.396850811111927
1761467621741048000,7.246048095703125,-3.4299130738824606,-0.5802075336188077,4.751191487771273
1761467621751031000,7.256031005859375,-4.480905643370748,0.3434541025944054,4.79002595307827
1761467621761014000,7.266013916015625,-4.977100430306792,1.4892995233401656,4.750194293427467
1761467621770997000,7.2759970703125,-5.266597171133756,2.548683489076793,4.493311535957456
1761467621780981000,7.28598095703125,-5.412856822893024,3.016275866384804,4.277462215143442
1761467621790964200,7.295964111328125,-4.9842514711052175,3.1410493702620266,4.291578418779373
1761467621800947200,7.305947265625,-4.056172164580226,3.1992244958549736,4.226028380504251
1761467621810930000,7.315929931640625,-3.1764737348645924,3.1013056811556217,3.966284388384223
1761467621820913200,7.3259130859375,-2.3454922820448876,3.0704426331192254,3.612458675509691
1761467621830896000,7.335896240234375,-1.6710007830977438,2.8896991124778983,3.118676210412383
1761467621840879000,7.345879150390625,-1.411794551116228,2.5942560304671525,2.6293799508184192
1761467621850862000,7.355862060546875,-1.452918004143238,2.227781263899803,2.353777295309305
1761467621860845000,7.365844970703125,-1.4214450075149536,1.7387473085038363,2.046500567641854
1761467621870828000,7.375828125,-1.1704361105144023,1.1261056781396268,1.6176789427548646
1761467621880812300,7.385812255859375,-0.8111106311798095,0.5218759022898972,1.2072732645243405
1761467621890795000,7.395794921875,-0.5431529374659061,-0.15827113820090888,0.8798714481949805
1761467621900778000,7.405778076171875,-0.5094873992294073,-0.6942834101319313,0.4110965831041336
1761467621910761200,7.41576123046875,-0.5413958646655083,-1.0154717587739228,-0.22119185088574886
1761467621920744200,7.425744140625,-0.42050154030919074,-1.0138625700116157,-0.7368067930847406
1761467621930727000,7.435726806640625,-0.004900631523132324,-0.7588146267533302,-1.3405623755514622
1761467621940710100,7.445710205078125,0.5773410382717847,-0.42134485926553605,-2.0182102927029133
1761467621950693000,7.455693115234375,1.0053858335673809,-0.1250102352425456,-2.4997312421202658
1761467621960676000,7.465676025390625,1.5142647455096243,0.030786767929792402,-2.985796849229932
1761467621970659000,7.4756591796875,2.2208254534125325,0.10123466124907135,-3.4567075573056933
1761467621980643000,7.48564306640625,2.9543571703493594,0.11655191123783588,-3.7259693193554875
1761467621990626000,7.4956259765625,3.5490123315155504,0.0684768855072558,-3.8195758238136768
1761467622000609300,7.505609375,3.968934026110172,0.04250102499052882,-3.9385353807151313
1761467622010592000,7.515592041015625,4.380231684744357,-0.03741670746356249,-4.244849400830269
1761467622020575000,7.525574951171875,4.430293646508455,-0.14882584898546336,-4.666956038248538
1761467622030558200,7.53555810546875,4.091753181049228,-0.1754832620255649,-5.002876092076301
1761467622040541200,7.545541259765625,3.966804612866044,0.01936141081303358,-5.322393292635679
1761467622050524000,7.55552392578125,4.0838673962354655,0.09667115272581576,-5.529191876509786
1761467622060507100,7.565507080078125,4.42815897256732,0.021088380736112595,-5.377102787944674
1761467622070490000,7.575489990234375,4.57663103967905,0.1125697097338736,-4.944790982854366
1761467622080473000,7.58547314453125,4.273334906080365,0.006607873832434415,-4.309856418269872
1761467622090457000,7.59545703125,3.3870793098062273,-0.3666252809539437,-3.140841280469298
1761467622100440000,7.605440185546875,2.100429141706228,-0.6484057483151555,-1.4550053318113088
1761467622110423000,7.615423095703125,0.6349304729312658,-0.6320059637866914,0.16196692397892473
1761467622120406300,7.62540625,-0.688463325676322,-0.4684621458798647,1.5289841757357119
1761467622130389000,7.635388916015625,-1.689316776511073,-0.2653003110729158,2.6891981674432754
1761467622140372000,7.6453720703125,-2.5013930378526448,-0.21017858170121906,3.9392946746498345
1761467622150355200,7.655355224609375,-2.964736525544524,-0.13196984512209892,4.944639591684937
1761467622160338200,7.665338134765625,-2.989185322624445,0.023021979147195816,5.399808540749549
1761467622170321000,7.67532080078125,-2.8607927514672276,0.10251841744929552,5.127808878168463
1761467622180304100,7.68530419921875,-2.7065795103549957,0.22371450123116374,4.521194399139285
1761467622190288100,7.6952880859375,-2.236472519877553,0.6006682839758694,4.017248851945996
1761467622200271000,7.70527099609375,-2.4176018249660727,0.8421120647735894,4.168800180372595
1761467622210254000,7.715254150390625,-2.941157497036457,1.0339351978339255,4.819955227395892
1761467622220237000,7.725237060546875,-3.2159833229541777,1.0491751448027788,5.079768193098903
1761467622230220000,7.735219970703125,-3.17239377207458,0.832409001404792,5.130092020669579
1761467622240203300,7.745203369140625,-2.6718834600269794,0.35943434653654693,5.13027672958672
1761467622250186200,7.755186279296875,-2.2974252934902903,-0.2692708221390843,4.7056718456119295
1761467622260168200,7.765168212890625,-1.944499744325876,-0.8405662966363131,3.944327408120036
1761467622270151400,7.7751513671875,-1.6598703172743319,-1.2472921173103153,3.136663702523708
1761467622280134400,7.785134521484375,-1.4432622870475054,-1.5105920483462512,2.283296814894676
1761467622290118400,7.795118408203125,-0.9605068273991346,-1.532627354543656,1.2815069599926472
1761467622300101600,7.8051015625,-0.4768348374277353,-1.453187614864856,0.2718213834047317
1761467622310084400,7.81508447265625,-0.31341713011860844,-1.2564851853303611,-0.623131898587942
1761467622320067300,7.8250673828125,-0.3726981711268425,-0.9628257718659937,-1.279619538810849
1761467622330050600,7.835050537109375,-0.3396265071302652,-0.7056842173293233,-1.7779478306442498
1761467622340033500,7.845033447265625,-0.10291735363900661,-0.3392719946041703,-2.2653911558479067
1761467622350016300,7.855016357421875,0.18297171808481216,0.000351005394756794,-2.6513363465607163
1761467622359999500,7.86499951171875,0.5365115997552872,0.09796338449344039,-2.89217690076828
1761467622369982500,7.874982421875,1.1309867281794548,0.15241627469286323,-3.17793270150125
1761467622379965200,7.884965087890625,1.4944699117153881,0.19566665674597022,-3.5368688892573115
1761467622389949400,7.894949462890625,1.9183850598603487,0.11334916967377066,-3.940468979126215
1761467622399932400,7.904932373046875,2.333165299913287,0.033480390927940605,-4.231841450697184
1761467622409915400,7.914915283203125,2.65466812133193,-0.04954670571833849,-4.503178849977255
1761467622419898600,7.924898681640625,2.93542567538619,-0.099771310698241,-4.6889597802639
1761467622429881300,7.93488134765625,3.293794292387366,-0.014569500361382961,-4.737926932528615
1761467622439864300,7.9448642578125,3.6401445548146962,0.004709492865204811,-4.876725162366032
1761467622449847600,7.95484765625,3.8165900860011575,-0.11361512713357806,-4.967389768153429
1761467622459830500,7.96483056640625,3.991051165372133,-0.08497048579901456,-4.955237558066845
1761467622469813200,7.974813232421875,3.8887060586631295,0.16686010284796357,-4.828907764658331
1761467622479796500,7.98479638671875,3.645847734892368,0.37042365032359953,-4.387536454799771
1761467622489779500,7.994779541015625,3.4596038632690904,0.2540304367788136,-3.4520611928045746
1761467622499760400,8.004760498046876,3.1058997309476135,-0.19435572027787565,-2.204481636855006
1761467622509743400,8.014743408203126,2.0112381156027315,-0.6627040305197238,-0.5384352612942457
1761467622519726600,8.0247265625,0.19780805268883703,-0.9033943626016377,1.3682418251156807
1761467622529709300,8.034709228515625,-1.7866081069618462,-0.7428639011666178,2.7412966034710404
1761467622539692300,8.0446923828125,-3.4631326219171283,-0.2154025999598205,3.3691385794460773
1761467622549675500,8.054675537109375,-4.349695676705241,0.650602819968015,3.684565880343318
1761467622559659500,8.064659423828125,-4.9879661077141755,1.702727023834735,4.12535559092164
1761467622569642200,8.074642333984375,-5.939823764711618,2.8621944349586963,4.771911035194993
1761467622579625500,8.08462548828125,-6.57043578992188,3.7964538914233446,5.517942752742767
1761467622589608400,8.0946083984375,-6.413409244954586,4.097141303828359,5.857992453721165
1761467622599591400,8.10459130859375,-5.649751269823312,3.6489036153316494,5.890660213091969
1761467622609574400,8.114574462890625,-4.273794924807548,3.1911858585670587,5.854708025223016
1761467622619557400,8.124557373046875,-2.765046312370896,2.992715834838152,5.691073460292816
1761467622629540400,8.134540283203124,-1.6771335867643355,2.6107275650575756,5.217393872025609
1761467622639523600,8.144523681640624,-0.8708096053391694,2.16149502030462,4.371200237026811
1761467622649506300,8.15450634765625,-0.518048306825757,1.606688616054505,3.2640976577818392
1761467622659489300,8.1644892578125,-0.5269672340795397,1.01853582251966,2.1709370946496724
1761467622669473500,8.1744736328125,-0.39598376964628695,0.3751680683717131,0.988395535799861
1761467622679456500,8.18445654296875,-0.002397416530549526,-0.2754740606933832,-0.1746083788871765
1761467622689439500,8.194439453125,0.36865240286737677,-0.9816827402882278,-1.3075216912150383
1761467622699422500,8.20442236328125,0.6934907984495162,-1.4793022993303835,-2.340308157405257
1761467622709405400,8.214405517578125,1.0146274169042706,-1.6664612399719654,-3.194779791405797
1761467622719388400,8.224388427734375,1.3041156821638344,-1.539877617932856,-3.7047961829453704
1761467622729371400,8.234371337890625,1.6599872216522693,-1.3699850155211983,-4.029106463000178
1761467622739354400,8.244354248046875,1.969105193272233,-1.204223959956318,-4.302614776578546
1761467622749337300,8.25433740234375,2.2796368310824033,-1.1195340446643531,-4.505480112656951
1761467622759320600,8.264320556640625,2.6343776129752396,-1.0021018434606492,-4.552326619505882
1761467622769304600,8.2743046875,3.0118904909074304,-0.8636131179638207,-4.70958814227283
1761467622779287300,8.284287353515625,3.41495632776916,-0.7399500595465301,-4.9166363169938325
1761467622789270500,8.2942705078125,3.9651469087868927,-0.5764857366167009,-5.099650705176591
1761467622799253500,8.30425341796875,4.389983555690944,-0.5528833272330462,-5.3600914473891255
1761467622809236500,8.314236572265624,4.399378868284821,-0.6342560808010399,-5.565282011544704
1761467622819219500,8.324219482421874,4.191121317774057,-0.7480752060741186,-5.392207418096065
1761467622829202400,8.334202392578124,4.184389963692427,-0.8735439987391233,-5.143048532876372
1761467622839185400,8.344185302734376,4.023698758737742,-0.7435302561208605,-4.7945752869457
1761467622849168600,8.354168701171876,3.3426462938398123,-1.0023946889273823,-4.093932863175869
1761467622859151400,8.3641513671875,2.456934887444973,-1.1316977990582584,-2.9879619183093307
1761467622869135400,8.37413525390625,1.56047850741297,-0.9461610527910291,-1.5748112764090298
1761467622879118300,8.384118408203125,0.7076210306107997,-0.6424439173012971,0.10822188978791236
1761467622889101600,8.3941015625,-0.2838824080765247,0.013283552204072475,1.6208306847840546
1761467622899084300,8.404084228515625,-1.1369739858955143,0.8933908549815416,2.729740021190047
1761467622909067500,8.414067626953125,-1.839307723753154,1.661382767663896,3.613520167261362
1761467622919050500,8.424050537109375,-2.357533432972431,2.2462859117530285,4.437950883263349
1761467622929033500,8.434033447265625,-2.900727286970615,2.186557711499184,5.122695480677486
1761467622939016400,8.444016357421875,-3.5718133613884446,1.4908191341228783,5.53240966951251
1761467622948999400,8.45399951171875,-3.353701940861344,0.2981760141059756,5.440062225204706
1761467622958982400,8.463982421875,-2.906507623937726,-0.800893188548088,5.1995583556056015
1761467622968965600,8.473965576171874,-2.803351785367727,-1.2660460637494921,5.294620319569111
1761467622978949400,8.483949462890624,-2.7972955540686844,-0.9977370723798871,5.761219594186544
1761467622988932400,8.493932373046874,-2.8622464574068784,-0.8433717094458639,6.371503117117285
1761467622998915300,8.503915283203124,-3.168434220793843,-1.035052073034644,6.3961705253839485
1761467623008898600,8.513898681640624,-2.953804504902661,-1.3173553952261805,5.68550822738111
1761467623018881300,8.52388134765625,-2.3536928318962453,-1.421516173055023,4.800889876919984
1761467623028864300,8.5338642578125,-2.035629629537463,-1.2945957202769816,3.8610739553719755
1761467623038847500,8.543847412109375,-1.694813035839796,-1.0645489472843706,2.7885931921750307
1761467623048830500,8.55383056640625,-1.1798276237159966,-0.9647349664881825,1.7781652727872133
1761467623058813400,8.5638134765625,-0.6224374865829945,-0.8957051232732832,0.9132166684359312
1761467623068796400,8.57379638671875,-0.030212767434120175,-0.7688745407357811,0.2546568981140852
1761467623078780400,8.583780517578125,0.5464145696103573,-0.7071396768346428,-0.3297755597233772
1761467623088764400,8.593764404296875,1.046779335707426,-0.6854112446293235,-0.9163000214040279
1761467623098748400,8.60374853515625,1.3343044842004774,-0.5935968842849135,-1.3357184426516293
1761467623108731400,8.6137314453125,1.4816811572909354,-0.593372135618329,-1.6571376774400473
1761467623118714400,8.62371435546875,1.5514029282927513,-0.47311742433980103,-1.9537217461794614
1761467623128697300,8.633697265625,1.546371363866329,-0.2850136040635407,-2.105840060839057
1761467623138680600,8.6436806640625,1.6178706659346818,-0.07501900062710046,-2.28250654129982
1761467623148663600,8.65366357421875,1.821622137197852,0.08409837913960218,-2.63387375510633
1761467623158646300,8.663646240234375,2.037635124140978,0.17907631808146834,-2.974583965820074
1761467623168629500,8.67362939453125,2.340077271258831,0.20021233735159039,-3.190473034122586
1761467623178612500,8.683612548828124,2.7123651080191133,0.14648790755718946,-3.375121745508909
1761467623188595500,8.693595458984374,3.187845023706555,0.2214825043953955,-3.6084056007266043
1761467623198579200,8.7035791015625,3.507961943724751,0.19130100888237356,-3.8093835156232116
1761467623208562400,8.7135625,3.658449442312121,0.1569189929395914,-3.981392525666952
1761467623218545400,8.72354541015625,3.781361536231637,0.17306056492328642,-4.186049421337247
1761467623228528400,8.7335283203125,3.714740653854608,0.15392317212447523,-4.441572580891847
1761467623238511400,8.743511474609376,3.7097622809201476,0.04309679892659187,-4.417261730977892
1761467623248494300,8.753494384765625,3.757710611531138,0.08349953646361827,-4.205283698639273
1761467623258477600,8.7634775390625,3.526597670611739,-0.1945699475504458,-3.7232138831675052
1761467623268460800,8.773460693359375,2.9062323141276836,-0.4109960453391075,-2.6976971157193184
1761467623278443500,8.783443603515625,1.772926787611842,-0.39598376964628695,-1.3730804973185062
1761467623288426800,8.7934267578125,0.477969394415617,-0.5185545027822256,-0.07547521996200084
1761467623298410800,8.80341064453125,-0.7422521990090608,-0.8417468847230076,1.1015092892825602
1761467623308393700,8.813393798828125,-1.9667188826575874,-1.1546173407442868,2.0820137795716525
1761467623318376700,8.823376708984375,-3.0615128922104833,-1.2152280229210852,2.9563159032016992
1761467623328359700,8.833359619140625,-3.486894898037612,-1.047919591783732,3.3897897378087043
1761467623338342700,8.8433427734375,-3.580160918495059,-0.585758299613744,3.4450188730776308
1761467623348325600,8.85332568359375,-3.820369604539871,-0.013256664197146892,3.369480524751544
1761467623358308600,8.86330859375,-4.145750144174695,0.8076664820753038,3.6270688001424074
1761467623368291600,8.87329150390625,-4.2758565335124725,1.5903078284874557,4.063428419318795
1761467623378274600,8.883274658203124,-3.9553357088685033,1.9764323212899266,4.445102508583664
1761467623388257800,8.8932578125,-3.432979475715756,1.882416359248012,4.7549978943169116
1761467623398241800,8.90324169921875,-3.105801531270146,1.837914077437669,5.008897252061963
1761467623408224500,8.913224609375,-3.0154601660877463,1.8967913599506019,5.071601253256201
1761467623418207700,8.923207763671876,-2.8256676620721817,2.0578889537490905,4.8181712665885685
1761467623428190700,8.933190673828125,-2.3772227605655787,2.0647107625931502,4.220890433093905
1761467623438173700,8.943173583984375,-1.782688595430553,1.871462857426703,3.2618536782473324
1761467623448156700,8.95315673828125,-1.3738126109853386,1.5427568266309797,2.155041021859646
1761467623458139600,8.9631396484375,-1.1505422002598642,1.1490998924970626,1.048946742874384
1761467623468122600,8.97312255859375,-1.0534212579399347,0.729889707172662,0.008265139520168304
1761467623478105900,8.98310595703125,-0.7272855160236358,0.3011426088266074,-0.951677039733529
1761467623488088600,8.993088623046875,-0.28925474876463414,0.007746084082126617,-1.7937737608075142
1761467623498072600,9.003072509765625,0.12351853538006544,-0.21630261753946542,-2.464986091953516
1761467623508055800,9.013055908203125,0.545558829563856,-0.32314445114582774,-3.0323464189589022
1761467623518038800,9.023038818359375,0.8184668391615152,-0.44981195207610725,-3.5124136624366042
1761467623528021500,9.033021484375,0.9365350001811981,-0.5889128181219101,-3.8456297180026766
1761467623538004700,9.043004638671874,1.1891864036917685,-0.7189031798645854,-4.007134869688749
1761467623547987700,9.05298779296875,1.5069523766696453,-0.8057019040040672,-4.037916376921534
1761467623557970700,9.062970703125,1.7723869816467166,-0.8569220958925783,-4.162026740714907
1761467623567953700,9.07295361328125,2.2970281108662483,-0.7783291823014616,-4.283446550250053
1761467623577936600,9.0829365234375,2.7217475611314175,-0.7573569752909243,-4.353887283176183
1761467623587920600,9.092920654296876,2.9930016660422085,-0.5620312409371138,-4.46779014120996
1761467623597903600,9.102903564453126,3.0742133838295933,-0.34609672605767844,-4.4362621995240445
1761467623607886800,9.112886962890625,1.4618895383670925,0.4912123223483562,-3.619536651071906
1761467623617869600,9.12286962890625,1.1663181538015603,0.9389015831820666,-3.052426499435305
1761467623627852800,9.132852783203125,1.6886515906006097,0.8367062602072953,-2.6481249832987785
1761467623637835800,9.142835693359375,1.5784779822230337,0.8636287539243698,-2.131629166612029
1761467623647818500,9.152818603515625,1.6634738947242498,0.9937458107866346,-1.3761024754881859
1761467623657801700,9.1628017578125,1.5032821637243032,0.9153400903306901,-0.4543699076414108
1761467623667784700,9.17278466796875,1.1070260068774223,0.8226476319774985,0.014420739540457724
1761467623677767700,9.182767578125,0.8542129830643534,1.2618999038554728,0.6984785237342119
1761467623687751700,9.192751708984375,0.5851566804587841,1.730899809873849,1.4526356800705194
1761467623697734700,9.202734619140625,0.21109540428519247,2.016926974894106,1.8525152881115674
1761467623707717600,9.212717529296874,-0.26587270413339137,2.0952694208554923,1.9249691144257783
1761467623717700600,9.22270068359375,-0.6076888302624225,2.0311562835156916,1.8083856390058992
1761467623727683800,9.232683837890624,-0.5727887817949057,1.8010414137229322,1.7016513574272394
1761467623737666600,9.24266650390625,-0.46944268134981393,1.5975402639590204,1.5820079099148512
1761467623747649800,9.25264990234375,-0.6309118849396705,1.466307500939816,1.602640948098898
1761467623757632800,9.2626328125,-1.266646659991145,1.339291478832811,1.6752783142864702
1761467623767615500,9.272615478515625,-1.914922936707735,1.3056987135715783,1.6646750872075557
1761467623777599500,9.282599609375,-2.480044544875622,1.2267564020209014,1.7097914092630146
1761467623787582700,9.292582763671875,-2.768890128317475,1.1965284370176494,1.6653233219832182
1761467623797565700,9.302565673828125,-2.5899837599754334,0.9050963442139327,1.4046493555366992
1761467623807548700,9.312548583984375,-2.2271201696425673,0.7641315839923918,0.8034189076334237
1761467623817531600,9.32253173828125,-1.7657161255806684,0.5736772550672292,0.20958324615657328
1761467623827514600,9.3325146484375,-1.136736085486412,0.3713800742655992,-0.16389292360544203
1761467623837497600,9.34249755859375,-0.7273480598658323,0.11344371608942747,-0.3735866443991661
1761467623847480800,9.352480712890625,-0.6301765564024449,-0.22656959840133784,-0.4537772024452686
1761467623857463600,9.362463623046875,-0.6744704561591148,-0.4450098124913871,-0.5513695616692305
1761467623867447600,9.372447509765625,-0.801499337747693,-0.4018656672917306,-0.49567339341044425
1761467623877430800,9.3824306640625,-0.710934685203433,-0.547167579934746,-0.5011591313451528
1761467623887413800,9.392413818359374,-0.7048942359954118,-0.38351431030407546,-0.6806757405400276
1761467623897396500,9.402396484375,-0.688679598775506,-0.3462554237507284,-0.7376438284307718
1761467623907379700,9.412379638671876,-0.6748252609461546,-0.23961714989244937,-0.9167997876197099
1761467623917362700,9.42236279296875,-0.4971802908420562,-0.12932912135496735,-0.9752250885814427
1761467623927345700,9.432345703125,-0.3938040875196457,-0.055936406755447386,-1.18834469217062
1761467623937328600,9.44232861328125,-0.3198193983763456,0.20384967094063758,-1.436834299826622
1761467623947311600,9.4523115234375,-0.09093348585665226,0.4752551670208573,-1.4583072959661483
1761467623957294600,9.462294677734375,-0.09635901803672313,0.3756985219866037,-1.5845505801349877
1761467623967278600,9.472278564453125,-0.040699674656987185,0.6198042154699563,-1.690109388193488
1761467623977261800,9.48226171875,-0.20284020163714883,0.6011740415409207,-1.7300053452521562
1761467623987244500,9.49224462890625,-0.6058166066497565,0.5834665354147553,-1.6865648474544286
1761467623997227800,9.502227783203125,-0.9258727363914251,0.5914440901651978,-1.4252075749188662
1761467624007210800,9.512210693359375,-0.9693114806234836,0.42542160718515515,-1.2466887445896864
1761467624017193500,9.522193359375,-0.9538643206447363,0.759610307175666,-0.827840816706419
1761467624027176700,9.5321767578125,-1.2901152138620615,0.35092706882357594,-0.6736433576852083
1761467624037159700,9.54215966796875,-1.5673597913593054,0.05756839187145233,-1.2697656687945127
1761467624047142700,9.552142578125,-1.5321692355126142,0.08507438456490635,-1.5519956334888934
1761467624057126700,9.562126708984374,-1.044485671812296,0.08817556545063852,-1.464313258382678
1761467624067109600,9.572109619140624,-0.7717062570303678,0.37845118169561026,-1.509376973468065
1761467624077092600,9.582092529296874,-0.7074146943837404,0.5887997131362557,-1.3844097005844116
1761467624087075600,9.59207568359375,-0.7505798823714256,0.38631796954795716,-1.3401684077978133
1761467624097058800,9.602058837890626,-0.9325725262910127,0.29336759091094133,-1.3126754207164049
1761467624107041500,9.61204150390625,-1.1064555135130882,0.4068646446228027,-1.4773592024385929
1761467624117024800,9.622024658203125,-1.2368968338936566,0.04900689975321293,-1.3331588212966918
1761467624127007700,9.6320078125,-1.3306366093426942,-0.21488252160847185,-1.6690923191279172
1761467624136990700,9.64199072265625,-1.021197150683403,-0.49237289056032896,-2.1460534132838247
1761467624146974500,9.651974365234375,-0.5996838029831647,-0.7727534279957413,-2.1581138534337283
1761467624156957700,9.661957763671875,-0.030961539974808692,-0.9249830940753221,-2.1885797188460825
1761467624166940700,9.671940673828125,-0.007071545821428299,-0.8634668413609266,-2.024718943944573
1761467624176923600,9.681923583984375,0.22896833010613918,-0.6912023952513933,-1.7438848175227641
1761467624186906600,9.69190673828125,0.9113736709177493,-0.3705570674449205,-1.4929232667952774
1761467624196889600,9.7018896484375,0.5484007749915123,0.1967465609371662,-0.7441705998510122
1761467624206872600,9.71187255859375,-1.0670341882288454,0.5851397293239832,0.53428690944314
1761467624216855800,9.721855712890624,-2.663912919539213,0.5697543825350702,1.4834528431385754
1761467624226839800,9.73183984375,-2.7715210613429546,0.6328767552718519,1.4471283148258924
1761467624236822500,9.741822509765624,-2.4067390701681375,0.7498292101345956,1.188199146220088
1761467624246805800,9.7518056640625,-2.486478377315402,0.42295740902870893,1.2222139362856745
1761467624256788500,9.76178857421875,-2.718483298638463,0.12269888956025242,1.183286239737272
1761467624266771200,9.771771240234376,-3.1577474070847034,-0.04523308030292392,1.1527651370063423
1761467624276754400,9.78175439453125,-3.5220915913641453,-0.8796529831387102,0.9029299599602818
1761467624286737400,9.7917373046875,-3.476196101629734,-0.7363236857429146,1.3036869353577494
1761467624296720400,9.801720458984375,-3.6830595674335953,0.14448811204209924,2.3850217438787222
1761467624306703400,9.811703369140625,-4.657674415162205,0.4054105002917349,2.978860327965021
1761467624316687400,9.821687255859375,-4.12806017370522,0.5933179212130606,3.066088821823895
1761467624326670300,9.83167041015625,-3.7846722682148215,0.584407031135261,2.859680698572099
1761467624336653600,9.841653564453125,-3.587608896413445,0.6573444031827151,2.4766519798278805
1761467624346636500,9.851636474609375,-3.1478467753171917,0.6266555426694452,2.364453003102541
1761467624356619300,9.861619384765625,-3.118397977992892,0.9385955859728157,2.7263486251860853
1761467624366602500,9.8716025390625,-2.7287130162298676,0.7915870155423879,2.8549370111763475
1761467624376585500,9.88158544921875,-1.9401181682407855,0.4087964894682169,2.568512517401576
1761467624386568200,9.891568115234374,-1.4284335512280464,0.3859451907128095,2.190560955791175
1761467624396552400,9.901552490234375,-0.9158142837136983,0.5342765341795981,1.8836856485314666
1761467624406535400,9.911535400390624,-0.4533201063275337,0.5320138499446213,1.5681589789129793
1761467624416518400,9.921518310546874,-0.036357261538505554,0.5102556071229278,1.1421670244939626
1761467624426501600,9.931501708984374,0.10436989053487777,0.7062370289064943,0.9994073436796664
1761467624436484400,9.941484375,-0.05082534735202789,0.8876471967630087,1.2735400727666915
1761467624446467300,9.95146728515625,0.09746201084256172,0.8527701638448983,1.500852306228876
1761467624456450600,9.961450439453126,0.5351829815000295,0.7646521738003939,1.4043936272099613
1761467624466433500,9.97143359375,1.016476551902294,0.9145993549659848,1.154332532453537
1761467624476417500,9.98141748046875,1.082948965719342,0.9175096894547343,0.9897713541977107
1761467624486400300,9.991400146484375,0.487771826505661,0.7799677432887255,0.922142902213335
1761467624496383500,10.001383544921875,0.8272527876853942,0.5763133757244795,0.9944804086714982
1761467624506366500,10.011366455078125,1.3284627724349498,0.41408151719905434,0.8989252543635666
1761467624516349400,10.021349365234375,1.7093249607950447,0.3554038123788312,0.5440513476103543
1761467624526332400,10.03133251953125,3.0473949350088834,0.18480779267186298,0.5719564226239919
1761467624536315400,10.0413154296875,-0.0793418322622776,0.6163757023259997,1.385528913872689
1761467624546298600,10.051298583984375,-0.12697218296527862,1.8041960783615707,0.6980757881522178
1761467624556282600,10.06128271484375,0.03559621403813362,1.3685147968381643,0.9054789868559687
1761467624566265300,10.071265380859375,0.8780366339832544,1.6770589140929282,1.1463279435656963
1761467624576248300,10.081248291015624,1.868683748102188,1.4979010552078484,1.166252248958498
1761467624586231600,10.0912314453125,2.1152987940579653,1.516652809689939,1.0200533874757587
1761467624596214500,10.101214599609374,1.964158969041705,1.5534269814662633,0.8282239708051085
1761467624606197200,10.111197265625,1.7133803736656903,1.7005793442815542,0.6906538214579224
1761467624616180500,10.121180419921876,1.5467127246499062,2.1609327102467417,0.708421679469198
1761467624626163500,10.13116357421875,1.5387275711148976,2.5377614053070543,0.825576671166718
1761467624636146400,10.141146484375,1.2944921137720347,2.2133597937069833,0.7502246391929686
1761467624646130400,10.15113037109375,1.3072364445328712,1.7627876709133385,0.6790723969966173
1761467624656113400,10.161113525390626,1.4481447983920572,1.74380853741616,0.8476764209024608
1761467624666096400,10.171096435546875,1.4535609782218932,1.7924414892904459,0.9568844721835106
1761467624676079600,10.18107958984375,1.0326251381486653,1.8011593410141764,0.8126452203359454
1761467624686062300,10.191062255859375,0.29778409217894075,2.0644129486903546,0.756840842462331
1761467624696045300,10.20104541015625,-0.20281389815211295,2.7079022833913564,0.7599201037772
1761467624706028500,10.211028564453125,-0.2535439684361219,3.0826278686925765,0.6307528949856758
1761467624716012500,10.221012451171875,-0.195370596408844,2.8898686238259077,0.5040178817771375
1761467624725995500,10.23099560546875,0.07719196075201035,2.492753804323077,0.6467706944592296
1761467624735978200,10.240978271484375,0.3985959979712963,2.451872927880287,0.876845670633018
1761467624745961500,10.25096142578125,0.6320142932236195,2.6922330050945282,1.0794085166335106
1761467624755944400,10.2609443359375,0.9295493790775536,2.8925746679142117,1.0806921267032623
1761467624765927400,10.270927490234374,0.7495633988052606,2.827459221664071,1.1098381416887044
1761467624775910400,10.280910400390624,0.3733031512826681,2.4813898220047355,1.0992609258338808
1761467624785893400,10.290893310546876,0.1223024375885725,1.9432833542734382,1.1006439046248793
1761467624795877400,10.30087744140625,-0.04817337153851985,1.2361685196191072,1.251297699689865
1761467624805860600,10.310860595703126,-0.36092590026855464,0.7782187076643109,1.3044500286847351
1761467624815843300,10.32084326171875,-0.3210895644426346,0.6816045458227395,1.3784995997577905
1761467624825826300,10.330826416015626,-0.021174889975786208,0.7005696507945657,1.4443398531511424
1761467624835809500,10.3408095703125,0.43328328047096726,0.618050065279007,1.3496505218923092
1761467624845792500,10.35079248046875,0.737639736777544,0.4464510973408818,1.1279697184458375
1761467624855775200,10.360775146484375,0.9558668926388024,0.4358189364284277,0.803806445646286
1761467624865758500,10.370758544921875,1.164942773795128,0.5987868541434407,0.5765563176348805
1761467624875742500,10.380742431640625,1.244488604196906,0.6803060304448009,0.5619146288201212
1761467624885725400,10.390725341796875,1.046829604589939,0.749478643131256,0.6335974707618356
1761467624895708400,10.40070849609375,0.9086135585546493,0.8045844442814588,0.7911138450726867
1761467624905691400,10.41069140625,0.8081149564951657,0.47924774378836155,0.8960574438422918
1761467624915674400,10.42067431640625,0.8966308598160743,0.044295653322339056,0.8842106464430689
1761467624925657600,10.43065771484375,0.9581436053991317,-0.050986383132636544,0.8893348575890063
1761467624935640300,10.440640380859374,1.0790016893982886,-0.035412089642882345,0.8093021204531192
1761467624945623300,10.450623291015624,1.3181465456038712,-0.10183832623064518,0.6901029095768928
1761467624955607300,10.460607177734374,1.4288736962109803,-0.13653613012433052,0.608890899528563
1761467624965590500,10.470590576171874,1.4511281981170177,0.031306115628778934,0.4392094556495547
1761467624975573500,10.480573486328124,1.393006848537922,0.31299861244559285,0.22169190936237573
1761467624985556500,10.490556396484376,1.2880804931640624,0.3868877322599292,-0.046425066566467284
1761467624995539500,10.50053955078125,1.2207225286841392,0.5143734177052974,-0.19200491936802863
1761467625005522400,10.5105224609375,1.1070219152241945,0.6652054919466376,-0.09205693692862987
1761467625015505400,10.52050537109375,0.6385100849837064,0.513316894389689,0.1545244990184903
1761467625025489400,10.530489501953125,0.36429157730937,0.6364046371370553,0.20599311271011828
1761467625035472400,10.540472412109375,0.2842413045167923,0.5313707297354936,0.05894844805300235
1761467625045455400,10.550455322265625,0.127579501208663,0.500207529708743,0.1188973053202033
1761467625055438600,10.5604384765625,-0.027193711873888967,0.5784156817659736,0.22551877417415378
1761467625065421300,10.57042138671875,0.028226562052965164,0.6944222340807318,0.17177403224408624
