time,seconds_elapsed,z,y,x
1761467592910540300,0.117540283203125,0.3539361875116825,0.051344987311959266,-0.5659211975803599
1761467592920523500,0.1275234375,0.3729460084080696,0.005917115089297294,-0.66953709141016
1761467592930506200,0.13750634765625,0.5426841509103775,0.16163023937046528,-0.8898536207661032
1761467592940489200,0.1474892578125,0.8613233995914459,0.35268764875531194,-1.0423105197302998
1761467592950473200,0.15747314453125,1.1793822180360556,0.5585001442015171,-1.2037149875208735
1761467592960456400,0.16745654296875,1.5414029278039931,0.6834808610886335,-1.2901463396526873
1761467592970439400,0.177439453125,1.467109026581049,0.8561094643354416,-1.3724080048844218
1761467592980422100,0.187422119140625,1.5458780273914337,0.9125304397374391,-1.313079909864068
1761467592990405400,0.1974052734375,1.506909706571698,1.0825117433458566,-1.4162263960838317
1761467593000388400,0.207388427734375,1.527652634871006,1.4443155954927205,-1.2186547094341367
1761467593010371300,0.217371337890625,1.740651242429018,1.3420312790602444,-1.1147033365722745
1761467593020354300,0.227354248046875,1.8142793732196092,1.1934960835844277,-1.2989295116975903
1761467593030337300,0.237337158203125,1.966225253921747,1.0171475830316543,-1.4625002176113426
1761467593040320500,0.247320556640625,2.0382348435997963,0.7710515925139189,-1.473803409653157
1761467593050303200,0.25730322265625,1.9114923777371644,1.6803198155850172,-1.1750835709940641
1761467593060286200,0.2672861328125,1.590706180155277,2.363835163465142,-1.116171947820112
1761467593070269400,0.27726953125,1.8674013070762157,2.402094459232688,-1.567419704852998
1761467593080252400,0.28725244140625,1.678444084841013,1.8493711448669432,-1.5467909044526515
1761467593090235100,0.297235107421875,1.9363509246617554,1.568801806861162,-1.4863840742848813
1761467593100219100,0.30721923828125,2.9599808554500338,3.0981302659898993,-1.3150783902049064
1761467593110202400,0.317202392578125,3.1825399030357597,3.336381972748041,-1.293073040754348
1761467593120185300,0.327185302734375,2.0100556278198956,2.288106845524907,-1.2108340257458388
1761467593130168300,0.337168212890625,0.6970563819766045,1.7628215731829404,-0.9643297466881573
1761467593140151300,0.3471513671875,0.9141302761495113,2.166393021479249,-0.6043839434981346
1761467593150134300,0.35713427734375,-2.2526649452656504,1.5916636270105837,0.9944736866697669
1761467593160117500,0.367117431640625,-3.606718086031079,-0.4543202232807874,2.7510519815489647
1761467593170100500,0.3771005859375,-0.6878712050020694,-0.6541840394556522,1.116948558215797
1761467593180083200,0.387083251953125,0.31072891394793983,-1.9281348849803208,1.7079162630409002
1761467593190066400,0.39706640625,-0.8226198671877384,-2.628640530627966,2.3671894423291087
1761467593200049400,0.40704931640625,-0.4261059361875057,-2.4208009132683275,2.084603503803909
1761467593210032000,0.4170322265625,-0.34176235011517997,-1.3493044849336147,2.362918048620224
1761467593220015400,0.427015380859375,0.7034791085004806,-0.216833071154356,2.170238298730552
1761467593229998300,0.436998291015625,0.23466917209625243,-0.4168386338874697,1.7170128849491475
1761467593239982300,0.446982421875,0.09885551102757453,-1.033845327593386,1.3538754461109637
1761467593249965300,0.45696533203125,1.5411691190481185,0.005495674806833267,1.5020461921885608
1761467593259948300,0.4669482421875,0.7595686599910259,1.0861638361126185,1.4510598090559244
1761467593269931300,0.47693115234375,-0.32202655303180217,1.3764020429566501,1.0576423827663064
1761467593279914200,0.486914306640625,-2.7951223016828295,0.8168480057880282,0.7958826669096947
1761467593289897200,0.496897216796875,1.9728958177268503,1.2208616448938845,1.1740993091970682
1761467593299880200,0.506880126953125,2.681339855158329,1.1985355390563606,0.4788277648106217
1761467593309863400,0.516863525390625,0.10976035140156745,1.9864429893031714,0.5075704596921802
1761467593319846100,0.52684619140625,0.4011053504437208,2.338105678924918,0.23381606239825486
1761467593329829000,0.5368291015625,0.13780220453739164,2.280079898674786,-0.19855214905440807
1761467593339812400,0.546812255859375,-0.6775684221744537,1.688050409837067,-0.4592690778598189
1761467593349795300,0.55679541015625,-0.26097265713214873,1.1083818054005503,-0.6676438250094652
1761467593359778000,0.566778076171875,0.810635999405384,1.072548275475204,-0.7574456764876842
1761467593369761300,0.57676123046875,1.567895797932148,1.6122735765799878,-0.9821931740283966
1761467593379744300,0.586744140625,2.6834277673482894,2.3405390435516833,-0.06959171488136053
1761467593389728300,0.596728271484375,2.3410516692489383,2.847170468828082,0.7754939588755368
1761467593399711500,0.60671142578125,2.0130378585010766,3.0599332218036053,0.917939313043654
1761467593409694200,0.616694091796875,2.078818198400736,3.316650267317891,1.197934358292818
1761467593419677200,0.62667724609375,2.0852491082310673,3.4424700653776523,1.2106544313952325
1761467593429660400,0.636660400390625,1.769079464533925,3.3689173379108306,1.2331304670974612
1761467593439643100,0.64664306640625,1.156081421947479,3.4883491884991527,1.028004200349748
1761467593449626000,0.656626220703125,0.19036708903312682,3.6806530908137556,0.32015695976763964
1761467593459609300,0.666609375,0.7567389895230531,3.25760595767498,0.3664990242257714
1761467593469592300,0.67659228515625,-0.22593349245488642,2.5680171351000665,0.5122784912526607
1761467593479575000,0.686574951171875,0.12165478733479976,1.5008768561482428,1.046753324483335
1761467593489558300,0.696558349609375,0.7755997573375701,0.6965867186382413,1.7663479937434194
1761467593499541200,0.706541259765625,1.8706266988635063,-0.2560106508105993,2.9045722719609737
1761467593509524200,0.716524169921875,1.213639292424917,1.2632530720300972,4.30797776491642
1761467593519508500,0.726508544921875,0.31145956631004806,1.4358749532751738,4.268294573825598
1761467593529491200,0.7364912109375,-0.6313765798419714,0.9155502259500324,3.798500302559137
1761467593539474200,0.74647412109375,-1.7467185796439646,1.695087468867004,3.4078836129039525
1761467593549457400,0.75645751953125,-3.014524931064248,1.687908663278818,2.961549127680063
1761467593559440100,0.766440185546875,-3.1781501436442134,1.133664422956109,2.998243073827028
1761467593569423000,0.776423095703125,-3.1451223187893627,0.5759188965141773,3.3540906479179857
1761467593579406300,0.78640625,-3.236747878563404,-0.28199586367756124,3.616011399555206
1761467593589389300,0.796389404296875,-3.093679131799936,-1.4015283009067177,3.6087189044594763
1761467593599372000,0.8063720703125,-2.861165091910958,-1.8512363542169332,3.501421728301048
1761467593609355300,0.816355224609375,-2.8177696022987364,-1.703373358914256,3.2639912747979163
1761467593619338200,0.826338134765625,-2.5313217276483773,-1.5733374044641852,2.86651346720159
1761467593629321200,0.8363212890625,-2.21689512822628,-1.6325170309245585,2.236979300355911
1761467593639304200,0.84630419921875,-2.257379114305973,-1.7201660882830618,0.9729150580734014
1761467593649287200,0.856287109375,-5.4816334219992155,-3.256518746960163,-0.6683709702402353
1761467593659271200,0.866271240234375,-16.541804642957448,-1.497038300898671,-2.116806276011467
1761467593669254400,0.87625439453125,-23.13707618345022,-2.6686083838790653,-3.9272541082441803
1761467593679237400,0.8862373046875,-21.80951240568161,-4.2221676134228705,-3.6770460062324997
1761467593689220000,0.89622021484375,-11.877017180919646,-0.5472983667075634,-2.355758239993453
1761467593699203300,0.906203369140625,-1.6013927016034721,1.9922616124540566,-1.1889163545787333
1761467593709186300,0.916186279296875,-1.0932394735872746,0.3470452589541673,-1.1467723263323306
1761467593719169000,0.9261689453125,1.6944178990423677,1.135572302404046,-0.3342377998292446
1761467593729152300,0.93615234375,3.235805921538174,1.0215440644249318,0.05316401943266391
1761467593739135200,0.94613525390625,3.932799467411637,-0.0387102544054389,0.48866322238743304
1761467593749118200,0.9561181640625,4.782331891444326,-0.5090089680626988,0.5575871210098267
1761467593759101200,0.96610107421875,3.8206589428752658,-0.8733464303404093,1.0110387447625397
1761467593769084200,0.976084228515625,2.7549337914183734,-1.5270795111581683,1.0730214459449052
1761467593779067400,0.9860673828125,2.520081956231594,-1.7656436448663473,0.675363605606556
1761467593789050400,0.99605029296875,2.221957672312856,-1.2579033815652132,0.1939449475198984
1761467593799034400,1.006034423828125,2.099002323773503,-0.9199535754755139,-0.27532734569907186
1761467593809017000,1.01601708984375,-0.2714484584391117,1.4194722461372613,-0.5291922166526317
1761467593819000300,1.026000244140625,-1.698048656760156,2.6318621230229735,-0.7761509614795445
1761467593828983300,1.0359833984375,-2.99297039412111,1.5756889360263944,-0.7297808399707079
1761467593838966300,1.04596630859375,-4.282909374633431,0.9398647291257977,-0.7196995909392834
1761467593848949200,1.05594921875,-4.733269169850647,1.2339110960811377,-0.4811784195899963
1761467593858932200,1.06593212890625,-3.158504655192792,0.5669391789838671,0.16225100161731243
1761467593868915200,1.075915283203125,-3.7214912971585985,0.6885612330928444,0.28592765016853805
1761467593878898200,1.085898193359375,-2.774548884731531,1.772089460004866,0.9797364285260438
1761467593888881200,1.095881103515625,-1.6234195322334766,1.683999673141539,1.7708704396039245
1761467593898864400,1.105864501953125,-0.5044985049009323,1.9905024938270448,2.624140296599269
1761467593908847400,1.115847412109375,0.1612462084889412,2.677301685683429,2.128322526282072
1761467593918830000,1.125830078125,0.9004439883634447,2.8741639819547533,0.33429683654010295
1761467593928813300,1.135813232421875,0.7758692219287157,2.7154762257769702,-0.4984942960500717
1761467593938796300,1.14579638671875,-0.8113882790774106,1.7783628411859274,-0.5944973402559757
1761467593948780300,1.1557802734375,-0.4501227715909481,1.2171589909836649,0.6830810481160878
1761467593958763300,1.16576318359375,2.0414736793905495,1.2326537894964218,1.1660475201666354
1761467593968746200,1.175746337890625,-2.7832924554184078,0.9911018721491098,-0.6153349611014127
1761467593978729200,1.185729248046875,-4.133307134447992,0.11752630922794341,-1.4332669627338648
1761467593988712200,1.195712158203125,-0.9106088240250945,-0.18790099118053913,-0.9575111527144908
1761467593998695200,1.205695068359375,1.7041870133846997,-0.45905251249969004,-1.095592174193263
1761467594008678100,1.21567822265625,1.9853636696338652,0.08637012346386909,-2.260566512170434
1761467594018661400,1.225661376953125,1.1650500335618852,0.31820261082947254,-2.9676620576024053
1761467594028644400,1.235644287109375,-1.5517384438574313,0.1455038649559021,-3.0068963358819483
1761467594038627000,1.245626953125,-1.306000180736184,-0.7713257332801818,-3.105025286200642
1761467594048610300,1.2556103515625,-0.33540216743350026,-0.7563701562106608,-2.8122862024515864
1761467594058593300,1.26559326171875,0.0841869342058897,-1.3874275871008634,-1.81961138189733
1761467594068576300,1.275576171875,0.8591974934786558,-1.1988920974090695,-1.193189794114232
1761467594078559200,1.285559326171875,2.454939621974528,0.18818682238459586,-0.9067635467737912
1761467594088543200,1.295543212890625,2.838212670868635,-0.32156858013123274,-1.2179840436309575
1761467594098526200,1.305526123046875,1.664210392305255,-1.3526102484807372,-1.5166425805568695
1761467594108509200,1.31550927734375,2.112433760015666,-1.4564344878315925,-2.1560113281965254
1761467594118492400,1.325492431640625,2.3791069668769835,-0.964838426862657,-2.992030775183439
1761467594128475100,1.33547509765625,2.6856828527987,-0.8581719498232007,-3.3771453602910038
1761467594138458400,1.345458251953125,3.315361688812077,-0.4917953829333186,-3.3967303507268425
1761467594148441300,1.35544140625,3.264812235791981,-0.4773100537240505,-3.580091360390186
1761467594158424000,1.365424072265625,3.1547219217836857,-1.0647048684984446,-3.5351568246424194
1761467594168407300,1.3754072265625,3.506675995567441,-1.280296707420051,-3.138929893890023
1761467594178390300,1.385390380859375,3.945313496547937,-0.9985139019712805,-2.7031892833948135
1761467594188373200,1.395373291015625,3.084430826461315,-1.5685975164607167,-2.4924188732802866
1761467594198356200,1.405356201171875,3.234084796833992,-0.6975640392377972,-1.3916630327135324
1761467594208339200,1.415339111328125,2.2163199586868285,0.8281067741662264,0.27366321187913417
1761467594218322200,1.425322265625,-0.5743006476625799,-0.7980886525213718,0.5589847128480673
1761467594228310300,1.435310302734375,-1.6055787551164626,-0.07625731025040149,1.281481241029501
1761467594238293500,1.44529345703125,-2.4098656777560707,0.7129717439889908,3.0561160016030073
1761467594248276500,1.4552763671875,-2.5450831264972686,1.5363655181586742,4.55141768796742
1761467594258259200,1.46525927734375,-2.7642186293751,1.9889695851713418,5.540339293467998
1761467594268242400,1.475242431640625,-3.2693022406876087,2.040816384525597,6.075042967018485
1761467594278225400,1.485225341796875,-3.253219705414772,3.1565494294717906,6.9421069560885424
1761467594288208400,1.49520849609375,-2.5067706392377613,2.195923651868105,7.831011605566739
1761467594298191400,1.50519140625,-2.8405592339947816,1.262196694844961,7.530398427441716
1761467594308174300,1.51517431640625,-3.167150610724091,0.7583893870785832,7.111254146960377
1761467594318157300,1.5251572265625,-2.971108983185887,-0.10211538960635662,6.617501492479443
1761467594328140500,1.535140625,-3.161934045119583,-0.8990919892325997,5.812393901106715
1761467594338123300,1.545123291015625,-1.9326994164168834,-0.8528869951575994,5.2909582899302245
1761467594348106500,1.5551064453125,0.5269359621584415,0.29777210948020216,5.673893192911148
1761467594358089500,1.56508935546875,0.5507856243014335,0.7410580207884311,5.911156473153829
1761467594368073500,1.575073486328125,0.09620295069217681,0.7516109789848328,5.645502380207181
1761467594378056200,1.58505615234375,0.47882396541833877,0.45979485529959196,4.47187361113131
1761467594388039400,1.595039306640625,1.1170914738178253,-0.4364513891130686,2.5677578996419905
1761467594398022400,1.6050224609375,1.4400105917751789,-1.8420576069831847,0.1760597467392683
1761467594408005400,1.61500537109375,1.736676785840094,-1.8740312466099858,-1.9609411760389803
1761467594417988400,1.62498828125,2.235847373716533,-1.665558592043817,-3.079891429466009
1761467594427971300,1.634971435546875,2.993158902430534,-1.4307152324244379,-3.512753854176402
1761467594437954300,1.644954345703125,3.8272169862166043,-1.134143730905652,-4.131732140216231
1761467594447937500,1.6549375,3.979513872313499,-0.9945029127642512,-4.989654206931591
1761467594457920300,1.664920166015625,3.516847553230822,-1.0331886172503233,-5.566644532069564
1761467594467903500,1.674903564453125,3.137050071492791,-1.0839981825113296,-5.9150067188411946
1761467594477886500,1.684886474609375,3.0735233557388186,-1.0935820034146309,-6.29709932577908
1761467594487869200,1.694869140625,2.85538007876873,-1.215415069925785,-6.907375834447145
1761467594497852400,1.704852294921875,2.896779133866727,-1.4979758740097284,-7.640142412230372
1761467594507836400,1.71483642578125,2.9624598127841946,-1.978743374711275,-8.639683026900887
1761467594517819400,1.7248193359375,3.7396962314128874,-1.568382412405312,-8.29966839723587
1761467594527802400,1.73480224609375,2.8293039727479217,-2.23194598236382,-8.263000754573941
1761467594537785300,1.744785400390625,1.7107488561183213,-2.2185259442985057,-7.421057762756943
1761467594547768300,1.754768310546875,0.5831657989025115,-2.177642145246267,-6.227413210612535
1761467594557751300,1.764751220703125,0.10465601399987935,-1.8683523241907356,-4.875230539894104
1761467594567734500,1.774734619140625,-0.3850181389957666,-1.506535028040409,-2.8995816240668297
1761467594577717200,1.78471728515625,-1.3771920242905615,-0.9395102165997028,-0.842495949524641
1761467594587700500,1.794700439453125,-1.6791674306795,-0.11217910298109054,1.2353244700103998
1761467594597683500,1.804683349609375,-1.2082935474827885,0.2879369441643357,3.181058724567294
1761467594607666400,1.81466650390625,-0.5978454816401004,0.1325429688349366,4.510426921409368
1761467594617649400,1.8246494140625,-1.3937906923919916,0.6466410767301917,5.828119293504953
1761467594627632400,1.83463232421875,-4.302000444072485,1.1265466999053955,7.858348525303602
1761467594637615400,1.844615478515625,-6.404670642703771,1.3025205219268798,9.037923635563255
1761467594647599400,1.854599365234375,-6.365429350161552,2.466594111672044,9.131475194963812
1761467594657582300,1.864582275390625,-4.9975943522810935,3.8181343928337097,9.146561704936623
1761467594667565300,1.8745654296875,-3.7875446087807414,4.863098788073659,8.373612169846892
1761467594677548300,1.88454833984375,-3.0938869293317195,5.347172929105162,7.157680382570624
1761467594687531500,1.894531494140625,-2.6459219202965496,5.2731075759410855,5.849114735260605
1761467594697514200,1.90451416015625,-2.3232404104873536,4.65807539717853,4.768107551258802
1761467594707497500,1.91449755859375,-2.316630344697833,3.6580548900365826,3.761021343514323
1761467594717480400,1.92448046875,-2.248930727173388,2.844203435716033,2.62894974270761
1761467594727463400,1.93446337890625,-1.571407605445385,2.1519176291421056,1.2836129923611879
1761467594737446400,1.9444462890625,-0.7844435735285281,1.7104747153520583,-0.24125556474924087
1761467594747429400,1.954429443359375,-0.09963877035975456,1.3813731093674897,-1.476620366770029
1761467594757412400,1.964412353515625,0.4652063589543104,0.8829629844695329,-2.5476006622761487
1761467594767395600,1.9743955078125,0.7637786789014935,0.12971300610601902,-3.3841005862563844
1761467594777378300,1.98437841796875,0.9310743966877459,-0.5860559673860669,-3.7232208974301813
1761467594787362300,1.9943623046875,0.9940595529109238,-0.9983569578438997,-3.840414613702893
1761467594797345300,2.00434521484375,1.419317932358384,-1.6010361432507634,-4.013710740947723
1761467594807328500,2.01432861328125,2.0922768149107696,-2.0746225002765653,-4.215872897192836
1761467594817311200,2.024311279296875,1.9383608031794428,-2.2119433510378004,-4.28130778465569
1761467594827294500,2.03429443359375,1.8944009576827288,-2.2051123359739777,-4.420553173738718
1761467594837277400,2.04427734375,2.0735294443428516,-2.221141972015798,-4.632587320178747
1761467594847260400,2.054260498046875,2.267154073867202,-2.249693528239429,-4.684182482859492
1761467594857243400,2.064243408203125,2.5203216102063655,-2.288089602129161,-4.884315763625502
1761467594867226400,2.074226318359375,3.078640260361135,-2.224330831184983,-5.067758021831512
1761467594877209300,2.084209228515625,3.7409658129572865,-2.043636118121445,-5.0798997105240815
1761467594887192600,2.094192626953125,4.203616642209887,-1.7001128958135843,-5.182471027204394
1761467594897175300,2.10417529296875,4.7106420352399345,-1.328706810323894,-5.289039889088273
1761467594907158300,2.114158203125,5.004226922163367,-0.9073091979578137,-4.9688417205274105
1761467594917142300,2.124142333984375,4.85544973462522,-0.3741282039299607,-4.086317711997032
1761467594927125500,2.13412548828125,4.80397556797564,0.05474953505843878,-2.8667069439470767
1761467594937108200,2.144108154296875,4.21388844537735,0.19463877500295637,-1.8274083193838595
1761467594947091500,2.154091552734375,2.633902981200814,0.2337085103705525,-0.8816121543824672
1761467594957074400,2.164074462890625,0.9981357163086533,0.3980249200850725,0.44255087503194807
1761467594967057400,2.174057373046875,-0.2606564307898283,0.9131322050228714,1.977531076312065
1761467594977040400,2.184040283203125,-1.3277394265964626,1.4538143684610723,3.314113442316651
1761467594987023400,2.1940234375,-2.566904497683048,1.8857479878887533,4.163642359218001
1761467594997006300,2.20400634765625,-3.143707775816321,2.5972116654023525,5.104882176089286
1761467595006989600,2.213989501953125,-2.854164273238182,2.795356402699649,5.998877426704764
1761467595016972300,2.22397216796875,-2.657870424504578,2.927615001635253,6.23807138274908
1761467595026955300,2.233955322265625,-3.0062749891132117,2.9841745087251064,5.992332535105944
1761467595036938500,2.2439384765625,-3.7479204544007776,2.4404192214518785,5.807989528667926
1761467595046921500,2.25392138671875,-3.864192087392509,2.0389675417885185,5.7998407090038056
1761467595056905200,2.2639052734375,-3.5592572466760872,1.5587228959172963,5.924771741530299
1761467595066888400,2.273888427734375,-2.9702044355615973,0.9543860064312815,5.935193766823411
1761467595076871400,2.283871337890625,-2.1187188316345216,0.36388124294281005,5.585088535776734
1761467595086854400,2.2938544921875,-1.321530342823267,0.12351648955345153,4.716994619137049
1761467595096837400,2.30383740234375,-1.1192562506362795,-0.19802403352707623,3.9766853708893057
1761467595106820400,2.3138203125,-1.1027002526327967,-0.6140338153749704,3.473607254180312
1761467595116803300,2.32380322265625,-0.4698895483344793,-0.8359054652184248,2.830927774557471
1761467595126786600,2.33378662109375,0.5940747309297323,-0.9671098789259791,2.5258044255316254
1761467595136769300,2.343769287109375,1.2586919015944003,-1.1970397475406527,1.696360849803686
1761467595146752300,2.353752197265625,1.3645099451109766,-1.1307371373325585,0.9112216952264308
1761467595156735500,2.363735595703125,1.0010226699218154,-1.316584118592739,0.23508768976926803
1761467595166718500,2.373718505859375,1.1883940842702985,-1.7187974302783608,-0.49747196726500986
1761467595176701200,2.383701171875,1.4195143317133188,-1.6275141080707312,-1.6991612941771745
1761467595186684400,2.393684326171875,1.2318620545968413,-1.5412328319340944,-2.534778005582094
1761467595196667400,2.40366748046875,1.4774623705521226,-1.320543669873476,-3.0046278064280747
1761467595206651400,2.4136513671875,1.7297560466662047,-1.0615274075061083,-3.39942090498507
1761467595216634400,2.42363427734375,1.5942773166403172,-1.1125427244722843,-3.8518858557879923
1761467595226617300,2.433617431640625,1.3179425474643707,-1.2741902072384952,-4.3891035579860205
1761467595236596000,2.443595947265625,1.1420365299820898,-1.5859595701500773,-5.101019070920348
1761467595246579000,2.453578857421875,1.234896599987149,-1.9966341284498572,-6.0192912691801785
1761467595256562000,2.46356201171875,1.7210861257374286,-2.3161013523876663,-7.0127551942855115
1761467595266545200,2.473545166015625,2.131196620413661,-2.4513053571254013,-7.724691165485978
1761467595276527900,2.48352783203125,1.9358970434144138,-2.5873475662529466,-8.561525435987114
1761467595286510800,2.4935107421875,1.6837082889795303,-2.507643914940953,-9.19955270588994
1761467595296494000,2.503494140625,2.028540548059344,-2.3655510274723173,-9.58204629484415
1761467595306477000,2.51347705078125,2.532757605670392,-2.381596153344214,-9.449769575729965
1761467595316459800,2.523459716796875,2.8127392069160937,-2.427773382629454,-8.626024503904581
1761467595326443000,2.533443115234375,2.048712982994318,-2.6167440488681195,-7.456611891219019
1761467595336427000,2.543427001953125,0.893132788567245,-2.5271646079689263,-6.078458912941813
1761467595346410000,2.553409912109375,0.2377306054934859,-2.205877475127578,-4.27414739150703
1761467595356393000,2.56339306640625,0.40034021129012104,-1.6036746750608086,-1.6266963619470596
1761467595366376000,2.5733759765625,1.0152920182928442,-1.0159364536762236,1.6281705261528492
1761467595376359000,2.58335888671875,0.4989224583342671,-0.532520776553452,4.725265603876114
1761467595386342100,2.593342041015625,-1.861101037888229,-0.5873047984033822,7.439961200669408
1761467595396324900,2.603324951171875,-4.566670786678791,0.14047376183420418,9.689552729839086
1761467595406307800,2.613307861328125,-6.219990367135405,2.521678285512328,11.2898859855175
1761467595416291000,2.623291015625,-6.765135939723253,5.411912820041179,11.744951474207639
1761467595426274000,2.633274169921875,-6.077044369968772,6.007374036893248,12.209150701946019
1761467595436256800,2.6432568359375,-4.785126490598917,6.161100371271371,10.559871921312808
1761467595446240000,2.653239990234375,-3.1501790176570412,5.4583717888772485,7.975257579416036
1761467595456223000,2.663222900390625,-1.3803911125928163,4.579309611238539,6.672608462673425
1761467595466207000,2.67320703125,1.3742048251733183,4.75574783590138,6.239498200681806
1761467595476190000,2.68318994140625,1.5414084807619453,5.294320459839701,6.272224412241577
1761467595486173000,2.6931728515625,0.02672083366513252,5.342726471090317,6.106662094119191
1761467595496156000,2.703156005859375,-1.6992653390735386,4.463206905072927,5.33932455369234
1761467595506139100,2.71313916015625,-2.811446536757052,3.3391651737257835,3.595408756509423
1761467595516121900,2.723121826171875,-2.6461086750403044,2.393207680682838,1.601601668179035
1761467595526104800,2.733104736328125,-1.1871066748082637,1.5140978645101189,0.0505985528588295
1761467595536088000,2.743088134765625,-0.07521218511164188,0.8546285781279206,-1.0845768591821192
1761467595546071000,2.753071044921875,0.34870734694749117,0.22921295251697302,-1.88123167950809
1761467595556053800,2.7630537109375,0.2241255662500858,-0.3564826571241021,-2.4637504126787184
1761467595566037000,2.773037109375,0.24881460182666776,-0.9010919308781623,-2.7140789261996745
1761467595576020000,2.78302001953125,0.7644374350711702,-1.3847916856393216,-2.872680173137784
1761467595586003000,2.7930029296875,0.9703586515888571,-1.447377321150899,-3.5495933462738987
1761467595595986000,2.80298583984375,1.2475047371476888,-1.2988298507153988,-4.735773553887009
1761467595605970000,2.812969970703125,1.6764657705053687,-1.294418756274879,-5.711031375694275
1761467595615953000,2.822952880859375,2.415921909055114,-1.3756664221584796,-6.40189416372776
1761467595625936100,2.83293603515625,2.9815938445821404,-1.3719120380610226,-7.091793659687042
1761467595635918800,2.8429189453125,3.1835087480679154,-1.3830387044921517,-7.7743474690586325
1761467595645901800,2.85290185546875,3.4205896574810146,-1.510913681516051,-8.441607847708463
1761467595655885000,2.862885009765625,3.574405131447315,-1.7394065030649304,-9.164940826714039
1761467595665868000,2.872867919921875,3.426732105758786,-1.914085316839814,-9.63124491777718
1761467595675850800,2.882850830078125,2.824368562172353,-2.0633093713626263,-9.726056121850013
1761467595685834000,2.892833984375,1.7555907451465724,-2.188272844853997,-9.366611400049925
1761467595695817000,2.90281689453125,1.089829372882843,-2.316402381160855,-8.70172593383789
1761467595705800000,2.912800048828125,0.6386334191024303,-2.35203366651237,-7.786375760504603
1761467595715783000,2.922782958984375,0.988917513847351,-2.352905188649893,-6.523918368896841
1761467595725766000,2.932765869140625,2.4448446366786953,-2.1549852000191807,-4.884792733487487
1761467595735749000,2.9427490234375,2.954954551720619,-1.3575517965361474,-2.8634511570215224
1761467595745733000,2.952733154296875,2.007975314414501,0.07581511944085359,0.17617139042019844
1761467595755715800,2.9627158203125,0.9917609205797314,0.8441358256861567,3.684220427906513
1761467595765698800,2.97269873046875,-0.057037938256561754,1.697869793061912,6.677414401650428
1761467595775682000,2.98268212890625,-1.1315639435455203,1.8303250836133955,9.354176865890622
1761467595785665000,2.9926650390625,-1.699234943935275,1.1511465958938,12.220089444589615
1761467595795647700,3.002647705078125,-2.5980866946712133,0.8021212690383196,13.598276325136423
1761467595805631000,3.012630859375,-3.6276501071617004,0.970530501024425,13.419250129806995
1761467595815614000,3.022614013671875,-4.928307465565204,0.9527744795814156,12.868742737925052
1761467595825597000,3.032596923828125,-4.410697842417657,1.0772557225137949,12.53174131860137
1761467595835580000,3.042579833984375,-3.3218691710099577,1.1806228657469153,11.828045937001704
1761467595845563000,3.05256298828125,-2.967159368777275,1.274313541357219,10.235983666062355
1761467595855546000,3.062546142578125,-2.6101778222203253,1.342341660183668,8.216462875282764
1761467595865529000,3.072529052734375,-1.9784440995037555,1.1120327291235328,6.368792104592919
1761467595875513000,3.08251318359375,-1.446641992613673,0.8417745033822953,4.690315871047973
1761467595885495800,3.092495849609375,-0.8662553030356764,0.6227762170180678,3.365490578332543
1761467595895479000,3.10247900390625,-0.13893033178448677,0.4883903967954218,2.0790800642073153
1761467595905462000,3.1124619140625,0.6681415453985333,0.20885551640391348,0.8420692485451697
1761467595915444700,3.12244482421875,1.5982444667056201,-0.15121230573058128,-0.11002806242704391
1761467595925428000,3.132427978515625,2.416018355166912,-0.44554114288911223,-0.67815352858603
1761467595935411000,3.142410888671875,2.7735350315138696,-0.5799794239513576,-1.025493971094489
1761467595945394000,3.152393798828125,2.7694641288131474,-0.717850163680315,-1.4861527497470377
1761467595955377000,3.162376953125,2.6787670820608733,-0.7707359506934881,-1.9742554156422614
1761467595965359900,3.17235986328125,2.6386653732970355,-0.8824120725885033,-2.6006045227110386
1761467595975343000,3.182343017578125,2.7974986754253504,-1.0570699897058307,-3.6561394118040798
1761467595985326000,3.192326171875,3.311403891097009,-1.0783953940682112,-4.769918984594941
1761467595995308800,3.202308837890625,3.2919872429654,-0.9988365580543875,-5.617121504375338
1761467596005292000,3.2122919921875,3.326830592809617,-0.8985697189241647,-5.944925471764803
1761467596015276000,3.222276123046875,2.487295538917184,-0.721189391105622,-6.710414753976464
1761467596025259000,3.232259033203125,2.009401840086281,-0.5155382237009704,-7.423228677055239
1761467596035242000,3.242241943359375,1.8946584395751356,-0.6608110563799738,-8.188845969560742
1761467596045225000,3.252224853515625,1.8829463744714856,-0.7903089584305882,-8.74659792574346
1761467596055208000,3.2622080078125,1.9911022132858633,-1.030266884584725,-9.00238412014842
1761467596065191000,3.27219091796875,2.035804693843424,-1.312005558630824,-9.069054102364182
1761467596075174000,3.282173828125,1.7914134614169597,-1.5396815108388662,-8.85238060568571
1761467596085156900,3.292156982421875,1.2735647688165306,-1.553342664183676,-8.422341421702503
1761467596095140000,3.30214013671875,1.1275763352140784,-1.5909277139514684,-7.623632006934285
1761467596105123000,3.312123046875,0.9120765584900975,-1.4721177946537731,-6.138831256318092
1761467596115105800,3.322105712890625,0.645821869301796,-1.2461720272392034,-4.053965009924769
1761467596125089000,3.332089111328125,0.7300202016845345,-1.022879404681921,-1.7658873904943466
1761467596135072000,3.342072021484375,1.1538932642534374,-0.8654714591816067,0.6675421182006597
1761467596145056000,3.352055908203125,1.9427461786568163,-1.1076984993115067,2.930003065815568
1761467596155039000,3.3620390625,0.7861223203957081,-1.1185437184527516,4.976705293509363
1761467596165022000,3.37202197265625,-2.062524650725722,-1.0512848304331301,7.269466102319956
1761467596175005000,3.3820048828125,-4.443813930077851,-0.9788885795250535,9.3898385463804
1761467596184988000,3.39198779296875,-5.364733720237016,-0.43214024791568517,10.173352145582436
1761467596194971000,3.401970947265625,-5.996408990764618,1.4601026549503207,9.851530759733915
1761467596204953900,3.411953857421875,-5.9370624833047385,3.7207834411501883,9.81095675728321
1761467596214937000,3.42193701171875,-4.9879748755425215,5.829667107468843,9.31982802156508
1761467596224920000,3.431920166015625,-4.291270375743508,6.699179658734798,8.313732578423618
1761467596234903000,3.441903076171875,-3.594131576180458,6.5352119163274764,7.350562084773182
1761467596244886000,3.451885986328125,-2.9530598240152,5.948689792734384,6.466185141852498
1761467596254869000,3.461868896484375,-2.396014262536168,5.1313066571563475,5.754390624949336
1761467596264852000,3.47185205078125,-1.3331029994562267,4.2495717531770465,4.654729593881965
1761467596274835200,3.481835205078125,-0.15788053144812583,3.2189678917229174,3.3187475318580866
1761467596284819000,3.49181884765625,0.5877016887664794,2.266107195162773,2.0466233172386885
1761467596294802000,3.501802001953125,1.0068933155208826,1.7433327365979552,1.11497492005527
1761467596304785000,3.511784912109375,1.4800813208788632,1.3670944086462258,0.05036649766862392
1761467596314768100,3.52176806640625,1.8024153324246406,0.6645531655177473,-1.3286591717898846
1761467596324750800,3.531750732421875,1.8450176258325575,-0.17055267375558614,-2.8255238696873186
1761467596334734000,3.541734130859375,1.872846713000536,-1.0185466361746192,-3.9614971541076898
1761467596344717000,3.551717041015625,2.1334303708150983,-1.5783280523583292,-4.607023255333304
1761467596354700000,3.561699951171875,2.534432845406234,-1.6736477904751896,-5.139743646112084
1761467596364683000,3.57168310546875,2.7789976808339354,-1.5491943123325704,-5.556948482963443
1761467596374666000,3.581666015625,2.9042332492649554,-1.4978279899716376,-5.8898985810697075
1761467596384649000,3.59164892578125,3.1862215141579506,-1.631296841479838,-6.361354063546657
1761467596394632200,3.601632080078125,3.683369948557019,-1.9066697798863053,-6.98508217446208
1761467596404615000,3.611614990234375,4.306104372259974,-2.293304706428945,-7.414767138180136
1761467596414599000,3.621598876953125,4.498096139885485,-2.600353178298473,-7.812427316606044
1761467596424582000,3.631581787109375,4.391875360786915,-2.663187235613167,-8.0866277041018
1761467596434565000,3.641565185546875,4.193794920897483,-2.68933903721869,-8.13325384619832
1761467596444547800,3.6515478515625,3.396509985974431,-2.498433311264217,-8.07915166913271
1761467596454531000,3.661531005859375,3.0211607158169147,-2.0588819103091955,-7.732381135466694
1761467596464514000,3.67151416015625,2.6272049448668957,-1.9269751935511827,-7.184520458701252
1761467596474497000,3.6814970703125,1.837552989040315,-1.5786945475831626,-5.6136851001858705
1761467596484480000,3.69147998046875,1.6485051659122107,-1.3373442902877926,-3.595009528058767
1761467596494463000,3.701462890625,1.688496107777953,-0.9008174978509544,-1.8028642452359198
1761467596504446000,3.711446044921875,0.9218851280599832,-0.4256163991048932,0.09065642248094082
1761467596514429200,3.72142919921875,-0.459623298124969,0.5425713381856679,2.463406713807583
1761467596524412000,3.731411865234375,-1.324659873020649,1.7145874113678932,5.060613995295762
1761467596534395000,3.741394775390625,-2.4650576958850023,2.9998183603197335,7.042858656126261
1761467596544379000,3.75137890625,-3.7867458596184846,3.7191497024685143,8.422337330049276
1761467596554362000,3.761362060546875,-5.081801160231232,3.7985163769111034,9.854344648110866
1761467596564345000,3.771344970703125,-5.540922646313906,3.315758286914229,10.41836852416992
1761467596574328000,3.781328125,-5.124592254209518,2.9157626512780785,9.702927759718895
1761467596584311000,3.79131103515625,-4.7407139328986405,2.194390158690512,9.106278209865092
1761467596594294000,3.8012939453125,-3.963982541182637,1.797649433197081,9.054534578624367
1761467596604277000,3.811277099609375,-3.320563056847453,1.1687030031114816,8.868403519725799
1761467596614260000,3.821260009765625,-2.37358352728039,0.6614838410750031,7.978589938709139
1761467596624243000,3.831242919921875,-1.8010706398174166,0.11211568235605955,7.008211121115088
1761467596634226200,3.84122607421875,-1.5079980863302944,-0.5742889572247862,5.9630959192276
1761467596644209000,3.851208984375,-0.9057783351287245,-0.9269099704846739,4.711208436951041
1761467596654191900,3.86119189453125,-0.18959376657307148,-1.1446399904787539,3.3754584301173685
1761467596664175900,3.87117578125,0.10463409442901611,-1.3861460228577256,2.1266782662063837
1761467596674159000,3.8811591796875,0.2926461447685957,-1.5297826326370239,0.9063771778047084
1761467596684142000,3.89114208984375,0.7799041765332222,-1.796478051330149,-0.34807752461135383
1761467596694125000,3.901125,1.5245119987577198,-1.9888620331436395,-1.4456775314956902
1761467596704108000,3.91110791015625,2.1502087793976066,-1.9507789707258343,-2.2661142094254494
1761467596714091000,3.921091064453125,2.359743510237336,-1.7620014889717102,-2.897933272337913
1761467596724074000,3.931073974609375,2.134596491985023,-1.6121636864647269,-3.3372295294880865
1761467596734057000,3.941056884765625,1.8094634973704813,-1.5597484395727514,-3.6962691776186225
1761467596744040000,3.9510400390625,1.3371005446597932,-1.451299170769751,-4.12216643949151
1761467596754023200,3.961023193359375,1.0103849570289254,-1.4687883579701184,-4.754962238481641
1761467596764006000,3.971005859375,0.906366656410694,-1.5980308239549397,-5.54775921433568
1761467596773988900,3.98098876953125,0.8693357333943247,-1.6426161078736186,-6.447762180933356
1761467596783972000,3.99097216796875,1.0220181116774678,-1.5748469322443008,-7.041147760555147
1761467596793956000,4.0009560546875,1.8028607381045818,-1.4723857979401944,-7.51877111801207
1761467596803937800,4.010937744140625,2.610034906618297,-1.3897519383952022,-7.827965077477693
1761467596813921000,4.020921142578125,2.9652444750666618,-1.2145242585659026,-7.840258157339692
1761467596823904000,4.030904052734375,2.9582626533553,-1.077829430748522,-7.622118679761886
1761467596833887000,4.040886962890625,2.7599913670688867,-1.0904431208670138,-7.223686932441592
1761467596843870000,4.050869873046875,2.2231775694966314,-1.3034095797210932,-6.56869975990951
1761467596853853000,4.06085302734375,1.5567472119301557,-1.286292732964456,-5.493549485242366
1761467596863836200,4.070836181640625,1.159043194362521,-1.1067214709728956,-4.079764052569866
1761467596873819100,4.080819091796875,0.747462627133727,-0.938905528704822,-2.377079260441661
1761467596883801900,4.0908017578125,0.5691653306007385,-0.8112763431355356,-0.7152636543184518
1761467596893785000,4.10078515625,0.2643696060940623,-0.6720987585917115,0.9917436771839857
1761467596903768000,4.11076806640625,-0.5270855997622013,-0.5003077752128243,2.6632459800630808
1761467596913752000,4.120751953125,-1.71636494243443,-0.15012334145009518,4.181346942734718
1761467596923734800,4.13073486328125,-3.3136949246436354,0.46262774063795803,5.7171559960544105
1761467596933718000,4.140718017578125,-5.27257741458714,1.4690695129990576,7.183150923913717
1761467596943701000,4.150700927734375,-6.900711115860939,2.621989548306167,8.124233504396676
1761467596953684000,4.16068408203125,-7.118721414101123,3.4740067748919126,8.243491751983761
1761467596963667000,4.1706669921875,-6.03706131914854,4.174960748828947,7.567464129510522
1761467596973650000,4.18064990234375,-4.490948606218398,4.505855667971074,6.7282555310934775
1761467596983633200,4.190633056640625,-3.3007463034823536,4.370578890258074,5.822426050299406
1761467596993616100,4.2006162109375,-2.3806974509388206,4.221118396630883,4.9588504878669974
1761467597003598800,4.210598876953125,-1.7362953853070735,3.949581090864539,4.388571058544517
1761467597013582000,4.22058203125,-1.5354218075677752,3.4895348911523816,3.793444772735238
1761467597023565000,4.23056494140625,-1.401839266552031,2.8767595514059066,3.1230408353626724
1761467597033548000,4.240548095703125,-1.2586729046329854,2.1120599582672117,2.472728084382415
1761467597043531800,4.25053173828125,-1.0745935175672172,1.3397013748079538,1.676824959206581
1761467597053515000,4.260514892578125,-0.8522589263871312,0.6186547531738877,0.7123346151292324
1761467597063498000,4.270498046875,-0.4294947018429637,0.05641805279254913,-0.20931611965298652
1761467597073481000,4.28048095703125,-0.029155075074732303,-0.3970458459198475,-1.0268781189292668
1761467597083464000,4.2904638671875,0.26065672305077314,-0.9041472267955541,-1.8764438607096672
1761467597093447000,4.300447021484375,0.5575801067471504,-1.4729384633868932,-2.8820015437126156
1761467597103430100,4.31043017578125,1.0594751511514187,-1.990138628950715,-3.957175199255347
1761467597113413000,4.3204130859375,1.6726766073554753,-2.4816116480618713,-4.96669652519226
1761467597123395800,4.330395751953125,1.9721406154453753,-2.8091964197427033,-5.906171670478582
1761467597133379000,4.340379150390625,2.239284070166945,-2.8274603907078504,-6.610995179325342
1761467597143362000,4.350362060546875,2.6583339503630996,-2.6406866499915718,-7.065793541511892
1761467597153345000,4.360344970703125,2.7960388320058582,-2.5005931196466085,-7.346767368665337
1761467597163328800,4.370328857421875,2.7640222300201653,-2.189535704396665,-7.548829571667313
1761467597173312000,4.38031201171875,2.741157487261295,-1.748034630678594,-7.56276574256122
1761467597183295000,4.390294921875,2.7113708362847566,-1.3677163399368524,-7.610080451443791
1761467597193278000,4.40027783203125,2.6670693377435204,-0.9006064854487776,-7.62037680453062
1761467597203261000,4.410260986328125,2.7336908046424386,-0.45692602186501025,-7.422464706945419
1761467597213244000,4.420243896484375,2.706967048367858,-0.35230624822229145,-7.037422018030285
1761467597223227100,4.43022705078125,2.3629794234186408,-0.4390510502174496,-6.2870455492764705
1761467597233213400,4.44021337890625,2.3778689495146272,-0.4953706110715866,-4.923328508108854
1761467597243196400,4.450196533203125,2.2884330087393523,-0.7403367207765579,-3.409296402311325
1761467597253179600,4.4601796875,1.5500000757575034,-0.8267486375555395,-1.808248276361823
1761467597263162600,4.47016259765625,0.7182859247490764,-0.5995087386772037,0.1701338638216257
1761467597273145300,4.480145263671875,-0.024269348859786984,-0.09545037875920534,2.614441909405589
1761467597283129300,4.49012939453125,-1.4077952523469923,0.7289809217646718,5.270443909689784
1761467597293112600,4.500112548828125,-2.9521655055239795,1.3677648552536963,7.747152588140964
1761467597303095600,4.510095458984375,-5.135072731691599,1.2045765727862714,10.508780031979084
1761467597313078500,4.52007861328125,-6.3537856741189955,0.6197758661583066,12.921295931982993
1761467597323061500,4.5300615234375,-5.470921473848819,0.5093985519021749,13.105684531128405
1761467597333044500,4.54004443359375,-4.695016011562943,0.6581742781355977,12.13094985641241
1761467597343027700,4.55002783203125,-4.367509858076274,1.3012830890864133,11.173255163824557
1761467597353010400,4.560010498046875,-3.8877591332018375,1.5461676579877732,10.33418568161726
1761467597362993400,4.569993408203125,-3.3971237339586016,1.3942436968564986,9.597138650035857
1761467597372976600,4.5799765625,-3.4556051490217445,1.1383563801646233,8.434057578459381
1761467597382962400,4.58996240234375,-3.1694258621796965,0.6947747007802129,6.933610345900059
1761467597392945400,4.5999453125,-2.235727546729147,0.17857289860397577,5.228434321478009
1761467597402928600,4.6099287109375,-1.380374745979905,-0.2202133612424135,3.4384441708624363
1761467597412911400,4.619911376953125,-0.7190244681566953,-0.5338230913236737,1.673580278196931
1761467597422894600,4.62989453125,0.10310381612181663,-0.8689449805110693,0.15017185676693914
1761467597432877600,4.639877685546875,0.8917886804819106,-1.2262784092456103,-1.2590192338526247
1761467597442860500,4.649860595703125,1.5725225809499621,-1.589345120935142,-2.4730659380346536
1761467597452843500,4.659843505859375,2.109096432286501,-1.7294447887599467,-3.360177858877182
1761467597462827500,4.66982763671875,2.6257149985700843,-1.6837407299444078,-3.8706905095010993
1761467597472810500,4.679810546875,3.049835313898325,-1.3575582262769341,-3.997252358099818
1761467597482793500,4.68979345703125,3.1999855433553455,-0.8526867964103817,-4.102105063715577
1761467597492776400,4.6997763671875,3.344360112020373,-0.3256947201505303,-4.3338674084544175
1761467597502759400,4.709759521484375,3.732818746858835,0.01854541825503111,-4.744733105412125
1761467597512742400,4.719742431640625,4.126370905444026,0.10631605616658925,-5.393870382872223
1761467597522725600,4.7297255859375,4.307583797162771,-0.04722323120683431,-6.121606565272808
1761467597532708400,4.739708251953125,4.352402597576379,-0.21898586527407168,-6.758636056309938
1761467597542691600,4.749691650390625,4.750622747972607,-0.5004465991616249,-7.272690325063467
1761467597552674600,4.759674560546875,4.369560653126239,-0.6788409263283014,-7.863908497518301
1761467597562657500,4.769657470703125,3.649370648321509,-0.867289322258532,-8.175712931743263
1761467597572640500,4.779640625,3.1593484125405547,-1.125745320394635,-8.045272780406474
1761467597582624500,4.78962451171875,2.4580937020912765,-1.1910793778315185,-7.539183791443705
1761467597592607500,4.799607421875,1.719156911240518,-1.0516904886245726,-6.650724547645449
1761467597602590500,4.809590576171875,1.1639905876368284,-1.1574757989153266,-5.542012195116281
1761467597612573400,4.819573486328125,0.7119348021566867,-1.197113689559698,-4.342254713049531
1761467597622556400,4.829556396484375,0.5027426011443138,-1.0790686171546577,-3.060556614398956
1761467597632539400,4.839539306640625,0.8203706269562244,-1.1366183043256401,-1.4437158760339022
1761467597642522600,4.849522705078125,1.3341557233795522,-0.9899150004521011,0.49519700807034966
1761467597652505300,4.85950537109375,0.9915610140934586,-0.7549605816736817,2.862967172896862
1761467597662488600,4.869488525390625,-0.4319757050037384,-0.5239350267767906,5.103881474614143
1761467597672471600,4.879471435546875,-2.398293897905946,-0.5261363362133503,6.95650957545042
1761467597682454500,4.88945458984375,-4.403296333989501,-0.6992123909667134,8.596571030405164
1761467597692437500,4.8994375,-5.790922658532858,0.6826262900859117,9.042150313347577
1761467597702421500,4.90942138671875,-5.984239245021343,2.4362860671699047,8.391833470714092
1761467597712404500,4.919404541015625,-5.039183084732294,3.8982536392092704,7.483376564025878
1761467597722387500,4.929387451171875,-4.180406447014212,5.115948929026723,6.623999622327089
1761467597732370700,4.93937060546875,-3.535167346036434,5.627006938573718,6.030781215965748
1761467597742353400,4.949353515625,-3.1732503889039156,5.634608645749092,5.515224141433834
1761467597752336400,4.95933642578125,-2.936317655789852,5.113410350459814,5.129385918226838
1761467597762319600,4.969319580078125,-2.646538298629224,3.9649721367418764,4.564382383480668
1761467597772302300,4.97930224609375,-2.320024663311243,2.9372327248081564,3.4632127014160154
1761467597782285600,4.98928564453125,-1.7397621846348046,2.0330647474855184,2.2038374937325713
1761467597792268500,4.9992685546875,-1.0198071576297283,1.25701373924911,0.9943909768223762
1761467597802251500,5.00925146484375,-0.47073768959641454,0.6449006628036499,-0.018164017722010612
1761467597812234500,5.019234375,-0.1295224519699812,0.03920885157734155,-0.8380769640386104
1761467597822218500,5.029218505859375,0.21104338183701038,-0.623954613147676,-1.5644494568705558
1761467597832201500,5.039201416015625,0.4849988546609878,-1.1977885200813412,-2.2447563640981913
1761467597842184400,5.049184326171875,0.6319497035548091,-1.7800310666590928,-2.7845214126914737
1761467597852167700,5.059167724609375,0.9645222005203365,-2.224060782071948,-3.358418447989225
1761467597862150400,5.069150390625,1.5952894162923097,-2.608555773976445,-4.050335713511705
1761467597872133400,5.07913330078125,2.2647522734224794,-2.8315122964471575,-4.640434526547789
1761467597882116600,5.08911669921875,2.6014555865824223,-2.785052743089199,-5.1204900795876975
1761467597892099600,5.099099609375,2.5656039364784955,-2.5848212626457214,-5.43645397157967
1761467597902082600,5.10908251953125,2.75162978143692,-2.471616323748231,-5.644053934964537
1761467597912065500,5.1190654296875,3.0203333250820634,-2.4491715599671005,-5.9031257269114255
1761467597922048500,5.129048583984375,3.1275632812231775,-2.3600597365796565,-6.1354416138798
1761467597932031500,5.139031494140625,3.5921000703528523,-2.287732459254563,-6.315687121871114
1761467597942014500,5.149014404296875,3.9601094991415735,-2.1229674289897082,-6.63100920882821
1761467597951998500,5.15899853515625,3.470788689628243,-1.8589432753324509,-6.779044053566455
1761467597961981400,5.1689814453125,3.3748838450998067,-1.6069108805030583,-6.462146095594763
1761467597971964700,5.178964599609375,3.337258755582571,-1.443550164078176,-5.694142200213671
1761467597981947400,5.188947509765625,3.057727528452873,-0.9255994724079966,-4.434924813440442
1761467597991930400,5.198930419921875,2.4122949507296085,-0.6736299136817455,-3.0243665261209007
1761467598001913600,5.20891357421875,1.2277213015303015,-0.6291457520499825,-1.6292963153123854
1761467598011896600,5.218896484375,0.19742139145880935,-0.4279828359752893,0.14027297856509685
1761467598021879600,5.228879638671875,-0.36965865730047226,0.10004325950741767,1.8993238010376692
1761467598031862500,5.238862548828125,-0.1752954843685031,1.1477218821421264,3.3027479986935853
1761467598041845500,5.248845458984375,-0.6061907006591558,2.587270701624453,4.670775304275751
1761467598051828700,5.258828857421875,-2.075738352563977,3.919705592560768,6.374909126168489
1761467598061811500,5.2688115234375,-3.5337785220265387,4.496094444674253,7.920265175512433
1761467598071795500,5.27879541015625,-4.462583804738522,3.587217266747355,8.632976222738623
1761467598081778400,5.2887783203125,-4.126389902405441,2.481414371924102,8.074629807794093
1761467598091761700,5.29876171875,-3.163110395422578,1.7698519102111459,7.460130128473043
1761467598101744400,5.308744384765625,-2.4543434096470476,1.2413973601832986,7.665912228780984
1761467598111727400,5.318727294921875,-2.058183698911965,0.7620882415965199,7.973822578176856
1761467598121710600,5.328710693359375,-1.8865052359968422,0.2314738831862807,7.806316724771261
1761467598131693600,5.338693603515625,-1.692531939165294,-0.36410482256561516,7.301441787773371
1761467598141676500,5.348676513671875,-1.2072756026118994,-0.8237044475540518,6.562628331041336
1761467598151659500,5.358659423828125,-0.6857350697562098,-1.138587850832939,5.487703681823611
1761467598161642500,5.368642578125,-0.17609949422776697,-1.4633961435377596,4.14859384316802
1761467598171625700,5.378625732421875,0.04167202682048082,-1.6393343097239732,2.51067115380764
1761467598181608400,5.3886083984375,0.3452531148403883,-1.6090952388048172,1.0282874012053012
1761467598191592400,5.398592529296875,0.9333891033709049,-1.4457254622906446,-0.12830956904888152
1761467598201575400,5.408575439453125,1.5647823420867324,-1.348143916721642,-1.5263579188853502
1761467598211558700,5.41855859375,2.1753926127538086,-1.329395084849,-2.966592382544279
1761467598221541400,5.428541259765625,2.6760058006539937,-1.1059456642948091,-4.091255752921104
1761467598231524600,5.438524658203125,2.843003704537451,-0.7607746747799218,-4.9116930153727525
1761467598241507600,5.448507568359375,2.5904718357533216,-0.49833603674843907,-5.700878814992309
1761467598251490600,5.458490478515625,2.4600880907788873,-0.5298791760034859,-6.249320506516098
1761467598261473500,5.4684736328125,2.539265672390163,-0.6830361860610544,-6.284538534891605
1761467598271456500,5.47845654296875,2.323120291239023,-0.8690556012786924,-6.380397202190756
1761467598281439500,5.488439453125,2.281215916967392,-0.8887392297834158,-6.528019374474883
1761467598291422700,5.498422607421875,2.6573808874219655,-0.862389129126817,-6.749126469686627
1761467598301405700,5.50840576171875,3.259318022289872,-0.8154346318587661,-7.1247186086893075
1761467598311389700,5.5183896484375,3.591682721723616,-0.7424795780241489,-7.428062673082947
1761467598321372400,5.528372314453125,3.5703681310161945,-0.5949509292423725,-7.43879917115271
1761467598331355600,5.538355712890625,3.1591549357950686,-0.570378505782783,-7.100483162099122
1761467598341338600,5.548338623046875,2.3243080397188662,-0.5734627355337143,-6.192458801609277
1761467598351321600,5.558321533203125,1.0953352768227458,-0.7293702133432031,-4.9254701963126655
1761467598361304600,5.5683046875,-0.25497984645813704,-0.8607157890871167,-3.2393916710704564
1761467598371287600,5.57828759765625,-0.8450643387079239,-1.441664204201102,-1.199941021940112
1761467598381270500,5.5882705078125,-0.782452107450366,-1.224285189601779,0.450766330191493
1761467598391253500,5.59825341796875,0.308335881331563,0.28092998801171776,2.593497905576229
1761467598401236500,5.608236572265625,0.5839288922294974,0.24828122560232876,4.873918872773647
1761467598411219700,5.6182197265625,-1.118628766387701,0.3618140812799334,5.638374135762453
1761467598421202700,5.62820263671875,-2.696291925096512,0.023488719876110554,6.019540275505185
1761467598431185400,5.638185302734375,-3.6015298697382208,-0.03383534184545278,6.090245212325454
1761467598441169400,5.64816943359375,-3.862600726547837,0.7839090282604098,6.026341187691688
1761467598451152600,5.658152587890625,-3.72402519955039,1.904795510447025,6.103685708656907
1761467598461135600,5.668135498046875,-3.2999878863304852,2.8938965641677377,6.080194942954182
1761467598471118600,5.67811865234375,-2.6043472163707015,3.638674482262134,5.870540385127067
1761467598481101600,5.6881015625,-2.157987012183666,3.9459295826196668,5.531130735617876
1761467598491084500,5.69808447265625,-2.0324211888849733,3.893345408901572,5.359290652400255
1761467598501067500,5.708067626953125,-2.1594822191774843,3.894186828161776,5.1886920936763286
1761467598511050800,5.71805078125,-2.259671024635434,4.111808711606264,5.016681914588808
1761467598521033500,5.728033447265625,-2.1827856456145645,3.8644896090343592,4.016311863356829
1761467598531016700,5.7380166015625,-1.6971940857574344,3.2387960432648657,2.763876684069633
1761467598540999700,5.747999755859375,-1.438762345279753,2.62330764516741,1.7786293831676243
1761467598550982400,5.757982421875,-1.3545476462841033,1.926052818009257,1.0806973874002694
1761467598560966400,5.76796630859375,-0.9074953681796789,1.1941460719257593,0.4763865091383457
1761467598570949600,5.77794970703125,-0.3292483209788799,0.43058074351400133,-0.35535716022551056
1761467598580932600,5.7879326171875,0.040296939074993134,-0.3209910725042224,-1.2783482037007807
1761467598590915600,5.79791552734375,0.021629063484072685,-0.8965805909335612,-2.090343801021576
1761467598600898600,5.807898681640625,0.046593993392586706,-1.3235130410730838,-2.739762818032503
1761467598610881500,5.817881591796875,0.41494799783527847,-1.5503233163625,-3.2518998549878595
1761467598620864500,5.827864501953125,0.6188008836463094,-1.6579332117319105,-4.008468748641014
1761467598630847700,5.83784765625,0.936462519466877,-1.553740431329608,-4.589720822876692
1761467598640830500,5.84783056640625,1.2062123572945593,-1.3824185267671942,-4.952727621072531
1761467598650813700,5.857813720703125,1.2344929876223205,-1.2508268673077225,-5.11006045551002
1761467598660796700,5.867796630859375,1.059666582070291,-1.1053972366318106,-5.257852139142155
1761467598670779600,5.877779541015625,1.3996689367756248,-0.9301631270617247,-5.441206719064712
1761467598680763400,5.887763427734375,2.0319459725886584,-0.8244400683522224,-5.5941416108042
1761467598690746600,5.89774658203125,2.469437518404424,-0.8882523230493068,-5.837267645600438
1761467598700729600,5.9077294921875,2.855699227720499,-0.9165370450302958,-6.030718672123551
1761467598710712600,5.917712646484375,3.0153476456239816,-0.8370102115899324,-5.833062010604142
1761467598720695600,5.927695556640625,3.020053046835959,-0.7961819421172142,-5.128624286204576
1761467598730678500,5.937678466796875,3.4067964021891353,-0.6865975318044424,-4.226568478730321
1761467598740661500,5.94766162109375,3.363763608409464,-0.5729547860115766,-3.0871494377702473
1761467598750644700,5.957644775390625,2.594714003367722,-0.24221271934360264,-1.7508879742830992
1761467598760627500,5.96762744140625,1.8564689941734074,0.34123043519556523,-0.4411386701464653
1761467598770610700,5.977610595703125,1.1126377092793582,1.236743104636669,0.7909943103462457
1761467598780593700,5.98759375,0.41428281192481514,2.1879101490214468,1.7775731521129607
1761467598790576600,5.99757666015625,-0.5017652805447578,2.8708672784969207,2.6875983310312033
1761467598800560400,6.007560302734375,-1.7123583371415734,3.1500071682214736,3.6446716768503187
1761467598810543600,6.017543701171875,-2.7949545439004897,2.858876688712835,4.453987825828791
1761467598820526600,6.027526611328125,-3.542118188087642,2.135035760185122,5.329830749160051
1761467598830509600,6.037509521484375,-3.955220558056235,1.1797612804815172,6.108731886130571
1761467598840492500,6.047492431640625,-4.3275639243960375,0.24757833802998064,6.571754471305012
1761467598850475500,6.0574755859375,-4.331224784991145,-0.39881285559237,6.681280429428815
1761467598860458500,6.06745849609375,-3.516153433486819,-0.837305687405169,6.471435901987553
1761467598870441700,6.077441650390625,-2.441753684926033,-1.0869818744972348,6.215389010819792
1761467598880424400,6.087424560546875,-1.6277689596146345,-1.1628531080394982,5.954319323053956
1761467598890407700,6.09740771484375,-1.1626532015532254,-1.0589268696188927,5.820246368172764
1761467598900390700,6.107390625,-0.9709680156588554,-0.9677604517892002,5.583363027158379
1761467598910373600,6.11737353515625,-1.0053840800017118,-0.8877437890052795,5.1100353210687635
1761467598920357600,6.127357666015625,-0.9928317646816373,-0.9515475681349634,4.330034698423743
1761467598930340600,6.137340576171875,-0.689451752191782,-1.0723246958523989,3.3881741193056105
1761467598940323600,6.147323486328125,-0.09964052392542362,-1.2030901336207984,2.1218127059966325
1761467598950306600,6.157306640625,0.48345717817693945,-1.4004206319257617,0.7616092259079218
1761467598960289500,6.16728955078125,0.9173644357651471,-1.4564265967860817,-0.31377602655887604
1761467598970272500,6.1772724609375,1.3933064160063862,-1.4600266671046613,-1.1569874308764934
1761467598980255500,6.18725537109375,1.9323948805123567,-1.3868714145228267,-2.0298791031867265
1761467598990238700,6.19723876953125,2.220026704250276,-1.2616761781021952,-2.885190110620856
1761467599000221400,6.207221435546875,2.3517919667109846,-1.1120344826892017,-3.554749413862824
1761467599010204700,6.21720458984375,2.584415019932389,-1.0231792644113302,-4.168618394064903
1761467599020187600,6.227187744140625,2.966502950695157,-0.9634665539875626,-4.9461833139956
1761467599030170600,6.237170654296875,3.4305174695163965,-1.0030831095829607,-5.706256416377425
1761467599040153600,6.247153564453125,3.7263048349201675,-1.1181295846939086,-6.5504574162542815
1761467599050137600,6.2571376953125,3.788606685054302,-1.292520229177177,-7.428940624961257
1761467599060120600,6.26712060546875,3.4912644914239643,-1.2761933637544511,-8.284033605730533
1761467599070103600,6.277103515625,3.5014322496950623,-1.1889496723264454,-8.844086824592948
1761467599080086500,6.28708642578125,3.6288176896363495,-1.1611568255156277,-9.189288501507043
1761467599090069500,6.297069580078125,3.4937142226636406,-1.0555378117024898,-9.227178963962197
1761467599100052500,6.307052490234375,2.80940743214488,-0.731335960458219,-8.806700804528594
1761467599110035700,6.31703564453125,1.812649726191163,-0.10766221007853746,-7.828484132915735
1761467599120018400,6.327018310546875,1.0653326450079679,0.5178793799996376,-6.499551989403367
1761467599130001700,6.337001708984375,0.582239916229248,1.041976903861761,-4.919402859097719
1761467599139984600,6.346984619140625,0.4468035640403628,1.7839190140083432,-3.0647219173848628
1761467599149967600,6.356967529296875,0.7012339599221944,2.501295130436122,-0.5045294845610857
1761467599159951600,6.36695166015625,0.895961874513328,2.8589491694271563,3.1619302457273006
1761467599169934600,6.3769345703125,-0.6374822032406926,2.424171558745205,6.920761970242857
1761467599179917600,6.38691748046875,-2.715758842110634,1.8954580655202269,9.861120425856113
1761467599189900500,6.396900634765625,-4.488058437734842,1.4922037203490732,11.820746427643298
1761467599199883800,6.4068837890625,-5.614460176211595,1.1107847748890518,12.175827109014987
1761467599209866500,6.416866455078125,-6.076292090296745,1.5867916370600461,11.262439175665378
1761467599219849500,6.426849365234375,-4.857293901187181,2.311490351460874,9.264275645691155
1761467599229829600,6.43682958984375,-3.227379746237397,2.750275736479461,7.156262332466245
1761467599239812400,6.446812255859375,-2.3628946677446363,3.038545565859973,5.636510095456242
1761467599249795300,6.45679541015625,-2.0428338618278503,3.2497964529678223,4.412440594431757
1761467599259778600,6.466778564453125,-2.263854447799921,3.010572394046187,3.7115333822458982
1761467599269761500,6.476761474609375,-2.50333218922168,2.5180071957841514,3.3401743507683275
1761467599279744500,6.48674462890625,-1.9716101618304847,1.815868688237667,2.547339380991459
1761467599289728500,6.496728515625,-1.1320067188769578,1.159487430998683,1.563861427849531
1761467599299711500,6.50671142578125,-0.4864315178126096,0.6208391114756464,0.730418553352356
1761467599309694500,6.516694580078125,0.01690261948406696,0.2055301713734865,0.12010989598035812
1761467599319677400,6.526677490234375,0.3441904540449381,-0.08654811037927866,-0.46357086670696734
1761467599329660400,6.536660400390625,0.4239098874479532,-0.13365765207856892,-0.8817273051947355
1761467599339643400,6.546643310546875,0.28759353755414485,-0.148191496604681,-1.214419044625759
1761467599349626600,6.556626708984375,0.17171850266456604,-0.1848088703840971,-1.6021978805065153
1761467599359609300,6.566609375,0.18431436486542224,-0.2489431966423988,-1.9673679942160844
1761467599369592300,6.57659228515625,0.4070183738797903,-0.32231326101869345,-2.3996254387706517
1761467599379575600,6.586575439453125,0.8694932620435952,-0.43392976168096065,-3.096228816282749
1761467599389558500,6.59655859375,1.1551526166647672,-0.5329062687397003,-3.7510838868677614
1761467599399542500,6.60654248046875,1.381074126420915,-0.6673208766654133,-4.265377225074172
1761467599409525500,6.616525390625,1.7233838812857865,-0.8199515247613192,-4.761007948386669
1761467599419508500,6.626508544921875,2.143798327833414,-0.9071618984416127,-5.218596818074584
1761467599429491500,6.636491455078125,2.709814254492521,-0.9096671592608093,-5.6698050468146795
1761467599439474400,6.646474365234375,3.3753348037377,-0.8609405377537012,-6.070920334130525
1761467599449457400,6.65645751953125,3.8457439920321104,-0.7898860568434,-6.2537020826011895
1761467599459440400,6.6664404296875,3.8682279187798496,-0.7326745155856013,-6.275417070803046
1761467599469423600,6.676423583984375,3.9640491766780612,-0.7934092625334859,-5.99634820048809
1761467599479406300,6.68640625,3.4036662874698638,-0.8187626072376966,-5.400062223249673
1761467599489389300,6.696389404296875,2.818512529620528,-0.8968675911813974,-4.4166731174349785
1761467599499372500,6.70637255859375,2.3335008154779673,-1.1727768284216522,-3.1336218506097793
1761467599509355500,6.71635546875,1.1418348699301482,-1.48847067130059,-1.7661562705636022
1761467599519339500,6.726339599609375,0.12532616932392118,-1.4840809119090437,-0.3720920219272375
1761467599529322500,6.736322509765625,0.08486614864170551,-1.355126030693948,1.0486971520274877
1761467599539305500,6.746305419921875,0.3621013737887144,-0.8953238688707351,2.440941784021258
1761467599549288400,6.756288330078125,0.36323943790793417,-0.03812514799386263,3.7031045765966173
1761467599559271700,6.766271728515625,-0.5037614227980375,0.8161717139616608,4.695836680296063
1761467599569254400,6.77625439453125,-1.353313720574975,1.4866414100468157,5.382874357083439
1761467599579237400,6.7862373046875,-1.8255641528218984,1.697515572796762,5.574072051721811
1761467599589220600,6.796220703125,-1.882697660407424,1.6854831896975635,5.260272059765458
1761467599599203300,6.806203369140625,-1.9717016395062208,1.4690630832582712,4.826081016799807
1761467599609186300,6.816186279296875,-1.9875825147271156,1.289722415152192,4.561830360910296
1761467599619169500,6.82616943359375,-2.1325497885882854,1.2501081976443529,4.710120641714334
1761467599629152500,6.836152587890625,-2.0375275721132753,1.457123346878588,4.906992290335893
1761467599639135500,6.846135498046875,-1.4059563464820384,1.6437737534761427,4.804427403396367
1761467599649119500,6.856119384765625,-0.7880532884582877,1.5930106577053664,4.863758128765225
1761467599659102500,6.8661025390625,-0.7553890362188219,1.2491980970621108,4.91061574153006
1761467599669085400,6.87608544921875,-0.9808809223860502,0.8390022621899843,4.5729631648212665
1761467599679068700,6.886068603515625,-0.8748311159402131,0.35935879708230495,3.984335008859634
1761467599689051400,6.896051513671875,-0.7544915028572082,-0.19101210893839596,3.3023627987682818
1761467599699034400,6.906034423828125,0.06786708304584026,-0.5399664163842797,2.153824631807208
1761467599709017600,6.916017578125,0.8910632888168096,-0.5347416674733162,1.0138222380012274
1761467599719000600,6.92600048828125,0.9605112113133072,-0.6418874524623155,0.2997130144149065
1761467599728983300,6.9359833984375,1.3164186988979578,-0.6055106094405055,-0.6381868443787098
1761467599738966500,6.945966552734375,2.0146736430093646,-0.588427957214415,-1.913065326142311
1761467599748949500,6.955949462890625,2.372313068953156,-0.6618190643787384,-3.0558225716143843
1761467599758932500,6.965932373046875,2.3926433247983456,-0.8227788571417332,-4.057289185911417
1761467599768916500,6.97591650390625,2.33208773380965,-0.9733978731542825,-5.062205648401379
1761467599778899500,6.9858994140625,2.170667045536637,-1.1115259486451745,-5.943371812582016
1761467599788882400,6.99588232421875,2.088808846539259,-1.2829755712404847,-6.611078181433677
1761467599798865700,7.00586572265625,2.0296119766831398,-1.5893196942329406,-6.767421420311927
1761467599808848400,7.015848388671875,1.8077508482336997,-1.6881760820433496,-6.600745587989688
1761467599818831400,7.025831298828125,1.7439117055296898,-1.6131924449905752,-6.513565317186713
1761467599828814600,7.035814697265625,1.7100187882781028,-1.5125614487230776,-6.837748171469569
1761467599838797600,7.045797607421875,1.6097013880044222,-1.4614818343490361,-7.236607788813114
1761467599848780300,7.0557802734375,1.474173558139801,-1.422156662915647,-7.3622735653549425
1761467599858763500,7.065763427734375,1.5380173770189285,-1.5562901158124207,-6.831640502244234
1761467599868746500,7.07574658203125,1.3798942689865827,-1.508853241854906,-5.719643721216917
1761467599878729200,7.085729248046875,0.8355047754630446,-1.4490259651407598,-4.419456026151776
1761467599888712400,7.09571240234375,0.5488683925032616,-1.233393794208765,-2.938063038152456
1761467599898696400,7.105696533203125,0.7669295441478491,-0.7398921918794512,-0.6442933445602655
1761467599908679400,7.115679443359375,1.0648258645296096,-0.28486498937308785,1.9417478152692318
1761467599918662700,7.12566259765625,0.4357429485827684,0.2006958830848336,4.111999265742302
1761467599928645400,7.135645263671875,-1.3047253384947777,0.3426207205101847,5.977620119142532
1761467599938628400,7.14562841796875,-2.7584640113711356,0.6850923879384994,7.302319739651679
1761467599948611600,7.155611572265625,-3.252577900379896,0.9616954526618122,7.663389432305097
1761467599958594600,7.165594482421875,-3.9207805283159014,1.7072917014017701,7.264861823394894
1761467599968577300,7.175577392578125,-5.166192677098512,2.6299039746925232,6.907136764994263
1761467599978560500,7.185560546875,-5.778556513434649,3.231928787843883,6.667181176927685
1761467599988543500,7.19554345703125,-5.153184726965427,3.7949721284329887,6.110262164437771
1761467599998526500,7.2055263671875,-3.6913328902602194,4.026988740193843,5.0191649635761975
1761467600008509400,7.215509521484375,-2.344532497102022,4.048775332327187,3.792539348328113
1761467600018493400,7.225493408203125,-1.7509084325492381,4.095373709633946,2.782984120121598
1761467600028476400,7.235476318359375,-1.3897265116930007,3.9493519582837817,2.0372458325624465
1761467600038459600,7.245459716796875,-1.3481553148984908,3.4750574529886245,1.6378151373326777
1761467600048442400,7.2554423828125,-1.0661223340809345,2.8564959310561417,1.2617542117744684
1761467600058425300,7.26542529296875,-0.6725964789807796,2.1889095353223382,0.8274304823398589
1761467600068408600,7.27540869140625,-0.17854454929232597,1.6441389335267245,0.3451356259405613
1761467600078391600,7.2853916015625,0.34457916110157966,0.7520774274528026,-0.055580432924628255
1761467600088374300,7.295374267578125,0.8939712852180004,-0.04845598787218332,-0.35818683069348334
1761467600098357500,7.305357421875,0.9879542217731475,-0.5353292581029236,-0.6554173806428909
1761467600108340500,7.315340576171875,0.6183411571800709,-0.8262104390256106,-1.0725058976382016
1761467600118323500,7.325323486328125,0.23825813649892805,-0.9036898384168743,-1.572670172727108
1761467600128306400,7.335306396484375,0.3159942871302366,-0.8299453877702355,-2.2106220393061635
1761467600138289400,7.345289306640625,0.7985814044743775,-0.7464151639074087,-2.9107115053683517
1761467600148273400,7.3552734375,1.3267869481772183,-0.7680320985622704,-3.6479005757689476
1761467600158256600,7.365256591796875,2.020675806033611,-0.7983674694627523,-4.23277960833013
1761467600168239400,7.3752392578125,2.8556138875246044,-0.8072492795765399,-4.5829543974816795
1761467600178222300,7.385222412109375,3.346573696416616,-0.7941143420629203,-4.715158635881543
1761467600188205600,7.39520556640625,3.832814660093188,-0.7517588630229234,-4.967054837110639
1761467600198188500,7.4051884765625,3.9538025079518553,-0.879249516904354,-5.0109004085779185
1761467600208171300,7.415171142578125,3.9705513981789347,-0.8873433915108442,-4.887142511484027
1761467600218154500,7.425154541015625,3.7349744635879993,-0.8302151446223258,-4.653882621663809
1761467600228137500,7.435137451171875,3.598917056891322,-0.871828719253838,-4.224318069455028
1761467600238123800,7.445123779296875,3.320762378811836,-1.091832529398799,-3.856556185686588
1761467600248106800,7.455106689453125,2.8078543574839827,-1.3377920340552925,-3.1211984223663807
1761467600258089700,7.46508984375,2.2021330279022453,-1.2965487540408969,-2.1422464222162962
1761467600268073700,7.47507373046875,1.5705471892237661,-1.1839733452185988,-1.123238890531659
1761467600278057000,7.485056884765625,0.5528565853565931,-0.9938970558255911,-0.18045067517459393
1761467600288039700,7.495039794921875,-0.5479644294008612,-0.6483396973416209,0.6627648207962512
1761467600298022700,7.505022705078125,-1.5274094737648962,-0.2725570042029023,2.0866467000693083
1761467600308006000,7.515005859375,-1.8749179663166402,0.261869313710928,3.287340001681447
1761467600317988900,7.52498876953125,-2.0301614272594453,0.9713798113301396,3.898470496830344
1761467600327971600,7.5349716796875,-2.1899299644112586,1.4574521404415368,4.4965831049740315
1761467600337954800,7.544954833984375,-2.5153642800599334,1.7024311096280813,5.141197936573624
1761467600347937800,7.554937744140625,-2.9464392368316648,1.4752897026881575,5.63188886539638
1761467600357920800,7.564920654296875,-3.415191890090704,1.0310279320850968,5.778699721297621
1761467600367903700,7.57490380859375,-3.4294290897577997,0.6362096990868449,5.786425931635499
1761467600377886700,7.58488671875,-2.9642431890696286,0.5104775793105364,5.533700293844938
1761467600387870700,7.59487060546875,-2.4557342794835564,0.501347347393632,5.110733824726939
1761467600397854000,7.60485400390625,-1.9079861231818793,0.44858197188973425,4.685815052497387
1761467600407836700,7.614836669921875,-1.5462389696583152,0.1120174826785922,4.052943265661597
1761467600417819600,7.624819580078125,-1.250792380516231,-0.3281619870468974,3.2255572069853544
1761467600427803000,7.634802978515625,-0.888520618596673,-0.710401308979094,2.487471480005979
1761467600437785900,7.644785888671875,-0.35176994938850403,-0.9441887298047542,1.9538398196011781
1761467600447768600,7.6547685546875,-0.018913374784588814,-1.061930435349047,1.3945721981585024
1761467600457751800,7.664751708984375,0.2533507839515805,-1.1016785083696246,0.7823071460217237
1761467600467734800,7.67473486328125,0.6673395813658833,-1.0678685932263732,0.18969664242565631
1761467600477717800,7.6847177734375,1.1714712987810372,-0.9695274614617228,-0.39888124465346336
1761467600487700700,7.69470068359375,1.6033412053227423,-0.8227166055604815,-1.0928314773082732
1761467600497683700,7.70468359375,1.839597354349494,-0.7067609066501259,-1.6523685633420944
1761467600507667000,7.7146669921875,1.9818419252485036,-0.6983212873458862,-2.1130156515568492
1761467600517651000,7.72465087890625,2.2302140440046787,-0.6852353035405278,-2.6898276975184676
1761467600527633700,7.734633544921875,2.6550807937860488,-0.6731862615674734,-3.117289724490046
1761467600537616600,7.74461669921875,3.02998202791512,-0.685335549044609,-3.404107016974687
1761467600547600000,7.754599853515625,3.2790602491140364,-0.7879694095671177,-3.757304368817806
1761467600557582800,7.764582763671875,3.4705946283608675,-0.7542766910627484,-3.9894729562699793
1761467600567565600,7.774565673828125,3.62540349727869,-0.8283443823143839,-4.263997753414511
1761467600577548800,7.784548828125,3.5883024316355585,-0.9759060565829276,-4.687669155931473
1761467600587531800,7.79453173828125,3.535956450587511,-0.9763084999039768,-5.093875044384599
1761467600597514800,7.8045146484375,3.6273330040365455,-0.8288236902639269,-5.246348748353124
1761467600607497700,7.814497802734375,3.4463282021105286,-0.7069932541012763,-5.1256525769174095
1761467600617480700,7.824480712890625,2.890651298636198,-0.554203323790431,-4.805380758598447
1761467600627464000,7.8344638671875,1.9158336218118666,-0.3623734687283635,-4.137078761941194
1761467600637448000,7.844447998046875,1.0378215377479791,-0.25690613834559917,-3.118497346714139
1761467600647430700,7.8544306640625,0.25486644921153784,-0.24865531961172818,-1.7461878337681291
1761467600657413600,7.86441357421875,-0.5026362181603908,-0.3547422431975603,-0.023563830938935278
1761467600667396900,7.87439697265625,-1.0481067849189043,-0.5329799184978008,1.7879162669509647
1761467600677379800,7.8843798828125,-1.7203472900688648,-0.7700014989390969,3.1039643789708613
1761467600687362600,7.894362548828125,-2.4135984345436095,-0.8938853605002164,3.842528829377889
1761467600697345800,7.904345703125,-2.844990202179551,-0.741362264432013,4.225649610319733
1761467600707328800,7.914328857421875,-3.2791794915795323,-0.11093787074834108,4.540634428146482
1761467600717311700,7.924311767578125,-3.738850720499456,0.9156748752430081,4.8245729503244155
1761467600727294700,7.934294677734375,-4.051155797722935,1.970358115942776,4.788659340900183
1761467600737277700,7.944277587890625,-4.364199418354034,2.7886060516566036,4.553351286378502
1761467600747261000,7.954260986328125,-4.555039385595918,3.269269507461786,4.295810357260704
1761467600757245000,7.964244873046875,-4.311701753875613,3.4976597454190252,4.017077002510428
1761467600767227600,7.9742275390625,-3.5434444682553408,3.463476905310154,3.669296999540925
1761467600777210600,7.984210693359375,-2.6351588264808057,3.316265944175422,3.2662077818036077
1761467600787193900,7.99419384765625,-1.9714286677837372,3.094458884000778,2.84355578546226
1761467600797176800,8.0041767578125,-1.6324235074222087,2.9328900194287297,2.4264316126316783
1761467600807159600,8.01415966796875,-1.3301140467733144,2.571460845813155,1.9007815986305474
1761467600817142800,8.024142822265626,-0.7059832002758979,2.0943816782355307,1.1003250479340552
1761467600827125800,8.034125732421876,-0.031850597769021986,1.481792216449976,0.11369184563159943
1761467600837108700,8.044108642578125,0.29364859980940816,0.8523419284954666,-0.8283446745753288
1761467600847091700,8.054091796875,0.4264847063720226,0.051393210367858405,-1.5679185942858456
1761467600857074700,8.06407470703125,0.5808966849267483,-0.7060916290864347,-1.799894874036312
1761467600867058000,8.074057861328125,0.8201572764664888,-1.3084542958900331,-1.9856506698817014
1761467600877042000,8.0840419921875,0.9599994623988867,-1.7646730462685227,-2.303644606396556
1761467600887024600,8.094024658203125,1.1659282777011393,-1.9655986464560031,-2.680184839904308
1761467600897007600,8.104007568359375,1.395231538850069,-1.965080175539851,-3.164648272514343
1761467600906990800,8.113990966796875,1.6255343324303626,-1.7652365253701805,-3.625588206195831
1761467600916973800,8.123973876953125,2.094310366564989,-1.5245707432076334,-4.147520076456666
1761467600926956500,8.13395654296875,2.6314959200590846,-1.3161527414381504,-4.717987721827626
1761467600936939800,8.143939697265624,3.216234667366743,-1.185000642439723,-5.045676538404822
1761467600946922800,8.1539228515625,3.7312402454957363,-1.1568187963113188,-5.39682338745892
1761467600956905700,8.16390576171875,4.200327537536621,-1.2065817751288412,-5.497741091713309
1761467600966888700,8.173888671875,4.157083731354772,-1.064720942850411,-5.299795676380396
1761467600976871700,8.18387158203125,3.8775773464053866,-0.906782835996151,-5.072506677663326
1761467600986855000,8.19385498046875,3.2945912879839536,-0.7890598351523279,-4.453716607671976
1761467600996839000,8.2038388671875,2.747123994450271,-0.828251151072979,-3.4141537792146206
1761467601006822000,8.21382177734375,2.185958138170838,-1.1210074782177806,-2.143724093553424
1761467601016804600,8.2238046875,1.3147855447381733,-1.2684832277685403,-0.981188965421915
1761467601026787800,8.233787841796875,0.6547390429899096,-1.0124684853047132,0.3400993853390217
1761467601036770800,8.243770751953125,0.5958855797439814,-0.43701983665078875,1.3565835360258818
1761467601046753500,8.25375341796875,0.6634247460097075,0.43186844523698087,1.9892308664560316
1761467601056736800,8.26373681640625,0.1263888301193714,1.358707396312058,2.7764000655561683
1761467601066719700,8.2737197265625,-0.5931748594805598,2.0341367606312035,3.692801793769002
1761467601076702700,8.28370263671875,-1.6476552710846066,2.175611516201496,4.644963402149081
1761467601086685700,8.293685791015625,-2.748773807483911,1.8878923064410686,5.318742368912696
1761467601096668700,8.303668701171874,-3.3205227248370646,1.3013614150196313,5.889132272872328
1761467601106652000,8.31365185546875,-3.479097960551083,0.8442422086700797,6.375674849843978
1761467601116636000,8.323635986328124,-3.2715047191679476,0.8370660334303974,6.627760436165333
1761467601126619000,8.333618896484374,-2.8944512754410505,1.029886068573594,6.616320758262276
1761467601136601600,8.3436015625,-2.2194643941923973,0.9593266777038574,6.43527796241343
1761467601146584800,8.353584716796876,-1.6018036204919217,0.8247931195735931,5.906400218537449
1761467601156567800,8.36356787109375,-1.3591630311250686,0.45517567106634377,5.251359269991517
1761467601166550500,8.373550537109375,-0.7445584301248193,0.027529811960458755,4.345045805072784
1761467601176533800,8.38353369140625,-0.3657850307375192,-0.33438480708450075,3.318052535331249
1761467601186516700,8.393516845703125,-0.2222486664623022,-0.49271600490957496,2.393005728369951
1761467601196499700,8.403499755859375,0.2703238383233547,-0.6804962923198938,1.351858845591545
1761467601206482700,8.413482666015625,0.6091431207239627,-0.7817930590197444,0.3885743701726198
1761467601216465700,8.423465576171875,0.9117553637117147,-0.6849319366797805,-0.6040320613205432
1761467601226449000,8.433448974609375,1.3507956002742052,-0.6447174151912332,-1.5606360360622404
1761467601236434700,8.4434345703125,1.4718921692043543,-0.6308481720536947,-2.2653753737568856
1761467601246417700,8.453417724609375,1.513536431235075,-0.7845999331340193,-2.7677935652524233
1761467601256401000,8.46340087890625,1.681647849318385,-1.0823454468682407,-3.0653654759854074
1761467601266383600,8.473383544921875,1.8892893137574194,-1.38624042314291,-3.1825346423387524
1761467601276366600,8.48336669921875,2.121390096670389,-1.6063532466202974,-3.4218805740743874
1761467601286349800,8.493349853515625,2.436495910528302,-1.6981141232118009,-3.71699398573935
1761467601296332500,8.50333251953125,2.691600260148942,-1.5882041342064737,-3.854406314176321
1761467601306315800,8.513315673828124,2.7426158693760634,-1.2849597307950258,-3.922316651841998
1761467601316298800,8.523298828125,2.9957132630884646,-1.0612564816102386,-3.9795577114552256
1761467601326281700,8.53328173828125,3.4322517459630966,-0.991373674827814,-4.013466410797834
1761467601336264700,8.5432646484375,3.8001094913214444,-1.0260326080158353,-3.9598862117797133
1761467601346248700,8.553248779296876,4.134710279244184,-0.9077996118232607,-3.8869735357820985
1761467601356231700,8.563231689453126,4.330061586430668,-0.4572343571618199,-3.813496796160936
1761467601366214700,8.573214599609376,3.817258486782014,0.16458821239322424,-3.7682746756434438
1761467601376198000,8.583197998046876,2.511113052356243,0.8066600815117358,-3.361386650145054
1761467601386180600,8.5931806640625,0.9499547459855675,1.1908727493435143,-2.4401228688538072
1761467601396163600,8.60316357421875,-0.5096119023919106,1.0002744819030165,-1.375797939583659
1761467601406146800,8.613146728515625,-1.5822364579737185,0.5057181098237633,-0.34914778419137
1761467601416129800,8.6231298828125,-2.2290765644073485,-0.003687456341087818,0.5645610516756773
1761467601426112800,8.63311279296875,-2.3448341103971004,-0.29080343951135873,1.573846815291047
1761467601436095700,8.643095703125,-2.3129998792409894,-0.33851007032096386,2.500512163364887
1761467601446078700,8.65307861328125,-2.380818446969986,-0.150509710419178,2.98412160949409
1761467601456061700,8.663061767578125,-2.604059631600976,0.16808482233732938,3.0593641897439956
1761467601466045700,8.673045654296875,-2.9445532769545912,0.6207406195372343,3.0367215653032065
1761467601476028700,8.683028564453124,-3.127107354149222,1.2372384869381785,3.178930480366945
1761467601486011600,8.69301171875,-3.284923003667593,1.9073177224010227,3.498435405966639
1761467601495995000,8.702994873046874,-3.356622504483163,2.4125813664555547,3.972623528277874
1761467601505977600,8.7129775390625,-3.3154052356928587,2.6653257089465856,4.384937670478225
1761467601515960600,8.722960693359376,-3.141263305273652,2.714333777743578,4.4874131255686285
1761467601525943800,8.73294384765625,-2.735161753977835,2.63985984377861,4.287492026248574
1761467601535926800,8.7429267578125,-2.4288000953286883,2.4451471267566083,3.7991602277725933
1761467601545909800,8.75290966796875,-2.1039324736520646,2.2674080486282704,3.217065857493877
1761467601555892700,8.762892822265625,-1.34598410833925,1.9991952111095188,2.6324995441436765
1761467601565875700,8.772875732421875,-0.691536741772294,1.6257880149304866,1.91465230307281
1761467601575859000,8.78285888671875,-0.19648557191342114,1.2149988903403282,0.99634211089015
1761467601585842700,8.7928427734375,0.25399229672551155,0.6859276697188615,0.16380056914687155
1761467601595825700,8.80282568359375,0.6077078272238373,0.14335603927224874,-0.5942354744493961
1761467601605808600,8.81280859375,0.7648322796076535,-0.3758300394117832,-1.426681154602766
1761467601615791900,8.8227919921875,1.0043605821728705,-0.8694479615971445,-2.202957788288593
1761467601625774600,8.832774658203125,1.3503116161495445,-1.1318874764114617,-2.669144390451908
1761467601635757600,8.842757568359374,1.7652064224928616,-1.129367602545023,-3.2198844220459457
1761467601645740800,8.85274072265625,2.210233916771412,-1.1757888697192072,-3.8838556960225104
1761467601655723800,8.862723876953124,2.4693694216042754,-1.1852905652970074,-4.343363551074266
1761467601665706800,8.872706787109376,2.5569214483290907,-1.2385694432809948,-4.679547808796167
1761467601675689700,8.882689697265626,2.4649346540272234,-1.29388479552865,-4.786789455375075
1761467601685672700,8.892672607421876,2.619281458391249,-1.3036550789147614,-4.779089548522234
1761467601695656000,8.902656005859376,3.0241531756311653,-1.3557134751930833,-4.860507018014788
1761467601705639700,8.9126396484375,3.21821736561656,-1.288127839437127,-4.859240943601727
1761467601715622700,8.92262255859375,3.3682115277290343,-1.2154241300150752,-4.749119942194223
1761467601725605600,8.932605712890625,3.632429450392723,-1.1624503724575042,-4.537546399003267
1761467601735588900,8.9425888671875,3.794948163035512,-1.1391741262882946,-4.196577245092392
1761467601745571600,8.952571533203125,3.6600007634073495,-1.0383566675379872,-3.703962070208788
1761467601755554600,8.962554443359375,2.9533254892140626,-0.8196019806712865,-2.904713141736388
1761467601765537800,8.972537841796875,1.9538190690740942,-0.5499535573914647,-1.8098785079121589
1761467601775520800,8.982520751953125,0.8568518071353435,-0.2869660533055663,-0.5926379761248827
1761467601785503700,8.992503662109375,-0.24111644853949546,0.060951896829903124,0.6401455772310495
1761467601795486700,9.00248681640625,-0.9879910466521978,0.5543690357461571,1.8513029897123574
1761467601805469700,9.0124697265625,-1.1937421672999857,1.1178691801920533,2.849797894722223
1761467601815453000,9.022452880859374,-1.3488906434357166,1.717817771591246,3.632392040991783
1761467601825437000,9.03243701171875,-1.9313588154628871,2.1792940041065214,4.559687503662706
1761467601835419600,9.042419677734374,-3.0503076075851916,2.247121339663863,5.58494532791376
1761467601845402600,9.052402587890626,-3.978158366051316,1.7789409333348274,6.283936477345228
1761467601855385900,9.0623857421875,-4.384797677485644,0.9173919082939624,6.486085774108767
1761467601865368600,9.07236865234375,-4.390525699743629,0.13482581907510757,6.571237753954529
1761467601875351600,9.0823515625,-3.924339682102203,-0.3114543056130409,6.234632055950164
1761467601885334800,9.092334716796875,-3.217537566658854,-0.42346214368045326,5.502723556300998
1761467601895317800,9.10231787109375,-2.6702619963049887,-0.413691860294342,4.647506656891108
1761467601905300700,9.11230078125,-2.1949358098745346,-0.44902299365550274,3.863606104198098
1761467601915283700,9.12228369140625,-1.7689760041594504,-0.6318944662362337,3.120533820977807
1761467601925266700,9.1322666015625,-1.3667235295072198,-0.827139390438795,2.3996476506024598
1761467601935250000,9.14225,-0.8773357922375201,-0.8828525098323822,1.7962755144953726
1761467601945234000,9.15223388671875,-0.5815402435272932,-0.9752633747652173,1.2931062123715877
1761467601955216600,9.162216552734375,-0.23018062850534915,-1.1026169582635164,0.8139309492975473
1761467601965199600,9.17219970703125,0.30844431014209983,-1.2675804337099195,0.2687386149585247
1761467601975182800,9.182182861328124,0.7265159929558634,-1.2221610370546578,-0.15593465807735918
1761467601985165600,9.19216552734375,1.18787824370265,-1.0354425336569546,-0.7394792271643876
1761467601995148500,9.2021484375,1.793018558526039,-0.9124024294435977,-1.500233297547698
1761467602005131800,9.2121318359375,2.121828780348599,-0.8073793356969952,-2.124510274517536
1761467602015114800,9.22211474609375,2.3517770614027977,-0.6047600833341479,-2.58689397726655
1761467602025097700,9.23209765625,2.7151608762174844,-0.46797786949425935,-3.0173546015322206
1761467602035080700,9.242080810546875,2.9412440062761305,-0.4366130094155669,-3.5337902124643326
1761467602045063700,9.252063720703125,3.05927212754637,-0.3875219385102391,-4.003555842158198
1761467602055047700,9.262047607421875,3.1373619139209388,-0.4172691342592239,-4.289311058369279
1761467602065031000,9.272031005859375,3.226551478719711,-0.3577767885878682,-4.3231934542268515
1761467602075013600,9.282013671875,3.3854169295519587,-0.27401421727389097,-4.302894762563705
1761467602084996600,9.29199658203125,3.4014228924572465,-0.21506489243805407,-4.1700107252061365
1761467602094979800,9.301979736328125,3.2859318884491917,-0.22128858925849199,-3.9295980410218236
1761467602104962800,9.311962890625,3.075001319336891,-0.02516103700250387,-3.5581606836110353
1761467602114945500,9.321945556640625,2.7319027521818873,0.2635214648321271,-3.2053006008982656
1761467602124928800,9.3319287109375,2.35132464146018,0.4998986098900437,-3.109248456853628
1761467602134911700,9.341911865234374,1.8153940564632414,0.7947261903509497,-2.9021085121959445
1761467602144894700,9.351894775390624,1.3051309966862201,0.7122817158982158,-2.428893034309149
1761467602154877700,9.361877685546874,0.8474366207972168,0.3441547982096672,-1.408653915002942
1761467602164860700,9.371860595703126,0.24102847799509763,-0.01699935785681009,0.012390110495686531
1761467602174844700,9.3818447265625,-0.6437883176475763,-0.3203504365131259,1.3079536528915165
1761467602184828000,9.391827880859376,-1.403023507900536,-0.44494741477966304,2.368317277315259
1761467602194810600,9.401810546875,-2.014721281543374,-0.31825054162442684,3.4453836147367953
1761467602204793600,9.411793701171876,-2.587116095584631,-0.11627397107928991,4.198974953883886
1761467602214776800,9.42177685546875,-3.118558136990666,0.08043459593504666,4.431168091255426
1761467602224759800,9.431759765625,-3.3713685304552317,0.2904638322934508,4.397023829591274
1761467602234737700,9.441737548828126,-3.467527642005682,0.5782733506858349,4.207103899803758
1761467602244720600,9.451720703125,-3.6912872975528237,0.9518065113320946,3.8693215592354533
1761467602254703900,9.461703857421876,-3.721846686467528,1.3191063305467365,3.4977310570895668
1761467602264686800,9.471686767578126,-3.52862829965651,1.5063395054683089,3.0713825443178413
1761467602274669600,9.481669677734375,-3.034260728147626,1.6696031912595033,2.627113174930215
1761467602284652800,9.49165283203125,-2.50290315015465,1.8076055945441125,2.2170944501906633
1761467602294636800,9.50163671875,-2.045728706486523,1.8732178844004868,1.831012481355667
1761467602304619800,9.511619873046875,-1.3817898734748362,1.7073749957710505,1.4224252507239579
1761467602314602500,9.5216025390625,-0.7141074700206518,1.3003393784955144,0.8560901751130818
1761467602324585700,9.531585693359375,0.05837503207921981,0.6845470290154219,0.21095804164111612
1761467602334568700,9.541568603515625,-0.07089139930307865,-0.016434417450428007,-0.2469441317796707
1761467602344551700,9.5515517578125,-1.564698755456507,0.7626385689556598,-0.0933580826550722
1761467602354534700,9.56153466796875,-0.6930769569516182,0.3750841894805431,-0.542953615501523
1761467602364517600,9.571517578125,0.31379239317178725,-0.1528644568517804,-1.158676114615798
1761467602374500900,9.5815009765625,0.606820815256238,-0.22004560346007346,-1.6650784073114395
1761467602384483800,9.59148388671875,1.1047077930629252,-0.1903898853868246,-2.167265712660551
1761467602394466600,9.601466552734376,1.2879951529681681,-0.28368688550442456,-2.5070143848657604
