time,seconds_elapsed,z,y,x
1761467444312275700,0.122275634765625,1.0493909795105456,0.22118235240504144,-0.13949381088614463
1761467444322258700,0.1322587890625,2.22788004809916,-0.19677987868487834,-0.6591244184672832
1761467444332241700,0.14224169921875,3.1358588158816096,-0.6123198510639369,-1.0905816525548695
1761467444342225000,0.152224853515625,3.7205233289092776,-1.0643287286624312,-1.5300444984436035
1761467444352207600,0.16220751953125,4.012628206408023,-1.4251847785651683,-1.9374685305148363
1761467444362190800,0.17219091796875,4.0925685890853405,-1.6357880154192446,-2.3586048615962265
1761467444372173800,0.182173828125,4.11177714742422,-1.7391916912704706,-2.8112925152391193
1761467444382156500,0.192156494140625,3.9398388645291327,-1.694606115090847,-3.2470477387815713
1761467444392138800,0.202138671875,3.5722353861927982,-1.5879356925286352,-3.6683559192985293
1761467444402121700,0.212121826171875,3.148642894130945,-1.4508487966537476,-4.0203386346548795
1761467444412104700,0.222104736328125,2.9081214888751505,-1.2059202424801885,-4.287856767907739
1761467444422087700,0.232087646484375,2.697468567660451,-0.8328805644392967,-4.4550452259272335
1761467444432070700,0.242070556640625,2.4433225416779516,-0.5799424529418349,-4.352361096522212
1761467444442054000,0.252053955078125,2.1587895607382057,-0.40165553167238827,-4.03585418369472
1761467444452036600,0.26203662109375,2.0716741718649865,-0.2675581730023026,-3.7497874173164365
1761467444462019600,0.27201953125,2.4622043522804975,-0.449032784397155,-3.5361125179320574
1761467444472001800,0.282001708984375,3.221234667611122,-0.6100448918692767,-3.216830879694223
1761467444481984500,0.291984619140625,3.978900708851218,-0.6890206672981382,-2.4797183816611765
1761467444491967700,0.3019677734375,3.970822616335749,-0.6826283359125256,-1.4488906483232975
1761467444501950700,0.31195068359375,3.1950843273103233,-0.6039611880414187,-0.07266717680394649
1761467444511933700,0.32193359375,2.0630729322582484,-0.47218598870858547,1.4477823948204516
1761467444521916700,0.331916748046875,0.992871219909191,-0.1628760016478598,2.9429280138403175
1761467444531899600,0.341899658203125,-0.07227554713785649,0.3658447981007397,4.087109154635668
1761467444541883000,0.3518828125,-1.2858534647643565,0.722796095649898,4.662670908275246
1761467444551864600,0.361864501953125,-1.9670885927528141,1.0841779229924082,4.874560093286633
1761467444561847800,0.371847900390625,-2.40915840626955,1.0871963940307496,5.033235574504733
1761467444571830800,0.381830810546875,-2.6319196984291073,0.8765903806976973,5.046111422690749
1761467444581813800,0.391813720703125,-2.936061635202169,0.47325741733238097,5.24469396688342
1761467444591796700,0.401796630859375,-3.4353830297261476,-0.04818666941151022,5.4492719520986075
1761467444601779700,0.41177978515625,-4.205284867683053,-0.34953926772698757,5.362559883329272
1761467444611762700,0.4217626953125,-4.888564068719744,-0.3894035144731402,5.07772119744122
1761467444621746000,0.431745849609375,-5.046617034125328,-0.19869988696202634,5.008263630333542
1761467444631728600,0.441728759765625,-4.337469232338667,0.21128098998516798,4.912252402821183
1761467444641710800,0.4517109375,-4.385145175749063,0.5722326092168688,4.467793648341297
1761467444651693800,0.46169384765625,-5.061436417594551,0.5598875069066882,4.003423155689239
1761467444661676500,0.471676513671875,-5.941847379493713,0.6261293268382548,3.5441800890535116
1761467444671659800,0.48165966796875,-5.778692707034945,0.45710225521475073,2.8152310237318274
1761467444681642800,0.491642822265625,-4.363849289742112,-0.05234335069954395,2.2203408847659825
1761467444691625700,0.501625732421875,-2.8225124129116534,-0.5588046801060438,1.700066718584299
1761467444701608700,0.511608642578125,-1.717058769917488,-0.9390800084888935,0.9502607431948185
1761467444711591700,0.521591796875,-0.3731383161097765,-1.2298287952035665,0.128802905523777
1761467444721574000,0.531573974609375,1.1049281578153372,-1.2667673637613652,-0.5404425094634294
1761467444731556600,0.541556640625,2.5436732596993443,-1.2431854126438497,-1.1020517255961895
1761467444741539800,0.551539794921875,3.762375096210837,-1.4641633285179734,-1.7712229063034057
1761467444751522800,0.561522705078125,4.68744996022284,-1.653939465920627,-2.6430969260036945
1761467444761505500,0.571505615234375,5.26701861141622,-1.7559902658581732,-3.5900118659019467
1761467444771488800,0.58148876953125,5.563394590362906,-1.784016336902976,-4.511046514612436
1761467444781471700,0.5914716796875,5.867863859394192,-1.7739032314285634,-5.355114243498444
1761467444791454700,0.601454833984375,6.274761237242817,-1.6949048057764768,-6.24506518715918
1761467444801437700,0.611437744140625,6.6573372437834735,-1.667595066307485,-7.06777565523982
1761467444811419600,0.621419677734375,6.5921466864705085,-1.5309715501606465,-7.677497452634572
1761467444821403000,0.63140283203125,5.571721104681491,-1.5299059667557477,-7.913546096390485
1761467444831385600,0.641385498046875,5.552976656723022,-2.4114330732032654,-7.860076956531405
1761467444841368600,0.65136865234375,4.112575312064588,-2.567447226257622,-8.091268807905912
1761467444851351800,0.661351806640625,1.3709662816435098,-1.7419906743392348,-7.397011701259016
1761467444861334800,0.671334716796875,-0.5053752877354621,-0.9311600291445851,-5.635317086279392
1761467444871317500,0.6813173828125,-0.8569356860265135,-0.0993210827127099,-3.972618852102756
1761467444881300700,0.69130078125,-0.9202987356513738,0.1471484172925353,-2.9802859768539665
1761467444891283700,0.70128369140625,-0.8186571010366082,-0.017995675417780875,-2.25777658919096
1761467444901265700,0.711265625,-0.4012465124800801,0.5483052056625485,-0.9024228872209786
1761467444911248600,0.72124853515625,0.12418401355147361,1.3811872314065694,1.1671265475749968
1761467444921232000,0.73123193359375,-0.2548123809367418,2.0845313153505325,3.514401621383428
1761467444931214800,0.74121484375,-1.5527876606494186,2.3665680955603716,5.929499354574084
1761467444941197600,0.751197509765625,-2.2866414491474627,1.8738707953512668,6.883209945961832
1761467444951180800,0.761180908203125,-2.5754496231883763,0.7446902398109435,6.426276909834146
1761467444961163800,0.771163818359375,-2.4923405473470686,-0.28468992506712676,6.073652389442921
1761467444971146800,0.781146728515625,-2.6793296843796965,-0.5432207420051097,5.99439063667953
1761467444981128700,0.791128662109375,-4.0754754154652355,0.7445338802054524,6.160714586824178
1761467444991111700,0.801111572265625,-5.6605573259979485,2.5356933668613433,6.288105871984362
1761467445001095000,0.811094970703125,-6.358401643481851,3.8258041968092322,5.792136710497736
1761467445011077600,0.82107763671875,-5.891975971865653,4.25352019854188,5.304073792091011
1761467445021060600,0.831060546875,-4.66665442495346,4.508122443859279,5.00243127091825
1761467445031043800,0.8410439453125,-3.865525089561939,4.217885113798082,4.604616778713464
1761467445041026800,0.85102685546875,-3.1799715138524767,3.4912212368041273,3.984710271912813
1761467445051009500,0.861009521484375,-2.270974508938193,2.565838037495315,3.1824341045737263
1761467445060992800,0.87099267578125,-1.1768757881730794,1.5931871833160518,2.254676869609952
1761467445070975700,0.880975830078125,-0.22990941034853457,0.8859937304675578,1.3939859227031468
1761467445080957400,0.89095751953125,0.346262584143877,0.476660065382719,0.7203869886815547
1761467445090940400,0.9009404296875,0.6229068576604128,0.17286942626535892,0.11458324151337146
1761467445100923600,0.910923583984375,0.490453612935543,0.05024520937651396,-0.2993769143283367
1761467445110906400,0.92090625,0.1660603307723999,-0.24142419931441544,-0.5778583401441574
1761467445120889300,0.930889404296875,0.17038462371230123,-0.6522872659236192,-0.941238647827506
1761467445130872600,0.94087255859375,0.4145288956403732,-1.1964514262586832,-1.5989064377456903
1761467445140855600,0.95085546875,1.064644078221917,-1.6892711838036774,-2.455987377461791
1761467445150838300,0.96083837890625,2.0420389120578766,-2.131028278109431,-3.3212796806842086
1761467445160821500,0.970821533203125,3.0569048138931394,-2.410710896408558,-4.401324157133698
1761467445170803500,0.980803466796875,4.014610027875006,-2.3983780690580607,-5.354215248832106
1761467445180786400,0.990786376953125,4.989524443072081,-2.4816122325837613,-6.205488379052281
1761467445190769400,1.000769287109375,5.257276385080814,-2.458362874421477,-7.113826627796888
1761467445200752400,1.01075244140625,4.962713008514046,-2.3718708781436084,-7.96504832009077
1761467445210735600,1.020735595703125,4.690376076802611,-2.421863574063778,-8.544864808565377
1761467445220718300,1.03071826171875,4.379685156777501,-2.307491344952583,-8.910704199838637
1761467445230701600,1.04070166015625,4.190741378545761,-2.115599238309264,-9.064093849608302
1761467445240684500,1.0506845703125,3.864523803564906,-1.8840160495296119,-8.987136282134056
1761467445250667500,1.06066748046875,3.0847900151625276,-1.4762947880774735,-8.57598475397229
1761467445260649500,1.0706494140625,2.0959733313411473,-0.9643205404683947,-7.3529825899183745
1761467445270632400,1.080632568359375,1.66067578843832,-0.5987877309262752,-5.577215025922656
1761467445280615700,1.09061572265625,2.053499632748961,-0.7106245963409542,-3.4954794787704944
1761467445290598400,1.100598388671875,1.7693179494649172,-1.2190867441758513,-0.9042728990018367
1761467445300581400,1.110581298828125,-0.0022308277919888494,-1.433919289162755,1.4789835887700318
1761467445310564600,1.120564697265625,-1.017034770306945,-0.9762962249442935,3.941666079956293
1761467445320547600,1.130547607421875,-0.8177180666208267,0.42734044641852376,6.734770612075924
1761467445330530300,1.1405302734375,-1.0647568909466265,2.003879861794412,9.47932183342874
1761467445340513500,1.150513427734375,-2.0930659194618464,3.104934393046796,11.186788014614581
1761467445350496500,1.16049658203125,-3.0339760659873485,3.103867932859063,11.334728166806697
1761467445360478500,1.170478515625,-3.432265774488449,2.456118018104136,10.385592043727636
1761467445370461400,1.18046142578125,-2.663077637758851,1.6100193679124115,8.592944072079659
1761467445380444400,1.1904443359375,-1.9858441466271877,0.943157633191347,7.360161687767505
1761467445390427600,1.200427734375,-2.708937471657991,0.9601362405210733,6.93772947165668
1761467445400410400,1.210410400390625,-3.773011641037464,1.0288318833455443,6.852016350796818
1761467445410393600,1.2203935546875,-4.116427019056678,1.0707552545785903,6.823792711353302
1761467445420376600,1.23037646484375,-3.5479543468952177,0.9905354704380035,6.837557032811642
1761467445430359300,1.240359375,-2.568888949498534,1.0574109120979904,6.901984789058566
1761467445440342500,1.250342529296875,-2.1274305458784104,0.5774298855990171,6.319477746325731
1761467445450325500,1.260325439453125,-2.014284643691778,0.1244876726731658,5.155863006263971
1761467445460307500,1.270307373046875,-1.51511230224967,-0.3507140105947852,4.118391597127914
1761467445470290400,1.28029052734375,-0.8479203126609325,-0.7797986703321337,3.0221161168456074
1761467445480273400,1.2902734375,-0.07171645195037125,-1.0481459478855133,1.9092238482832908
1761467445490256600,1.300256591796875,0.7554068641364574,-1.1947189033776522,1.164644083109498
1761467445500239400,1.3102392578125,1.2590098815023898,-1.4944430237084627,0.5271756161332131
1761467445510222300,1.320222412109375,1.481217631432414,-1.7575801653981207,-0.08564882345199584
1761467445520205600,1.33020556640625,1.9449089096486567,-1.7219368973478675,-0.8091215031892061
1761467445530188500,1.3401884765625,2.552452778482437,-1.6463243147417903,-1.823209114128351
1761467445540171300,1.350171142578125,3.098489746952057,-1.8347677422359585,-3.167687201818824
1761467445550154500,1.360154541015625,3.952126975955069,-2.2466098830103873,-4.555435691437125
1761467445560136400,1.370136474609375,4.948603819140792,-2.729409766322374,-5.788581648364663
1761467445570119400,1.380119384765625,4.8983869590759275,-2.70880887684226,-6.821463391622901
1761467445580102400,1.390102294921875,4.238679187762737,-2.4584455842688677,-7.559405910739303
1761467445590085600,1.400085693359375,3.5688843221992252,-2.083812645687163,-7.940047734346986
1761467445600068600,1.410068603515625,2.7840371363058685,-1.7435662530928848,-8.207340242150426
1761467445610051300,1.42005126953125,2.125513898602128,-1.7437310882657766,-8.496495037671924
1761467445620034600,1.43003466796875,1.9659312394112347,-1.6330226423591374,-8.853712731072306
1761467445630017500,1.440017578125,2.609429926462471,-1.484768894173205,-9.050690762677789
1761467445640000500,1.45000048828125,2.7354186513483523,-1.5576143501535058,-8.849862485384941
1761467445649983500,1.4599833984375,3.09549991748631,-1.5165207077428697,-8.547011172944307
1761467445659965400,1.46996533203125,2.8278026282742617,-1.4941709287688136,-7.595278603631257
1761467445669948700,1.47994873046875,1.995672005419433,-1.301453477217257,-5.8287359640985725
1761467445679931400,1.489931396484375,0.3435588781431317,-0.7817468817904591,-4.125526855835318
1761467445689914400,1.499914306640625,-1.61528181848526,-0.18195698808431623,-2.246519282117486
1761467445699897600,1.509897705078125,-2.4746371328741312,0.7630208462715149,0.34387715031206606
1761467445709880300,1.51988037109375,-1.6028127975344657,1.602455946920812,3.510177866208553
1761467445719863300,1.52986328125,-0.8449439271986484,1.9857970926150679,6.683331516739726
1761467445729846500,1.539846435546875,-2.2014801169514655,2.306641742385924,9.3979148853302
1761467445739829500,1.54982958984375,-4.704927749246359,2.827406614693999,10.717989768648147
1761467445749812500,1.5598125,-6.537760431766509,2.706319398114085,10.718055235099792
1761467445759795500,1.56979541015625,-7.627191160720586,3.0403742425918576,10.761106441318988
1761467445769777700,1.579777587890625,-8.020911077088117,4.642422193233669,9.931807827019691
1761467445779760400,1.589760498046875,-7.023161437487602,5.803980293026566,9.377879813039302
1761467445789743400,1.599743408203125,-5.251575543090701,6.876565685641765,8.334811606809497
1761467445799726600,1.6097265625,-3.999352545249462,7.148406942790746,7.180158171838522
1761467445809709600,1.61970947265625,-3.117583154478669,6.6436530018240205,6.315102599981427
1761467445819692300,1.6296923828125,-2.3779420147508383,5.611045399332046,5.342360560387372
1761467445829675500,1.639675537109375,-1.4425585226923225,4.354952282059193,4.041563793513179
1761467445839658500,1.649658447265625,-0.06632920595407485,3.0749367296680807,2.8073651126623154
1761467445849641500,1.659641357421875,0.7449515210956335,2.0257702065631746,1.4720254401952027
1761467445859624400,1.66962451171875,0.8940981264680623,1.1075199278742074,0.03309738295972347
1761467445869607400,1.679607421875,0.9041127400040626,0.20753975763022897,-1.2518582561820746
1761467445879589600,1.689589599609375,0.8173293595641851,-0.7588637265920639,-2.300788632443547
1761467445889572400,1.699572265625,1.0473363850682973,-1.6937839850530028,-3.221833802548051
1761467445899555300,1.709555419921875,1.7342334843412042,-2.4036405196309087,-3.9755215878069396
1761467445909538600,1.71953857421875,2.5348840963050723,-3.116320002675056,-4.711346384117007
1761467445919521500,1.729521484375,3.3242227483987805,-3.9424996081709858,-5.639546102151274
1761467445929504500,1.73950439453125,4.105751311263441,-4.571996950137615,-6.787732386934757
1761467445939487500,1.749487548828125,4.30189698369801,-4.836064650675654,-8.04086139370501
1761467445949470500,1.759470458984375,4.1517064222306015,-4.84356085164994,-9.073882837694883
1761467445959453700,1.76945361328125,3.7761212974905964,-4.269277739644051,-10.250684391587972
1761467445969436400,1.7794365234375,3.968728858926892,-3.652999944734573,-11.394662703287601
1761467445979419400,1.78941943359375,4.2728161429032685,-2.8646643322035668,-11.963258709567784
1761467445989401600,1.799401611328125,4.059574081978202,-2.2524431192085146,-11.653954275465011
1761467445999384300,1.80938427734375,3.7227503573089837,-1.4157522027008234,-10.703989300346374
1761467446009367600,1.819367431640625,3.3794191504418847,-0.704127343276143,-9.42963864184916
1761467446019350500,1.8293505859375,3.1875214908406138,-0.11214812332093715,-8.10057848804295
1761467446029333200,1.839333251953125,2.773507851245999,0.29461905227676033,-6.445538075143099
1761467446039316500,1.84931640625,2.2853812199532983,0.37900823105648157,-4.488059022256731
1761467446049299500,1.859299560546875,1.763532936322689,0.3674617317780852,-2.339717205774784
1761467446059282400,1.869282470703125,0.9943751947313546,0.5356834783680736,-0.27933658134043216
1761467446069265400,1.879265380859375,0.5780629228055477,0.9057302582032978,1.9074042316406965
1761467446079248600,1.88924853515625,0.4159501606151461,1.5174603266805409,4.326718705743551
1761467446089231600,1.899231689453125,-0.3385515713751316,2.199605116859823,6.476833961638808
1761467446099213800,1.9092138671875,-1.7961755612522363,2.453220835357904,8.803037021324037
1761467446109196500,1.919196533203125,-3.5239933333322404,2.160190805838257,10.998259831446408
1761467446119179800,1.9291796875,-5.244600443381071,1.2876445859648287,11.959960837066173
1761467446129162800,1.939162841796875,-6.179352067276835,0.641015638063848,11.331305206620693
1761467446139145700,1.949145751953125,-5.757290438044071,-0.065536302010715,9.970030882430075
1761467446149128700,1.959128662109375,-5.114878669446706,0.3533408519670367,9.192052121001481
1761467446159111700,1.969111572265625,-3.9443040272444483,1.6188864188484846,9.112441993191839
1761467446169095000,1.979094970703125,-2.572304310899973,1.3484135274432598,8.977189473137258
1761467446179078000,1.989077880859375,-2.5272841426953674,0.6983259635210037,8.676070683577656
1761467446189060600,1.999060546875,-2.1021669252842665,0.46085181700661776,8.340459841829539
1761467446199043800,2.0090439453125,-1.421224058240652,-0.2654625158973038,7.823260260787606
1761467446209026800,2.01902685546875,-0.8729957172065973,-0.6551562454886735,6.958413947767019
1761467446219008800,2.0290087890625,-0.24309359383136034,-1.003007706259191,5.783650621703266
1761467446228991700,2.03899169921875,0.8610802384853362,-1.3704448881179094,4.208289310196042
1761467446238974700,2.048974609375,1.878085198175907,-1.6040939233861862,2.5591362017691135
1761467446248958000,2.0589580078125,2.6459710201352835,-1.8323264865636824,1.1559434747815132
1761467446258940700,2.068940673828125,2.876042927569151,-2.02203043551296,-0.20456687929928302
1761467446268923600,2.078923583984375,2.199373500061035,-2.269521972042322,-1.4746481899142265
1761467446278907000,2.088906982421875,1.6623267705157398,-2.4653897043183446,-2.5964701993852852
1761467446288889600,2.0988896484375,1.3625409831255673,-2.402733341658115,-3.7649896626234054
1761467446298872800,2.108872802734375,1.5430436807483434,-2.1564839141443373,-5.010621007114649
1761467446308855800,2.118855712890625,2.033018862517178,-1.9353639594510197,-6.193188869449496
1761467446318838800,2.1288388671875,2.3979431847721338,-1.581328257087618,-7.497557065069675
1761467446328820700,2.13882080078125,2.8293457660630343,-1.3456617445170878,-8.811392761737107
1761467446338803700,2.1488037109375,3.2117712582170963,-1.162180323344469,-9.881496858930587
1761467446348787000,2.158786865234375,2.8655130579873918,-0.8831704897403716,-10.619245316779613
1761467446358769700,2.168769775390625,2.7180425691336394,-0.7996142546534538,-10.985392166566848
1761467446368752600,2.178752685546875,2.621049637107551,-0.5494076139464974,-11.04641040663123
1761467446378735900,2.18873583984375,3.65013344938755,-0.8625992647461592,-10.034206709742545
1761467446388718800,2.19871875,4.372093970996141,-0.6285289353258907,-8.911278784856199
1761467446398701600,2.20870166015625,3.9078818837761875,-0.39641953071504826,-8.157465327391028
1761467446408684800,2.218684814453125,3.0786002206116914,-0.2627338215857744,-6.494670062580704
1761467446418667800,2.228667724609375,1.4331062192142008,0.26998466949686406,-4.47595825009644
1761467446428650800,2.238650634765625,-0.20633768836408853,0.6416521824017166,-2.943113891801238
1761467446438633700,2.2486337890625,-1.0302306442275644,0.8252958083987235,-1.1908645660370587
1761467446448616700,2.25861669921875,-0.9890057766526937,1.161436226978898,1.2941869933456183
1761467446458599000,2.268598876953125,-1.3154115676820277,1.4301494152352212,4.098363539099693
1761467446468581600,2.27858154296875,-2.2128794628441333,1.395004159834981,6.817988993510603
1761467446478564900,2.28856494140625,-3.124756114847958,1.1775696156561375,8.574259245353936
1761467446488547800,2.2985478515625,-3.977892408591509,1.575430285090208,8.495283908316493
1761467446498530800,2.30853076171875,-6.1846595260351895,2.0960440584897992,7.165255201739073
1761467446508513800,2.318513671875,-9.212599234467744,2.7786022517755624,5.924149225717783
1761467446518496800,2.328496826171875,-10.052225181514023,3.4180417265638705,5.4351522413313385
1761467446528479700,2.338479736328125,-6.898715558129549,3.8273552256435153,5.011268072846532
1761467446538463000,2.348462890625,-3.862459272250533,4.071865700535476,4.342947956010699
1761467446548445700,2.35844580078125,-3.424952528865635,4.169663811464607,4.080983949753642
1761467446558428700,2.3684287109375,-3.9370173773676154,3.7417344592422244,4.439434984341264
1761467446568412000,2.378411865234375,-4.2205911578863855,3.419141212238371,4.721541030395031
1761467446578393600,2.3883935546875,-4.26709747299552,2.8789412793591618,4.489001856064796
1761467446588376800,2.398376953125,-3.433838138371706,2.3519959648504853,3.8364451255500316
1761467446598359800,2.40835986328125,-2.545154730428755,2.3176108801677824,3.192146520292759
1761467446608342500,2.418342529296875,-1.612124231237173,2.191770769972354,2.447224809813499
1761467446618325800,2.42832568359375,-1.1771434991985559,2.087846869639307,1.684109855517745
1761467446628308700,2.438308837890625,-1.0232546677350998,1.858569035192579,0.7080909862101078
1761467446638291700,2.448291748046875,-0.29715397758185863,1.4112012613981961,-0.3418488593548536
1761467446648274700,2.458274658203125,0.23954671500474214,0.7435095055937767,-1.3117694117873906
1761467446658257700,2.468257568359375,0.3624889118015766,0.10268792879730462,-2.3254525335788725
1761467446668241000,2.478240966796875,0.21705314364582298,-0.4087285387985408,-3.3589398415148257
1761467446678224000,2.488223876953125,0.34267274295836686,-0.8069275002762675,-4.5689276256948705
1761467446688206600,2.49820654296875,0.9859341141223907,-1.2092775900840758,-5.590460291942954
1761467446698189800,2.50818994140625,1.9605790647283194,-1.3992895820692182,-6.276820507860183
1761467446708171800,2.518171875,2.4823852627828717,-1.5768427822366355,-6.9182608010768885
1761467446718154800,2.52815478515625,2.4659324328929184,-1.8240984641835092,-7.391272280824184
1761467446728137700,2.5381376953125,2.2208707538589834,-1.9019898053765296,-7.983646053054929
1761467446738120700,2.54812060546875,1.8460250493094323,-1.7736837434589863,-8.812821333235501
1761467446748104000,2.55810400390625,2.047946674796939,-1.4376301263794302,-9.50973976804614
1761467446758086700,2.568086669921875,2.7352105615556237,-1.0333785868644714,-9.818034148323536
1761467446768069600,2.578069580078125,3.2914939064905044,-0.8275500170662998,-9.648882281276583
1761467446778052900,2.588052978515625,3.720032330521941,-0.9148597594678402,-9.007388796567916
1761467446788035800,2.598035888671875,3.7999247824043034,-1.1673609408527612,-7.975541657054424
1761467446798018800,2.608018798828125,3.5430089994475242,-1.559859498731792,-6.6399944793164725
1761467446808001800,2.618001708984375,3.1488223423510786,-2.012456551481783,-5.08919127048254
1761467446817984800,2.62798486328125,2.5167332303255794,-2.2841142687574028,-3.130712685164809
1761467446827967700,2.6379677734375,2.338557514345646,-2.229870345133543,-0.751530314964056
1761467446837949700,2.64794970703125,1.3328405491277575,-1.6398098182812333,1.9022697913616895
1761467446847933000,2.657932861328125,-0.18811346488744018,-0.7928156805545091,4.4582478213608265
1761467446857916000,2.667916015625,-1.3359388074040413,0.2710825477361679,6.855215439099073
1761467446867898600,2.677898681640625,-2.218603101187944,1.1260640309549867,9.08828428801298
1761467446877881900,2.6878818359375,-3.8451694070145486,0.8625188929863273,10.483933175492286
1761467446887864800,2.69786474609375,-5.090971139636635,-0.4660601993046701,10.273865360689163
1761467446897847600,2.70784765625,-4.543047334507108,-0.8375823123894631,9.344960709255933
1761467446907830800,2.717830810546875,-4.851126610729098,-0.4538673649467528,8.93028159148991
1761467446917813800,2.727813720703125,-5.6136634728759525,0.2210368064545095,8.531155432164669
1761467446927796700,2.737796630859375,-4.97807307473123,0.9311217429608106,8.369751987287401
1761467446937779700,2.74777978515625,-3.4464854384988546,1.1975462357580662,8.320940317845345
1761467446947762700,2.7577626953125,-2.5399258898645636,0.8944367107726633,8.037769857430458
1761467446957745700,2.76774560546875,-2.242022262959182,0.43536300935447214,7.585339977940917
1761467446967727600,2.7777275390625,-2.025873374676704,-0.004614069666713476,6.926932183310389
1761467446977710800,2.7877109375,-1.7836632856816053,-0.4434814338803291,5.970650864651799
1761467446987693800,2.79769384765625,-1.838323388890922,-0.69657035202533,4.794400514900684
1761467446997676800,2.8076767578125,-1.449038824622333,-0.8401450024843216,3.5588644479662177
1761467447007659800,2.81765966796875,-0.623687778905034,-0.7144815640300511,2.1710727037280795
1761467447017642800,2.827642822265625,-0.03242635183036327,-0.6456570341289043,0.9072802641242742
1761467447027625700,2.837625732421875,0.3472907581478357,-0.49804041480273004,-0.27721535140275955
1761467447037609000,2.84760888671875,0.4689776941865682,-0.5172682623639703,-1.243461014714837
1761467447047591700,2.857591796875,0.5251905797958374,-0.5577589704453945,-1.9370102653533219
1761467447057574700,2.86757470703125,0.7802426147073507,-0.7133683420911431,-2.6404841131567953
1761467447067558000,2.877557861328125,0.9844310160830616,-0.830453629553318,-3.2209757244139907
1761467447077540900,2.887540771484375,1.1672650792628525,-0.9497390574082731,-3.8953070643633603
1761467447087523800,2.89752392578125,1.282415599270165,-1.2282809812396764,-4.617830480551719
1761467447097507000,2.907507080078125,1.6349600401625035,-1.3504793739318848,-5.242329575839638
1761467447107488800,2.91748876953125,1.7259674680382013,-1.4072303119406104,-5.6977790954113
1761467447117472000,2.927471923828125,1.5569178923219442,-1.353880414547026,-6.33274054800272
1761467447127455000,2.937455078125,1.3659461153939365,-1.5366171548321843,-7.103593403074145
1761467447137437700,2.947437744140625,1.2353785382851958,-1.9140309563040732,-7.778226940840482
1761467447147421000,2.9574208984375,1.5155574156686662,-2.337693298731744,-8.284130636364221
1761467447157404000,2.96740380859375,1.956922588047385,-2.707961904624104,-8.62095377651155
1761467447167387000,2.977386962890625,1.9771008682012556,-2.916284337064624,-8.813250372302532
1761467447177369900,2.987369873046875,2.575966925060749,-2.9149674092471596,-8.673604001203179
1761467447187352800,2.997352783203125,2.773696067294478,-2.696160699932277,-8.210751511898636
1761467447197336000,3.007336181640625,2.812687768989801,-2.434690614672005,-7.985860221973061
1761467447207318800,3.01731884765625,2.9479145700812337,-2.05350255535841,-7.804637977904081
1761467447217301800,3.0273017578125,3.139713737744093,-1.4241773550882935,-6.423054440656304
1761467447227285000,3.037284912109375,2.4862591816067696,-0.7117901329889893,-4.2601334792017935
1761467447237266700,3.0472666015625,1.1754437095433472,-0.3850578864842653,-2.301844278976321
1761467447247250000,3.05725,0.2744002939820289,-0.06601794804781674,-0.2171978128135204
1761467447257233000,3.06723291015625,-0.4204682225614786,0.19135025485157967,2.5874451814085244
1761467447267216000,3.0772158203125,-0.5568085378527641,1.1114973070725798,5.877307395043969
1761467447277198800,3.08719873046875,-1.120616725334525,2.1053467243641615,9.287122852793335
1761467447287181800,3.097181884765625,-2.618133749660849,2.3805749936029312,10.682253269356488
1761467447297164800,3.107164794921875,-4.313164812165499,2.9390289605751634,10.775637655496597
1761467447307148000,3.11714794921875,-6.059957041567563,4.080161235193908,10.789944413268566
1761467447317130800,3.127130859375,-7.4234998952120534,5.0749651767313475,10.590516065901518
1761467447327114000,3.137114013671875,-7.504817411461472,5.953576980254054,9.910505511271953
1761467447337097000,3.147096923828125,-6.393024044051766,5.976190378600359,8.716630072981118
1761467447347080000,3.157079833984375,-4.951737440991401,5.351424156808853,7.357781514632701
1761467447357063000,3.16706298828125,-3.4794998193502424,4.499353738731146,6.158952253326773
1761467447367046000,3.1770458984375,-2.2481705564558503,3.6123721662700174,4.889548403581976
1761467447377028000,3.187028076171875,-1.4449837040126323,2.7890400591596958,3.5037001946270463
1761467447387010800,3.1970107421875,-0.6725754361927508,2.181331647413969,2.1704817520976065
1761467447396993800,3.206993896484375,-0.3601286124110222,1.6419006530806421,1.0547165584474802
1761467447406977000,3.21697705078125,-0.4356219525516033,0.9964064082980155,0.1264461132645607
1761467447416960000,3.2269599609375,-0.13367314190864563,0.3746837919861078,-0.487175029656291
1761467447426942700,3.236942626953125,0.5405389555752277,-0.3390750107273459,-0.9397656526654958
1761467447436926000,3.246926025390625,1.0677017122268677,-1.1285106934547424,-1.4383154782950878
1761467447446909000,3.256908935546875,1.3453215527772904,-1.6573957438543439,-1.8295184434056282
1761467447456891600,3.2668916015625,1.32501175519824,-2.0362796178787947,-2.3370751668334004
1761467447466875000,3.276875,1.3226906187742948,-2.1094705262959,-3.292138341873884
1761467447476857900,3.28685791015625,1.7560984024077653,-2.081255362419784,-4.2181396730810405
1761467447486841000,3.296841064453125,2.257175116166472,-2.1418518699407576,-5.064916660925745
1761467447496823800,3.30682373046875,2.2818989307954904,-2.085061476704478,-5.8910676248490805
1761467447506806000,3.316805908203125,2.398182838746905,-1.8664371382191776,-6.437613711884618
1761467447516789000,3.3267890625,3.2205472698688506,-1.6106547432065008,-6.662019848641753
1761467447526771700,3.336771728515625,3.870767666390538,-1.3789865064918994,-7.034905066773295
1761467447536755000,3.3467548828125,4.167075256276131,-0.9582502806439995,-7.490178645256162
1761467447546738000,3.356738037109375,4.622632912397385,-0.5545473149225115,-7.858658321905136
1761467447556721000,3.366720947265625,4.870918521913886,-0.2982078705489635,-8.1925208586812
1761467447566703900,3.376703857421875,4.765584754782915,-0.14294424360096453,-8.353182545280456
1761467447576686800,3.386686767578125,4.606671373155713,-0.28424919556230305,-8.110375659435986
1761467447586669800,3.396669921875,3.956282049807906,-0.6417793159127235,-7.298707978895306
1761467447596653000,3.406653076171875,2.55493728877455,-1.1359706540718675,-6.436357574343681
1761467447606635800,3.4166357421875,0.5630599994629621,-1.4767283571891485,-5.555576610088348
1761467447616618800,3.42661865234375,-0.589088174688816,-1.82089849909842,-4.045959398123622
1761467447626602000,3.43660205078125,-0.5613187087535858,-2.351229656653106,-2.196618648394942
1761467447636585000,3.4465849609375,-0.8962041588366031,-2.639345464515686,0.1769657556682825
1761467447646567000,3.45656689453125,-1.7030454421341419,-2.585642808161676,3.0313194139987227
1761467447656550000,3.4665498046875,-1.829643531090021,-2.00535753313154,5.684122910502553
1761467447666533000,3.476533203125,-2.2291005298048256,-0.9103890437945723,8.35577080820799
1761467447676515800,3.486515869140625,-3.2577146787464617,0.27135288911014793,10.800664544725418
1761467447686498800,3.496498779296875,-3.946153454503417,0.726210872529447,12.676100689697265
1761467447696482000,3.50648193359375,-4.048958579939604,0.858164789430052,12.46351475459337
1761467447706465000,3.516465087890625,-2.6390309917390344,0.7685770190939307,11.130938117098808
1761467447716447700,3.52644775390625,-1.3595032228648662,1.0191760201193392,9.90525416661501
1761467447726431000,3.536430908203125,-1.7985569034308193,1.523040172639489,9.084946668022871
1761467447736414000,3.5464140625,-2.9729449664413927,1.9665126925610004,8.696060163161158
1761467447746396700,3.556396728515625,-2.940262009501457,2.1112799138054252,8.262611462995409
1761467447756380000,3.5663798828125,-1.9433266088932752,1.6046056723006068,7.471781987822055
1761467447766363000,3.57636279296875,-0.7126923425257206,1.0577432127922772,6.318636034804582
1761467447776344800,3.5863447265625,-0.15460428625643252,0.46270314396172757,4.443232038536667
1761467447786327800,3.596327880859375,0.27493922316431996,0.07826704263761639,2.3271494006246325
1761467447796310800,3.606310791015625,0.7060808154314756,-0.01000379988104105,0.42267303912937637
1761467447806294000,3.6162939453125,0.8638350901514291,-0.12358122535273432,-1.0903367378830908
1761467447816276700,3.62627685546875,0.798681357717514,-0.4184146510325372,-2.1325117946654557
1761467447826260000,3.636260009765625,0.8123837198555469,-0.8947463612437248,-2.841177950415015
1761467447836243000,3.646242919921875,0.9728712189316749,-1.47690283697322,-3.418482748329639
1761467447846226000,3.656225830078125,1.2207996855735779,-2.0342012041695416,-3.954592197024822
1761467447856209000,3.666208984375,1.6278250737160442,-2.389625584412366,-4.466469706261158
1761467447866192000,3.67619189453125,2.1662106506496666,-2.473715341854095,-4.974618550363183
1761467447876174800,3.6861748046875,2.7569495151549575,-2.5186548460379243,-5.6588090210258954
1761467447886158000,3.696157958984375,3.3147061475127932,-2.3978283262208104,-6.482824726486205
1761467447896140800,3.706140869140625,3.842169932937622,-2.108705533272773,-7.226220834833383
1761467447906123800,3.716123779296875,4.361487236785888,-1.9142789397157727,-7.985935625296831
1761467447916106000,3.72610595703125,4.655508761560917,-1.7678192353397606,-8.696957404261827
1761467447926088700,3.736088623046875,4.533296340343356,-1.414067318353802,-9.195451115790009
1761467447936072000,3.746072021484375,4.148381369461119,-1.1186321273885667,-9.455089309448002
1761467447946055000,3.756054931640625,3.4766572894006966,-0.8505755033448338,-9.169627523225545
1761467447956038000,3.766037841796875,2.856204839155078,-0.6229486509755253,-8.37331815533638
1761467447966020900,3.776020751953125,2.3356296442002056,-0.3541474921748042,-6.365309523174166
1761467447976003800,3.78600390625,1.615751774084568,-0.22470395065993068,-4.303693803986906
1761467447985987000,3.795987060546875,0.4068085305213928,-0.20350801789611578,-2.7960493533998725
1761467447995969800,3.8059697265625,-0.28707039046287536,0.3252051830679178,-0.8027315098911524
1761467448005952800,3.815952880859375,-0.1324199269771576,1.2946493501603602,1.945683985674381
1761467448015936000,3.82593603515625,-0.5864332762658596,1.7694640799373387,4.934188340297341
1761467448025919000,3.8359189453125,-2.4068922149032352,1.690163456468284,7.5198559906393285
1761467448035901700,3.845901611328125,-3.582698912540078,1.6598434292674065,9.221884949207306
1761467448045885000,3.855885009765625,-4.093286966487765,2.2138538608342406,9.652792148196697
1761467448055867000,3.865866943359375,-6.032936348173022,2.912824551999569,8.835991780942678
1761467448065849900,3.875849853515625,-7.694546202591061,4.05616398127377,7.48540719307065
1761467448075832800,3.885832763671875,-7.893426268425584,4.952367555588483,6.7127312142252915
1761467448085815600,3.895815673828125,-6.190519357979297,4.9167216571897265,6.149784612008929
1761467448095798800,3.905798828125,-4.737570081914961,4.756690377448499,5.6090206155061715
1761467448105781800,3.91578173828125,-4.006791463078558,4.5303404131472105,5.2123588004678485
1761467448115764700,3.9257646484375,-3.6237896323412655,4.246860448391735,4.946908121138811
1761467448125747700,3.935747802734375,-3.1638118216902016,3.8303877252072094,4.598760453900694
1761467448135730700,3.945730712890625,-2.4099624161288142,3.28856515956223,3.8876463204771277
1761467448145714000,3.9557138671875,-1.5696981711789966,2.756096113196015,2.7472072888195513
1761467448155696600,3.965696533203125,-0.6691615360960363,2.2852336281761527,1.4269289918839931
1761467448165679600,3.9756796875,0.20380583179891107,1.9325521169006823,0.21287351987361908
1761467448175662800,3.985662841796875,0.8863508733421563,1.5218687907725572,-0.761019443321228
1761467448185645800,3.995645751953125,1.355963650561869,1.03403383590281,-1.504843421691656
1761467448195628500,4.005628662109375,1.3510656493872404,0.4710685289859771,-2.203285705068707
1761467448205610800,4.01561083984375,1.1470280546590685,-0.21635902390182016,-2.8427555749952793
1761467448215593700,4.02559375,1.2196610369324683,-0.8552025786235928,-3.4177637864053247
1761467448225576700,4.03557666015625,1.6680530392080544,-1.402887314300239,-4.111121898385882
1761467448235559700,4.0455595703125,2.1770693137943744,-1.8558140373960137,-4.78810346058309
1761467448245542700,4.055542724609375,2.5723180471643805,-2.271971411021054,-5.26448295545876
1761467448255526000,4.06552587890625,2.7673738785356283,-2.5129876140564678,-5.658942292016745
1761467448265508600,4.075508544921875,3.0162165374130008,-2.5104846913248298,-6.017316754236817
1761467448275491800,4.085491943359375,3.485346207290888,-2.339594163917005,-6.447987221860886
1761467448285474800,4.095474853515625,3.9488153671890496,-2.062047680863738,-6.990903427961468
1761467448295457500,4.10545751953125,4.28307947050333,-1.8345973541051148,-7.5362565058201545
1761467448305440800,4.115440673828125,4.485630041544139,-1.6553759284645317,-7.958360220628976
1761467448315423700,4.125423828125,4.594595735436678,-1.5025240388333796,-8.187166638171673
1761467448325406700,4.13540673828125,4.588543888051808,-1.4655226341724394,-8.20462630701661
1761467448335389700,4.1453896484375,4.063321744073927,-1.525023601541668,-7.964948366847634
1761467448345371600,4.15537158203125,3.03382409029603,-1.4956084142260253,-7.333588738140463
1761467448355355000,4.16535498046875,2.581435419599712,-1.5526510286577044,-6.2545426250785585
1761467448365337600,4.175337646484375,2.3601582285180687,-1.5972316364012658,-4.875270871904492
1761467448375320600,4.185320556640625,1.549107510831952,-1.690867659214884,-3.356380804681778
1761467448385303800,4.1953037109375,0.7013575863018632,-1.624857309951633,-1.3547270945042371
1761467448395286800,4.205286865234375,0.7062380518198013,-1.343481185607612,1.0492501097351312
1761467448405269500,4.21526953125,0.6877455327957868,-0.7542847282387316,3.7640567656874655
1761467448415252700,4.225252685546875,-0.7259738489031792,0.32930399668887256,6.633668783426284
1761467448425235700,4.235235595703125,-2.9095494758516547,1.5266994257993995,9.148373722794652
1761467448435218700,4.24521875,-4.493934636291861,2.059023510736972,10.8265097645998
1761467448445201700,4.25520166015625,-5.0641117742836474,2.259052454345673,11.225821217364071
1761467448455184600,4.2651845703125,-5.1760547304213045,2.0563852711878714,10.56316745572686
1761467448465168000,4.27516796875,-5.182100440326333,2.0034714271239937,9.550257656395434
1761467448475150800,4.28515087890625,-5.175801047921181,2.7675857677206395,8.770421284401417
1761467448485132800,4.2951328125,-4.757418691723048,3.10747326387465,8.079106076425314
1761467448495115800,4.30511572265625,-3.7281858263611793,1.9619412929922342,7.736092264944315
1761467448505098800,4.3150986328125,-2.712994638094306,1.200420329889655,7.322253689655661
1761467448515081700,4.325081787109375,-2.661954771208763,0.7215270986273884,6.88768972172439
1761467448525064700,4.335064697265625,-2.6714377620860934,0.2620139828786254,6.344819692853092
1761467448535047700,4.345047607421875,-2.3419074092954397,0.007190788286924362,5.543839410543441
1761467448545031000,4.355031005859375,-1.8354396501481531,-0.23391923051178454,4.377642837294936
1761467448555013600,4.365013671875,-1.2118576697051524,-0.6464370785906911,3.0148090087026356
1761467448564996600,4.37499658203125,-0.5156099737629294,-1.0932260295838117,1.582341671913862
1761467448574979800,4.384979736328125,0.2488634094044566,-1.6229460695028304,0.21844576704800128
1761467448584962600,4.394962646484375,1.0381447783529758,-2.138171135601401,-1.0269640436470509
1761467448594945800,4.40494580078125,1.6038579226732252,-2.664418238712847,-2.136758346194029
1761467448604928800,4.4149287109375,2.0202146182626484,-3.211789086134732,-2.9910248130112884
1761467448614911700,4.424911865234375,2.3699808266133067,-3.5656703285887836,-3.781519941663742
1761467448624894700,4.434894775390625,2.265337087573111,-3.563345977294445,-4.662549327722192
1761467448634876700,4.444876708984375,1.9423647781237958,-3.2025404885351656,-5.638643600353598
1761467448644860000,4.45485986328125,1.7750594157263635,-2.75135037997365,-6.561102728909254
1761467448654842600,4.464842529296875,2.310292958369851,-2.4431515690252184,-7.395839150348305
1761467448664825600,4.47482568359375,2.9934917876467106,-2.236541201199591,-7.959630971217155
1761467448674808800,4.484808837890625,4.03380192734003,-1.9108947041049598,-8.245831593108177
1761467448684791800,4.494791748046875,4.613928504677117,-1.647307480560243,-8.597774560976028
1761467448694774500,4.5047744140625,4.391910432100296,-1.4378086978167295,-8.853284276527166
1761467448704757800,4.5147578125,4.000582671566307,-1.273524729067087,-8.823615698972343
1761467448714740700,4.52474072265625,3.5671442005336282,-1.052053476718068,-8.711324952310322
1761467448724723700,4.5347236328125,2.919731847169995,-0.7506576237827539,-8.1459163438946
1761467448734706700,4.544706787109375,2.447794134134054,0.15370441480726002,-6.902763372215628
1761467448744689700,4.554689697265625,1.8641060649231076,0.9232456027582288,-5.14568297303319
1761467448754672600,4.564672607421875,1.4883487984865904,1.5574468846321106,-3.397330654707551
1761467448764655900,4.57465576171875,1.2020692661404608,2.2047420413568615,-1.2859224383473395
1761467448774637800,4.584637939453125,0.4688122744917869,2.4847592984378335,1.5184189425796268
1761467448784620800,4.594620849609375,-0.4006470852822065,2.292252274766564,4.378145526120067
1761467448794603800,4.604603759765625,-1.2316399362787604,1.5235785172998904,6.9762360201835625
1761467448804586800,4.614586669921875,-2.2940479260116815,0.7640671404540539,8.61621505755186
1761467448814569700,4.62456982421875,-3.0609418143242597,0.8442693889379501,9.342893255332111
1761467448824552700,4.634552734375,-4.413019271102548,1.7804568908557294,9.22377763108611
1761467448834536000,4.644535888671875,-7.236858548703789,2.8825331663712856,8.315252335336805
1761467448844518700,4.6545185546875,-10.091929415392874,3.3397654777064916,7.639591208088397
1761467448854501600,4.664501708984375,-7.758427430871128,3.2899390782639384,6.5350055801004165
1761467448864484900,4.67448486328125,-4.1806349950730795,2.8145506402522322,5.394758271622657
1761467448874467600,4.684467529296875,-3.2860259964734313,2.2765262978464365,4.6534091589331625
1761467448884450600,4.694450439453125,-3.866819805547595,1.6607564524590968,4.262481503632665
1761467448894433800,4.704433837890625,-3.65822790851593,1.012047337283194,3.882154737323522
1761467448904416800,4.714416748046875,-2.7726901051223276,0.8244517587900161,3.296252791455388
1761467448914399700,4.724399658203125,-2.060292946150899,0.7011418977245688,2.666197231084108
1761467448924381700,4.734381591796875,-1.6523165408939122,0.5977645253583789,1.9835878921329975
1761467448934364700,4.74436474609375,-1.3182818624213337,0.5792927568614482,1.2427332849621773
1761467448944347600,4.75434765625,-0.9785252991706133,0.508898493425548,0.7062064876377582
1761467448954330600,4.76433056640625,-0.4786339958041906,0.36513153526484965,0.34101065496504307
1761467448964313900,4.77431396484375,-0.10953647951781749,0.020927929477393626,-0.2845154452830553
1761467448974296800,4.784296875,-0.11607435685396193,-0.5246531119182706,-1.151494094157219
1761467448984279600,4.794279541015625,0.05814385367184877,-1.0101049710437655,-2.1079536919921633
1761467448994262800,4.8042626953125,0.6022147827655077,-1.3436483588680623,-2.950249150508642
1761467449004245800,4.814245849609375,1.069532434785366,-1.345027246005833,-3.764177177196741
1761467449014228700,4.824228759765625,1.4189315633893012,-1.3315411569669842,-4.618223863783478
1761467449024211700,4.834211669921875,1.9120269230052829,-1.3866101332381366,-5.464155048453808
1761467449034194700,4.844194580078125,2.2904221367299558,-1.4258721763074398,-6.383894981178641
1761467449044177700,4.854177734375,2.5125743570804593,-1.6068322623088955,-7.379874103975296
1761467449054161000,4.864160888671875,2.847586356152594,-1.7065461437314748,-8.391843407586217
1761467449064143600,4.8741435546875,3.129555916345119,-1.744045561042428,-9.299156404936314
1761467449074125800,4.884125732421875,3.107245008076727,-1.6207763242483137,-9.973573085081577
1761467449084108300,4.8941083984375,2.9363810764148828,-1.3537623411253095,-10.188605828815698
1761467449094091500,4.904091552734375,2.6575673499047756,-1.0940718327581882,-10.120774401605129
1761467449104074200,4.91407421875,2.4916820834383366,-1.051759169946611,-9.676841132304071
1761467449114057200,4.92405712890625,2.488452599997818,-1.1190496221482753,-8.691853359121083
1761467449124040400,4.93404052734375,2.169663421452045,-1.1347206540107726,-7.049481873658299
1761467449134023400,4.9440234375,1.9663544332593679,-0.806786630500853,-5.060166836050152
1761467449144006100,4.954006103515625,1.7854659511893987,-0.5264829576939344,-2.788691391852498
1761467449153989400,4.9639892578125,1.5865297712534665,-0.46677594635859126,0.05257014519274234
1761467449163972400,4.973972412109375,2.409783260169625,-0.5284948820382356,2.786608155837655
1761467449173955300,4.983955322265625,1.1996250878587364,0.2746438934795558,5.595653768932819
1761467449183938300,4.993938232421875,-0.47471273070722814,0.8724389601066708,8.259188502809405
1761467449193921300,5.00392138671875,-1.6389315741419792,1.358465842641145,10.212462505221366
1761467449203904500,5.013904541015625,-2.869824783706665,1.6190898324660956,10.586961003768444
1761467449213886200,5.02388623046875,-4.591320074766874,0.9260796571403741,9.92520740584135
1761467449223869400,5.033869384765625,-5.221989383122325,0.5645809254199267,8.803011302360892
1761467449233852400,5.043852294921875,-5.667365836969018,0.6818434691451489,8.562964528879522
1761467449243835400,5.05383544921875,-6.899609292098879,0.6992484851934015,9.01849588151574
1761467449253818400,5.063818359375,-6.758373021459579,0.9286939312919974,9.730396781402826
1761467449263801300,5.07380126953125,-5.452898910424113,0.6060333181403577,10.366139155238866
1761467449273784300,5.083784423828125,-4.380464616717398,0.20294424653351306,10.191123949116468
1761467449283767600,5.093767578125,-3.6600843500375744,-0.22361060246527192,9.481028052824735
1761467449293750300,5.103750244140625,-2.9072610726535317,-0.4759858193829655,8.273450252395868
1761467449303733200,5.113733154296875,-2.404279986578226,-0.5254015921980142,6.85621029535532
1761467449313716500,5.123716552734375,-1.556397960101068,-0.40332989462539554,5.274411644276976
1761467449323699200,5.13369921875,-0.34336335557103154,-0.3068134940698743,3.5323739159256218
1761467449333682200,5.14368212890625,0.6746423055946826,-0.16859277185946703,1.9255074590861796
1761467449343665400,5.15366552734375,1.2355080098837614,0.005469371321797371,0.7182564063936472
1761467449353648400,5.1636484375,1.5020619742795824,-0.006259644916653633,-0.25498539941608905
1761467449363630300,5.17363037109375,1.77559746812582,-0.1618538189932704,-1.3838608345299959
1761467449373613300,5.18361328125,1.9548428591638802,-0.328055457932502,-2.911065141111612
1761467449383596500,5.193596435546875,2.267043014708161,-0.4256551236800849,-4.6194648037552835
1761467449393579300,5.203579345703125,2.6991221800863743,-0.4880136724375188,-6.4061617580443615
1761467449403562200,5.213562255859375,3.1024867076337337,-0.4723588610574603,-7.963106538373231
1761467449413545500,5.22354541015625,3.6790865721493957,-0.4059310170345008,-9.10917334678471
1761467449423528400,5.233528564453125,4.203169190703332,-0.3819488145530224,-9.956015216559171
1761467449433511200,5.24351123046875,4.655827910512685,-0.3652008011087775,-10.389397281229495
1761467449443494400,5.253494384765625,5.275712205481529,-0.3715121762126684,-10.445367590254545
1761467449453477400,5.263477294921875,5.786494905218482,-0.44412791509032246,-10.536056161439419
1761467449463460400,5.27346044921875,6.013147359597682,-0.6816898860186338,-10.222490562760829
1761467449473443300,5.283443359375,6.040073360446095,-0.8328316107310354,-9.466966209724545
1761467449483426300,5.29342626953125,5.776804116809368,-0.9667438220925628,-8.451808339205384
1761467449493409300,5.3034091796875,5.194167310217023,-1.20166550764516,-7.411472188287973
1761467449503392500,5.313392578125,4.046995755434036,-1.4638202141687273,-6.284660699966549
1761467449513374200,5.323374267578125,2.8366733324721456,-1.5202813754506408,-5.3003410353034734
1761467449523357400,5.333357421875,2.0576707809537647,-1.4721664561010896,-4.758852816179394
1761467449533340400,5.34334033203125,2.047957196190953,-1.265248922022432,-4.1111300816923375
1761467449543323400,5.353323486328125,2.253197444707155,-1.1315883473344146,-2.6782459807962176
1761467449553306400,5.363306396484375,1.2877654358655213,-0.9329076034642756,-0.7091922254502773
1761467449563289300,5.373289306640625,-0.6974053415447473,-0.6613204672068357,0.8887842379689216
1761467449573272300,5.383272216796875,-1.322768360185623,-0.02987929769605398,2.1065806500732895
1761467449583255300,5.39325537109375,-0.48932373212277885,1.2369812973067165,3.764057350209355
1761467449593238300,5.40323828125,-0.8325070549517869,2.006992733117938,5.350650834348797
1761467449603221500,5.413221435546875,-3.1353482360109686,2.0283219368726013,6.330371480783819
1761467449613204200,5.423204345703125,-5.599664758139848,1.7497659845158458,6.858978006502985
1761467449623187200,5.433187255859375,-7.758633767098188,2.159348071403801,8.006914700439571
1761467449633170400,5.44317041015625,-8.807990259817242,3.031531887705624,8.796744643181562
1761467449643153400,5.4531533203125,-8.580983585172891,4.009514166040718,8.969250496831537
1761467449653135400,5.46313525390625,-7.8996333063721655,4.494782777553796,8.772524978682398
1761467449663118300,5.473118408203125,-6.808799140360951,4.373193456670641,8.228516301169991
1761467449673101300,5.483101318359375,-5.57534163326621,3.8943370502874255,7.942481098973751
1761467449683084300,5.493084228515625,-4.382670017807185,3.30148952306509,7.4783601971685885
1761467449693067300,5.5030673828125,-3.4305841050118207,2.282194114349782,6.281103299745917
1761467449703050500,5.513050537109375,-2.19420778786093,1.27346335426867,4.8482776510387655
1761467449713033500,5.523033447265625,-1.100956039313972,0.901608209837228,3.741077456638217
1761467449723016200,5.53301611328125,-0.37557460334599013,0.7237994274735451,2.5931068604320284
1761467449732999400,5.54299951171875,-0.004777005143463612,0.4616837377861142,1.2299597281068562
1761467449742982400,5.552982421875,0.18484920239448546,0.04030278429389,-0.20870821688771246
1761467449752965400,5.56296533203125,0.32461481595933434,-0.3638875265531242,-1.3660206419348715
1761467449762948400,5.5729482421875,0.3573360590830445,-0.6816543763138353,-2.1987796258211136
1761467449772931300,5.582931396484375,0.29031507147252555,-0.9866469385668635,-2.9440993957072497
1761467449782914300,5.592914306640625,0.6078869831830263,-1.36217667985782,-3.820811503088474
1761467449792897500,5.6028974609375,1.2202484814316032,-1.791104833859205,-4.875547350758314
1761467449802879200,5.612879150390625,1.692994588240981,-2.070637814554572,-5.9766825460314745
1761467449812862500,5.622862548828125,1.9859522831767795,-2.2087242428608236,-7.157206919839978
1761467449822845400,5.632845458984375,2.116151026973128,-2.500359310890734,-8.150921020314097
1761467449832828200,5.642828125,2.3055098157465457,-2.61224907553643,-8.953348578822613
1761467449842811400,5.652811279296875,2.620270177167654,-2.50119663849771,-9.679220136395097
1761467449852794400,5.66279443359375,3.0417662814721464,-2.2227064448535443,-10.117709168815612
1761467449862777300,5.67277734375,3.5933000937923785,-1.8976031147249042,-10.044723427581786
1761467449872760300,5.68276025390625,3.7424358855098485,-1.5473155128486453,-9.475462819913028
1761467449882743300,5.692743408203125,3.5686321010038253,-1.249818567048013,-8.510647481665014
1761467449892726500,5.7027265625,2.898752187505364,-0.9262152662187814,-7.074670090928674
1761467449902709200,5.712709228515625,2.460843877582252,-0.7035241166859865,-5.37647559595704
1761467449912692200,5.722692138671875,2.5223434714227913,-0.6291369842216372,-3.3248248059451577
1761467449922675500,5.732675537109375,2.5189582128986716,-0.396356694611907,-1.1343120732098817
1761467449932658400,5.742658447265625,2.154332289068401,-0.1523810572490096,0.6515741492182016
1761467449942641200,5.75264111328125,1.1122267903909087,0.09445683767721057,2.304887884455919
1761467449952623400,5.762623291015625,0.1254687926650047,0.397224855748564,3.9572196229189633
1761467449962606300,5.7726064453125,-0.49985038683414457,0.9608633857518434,5.418672231173515
1761467449972589300,5.78258935546875,-1.2785355429664254,1.6854162619411945,6.632727118661999
1761467449982572300,5.792572265625,-2.135704160965979,2.0849070167951282,7.516970790591835
1761467449992555300,5.80255517578125,-3.400944753551483,1.6372545808404684,8.10136057833135
1761467450002538500,5.81253857421875,-5.276283867889642,0.9680337157726288,8.051350054493547
1761467450012521200,5.822521240234375,-5.9493573167324065,0.606410480889678,7.867476419132948
1761467450022504400,5.83250439453125,-5.368803161633014,0.7232894321247935,7.642090623688698
1761467450032487400,5.8424873046875,-4.669247948578,1.0716609712466596,7.214388942742347
1761467450042470400,5.852470458984375,-3.6568951986074447,1.2749072694666683,7.190962474447488
1761467450052453400,5.862453369140625,-2.7518080606132744,0.9953542688965796,7.477453603717684
1761467450062436400,5.872436279296875,-2.3417098408967254,0.472274543774873,7.604010776141285
1761467450072419300,5.88241943359375,-1.8985680142343042,-0.01767038898617029,7.325790631610155
1761467450082402300,5.89240234375,-1.138703586167097,-0.34967677650153633,6.462126221850514
1761467450092385000,5.902385009765625,-0.27020751846730706,-0.353796340649575,5.150296604308486
1761467450102367200,5.9123671875,0.5221703551918268,-0.10545885481536388,3.615368425476551
1761467450112350200,5.92235009765625,1.1915987255305052,-0.11788140627592801,2.0951970862716434
1761467450122333000,5.9323330078125,1.6812515434771775,-0.3269029268965125,0.62347150580585
1761467450132316200,5.942316162109375,1.9056755081519483,-0.5870607605144381,-0.5721019685745239
1761467450142299100,5.952299072265625,1.7448264822870492,-0.7932704385846853,-1.4277531677484512
1761467450152282000,5.9622822265625,1.4319728312700986,-0.9601061376437544,-2.1794038942217826
1761467450162265000,5.97226513671875,1.2018459787786007,-0.9540019755497574,-2.9663322703033685
1761467450172248000,5.982248046875,1.3560641883268951,-0.8631058990940451,-3.8158196861505504
1761467450182231300,5.992231201171875,1.7159809115529059,-0.808910783047974,-4.644325104245543
1761467450192214300,6.00221435546875,2.2655746957212686,-0.8784723950520157,-5.263647673678398
1761467450202197000,6.012197021484375,2.797497798642516,-1.0373489518001675,-5.877860352751612
1761467450212180200,6.02218017578125,3.2596213891506194,-1.2482944262206555,-6.668399905067682
1761467450222163200,6.0321630859375,3.57338864788115,-1.480454830366373,-7.609053446483611
1761467450232146000,6.04214599609375,3.4430274069994686,-1.841861499889195,-8.430343526372313
1761467450242129200,6.052129150390625,3.346374666713178,-2.060509511511028,-9.025292702049017
1761467450252111000,6.062111083984375,3.455677045214176,-1.9977727770909666,-9.340550491598249
1761467450262094000,6.072093994140625,3.4954286253660913,-1.933651018053293,-9.118227590855955
1761467450272077000,6.0820771484375,3.5180759259819983,-2.104666633145511,-8.794540411135554
1761467450282060000,6.09206005859375,3.6649838125169274,-2.265919271375239,-8.081997121691703
1761467450292043300,6.102043212890625,3.736844933634996,-2.1820207987219096,-6.486643992513418
1761467450302026000,6.11202587890625,3.236464093185961,-2.12191996576339,-4.7815667522907255
1761467450312009200,6.12200927734375,1.8899805108919738,-2.024973503227532,-3.200486478614807
1761467450321992200,6.1319921875,0.3882166427761316,-1.476655730344355,-1.4723054261803625
1761467450331975200,6.14197509765625,-1.0947387722343205,-0.4709250288620591,0.6082856271117926
1761467450341958100,6.151958251953125,-1.582836177432537,0.32463425131216644,2.951601149639487
1761467450351941000,6.161941162109375,-1.1271931811153888,0.8496794312879443,5.265477811715007
1761467450361924000,6.171924072265625,-1.6453291662245988,1.2937760744571685,7.114039978286623
1761467450371907300,6.1819072265625,-2.5999840527251363,1.7085000542782247,7.693710920810699
1761467450381890000,6.19189013671875,-2.56790812176764,2.0928541764073074,6.980185634592175
1761467450391873000,6.201873046875,-2.3292808596953747,3.0088094760268924,5.70626459968388
1761467450401855200,6.211855224609375,-4.185283697661757,4.240699587674439,4.930454998987913
1761467450411838000,6.221837890625,-6.364125281825661,5.076486102688312,5.009450794291496
1761467450421821200,6.2318212890625,-7.418144505658745,5.328534279608726,5.452313804012537
1761467450431804200,6.24180419921875,-6.534637915831804,4.7625417338252065,5.786102106508612
1761467450441787100,6.251787109375,-5.482867932230234,4.024668772813677,5.9712348020195956
1761467450451770000,6.26177001953125,-4.765203646510839,3.684018767854571,5.747008698004484
1761467450461753000,6.271753173828125,-3.8254929389029737,3.3851860434055325,5.169259663453698
1761467450471736300,6.281736328125,-2.3411656510174272,3.185534408676624,4.362857356095314
1761467450481719300,6.29171923828125,-0.9662053313016891,2.9780998649865387,3.480970476424694
1761467450491702000,6.301701904296875,-0.3495031735002994,2.437439182727784,2.369450665259361
1761467450501685200,6.311685302734375,-0.2131108357608318,1.7247199521951377,1.3483335940748453
1761467450511668200,6.321668212890625,0.06813420954942703,1.0098280537985265,0.5449854135900736
1761467450521651000,6.33165087890625,0.5125251594901085,0.23387290715202688,-0.2575093649357557
1761467450531634200,6.34163427734375,0.715345487383008,-0.4966583127945661,-1.1567653125584125
1761467450541617200,6.3516171875,0.5981245908424258,-1.0764143032535909,-2.2052549593150617
1761467450551599000,6.36159912109375,0.5511848527520895,-1.364452954226732,-3.207972450456023
1761467450561582000,6.37158203125,0.8452353113606572,-1.529924086934328,-4.059548363015056
1761467450571565000,6.38156494140625,1.1204852079093455,-1.5477417754366993,-4.816908699306845
1761467450581548300,6.39154833984375,1.5142799430787564,-1.4312325342968106,-5.473018153867125
1761467450591531000,6.401531005859375,1.7453531365096568,-1.2406810286074876,-6.081101536405086
1761467450601514000,6.411513916015625,2.2249022013321516,-1.054922017891705,-6.60545800346434
1761467450611497200,6.421497314453125,3.0692168907165525,-0.8635700094744563,-6.910981749984622
1761467450621480200,6.431480224609375,3.7580776912778613,-0.7254813892111182,-6.981905882513523
1761467450631463200,6.441463134765625,3.8726130019962786,-0.8555266960114241,-7.052001747524738
1761467450641446100,6.451446044921875,3.6863229531437156,-1.0805766836300492,-6.972638287952542
1761467450651429000,6.46142919921875,3.3531974984705446,-1.1398065789729357,-6.617948067203164
1761467450661412400,6.471412353515625,2.6761691745221614,-1.173627600032091,-5.889927807164192
1761467450671395000,6.48139501953125,1.6326368579119444,-1.2598685441583395,-4.718242573371529
1761467450681378000,6.4913779296875,0.6216238321125507,-1.2144669754207134,-3.3400042548984286
1761467450691360300,6.5013603515625,0.19834113665223121,-1.0791932664476334,-2.0622791515320538
1761467450701343000,6.511343017578125,0.41399873428642747,-0.8641834651976823,-0.8615864344418048
1761467450711326200,6.521326171875,0.7029778809800744,-0.3577208206169307,0.39615912621319294
1761467450721309200,6.53130908203125,0.19799919134676455,0.2260258469134569,1.939458827549219
1761467450731292200,6.541292236328125,-1.3319903620392084,0.5584342393584549,3.8349084175020454
1761467450741275100,6.551275146484375,-2.9174989735513925,0.5182591730974614,5.815356258043646
1761467450751258000,6.561258056640625,-4.023392177006602,0.5482438308641314,7.385686589646339
1761467450761241000,6.571240966796875,-4.6973535145998,0.254917448746413,8.321311489245295
1761467450771224000,6.58122412109375,-4.090955308669805,-0.315500220002979,8.19067669211924
1761467450781207000,6.59120703125,-3.0492636514902114,-0.6426353482201695,7.148257889708876
1761467450791190300,6.601190185546875,-2.3563854319810864,-0.5938597730048001,5.947277587848902
1761467450801173200,6.61117333984375,-2.595226921325922,-0.3552335338458419,4.954964001822471
1761467450811156000,6.621156005859375,-2.5426772343993185,-0.39240985668227074,4.386275641083717
1761467450821139200,6.63113916015625,-2.3932529811292884,-0.5649510739065706,4.228746991813183
1761467450831121200,6.64112109375,-2.474803137090802,-0.9231805746980011,4.166333497998118
1761467450841104100,6.651104248046875,-2.312208436602354,-1.409370977231115,4.152686080917716
1761467450851087000,6.661087158203125,-1.7312264114797113,-1.7444059187874197,3.807342365184426
1761467450861070000,6.671070068359375,-0.9109574913322925,-1.8259347396999597,3.1799890495091674
1761467450871053300,6.68105322265625,-0.02273556342124939,-1.8771259977549313,2.2888205467522145
1761467450881036000,6.6910361328125,0.8199807508558035,-1.8836787803992627,1.1347358515799044
1761467450891019000,6.70101904296875,1.269800740107894,-1.5390532959379255,0.2125847660601139
1761467450901002200,6.711002197265625,1.3814841685265302,-1.0006414155192673,-0.46854456346631046
1761467450910985200,6.720985107421875,1.4368459902644157,-0.6151769940607249,-1.140785068616271
1761467450920968000,6.730968017578125,1.4188614207625387,-0.4023388377614319,-1.5583260055541992
1761467450930951200,6.740951171875,1.3619815956771373,-0.37845878048017617,-1.8761539378523826
1761467450940934100,6.75093408203125,1.431196001678705,-0.3121570470549166,-2.241284304073453
1761467450950917000,6.760917236328125,1.6825088500618934,-0.09986614937484264,-2.5447587168484924
1761467450960900000,6.770900146484375,1.9392355401873587,-0.0521830455712974,-3.202825150695443
1761467450970883000,6.780883056640625,2.1803569571629167,-0.22016996049210427,-4.137581450766325
1761467450980865300,6.790865234375,2.228652201515436,-0.34639936226606366,-4.958722477573156
1761467450990848000,6.800847900390625,2.2312448483571408,-0.5379205897703766,-5.921473869028687
1761467451000831200,6.810831298828125,2.3710598540216683,-0.7649008147992193,-6.956204455024004
1761467451010814200,6.820814208984375,2.6024244316145775,-0.9948330215014517,-7.925541070088744
1761467451020797200,6.830797119140625,2.6714929994046686,-1.019001248074323,-8.490287415203452
1761467451030780200,6.8407802734375,2.8472753905072805,-0.9753456462211907,-8.631361773279309
1761467451040763100,6.85076318359375,2.993636456814408,-0.9628389236085116,-8.473892745241523
1761467451050746000,6.86074609375,3.078977821752429,-0.6225142050810157,-7.429054606729745
1761467451060729000,6.87072900390625,2.1330022085309026,-0.39727527076154945,-5.731957259345054
1761467451070712000,6.880712158203125,1.3573372770026326,-0.6369532109305263,-3.6322798127889633
1761467451080695000,6.890695068359375,1.168334754320979,0.37938802415430545,-2.401238134664297
1761467451090678500,6.900678466796875,0.5734849473655224,0.7876800712317228,-0.8623656021207571
1761467451100661200,6.9106611328125,0.13575930053293706,0.9996003820337355,1.6093465832173823
1761467451110644200,6.920644287109375,-0.7220768414646387,1.0419225433260202,4.0056776566177605
1761467451120626400,6.93062646484375,-2.3351281244188544,1.0141840570509433,6.71528849749267
1761467451130609200,6.940609130859375,-3.42635216653049,0.7986088770031928,8.756152520552277
1761467451140592400,6.95059228515625,-3.19939926789999,0.6932150502480566,8.608317582300305
1761467451150575400,6.960575439453125,-2.471276132008433,1.124426931272447,7.211559272274375
1761467451160558300,6.970558349609375,-2.105669380447268,1.7890062541447578,5.536034874272346
1761467451170541300,6.980541259765625,-3.3539772506713863,2.3809989181034266,4.253336074146628
1761467451180524300,6.990524169921875,-5.712310894110798,2.6719819519653916,3.792440564128756
1761467451190507500,7.000507568359375,-7.628751834166049,2.929753474968672,3.8300089550226923
1761467451200490200,7.010490234375,-7.280791213932633,3.0489801583737135,4.077539362257719
1761467451210473200,7.02047314453125,-5.765563176348805,2.9152555785387753,3.5501445504158733
1761467451220456400,7.03045654296875,-4.139775161418319,2.6521926711291073,2.8169746525287627
1761467451230439400,7.040439453125,-2.8755156888246534,1.9038830717772244,2.4170728326559066
1761467451240422100,7.050422119140625,-1.61813486982882,0.8600827518805861,1.7519927206546067
1761467451250405400,7.0604052734375,-0.04466331759095192,-0.0134403502009809,0.9460925175994634
1761467451260387300,7.07038720703125,1.1259440578371285,-0.3817863174676895,0.17814473631978034
1761467451270370300,7.080370361328125,1.836441520667076,-0.5762295698985457,-0.6582008738815784
1761467451280353300,7.090353271484375,2.3147902697890994,-0.7137453587099909,-1.1548363903224468
1761467451290336300,7.100336181640625,2.414308044117689,-0.6862986949883401,-1.4589491010010243
1761467451300319500,7.110319580078125,1.8856091639399528,-0.5315389259092509,-1.965183051392436
1761467451310302200,7.12030224609375,0.8674024272441864,-0.1737118684388697,-2.4015292265653607
1761467451320285400,7.130285400390625,0.0010462941825389862,0.1365973587922752,-2.604451261267066
1761467451330268400,7.140268310546875,-0.5316805263370276,0.34346389333605765,-2.893150714236498
1761467451340251400,7.15025146484375,-0.6262602597415446,0.48466480040103194,-3.4187469522237777
1761467451350234400,7.160234375,-0.028563831183314323,0.5867638233944773,-3.9677825179874895
1761467451360217300,7.17021728515625,1.0175877280145882,0.5547095197468995,-4.507749226632714
1761467451370200300,7.180200439453125,2.0000445214152336,0.4575368472397327,-5.037425427410006
1761467451380183600,7.19018359375,2.7222733385711906,0.2878745464526117,-5.361300238656997
1761467451390166300,7.200166259765625,3.0389199521303176,0.08607727799713612,-5.424041649252176
1761467451400149200,7.210149169921875,2.9506249980837107,-0.012644523648172616,-5.331385577386618
1761467451410131500,7.22013134765625,2.871825602135062,-0.17760566100701689,-4.9888545809865
1761467451420114200,7.2301142578125,3.15835004915297,-0.41888548341467974,-4.584164942315221
1761467451430097400,7.240097412109375,3.4862340960413216,-0.7191894494600594,-4.163571632069349
1761467451440080400,7.250080322265625,3.7191678226470946,-1.153746841520071,-3.540697507634759
1761467451450063000,7.26006298828125,3.469066103619337,-1.4560948806136846,-2.692427650883794
1761467451460046300,7.27004638671875,2.897581390160322,-1.6816075173079967,-1.6018857458174227
1761467451470029300,7.280029296875,1.9309025961279869,-1.4656772402122615,-0.5603308667600154
1761467451480012500,7.290012451171875,0.29211949054598807,-0.8465905253618955,0.8771136739194393
1761467451489995300,7.299995361328125,-1.442188520336151,-0.24199147780835628,2.605094819867611
1761467451499978200,7.309978271484375,-2.217350470778346,0.07874357410818338,4.082836884143949
1761467451509961500,7.31996142578125,-2.3875778581023215,0.17168576943874359,5.481477354654669
1761467451519944400,7.3299443359375,-2.311120641365647,0.13638853834718465,6.199709211128949
1761467451529927200,7.33992724609375,-2.320929503196478,-0.23026187704801557,6.111098615261912
1761467451539910400,7.349910400390625,-2.592016727107763,-0.7994494194805621,5.6784705838292835
1761467451549893400,7.359893310546875,-3.619594518738985,-1.1934680265337227,4.936771927049755
1761467451559875300,7.369875244140625,-4.532792482474446,-1.1405094665452837,4.467997061958909
1761467451569858300,7.3798583984375,-4.869042791169882,-0.6985726317584514,4.2048669345319265
1761467451579841300,7.38984130859375,-4.341732735002041,-0.40634442014098165,3.9603257722407577
1761467451589824500,7.399824462890625,-3.271082109841704,-0.4647320194408297,4.085578876328468
1761467451599807200,7.40980712890625,-1.9486323140859603,-0.6516190112732351,4.586858419182897
1761467451609790200,7.419790283203125,-0.9961223306596279,-0.8076328720666468,5.0415071437656875
1761467451619773400,7.4297734375,-0.461937712547183,-0.9669941435918211,5.3114019430220125
1761467451629756400,7.43975634765625,-0.0019844518154859543,-1.1593337017416954,5.291175732073188
1761467451639739400,7.449739501953125,0.24826982742547987,-1.3481117680177093,4.551051777264475
1761467451649722400,7.459722412109375,0.36695173642933365,-1.1714014484152198,3.1080835047274826
1761467451659705300,7.469705322265625,0.5280681810587644,-1.0089949639752507,1.4530126966893673
1761467451669688600,7.4796884765625,0.8920172285407781,-0.940071065352857,0.05094458981752396
1761467451679671300,7.48967138671875,1.1802204224258661,-0.932736192420125,-1.1161778661042452
1761467451689653500,7.499653564453125,0.9795125566422939,-0.7877072514995932,-2.1304992857992646
1761467451699636500,7.509636474609375,0.5598422064602375,-0.583045679654181,-3.098542938444018
1761467451709619200,7.519619140625,0.5508776864990592,-0.48738691884130236,-4.244969227817655
1761467451719602400,7.5296025390625,1.2395382883131503,-0.560255171175301,-5.4238861664295195
1761467451729585400,7.53958544921875,2.1037369510799646,-0.57167088368088,-6.264067993792891
1761467451739568000,7.549568115234375,2.6947107933849095,-0.4578945746362209,-6.614791064476966
1761467451749551400,7.55955126953125,2.934271829175949,-0.7091358190879226,-6.61042059430778
1761467451759534300,7.569534423828125,3.0868636065661907,-1.3135893206909297,-6.744284290352463
1761467451769517300,7.579517333984375,3.1650767270594833,-1.6518568144276737,-6.934013666003942
1761467451779500300,7.589500244140625,2.774265391615033,-1.675720797356963,-6.846475667804479
1761467451789483300,7.599483154296875,2.4751751852735877,-1.7438628979519009,-6.638869274678826
1761467451799466500,7.609466552734375,2.3308991085469724,-1.71743724784106,-6.396494935032725
1761467451809449500,7.619449462890625,2.324183536556363,-1.4704653512716293,-5.996656828045845
1761467451819432200,7.62943212890625,2.1987515687704087,-0.9481398055180906,-5.085243994161487
1761467451829415400,7.63941552734375,1.8001491410583257,-0.46782267893254753,-4.007251189544797
1761467451839397400,7.6493974609375,1.1776426808923481,-0.07260361004844307,-2.874746458017826
1761467451849380400,7.65938037109375,1.027055229061842,0.2866628325752914,-1.1592290723234415
1761467451859363300,7.66936328125,0.4761754967361688,0.7229602001704275,1.2326760013282299
1761467451869346300,7.67934619140625,-0.643473844870925,0.7884814507424831,3.7262399529904124
1761467451879329500,7.68932958984375,-2.1539000351309774,0.4903137660734355,6.210587163496017
1761467451889312300,7.699312255859375,-3.0418969221144914,0.3713125619873404,7.629139956700802
1761467451899295200,7.709295166015625,-2.6226561955213543,0.36399741666838525,7.094014842867851
1761467451909278500,7.719278564453125,-2.019170662167668,0.8580658591002225,5.334097758954763
1761467451919261400,7.729261474609375,-3.0520325316816566,1.8593547787427902,3.6405601498782634
1761467451929244200,7.739244140625,-4.85119675335586,2.8341701174795624,2.8114959288567305
1761467451939227400,7.749227294921875,-6.193906662330031,3.4538805171862244,2.8728619594454763
1761467451949210400,7.75921044921875,-6.701062988263368,3.4960622470945117,3.176427557635307
1761467451959193300,7.769193359375,-6.686387981700896,3.2072382909625765,3.1661002248883245
1761467451969176300,7.77917626953125,-5.228159596189856,2.9569156226605173,3.200171421316266
1761467451979158500,7.789158447265625,-3.304307503095269,2.6796523404628037,3.2206635897248983
1761467451989141500,7.7991416015625,-1.9049059850841759,2.4486888910166917,2.7256723333597184
1761467451999124200,7.809124267578125,-0.9508148699462413,2.22789451501593,2.0213392383784052
1761467452009107500,7.819107421875,-0.1897749683588743,2.184569021899998,1.4013362854659557
1761467452019090400,7.82909033203125,0.5283242016464471,1.9309493578791617,0.8557289405852556
1761467452029073200,7.8390732421875,1.46296651994884,0.8987041589587926,0.27550504035353657
1761467452039056400,7.849056396484375,1.4536784671217202,-0.043914252789318556,-0.38818566311597824
1761467452049039400,7.859039306640625,0.9205489110201597,-0.4902463999256491,-0.8775508962929248
1761467452059022300,7.869022216796875,0.8986813626050949,-0.6359982482932508,-1.2460247277230023
1761467452069005300,7.87900537109375,1.1254781938910483,-0.63539356039837,-1.7989584699690342
1761467452078988300,7.88898828125,1.2288812852203845,-0.5730803120873869,-2.545242700973153
1761467452088974600,7.898974609375,1.234841070407629,-0.4641653254687786,-3.174549488803744
1761467452098957600,7.90895751953125,1.6365999163240192,-0.34522125839740037,-3.735134622585773
1761467452108940300,7.918940185546875,2.300467729926109,-0.26659751127660275,-4.345270261478424
1761467452118923500,7.928923583984375,2.8492823464155195,-0.2958946251705289,-4.8616053346455095
1761467452128905500,7.938905517578125,3.694457159760594,-0.36087153973281383,-5.057726457160711
1761467452138888400,7.948888427734375,4.089233307182789,-0.23914193359613417,-5.060130595692992
1761467452148871400,7.958871337890625,4.196061696785688,0.06329319925904274,-4.994725518846511
1761467452158854400,7.9688544921875,4.360840755575895,0.27497356382533905,-4.770276711991429
1761467452168837600,7.978837646484375,4.349061470454931,0.25969313871562477,-4.303661070761084
1761467452178820400,7.9888203125,3.9670290692716836,0.0561883356899023,-3.557579084330797
1761467452188803300,7.99880322265625,3.237033125245571,-0.19291107442751526,-2.6884201688081024
1761467452198786600,8.00878662109375,2.3493875359177587,-0.3118551414988935,-1.7430372607827185
1761467452208769500,8.01876953125,1.4602695359498261,-0.5134421282045543,-0.8766448873639107
1761467452218752500,8.02875244140625,0.6534919655382633,-0.6573043634332716,-0.1806862374961376
1761467452228735500,8.038735595703125,-0.05657528918087482,-0.5175581852212547,0.5343208117127418
1761467452238718500,8.048718505859375,-0.8823124116063118,-0.11011018775254487,1.1435106941878794
1761467452248701700,8.05870166015625,-1.5882926892727613,0.27467794187963007,1.7571154704958198
1761467452258684400,8.068684326171875,-1.9252637134581803,0.6523141539305448,2.6062913361757993
1761467452268666600,8.07866650390625,-1.9177192894279955,0.7924297499768436,3.352698316776752
1761467452278649600,8.088649658203124,-1.850061465218663,0.5282653110660612,3.8500188928723333
1761467452288632300,8.09863232421875,-1.7153367684304712,0.03140285400152206,4.123317947614193
1761467452298615600,8.108615478515626,-1.683089864820242,-0.41613399274945256,4.320809773960709
1761467452308598500,8.1185986328125,-1.6640315286070106,-0.7442877964898943,4.4847453676640985
1761467452318581500,8.12858154296875,-1.8359446770608423,-1.0010213547475635,4.399036338457465
1761467452328564500,8.138564453125,-2.145320422834158,-1.2496988861910998,4.142565668919683
1761467452338547500,8.14854736328125,-2.4481793340593576,-1.3810014995761215,3.9587908177584406
1761467452348530400,8.158530517578125,-2.2677198910564185,-1.4442160806410014,3.693312081378698
1761467452358513400,8.168513427734375,-1.7516151195138692,-1.547467196279019,3.2882530248731374
1761467452368496400,8.178496337890625,-1.5122136581987142,-1.658056399720162,2.7969723134636877
1761467452378479400,8.188479248046875,-1.511669468319416,-1.523388839946687,2.2799352295070885
1761467452388462600,8.198462646484375,-1.5126882899731398,-1.2221367793962359,1.731951218622923
1761467452398445300,8.2084453125,-1.1575462338030338,-0.8017834153860807,1.1838315986603498
1761467452408428500,8.218428466796874,-0.7996551711857318,-0.35163448644056916,0.6614724428981542
1761467452418410500,8.228410400390626,-0.5705114845126867,0.05466901716813445,0.3215279558598995
1761467452428393500,8.2383935546875,-0.5835749642252922,0.3176078598067164,0.16524901438951492
1761467452438376400,8.24837646484375,-0.5023462953031063,0.440896678084135,0.18216040170192718
1761467452448359400,8.258359375,0.5981155307531356,0.3123378104493022,-0.10172609802782535
1761467452458342700,8.2683427734375,1.2781617412179709,0.2461233169160783,-0.2824076593488455
1761467452468325400,8.278325439453125,0.2642225988388061,0.5835113974697888,-0.052886956056952476
1761467452478308400,8.288308349609375,-0.11027531518638134,0.5105069515354931,0.18772855722308157
1761467452488291600,8.29829150390625,0.7579173856526613,0.19552885571047662,0.30897885541021824
1761467452498274600,8.308274658203125,1.5152362208902834,0.10490224384590983,0.13374153096973895
1761467452508257300,8.31825732421875,2.239981989303231,0.12563085135892033,-0.2845323964178562
1761467452518240500,8.328240478515625,2.8076550355195997,0.060205608507245774,-0.7298860539108515
1761467452528223500,8.338223388671874,2.891792285364866,0.12172551448345184,-1.1222656615853308
1761467452538206500,8.34820654296875,2.970717938041687,0.12852847249656915,-1.5111907448917627
1761467452548189400,8.358189453125,3.216676565915346,-0.07173486438989639,-2.1442899107426405
1761467452558171400,8.36817138671875,3.2913521599322557,-0.2923404398202896,-2.963943913862109
