time,seconds_elapsed,z,y,x
1761467521927746600,0.12674658203125,2.934596823346615,-1.8503512419454753,-0.46039457475841045
1761467521937730600,0.13673046875,1.346640234160423,-1.733646332103014,0.27657003923654555
1761467521947713300,0.14671337890625,-0.14334931727051733,-1.366315387097746,1.0261386987388132
1761467521957696500,0.156696533203125,-1.507758432355523,-0.37989305106699467,2.032027805653214
1761467521967679500,0.166679443359375,-3.6389112136274573,0.42489181115739044,3.323028570178151
1761467521977662500,0.176662353515625,-5.536672587653994,0.48777642961554224,4.9363726985991
1761467521987645400,0.1866455078125,-6.49370793955028,-0.11777341585680842,6.579286035853624
1761467521997629400,0.19662939453125,-6.733654759788513,-0.8624923703055828,7.424933142885565
1761467522007612400,0.2066123046875,-6.008883856934308,-1.2434285737499593,7.430443430739641
1761467522017595600,0.216595703125,-4.966327691879868,-1.2680854606226086,6.448564729487895
1761467522027578600,0.22657861328125,-4.00541695985496,-0.9297863296385854,5.2893818343937395
1761467522037561300,0.236561279296875,-3.4804695411652324,-0.44030265771374105,4.481319484868646
1761467522047544600,0.246544677734375,-3.6964199842661616,-0.15004238516837357,4.016453317654133
1761467522057527600,0.256527587890625,-3.537442305231094,-0.27862587578780945,3.610776421511173
1761467522067511600,0.266511474609375,-3.015794512608647,-0.4956337189871817,3.058092854633927
1761467522077494300,0.276494384765625,-2.1346698494821785,-0.6247709710318595,2.3761533777683974
1761467522087477500,0.2864775390625,-1.2440472901701927,-0.6597525603029877,1.6101216592431067
1761467522097460500,0.29646044921875,-0.6526525921046733,-0.577660333354026,0.9582242694199085
1761467522107443500,0.306443359375,-0.10388765997588634,-0.5284123183213174,0.2564695004940033
1761467522117426400,0.316426513671875,0.2754945189595222,-0.6340816010169684,-0.4905430447846651
1761467522127409400,0.326409423828125,0.38190555993318553,-0.774695501974225,-1.0587257940888404
1761467522137393400,0.336393310546875,0.5130111894413829,-0.9634107321470975,-1.4059136763840914
1761467522147376600,0.346376708984375,0.5452984250620008,-1.0389240921624003,-1.5315572410941123
1761467522157359000,0.356359130859375,0.3152162884950638,-0.9742859080351889,-1.5387182187646626
1761467522167342000,0.366342041015625,0.321180165335536,-0.8685489669308066,-1.569315017080307
1761467522177325000,0.376324951171875,0.7994581873089075,-0.8655234816297889,-1.7186860788583755
1761467522187308000,0.38630810546875,1.3711834315255282,-1.0139705604307352,-2.0460358727395533
1761467522197291000,0.396291015625,2.1108903299659487,-1.1170885512083768,-2.6025731924355027
1761467522207275300,0.406275146484375,2.78227217245996,-1.0404442874670028,-3.437780153995752
1761467522217258200,0.41625830078125,3.3725770294621586,-1.032164096508175,-4.4856215659767384
1761467522227241000,0.426240966796875,4.1304339170992375,-1.0225618631653488,-5.554907917046546
1761467522237224200,0.43622412109375,4.182216126784682,-0.7357698512524365,-6.3375406417608255
1761467522247207200,0.446207275390625,4.244626697990298,-0.4983297531381249,-6.7941820014655585
1761467522257190100,0.456190185546875,4.267183105452358,-0.35852541499808427,-6.952342518898845
1761467522267174000,0.466173828125,3.945580623051524,-0.4121276797175407,-6.9946560584932564
1761467522277157000,0.4761572265625,3.2669919179186224,-0.5695967077553272,-7.047492161145806
1761467522287140000,0.48614013671875,2.6861984011054036,-0.8066267637640238,-7.16188426400125
1761467522297123000,0.496123046875,1.6703046175271272,-0.2174441887900233,-6.348027548983692
1761467522307106000,0.50610595703125,0.40698154900074,0.7686914392538369,-4.726999880322814
1761467522317089000,0.516089111328125,-0.11451222210377454,0.9934304612271487,-3.1156051324039695
1761467522327072300,0.526072265625,-0.19683131661117076,1.1344839226454495,-1.7498820121109484
1761467522337056300,0.53605615234375,-0.08322568795830011,1.0930468736246228,0.2106014832884073
1761467522347039200,0.546039306640625,-0.4102089866146445,0.812495363536477,2.6933488573819395
1761467522357022000,0.55602197265625,-0.8016632961377501,0.20771979037225244,5.335277324128151
1761467522367005200,0.566005126953125,-1.6462608941167591,-0.41819574758484956,7.574483652883767
1761467522376988200,0.57598828125,-3.036787031754851,-0.954282546056807,8.75094326147139
1761467522386971000,0.585970947265625,-4.823556466758251,-1.3651732313252984,9.014236470505594
1761467522396954000,0.5959541015625,-6.705040075200796,-1.138943386272341,9.229985253554583
1761467522406938000,0.605938232421875,-8.165344097942114,0.150316672065109,9.136320296907424
1761467522416921000,0.615921142578125,-7.667395745337009,1.691817945677042,8.340216680723428
1761467522426904300,0.625904296875,-6.07283288975358,2.9317049012973904,7.095253444752097
1761467522436887000,0.635886962890625,-4.525970819760858,3.5025901875585315,6.114600485903025
1761467522446870000,0.6458701171875,-3.3732261410206554,3.458419037398696,5.116329452776909
1761467522456853200,0.655853271484375,-2.560057992789149,2.877836825248599,3.942098041632771
1761467522466836200,0.665836181640625,-1.7944582359403372,1.935410867332667,2.8628713113069533
1761467522476820000,0.675820068359375,-0.8901569876268506,1.1359266687996685,1.656175554409623
1761467522486803000,0.685802978515625,0.03441840243041515,0.483258440734446,0.26951193741858004
1761467522496786200,0.6957861328125,0.8403957623749971,-0.0632261253722012,-1.0000006333976983
1761467522506769200,0.70576904296875,1.3737152880907058,-0.34931247323378917,-1.9945032539010046
1761467522516752100,0.715752197265625,1.6925120654210448,-0.6012145196817815,-2.6708517788916826
1761467522526735000,0.725735107421875,1.9247271223634481,-0.6329888373441994,-3.298760974884033
1761467522536718000,0.735718017578125,1.973170543015003,-0.4944722009271383,-3.952998205831647
1761467522546702000,0.7457021484375,2.1036790834128856,-0.23112053970396518,-4.731517650008201
1761467522556685300,0.755685302734375,2.332098547464609,-0.02443944472968578,-5.3447962631016965
1761467522566668000,0.76566796875,2.5951068020775914,0.07294979313760995,-5.709700419351458
1761467522576651000,0.775651123046875,2.937348460142314,0.03717413087934256,-6.034937166601419
1761467522586634200,0.78563427734375,3.323772666543722,-0.11780044999420643,-6.360965941011905
1761467522596617200,0.7956171875,3.617546061776578,-0.3633320846274495,-6.587449468564987
1761467522606600000,0.805599853515625,3.7732378510087727,-0.5882808038286864,-6.681231329590082
1761467522616584000,0.815583984375,3.6741640210554003,-0.5679916106462478,-6.625760202258825
1761467522626567200,0.825567138671875,3.6229417833402753,-0.597692483035475,-6.409076184186339
1761467522636550100,0.835550048828125,3.428319082689285,-0.6121800042018294,-6.227309750238061
1761467522646533000,0.845533203125,3.287550429561734,-0.8031121797718107,-5.953626664614677
1761467522656516000,0.85551611328125,3.2356445934966205,-0.8844659363783896,-5.427620092260837
1761467522666499000,0.8654990234375,3.3142212866052985,-0.7123514201335609,-4.239907268252969
1761467522676482300,0.875482421875,3.382307273098826,-0.43018736028224225,-2.4071394676625726
1761467522686466300,0.88546630859375,2.445380350990593,-0.3771281163983047,-0.47793958379924295
1761467522696449000,0.895448974609375,0.07908055097758769,-0.4020985992647707,1.4546815066844223
1761467522706432000,0.905431884765625,-2.288052777250111,-0.1092199609145522,3.749523213422298
1761467522716415200,0.915415283203125,-3.928818288820982,0.5853405125930905,6.133803199023008
1761467522726398200,0.925398193359375,-4.747292434506118,1.4978231676660476,7.809970571103691
1761467522736381000,0.935380859375,-5.1336967671632765,2.2472496422186494,8.862465361848473
1761467522746364200,0.9453642578125,-4.971928580626845,2.4568518853366372,9.500263499170542
1761467522756348200,0.95534814453125,-3.6427772414058444,1.9319689101852475,9.233326380676031
1761467522766331100,0.9653310546875,-2.392138882407546,1.2862222980767488,8.567609724336862
1761467522776314000,0.975314208984375,-2.227637763775885,0.8167600352436304,8.27449187040329
1761467522786297000,0.985297119140625,-2.30867266369164,0.2502411274984479,8.146033832794428
1761467522796280000,0.995280029296875,-1.9923978060543537,-0.3705466921813786,7.8180463255316015
1761467522806263300,1.00526318359375,-1.4414756958916783,-0.7111801843971014,7.330767250978946
1761467522816246000,1.01524609375,-0.9218842512771487,-0.7912225661441683,6.33747692887485
1761467522826230000,1.02522998046875,-0.43339580093473196,-0.7730509496375918,4.894454295802116
1761467522836213000,1.035212890625,-0.03964695073366165,-0.71045537725389,3.2493542621582745
1761467522846196200,1.0451962890625,0.05692424874901771,-0.7602893754810094,1.6117629967093468
1761467522856179000,1.055178955078125,0.10663315929174423,-1.0223400371082128,0.11783318322002886
1761467522866162200,1.065162109375,0.6666144819617271,-1.241360827565193,-1.0664566806018352
1761467522876145200,1.075145263671875,1.3630220446407795,-1.3234686174094676,-2.20542563970685
1761467522886129200,1.085129150390625,2.0148478305324913,-1.2072532446496187,-3.23451675851047
1761467522896112000,1.095112060546875,2.3575199889689684,-1.1294041351631283,-4.103987224200368
1761467522906095000,1.10509521484375,2.319201948751509,-1.2325212491579354,-4.950687639677525
1761467522916078000,1.115078125,2.2835239016488194,-1.1537705146566033,-5.707212694188952
1761467522926061000,1.12506103515625,2.3918816927760838,-1.0767308218568563,-6.34171003639996
1761467522936044300,1.135044189453125,2.458064475996792,-0.9202240629799664,-6.859961172321438
1761467522946027000,1.145027099609375,2.5866914404317733,-0.7260061437375843,-7.36446201530993
1761467522956010000,1.155010009765625,2.827425027133524,-0.4989407246433198,-7.780913987967372
1761467522965994200,1.164994140625,3.097580230891704,-0.29891134264320135,-8.143572411116958
1761467522975977200,1.174977294921875,3.3856077759489414,-0.1821206542134285,-8.370230710715054
1761467522985960000,1.1849599609375,3.421150213973224,-0.06687310357242822,-8.293689322826266
1761467522995943200,1.194943115234375,3.206070416226983,0.12261340323388575,-7.938782828977703
1761467523005926100,1.204926025390625,2.71093536747694,0.3537707678169012,-7.171345919829607
1761467523015909000,1.2149091796875,2.0039400675490495,0.6402401236467063,-5.938912495085597
1761467523025892000,1.22489208984375,1.3718614769175648,0.8892341736935079,-4.4717590448409315
1761467523035876000,1.2348759765625,0.8320122571721672,1.0228269438423216,-2.8955817407757043
1761467523045859000,1.244859130859375,0.5707917627587914,1.040322706913948,-1.250921267592907
1761467523055842000,1.254842041015625,0.4559387643933296,0.9803872936502098,0.5533236183464527
1761467523065825300,1.2648251953125,-0.06007452947348356,0.7026214687578379,2.6297131282955406
1761467523075808000,1.27480810546875,-0.9365010979115962,0.2877081038445234,4.529219884684681
1761467523085791200,1.284791259765625,-2.0256196921765803,-0.0603853489883244,6.317364699694514
1761467523095774200,1.294774169921875,-2.90788008133471,-0.13888283938094972,7.424547942960261
1761467523105758200,1.30475830078125,-4.329124013319611,-0.08941168311685323,7.698319875910878
1761467523115741000,1.314740966796875,-5.843848777556419,0.005862462292611599,7.4729188828974955
1761467523125724200,1.32472412109375,-6.202790226009488,0.5556430012047291,7.245400167077779
1761467523135707100,1.33470703125,-5.240397730994224,1.6541365959279237,7.07206429234445
1761467523145690000,1.344690185546875,-4.079770190049707,2.6189339601278303,6.733010616666078
1761467523155674400,1.35467431640625,-3.470946218277514,2.9569886878967284,6.334098976874351
1761467523165657300,1.3646572265625,-3.1636011015489696,2.8571377360910177,6.029576516351104
1761467523175641300,1.374641357421875,-2.8241774235144255,2.5763743368178607,5.671805865243077
1761467523185624300,1.384624267578125,-2.4098370361834762,2.1598992755457758,4.937169986456633
1761467523195607300,1.394607177734375,-2.0057193521812557,1.505105725889653,3.775564832651615
1761467523205590300,1.40459033203125,-1.3583578522220252,1.0215259442463516,2.4895617302834987
1761467523215573200,1.4145732421875,-0.6306994112327694,0.7313065882332622,1.1334411355942486
1761467523225556500,1.424556396484375,-0.20352584581375122,0.5220968515641987,-0.09990472781956196
1761467523235540500,1.43454052734375,0.07844576020538807,0.378302420874685,-1.140124558880925
1761467523245523500,1.4445234375,0.3338961467847228,0.3145788673743605,-1.9995897633850572
1761467523255506200,1.454506103515625,0.65321840929389,0.26823841035142537,-2.7559610886394976
1761467523265489400,1.464489501953125,0.9295812355205416,0.23925240823328495,-3.547569146969914
1761467523275472400,1.474472412109375,1.2325418535545467,0.18320947236344218,-4.400796333867311
1761467523285455400,1.484455322265625,1.591743414248526,0.09363763024881482,-5.098330270227789
1761467523295438300,1.494438232421875,1.9515169296115635,-0.06327449455857277,-5.617731160706281
1761467523305421300,1.50442138671875,2.275487894709408,-0.26589842309653755,-6.056381521168351
1761467523315405300,1.5144052734375,2.6071055751681325,-0.48379868509098883,-6.37406858369112
1761467523325388500,1.524388427734375,2.6931165099307894,-0.657982408825308,-6.579379559355973
1761467523335371300,1.534371337890625,2.7028742260962724,-0.8297628708101809,-6.854317613476514
1761467523345354200,1.544354248046875,2.6329066636398433,-0.8828796901002526,-7.214245734879374
1761467523355337500,1.55433740234375,2.7595100132927297,-0.7804717472881079,-7.484576002943515
1761467523365320400,1.564320556640625,2.980852670826018,-0.6481489970751106,-7.4035910796493285
1761467523375303200,1.57430322265625,2.702531696268916,-0.47748862516134977,-7.14032475862205
1761467523385287200,1.584287109375,2.2375310890197753,-0.31194121234714983,-6.590671937742829
1761467523395270400,1.5942705078125,2.5721160948514936,-0.1747749676257372,-5.529626760795712
1761467523405253400,1.60425341796875,3.534216328921914,0.06666530604064465,-4.266243486514687
1761467523415236400,1.614236328125,3.6825720761775966,0.21130875477492808,-2.804091205558181
1761467523425219300,1.62421923828125,2.544386668665707,0.2254629523336887,-0.8978221154272555
1761467523435202300,1.634202392578125,0.9303688787668943,0.18842559957653282,1.4671446824163197
1761467523445185500,1.644185546875,-0.7505664383679628,0.15466858366429806,3.894365984120965
1761467523455169500,1.65416943359375,-2.532952251459658,0.2557651516169309,5.861935638388991
1761467523465152300,1.66415234375,-3.4686855798691507,0.5882850416123867,7.3552657324194906
1761467523475135200,1.67413525390625,-3.5751591646850107,0.8111351810991764,8.555418351283668
1761467523485118500,1.684118408203125,-3.7104204525679347,0.8824259549833834,9.296689722561835
1761467523495101400,1.694101318359375,-3.6562592387914656,0.6913656229890882,9.334944342154264
1761467523505084200,1.704084228515625,-2.9113015802159903,0.2867136859796941,8.971386339816451
1761467523515067400,1.7140673828125,-2.370578792506456,-0.35172888672575353,8.477437285980582
1761467523525051400,1.724051513671875,-2.3861142152905463,-0.6402334016449749,8.059776522055268
1761467523535034400,1.734034423828125,-2.5857456840142605,-0.8154752561300993,7.665200865641236
1761467523545017300,1.744017333984375,-2.768594360241294,-1.094121370988339,7.033162607020139
1761467523555000300,1.754000244140625,-2.2519582583010194,-1.3114967323258517,6.123716689294576
1761467523564983300,1.7639833984375,-1.5398597900152204,-1.3848990915365516,4.847143678572774
1761467523574966500,1.773966552734375,-0.9253571880847216,-1.3415364812806247,3.4618823295950887
1761467523584949200,1.78394921875,-0.2751081499904394,-1.1625770675770937,1.9472598566889763
1761467523594933200,1.793933349609375,0.031082536005973813,-0.9975916725598275,0.6028256081402301
1761467523604916200,1.803916259765625,0.25251754799783227,-0.8797581970788538,-0.5721007995307446
1761467523614899500,1.8138994140625,0.7236144262954592,-0.8606225578457116,-1.6744886252135038
1761467523624882400,1.82388232421875,1.184989244262874,-0.8251666290611028,-2.4306015917927026
1761467523634865400,1.833865478515625,1.5576242870256303,-0.769715959995985,-3.031179713267088
1761467523644848400,1.843848388671875,1.832605595766008,-0.8909678656183183,-3.4728362698078152
1761467523654831400,1.853831298828125,2.005901138488948,-0.8700269305288791,-3.9389194115966557
1761467523664814600,1.863814697265625,2.1317983856990934,-0.7120502452298998,-4.549450187286734
1761467523674798300,1.87379833984375,2.442624038019776,-0.4264543112337589,-5.2332805924654
1761467523684781300,1.88378125,2.98895151386857,-0.08071136704981327,-5.857599655011296
1761467523694764300,1.893764404296875,3.3772359611839056,0.2509621352493763,-6.452476349973678
1761467523704747500,1.90374755859375,3.522061780747771,0.5243662578009068,-7.141631165045499
1761467523714730200,1.913730224609375,3.5696783951863647,0.6915783889569341,-7.7861483814895145
1761467523724713200,1.923713134765625,3.6884681484788655,0.8741253057584166,-8.07717598514557
1761467523734696400,1.933696533203125,3.490469249393046,1.1213991078838705,-8.072755246093868
1761467523744680400,1.943680419921875,3.0382240788206456,1.1915927341811359,-7.752351325827837
1761467523754663400,1.953663330078125,2.4523852613165973,1.1839335977301,-6.970850235491991
1761467523764646400,1.963646484375,1.9492662280753255,1.1152578286498784,-5.639816151264309
1761467523774629400,1.97362939453125,1.4340809094652534,0.840153478051722,-4.132789540314674
1761467523784612400,1.9836123046875,0.8304284951120614,0.3497852053120732,-2.750945306304097
1761467523794595300,1.99359521484375,0.13843144235163926,-0.0953711760431528,-1.3272434597730636
1761467523804578300,2.003578369140625,-0.146777830414474,-0.4461835324458778,0.10996961023807525
1761467523814562300,2.013562255859375,-0.40880701086223126,-0.6483126632042229,1.8273861075520514
1761467523824545300,2.023545166015625,-0.7608940633758902,-1.0551341993376613,3.86440397657752
1761467523834528500,2.033528564453125,-0.824019212591648,-1.2250788241975008,5.748142670470476
1761467523844511200,2.04351123046875,-1.3659265339106321,-0.7759807194791734,6.9603995686262845
1761467523854494200,2.053494140625,-3.2947242667138577,-0.5345410303346813,7.84205205501914
1761467523864477400,2.0634775390625,-5.347054855683446,-0.3716192898489535,8.36962689960301
1761467523874460400,2.07346044921875,-5.822824694228172,0.46238282596617936,8.207396356251836
1761467523884443400,2.083443359375,-4.988068983566761,1.7456927437275647,7.694941923910379
1761467523894427400,2.093427490234375,-3.9784865750923752,2.580778709256649,6.901344737589359
1761467523904410400,2.103410400390625,-3.2153800963640213,2.808402054494619,6.091566816318035
1761467523914393300,2.113393310546875,-2.7581825640812516,2.653420751619339,5.4944940726161
1761467523924376300,2.123376220703125,-2.302120173308253,2.4239003405883905,4.834223406723141
1761467523934359300,2.133359375,-2.038272837522626,2.029804430515319,4.069390542593598
1761467523944342300,2.14334228515625,-1.8279563086554407,1.5091924106813965,3.2587709098011253
1761467523954325500,2.153325439453125,-1.224537118536234,1.1842740817308426,2.3817554355591533
1761467523964309500,2.1633095703125,-0.3849032804444432,1.0949956696048377,1.4885346764475107
1761467523974292200,2.173292236328125,0.40414135713875293,0.9791501530706882,0.5565741445749998
1761467523984275500,2.183275390625,0.8548688166245818,0.7874433398663997,-0.48933776064813134
1761467523994258400,2.193258544921875,1.304345691527426,0.5568921244829893,-1.5964175435394048
1761467524004241400,2.203241455078125,1.6754063245803117,0.42585181529596444,-2.575304661759734
1761467524014224400,2.213224365234375,1.7857962060570716,0.4133703732550144,-3.3086984315305945
1761467524024207400,2.223207275390625,1.6306947839334607,0.47915889646112914,-3.848326117479801
1761467524034191400,2.23319140625,1.5912147141993045,0.6324846872143447,-4.329601567703485
1761467524044174300,2.24317431640625,1.8048618487939236,0.7161597263753414,-4.877207977446913
1761467524054157300,2.2531572265625,1.9950608877837657,0.7337468209922313,-5.375286093911528
1761467524064140300,2.263140380859375,2.157485492402315,0.6912452114798128,-5.772105729860067
1761467524074123300,2.273123291015625,2.5509359441787005,0.5524564801231027,-6.270834419187903
1761467524084106500,2.2831064453125,2.987101794348657,0.2997226590260863,-6.591995295301079
1761467524094089200,2.293089111328125,3.460805055752396,-0.027409400451183317,-6.756569186908006
1761467524104072400,2.303072509765625,4.05931455425918,-0.28849603935182094,-6.610409488391876
1761467524114056400,2.313056396484375,4.430229349100589,-0.4946199388347566,-6.198347859647869
1761467524124039400,2.323039306640625,4.255382193021476,-0.6260293735951185,-5.541716427040099
1761467524134022400,2.3330224609375,4.1064591672718525,-0.634215894921124,-4.855385437217355
1761467524144005400,2.34300537109375,3.911550050894916,-0.7541134633250534,-4.32187243475616
1761467524153988400,2.35298828125,3.426065166282654,-0.9053932813338935,-3.6092794609516856
1761467524163974400,2.362974365234375,2.266759813852608,-1.110209897610545,-2.740678763833642
1761467524173957400,2.372957275390625,0.8230717026084661,-1.2085365624584257,-1.572080974662304
1761467524183941400,2.38294140625,-0.8901710161522031,-0.9906832083456217,-0.20011632963120937
1761467524193924400,2.39292431640625,-2.5287720431655645,-0.5437706309728324,0.7868307609260082
1761467524203907300,2.4029072265625,-3.289159618324041,0.14760127562656997,1.6492612449765205
1761467524213890300,2.412890380859375,-3.473430144047737,0.9850963481239974,2.7534102351129053
1761467524223873300,2.422873291015625,-3.7328494342580436,1.4753649598814547,4.444952286458015
1761467524233856500,2.4328564453125,-4.338354783001542,1.51464103147611,6.618340865913033
1761467524243839200,2.442839111328125,-4.907479781591892,1.0705793134897947,8.631800164696573
1761467524253823200,2.4528232421875,-5.245890483191609,0.41201106760054823,10.265535923761128
1761467524263806500,2.462806396484375,-5.087445888119936,-0.07391410812512039,11.265174738109112
1761467524273789400,2.47278955078125,-4.79289829364419,-0.26618177008256316,11.151901410150527
1761467524283772400,2.4827724609375,-4.311806091032922,-0.5029010065764189,10.223534518855809
1761467524293755400,2.49275537109375,-3.950880190764367,-0.9956092665709555,8.68315041270554
1761467524303738400,2.50273828125,-3.0230285555154084,-1.206017419244349,6.922803705203533
1761467524313721300,2.512721435546875,-1.6898890234410762,-1.2737262429885565,5.162041402637958
1761467524323704300,2.522704345703125,-0.7188432663708925,-1.3917613785214722,3.416774775367975
1761467524333688300,2.532688232421875,-0.4471969472721219,-1.2922097019232808,1.6290823803007601
1761467524343671300,2.54267138671875,-0.08289514082968234,-1.3359049051344394,0.04194003010690212
1761467524353654300,2.552654296875,0.31744273237287995,-1.4060172828890383,-1.185171907353401
1761467524363637500,2.562637451171875,0.7953127580672502,-1.4272094162605702,-2.0867373009622097
1761467524373620200,2.5726201171875,1.167296058923006,-1.326877987461537,-2.9189298831373454
1761467524383603500,2.582603515625,1.3318302030414342,-1.1986859073124825,-3.6643279789566994
1761467524393586400,2.59258642578125,1.607579281283915,-1.1185992480322717,-4.330056325733661
1761467524403569400,2.6025693359375,2.1820278129845856,-1.121077620844543,-4.8387090277045965
1761467524413553400,2.612553466796875,2.696349208241701,-1.1561195620007811,-5.162666841059923
1761467524423536400,2.622536376953125,2.794062563496828,-1.2234069454625247,-5.445080930149555
1761467524433519400,2.632519287109375,2.980801817421615,-1.1518686265580356,-5.936138938719034
1761467524443502300,2.64250244140625,3.2300314297899604,-0.9545255610324442,-6.666234251466393
1761467524453485300,2.6524853515625,3.55745253534168,-0.6915129225052893,-7.307492758375406
1761467524463468300,2.66246826171875,3.9473718903824686,-0.3413233741760254,-7.65803112014234
1761467524473451300,2.672451171875,4.348247815984487,0.007368044549971819,-7.657168950355053
1761467524483435500,2.682435546875,4.689795062044262,0.40995793446302414,-7.358161453860998
1761467524493418500,2.69241845703125,4.728421145297586,0.8366120060525835,-6.834769447919726
1761467524503401200,2.702401123046875,4.362447313989699,1.3632134755596517,-5.981069967335462
1761467524513384400,2.712384521484375,3.0529242198243733,1.9845548374690114,-4.906583125013113
1761467524523367400,2.722367431640625,1.5857696005359292,2.3010214182861146,-3.7646775279343125
1761467524533350400,2.732350341796875,0.012601999680697917,2.3302803921267388,-2.792867216232419
1761467524543333400,2.74233349609375,-0.7746653990969061,1.9774640024252235,-1.9517080682694912
1761467524553316400,2.75231640625,-0.7725061752364039,1.5461428158074617,-0.9274977072447538
1761467524563300400,2.76230029296875,-0.7041869645088911,1.0786293489545582,0.19641747511327265
1761467524573283300,2.772283447265625,-1.0478650851175189,0.46827027656957504,1.1252782874047755
1761467524583266300,2.782266357421875,-2.2622493506908414,-0.5359956130571663,2.475672905662656
1761467524593249300,2.792249267578125,-4.067242424649,-1.2461778724581003,4.743238482940197
1761467524603232300,2.802232177734375,-6.948795640072226,-1.5081630676336586,8.22777162028253
1761467524613215500,2.812215576171875,-10.915638831382989,-1.6445843392066657,11.935301027584075
1761467524623198200,2.8221982421875,-11.697608708274364,-0.8814198466807603,14.092294352555275
1761467524633181400,2.832181396484375,-8.620750947415829,0.9071490389600395,13.449065422356128
1761467524643165400,2.84216552734375,-6.485535154488683,1.9323770525947213,10.836112290203571
1761467524653148400,2.8521484375,-5.900014316892624,1.9514375807650386,8.150193290561438
1761467524663131400,2.86213134765625,-5.02337410570383,1.9235991412468254,6.2567608856499195
1761467524673114400,2.8721142578125,-3.8062966555237767,1.833177550435066,5.0381338679403065
1761467524683097300,2.882097412109375,-2.540216397243738,1.4561347742326556,3.8150042781144378
1761467524693080300,2.892080322265625,-1.4418189563713968,0.931467779919505,2.3312843084722754
1761467524703063300,2.902063232421875,-0.5531751497864723,0.3964516794189811,0.7382803727686404
1761467524713047300,2.91204736328125,0.14916034163683653,-0.052555239884555335,-0.7450877146959305
1761467524723030300,2.9220302734375,0.5945633912295103,-0.20945757395029066,-2.0388462534964082
1761467524733013500,2.932013427734375,0.9546379353657364,-0.20860680233985185,-3.0931729358434676
1761467524742996500,2.94199658203125,1.3855818131037057,-0.20550328336656093,-4.206975889509916
1761467524752979200,2.951979248046875,1.763611992908269,-0.1740527908310294,-5.3391345840781925
1761467524762962400,2.96196240234375,2.049040899774432,-0.015545359656214713,-6.250528128740191
1761467524772945400,2.9719453125,2.2237813806086777,0.30673546039760113,-6.682593850114941
1761467524782928400,2.981928466796875,2.3863173366472124,0.5972006078653037,-6.787900729238986
1761467524792912100,2.991912109375,2.7923662809729572,0.6714541770778596,-6.83306556661129
1761467524802895400,3.001895263671875,3.038779374615848,0.688260934972018,-6.856198604917526
1761467524812878300,3.01187841796875,3.1834225310891866,0.5788211938269436,-6.77444678890407
1761467524822861300,3.021861328125,3.1297692668348547,0.35454219058081504,-6.637552346861362
1761467524832844300,3.03184423828125,3.445529745209217,-0.01749532468020916,-6.58285571103394
1761467524842827300,3.0418271484375,3.857434722086787,-0.551944731208682,-6.625659079971909
1761467524852810500,3.051810546875,3.974672862023115,-1.0133873537153004,-6.492587411087751
1761467524862793500,3.06179345703125,4.183963262712955,-1.2916750105246901,-5.875135896223783
1761467524872777500,3.071777587890625,4.385337191189826,-1.4969501842238009,-4.758052605712414
1761467524882760200,3.08176025390625,4.251231795343757,-1.6203391018748283,-3.4302526811003684
1761467524892743400,3.091743408203125,3.9125092513158917,-1.533878085257113,-1.815962211740017
1761467524902726400,3.101726318359375,2.8366753782987595,-1.037360203846544,0.18104747202396393
1761467524912709400,3.11170947265625,1.1320951278127729,-0.1798262596659362,2.2537930725127455
1761467524922692400,3.1216923828125,-0.9121040310189127,0.7305446639500558,3.845516905277967
1761467524932675300,3.13167529296875,-3.3891815427824854,1.8166722597055136,5.272988333475589
1761467524942658300,3.141658203125,-5.302261189711094,2.586905083182454,7.088728426897525
1761467524952642600,3.151642578125,-6.0393643353939055,2.594960379344225,8.8875939578861
1761467524962625300,3.161625244140625,-5.825758994114398,1.6521891151219605,10.176500380480288
1761467524972608300,3.171608154296875,-5.16498388583064,0.48379736991673705,10.648646767830847
1761467524982591500,3.181591552734375,-4.172541997249424,-0.2192437855578959,10.201683921575546
1761467524992574500,3.191574462890625,-3.36110461833328,-0.30685572577640413,9.162323337692023
1761467525002557200,3.20155712890625,-3.19538038764745,-0.39453225566372274,8.377987316191195
1761467525012540400,3.21154052734375,-3.1152059039533135,-0.7185352233350276,7.526433030942082
1761467525022523400,3.2215234375,-2.7606229429706928,-0.8712209626190364,6.303112886980176
1761467525032507400,3.23150732421875,-2.3343273294299838,-1.102882331201434,5.074322202652692
1761467525042490400,3.241490478515625,-1.467858383643627,-1.1245347755610942,3.857828689840436
1761467525052473300,3.251473388671875,-0.5698837080031633,-1.0896198217853903,2.6335820786833763
1761467525062456300,3.261456298828125,0.21828093187510966,-1.0672352637588978,1.432856043845415
1761467525072439600,3.271439453125,0.8675736921578645,-1.1968455401428044,0.11993044776022434
1761467525082422300,3.28142236328125,1.7107266442865132,-1.4961540654100476,-1.3574141416311263
1761467525092405200,3.2914052734375,2.535929513704777,-1.643117481524497,-2.470492872676253
1761467525102388500,3.301388427734375,3.0327322034060953,-1.7049848857641219,-3.367536404946446
1761467525112372500,3.31137255859375,2.8103017506361008,-1.6070644636295734,-4.197964315536618
1761467525122355500,3.32135546875,2.878813561326265,-1.6221555036470292,-4.648700250589847
1761467525132338200,3.331338134765625,2.839010835509002,-1.4060507467672227,-4.985081492188573
1761467525142321400,3.3413212890625,2.8629882156848905,-1.0140928716361521,-5.418955139768124
1761467525152304400,3.351304443359375,3.131652596363425,-0.7103511862270534,-6.052751640233397
1761467525162284000,3.361283935546875,3.041423459383845,-0.30498803220838305,-6.748802060037851
1761467525172267300,3.371267333984375,2.898571570241451,0.21507029926553367,-7.443990310055017
1761467525182250000,3.38125,2.762286200007796,0.7443161458015441,-8.037977947223187
1761467525192234000,3.39123388671875,3.0366125519707796,1.0586579895496369,-8.568104814377426
1761467525202217200,3.40121728515625,3.353733505043387,1.1017748083509504,-8.812109970095753
1761467525212200200,3.4112001953125,3.8656022464513775,1.0564273078881203,-8.836688531035184
1761467525222183200,3.42118310546875,3.9502690731287,1.1849737544327974,-8.539277363821864
1761467525232166100,3.431166259765625,3.295807093514502,1.6548022202298045,-7.500178061223029
1761467525242149000,3.441149169921875,2.300063825300336,2.20252977213487,-5.8292275470077985
1761467525252132000,3.451132080078125,1.36908236759305,2.345031971056759,-3.625920214629173
1761467525262116000,3.4611162109375,0.7842828300088643,2.248156966321915,-0.9701075994372367
1761467525272099000,3.47109912109375,1.193544014379382,1.9333308461882173,1.5748615452915429
1761467525282082000,3.48108203125,0.8362181844294071,1.1882257419660687,3.816759012827277
1761467525292065000,3.49106494140625,-0.6216857914328575,-0.21489041265398262,5.696065861752629
1761467525302048300,3.50104833984375,-1.7411124301999807,-1.643235993337631,7.149791675147414
1761467525312031000,3.511031005859375,-3.3694276255205273,-2.5175878013283013,7.953508104422688
1761467525322014200,3.52101416015625,-6.068454820799827,-2.6572277426868673,8.079652604392171
1761467525331997200,3.5309970703125,-8.102300489529966,-1.709647324617207,7.926108640843629
1761467525341980200,3.540980224609375,-7.436831085950136,0.12647636227235198,8.078847133228182
1761467525351964000,3.5509638671875,-5.363550647932291,1.7753318029269576,8.135151788774133
1761467525361947100,3.560947021484375,-4.346155227619409,2.6258932777464388,7.481996507844328
1761467525371930000,3.57093017578125,-4.431711112090945,2.5687089167565107,6.742210406687855
1761467525381913000,3.5809130859375,-4.356954854053258,2.1768302443414926,6.500272704893351
1761467525391896000,3.59089599609375,-3.775532683947682,1.7333584550723433,6.1346203606247895
1761467525401879000,3.600879150390625,-2.6625425079688427,1.17489776609838,5.128520825830102
1761467525411862000,3.610862060546875,-1.2721622085422277,0.7610014692731201,3.7345799113124607
1761467525421845200,3.62084521484375,0.06782295164316893,0.4556215882029384,2.2709464518874882
1761467525431829200,3.630829345703125,1.0457271963059902,0.13973339179567992,0.7882032183229922
1761467525441812000,3.64081201171875,1.6927099260807037,-0.16958324420154094,-0.5464525635331868
1761467525451795200,3.650795166015625,1.8247592661798,-0.4949406221564859,-1.7838883266091345
1761467525461778200,3.660778076171875,1.6699381223022938,-0.8632165929269046,-2.793390947845578
1761467525471761200,3.67076123046875,1.4659715469837187,-1.1339872982349246,-3.616569033437967
1761467525481744100,3.680744140625,1.4635902048051357,-1.1183271530926227,-4.188215074938536
1761467525491727000,3.69072705078125,1.401708625909686,-0.6891743965551257,-4.573211002102494
1761467525501710000,3.7007099609375,1.8369632064536212,-0.2784802567720413,-5.260760135543346
1761467525511694000,3.710694091796875,2.8092358749702573,-0.0413856110945344,-6.102028004577756
1761467525521677000,3.720677001953125,3.5366266049340367,0.05885024837553501,-6.807505008897185
1761467525531660000,3.730659912109375,3.9598061322808262,-0.06902560543119907,-7.468485868886113
1761467525541643300,3.740643310546875,4.110513995620608,-0.2575384448997676,-7.914965900060534
1761467525551626200,3.750626220703125,4.292340050801634,-0.35763138876780864,-8.300572068077326
1761467525561609000,3.76060888671875,4.809939737077057,-0.492446394187957,-8.714003816130758
1761467525571592200,3.77059228515625,5.411041882425546,-0.7064664537481963,-8.737022872668504
1761467525581575200,3.7805751953125,5.530626293227076,-1.0011880896165966,-8.175005075734854
1761467525591558100,3.79055810546875,4.791356909421086,-0.9406783835962415,-7.1721537290811535
1761467525601542000,3.8005419921875,4.007256157980859,-0.7347672500811517,-5.885083874264359
1761467525611525000,3.810525146484375,3.4764100366413593,-0.4895879360169172,-4.27086354753077
1761467525621508000,3.820508056640625,2.7192715264067053,-0.2912818706780672,-2.4628058253049847
1761467525631491000,3.830490966796875,1.5242384425133466,-0.09607143326699732,-0.7131669743001461
1761467525641474000,3.84047412109375,-0.0940080709964037,0.3600634382203221,1.1577315272420645
1761467525651457000,3.85045703125,-1.7369383593857288,0.6641434156730771,3.4591619647204874
1761467525661440300,3.860440185546875,-3.176219175581634,0.7809851036377251,5.525503543385863
1761467525671423200,3.87042333984375,-4.526602980184554,1.125371664776653,7.001598424977064
1761467525681407200,3.8804072265625,-4.534278921639919,1.380379568285495,7.809469635844231
1761467525691390000,3.890389892578125,-3.4710113924682138,1.7362240736365318,8.537014679586887
1761467525701373200,3.900373291015625,-2.6240643087536095,1.65939349354282,8.329577797809243
1761467525711356200,3.910356201171875,-2.2933616973131894,0.8597681329734623,7.453914907220006
1761467525721339100,3.920339111328125,-1.860901423662901,-0.2306346558831632,7.282695001727342
1761467525731322000,3.930322021484375,-1.845357817572355,-1.4241117425061762,7.6487635255813595
1761467525741305000,3.94030517578125,-2.0920061812758446,-1.7981019992701708,8.151714801040292
1761467525751288000,3.9502880859375,-1.9089175588130949,-1.858198886705935,8.073719707211852
1761467525761271000,3.96027099609375,-1.7403905456662176,-1.8035891985096035,7.470775441128015
1761467525771255000,3.970255126953125,-1.625305784371495,-1.7221837117157877,6.784543235504627
1761467525781238000,3.980238037109375,-1.4629507378578186,-1.66979549896121,5.945052313014864
1761467525791221200,3.99022119140625,-0.9763222361683845,-1.6161951339378953,4.864163786956667
1761467525801204200,4.000204345703125,-0.2947966008007526,-1.367583799598366,3.514459489050507
1761467525811187000,4.01018701171875,0.5577648156642914,-1.2098209031805396,1.704679180815816
1761467525821170200,4.020170166015625,0.8155813468530774,-0.9851533390082419,-0.17615911546051502
1761467525831153200,4.030153076171875,0.7524708106845617,-0.8319540972441435,-1.6693319731026888
1761467525841136000,4.04013623046875,0.9523241054654121,-0.7315417121633887,-2.8556659099727866
1761467525851119000,4.050119140625,1.4195675232052802,-0.7250703241921961,-3.825546714916825
1761467525861103000,4.06010302734375,1.6176728052750229,-0.6881753025151789,-4.498196385389567
1761467525871086000,4.070086181640625,1.9150839724883435,-0.5417272885769605,-5.000966459062695
1761467525881069000,4.080069091796875,2.3379721156731246,-0.3950762994125485,-5.56478575246036
1761467525891052000,4.090052001953125,2.6308298573657867,-0.32673867624551056,-6.014747196009755
1761467525901035000,4.100034912109375,2.977554506063461,-0.254621826800704,-6.410704662171006
1761467525911018200,4.110018310546875,2.976153407093882,-0.21966201096996663,-6.78433105405867
1761467525921001200,4.120001220703125,2.9425457365244627,-0.28677374560385943,-6.9991989626199
1761467525930984000,4.12998388671875,3.311707550218701,-0.36357743769064543,-6.937007587122917
1761467525940968000,4.139968017578125,3.8796848400786517,-0.3470356143429875,-6.589523352229595
1761467525950951200,4.149951171875,4.023052277527749,-0.09726970314085483,-5.845789974752068
1761467525960934100,4.15993408203125,3.477812304654717,0.10851911916881798,-4.777612461706996
1761467525970917000,4.169917236328125,2.3269413108319044,0.1780325081169605,-3.664669924262166
1761467525980900000,4.179900146484375,1.3465990253672002,0.2573608963757753,-2.520273679411411
1761467525990883000,4.189883056640625,0.6439002535894512,0.131573393150419,-1.3916238697469234
1761467526000866000,4.199865966796875,-0.107418756711483,-0.23520488640815018,-0.31536066540181634
1761467526010849000,4.20984912109375,-1.6529653601914642,-0.6474415794581174,1.099350065422058
1761467526020832000,4.21983203125,-3.585930734068155,-0.9341595032215118,2.7324977954655885
1761467526030816000,4.22981591796875,-4.99461621325314,-0.6380629257380962,4.1038574603408575
1761467526040799200,4.23979931640625,-5.745996890613436,0.15128522483631968,5.104855872604251
1761467526050782200,4.2497822265625,-5.8943619902193545,1.511079977993667,5.7204299031585455
1761467526060765000,4.259764892578125,-6.0556730806380505,2.322481262683123,5.558087131604552
1761467526070748200,4.269748046875,-5.654502848264575,2.3798497480683025,4.61398724912703
1761467526080731100,4.279731201171875,-4.5181548853129145,2.373323268909007,3.5456606830000874
1761467526090714000,4.289714111328125,-3.54377209277451,2.244658310551196,2.8198066610842942
1761467526100697000,4.299697021484375,-2.8273066614508626,1.6269341162256896,2.598319042122364
1761467526110680000,4.30968017578125,-2.7619290571331976,0.826336695753783,2.537007372069359
1761467526120664000,4.3196640625,-3.0466368101179597,0.33516616672053934,2.3664397930055854
1761467526130647300,4.329647216796875,-3.311286109936237,0.28257074095606804,2.110054463663697
1761467526140630000,4.339630126953125,-3.251670137885213,0.46563466736897824,1.7967127368688582
1761467526150613000,4.349613037109375,-2.4565420887351035,0.5449781070664524,1.2913362800896167
1761467526160595500,4.359595458984375,-1.5223323166310787,0.4571298738740384,0.5895423481971025
1761467526170578400,4.369578369140625,-0.8554489546000957,0.49200201142132277,-0.2064589766561985
1761467526180561400,4.3795615234375,-0.10356617293655872,0.39883901294693347,-0.9148539142489432
1761467526190544400,4.38954443359375,0.4611287342518568,0.1672485176436603,-1.5979653575032948
1761467526200528400,4.3995283203125,0.69049979993999,-0.05046878899931907,-2.2276965082257987
1761467526210511400,4.409511474609375,0.33268004899322984,-0.22662308215424418,-2.762721084293723
1761467526220494600,4.41949462890625,-0.06911971345543862,-0.27573548810854553,-2.951584198504686
1761467526230477300,4.429477294921875,-0.2212766065597534,-0.0845069599404931,-3.0784675341427326
1761467526240460300,4.439460205078125,0.14644319163262842,0.1623373647265136,-3.4122739568173883
1761467526250443500,4.449443603515625,0.6506710628986359,0.26904870382100343,-3.895850085198879
1761467526260426500,4.459426513671875,1.1981629063516854,0.26256080310642715,-4.180338642475009
1761467526270409500,4.469409423828125,1.9358850607156752,0.17281652703434228,-4.3068911387234925
1761467526280392400,4.479392333984375,2.6783266448169947,0.1644496807053685,-4.26972548341155
1761467526290376400,4.48937646484375,3.1540894690990444,0.11435206310600042,-3.9291409449040886
1761467526300359400,4.499359375,3.4850668058276173,-0.06010054069757461,-3.6447277909517286
1761467526310342400,4.50934228515625,3.8059295757770535,-0.2625952898979187,-3.5474060653626918
1761467526320325400,4.519325439453125,4.222228403699398,-0.4555614555135369,-3.3891847576528784
1761467526330308400,4.529308349609375,4.075114765459299,-0.8384326456084847,-3.052009735327959
1761467526340291600,4.53929150390625,3.19908187251389,-1.1696414530053734,-2.3560686211168766
1761467526350274300,4.5492744140625,3.005095423939824,-0.8712783918946981,-0.9363327556073665
1761467526360257300,4.55925732421875,2.95510185123682,-0.9629854924723505,0.5887199258983135
1761467526370240500,4.569240478515625,2.4492162758916614,-1.0124272765114903,1.2470932337373495
1761467526380224500,4.579224609375,1.0275170013546944,-0.9903507615208625,1.7082646380871533
1761467526390207200,4.589207275390625,-0.6885492503941059,-0.703224841478467,1.9881313807815313
1761467526400190500,4.5991904296875,-2.3243115468502045,-0.3737278064355254,2.1378467259526253
1761467526410173400,4.60917333984375,-3.6282559641003607,0.0604603139206767,2.05355866945982
1761467526420156400,4.619156494140625,-4.583229707291722,0.4033715418100357,2.0678619201004502
1761467526430139400,4.629139404296875,-5.231145918524265,0.8539179456405341,2.4815385828256606
1761467526440122400,4.639122314453125,-5.689333923149109,1.0217271659068763,3.024863954249024
1761467526450105300,4.649105224609375,-5.809900915247201,0.9786251062832773,3.604107026749849
1761467526460088600,4.659088623046875,-4.9539375813841815,0.7172951601460575,4.060290705814958
1761467526470072600,4.669072509765625,-3.7350486978679895,0.36972558505684133,4.807834581491351
1761467526480055300,4.67905517578125,-2.6774504465043543,0.15549407470300794,5.729103623479604
1761467526490038300,4.689038330078125,-1.7605764246046542,-0.08227686280086637,5.9523956615149975
1761467526500021500,4.699021484375,-0.6850362738370895,-0.44518779940679665,5.459687547650933
1761467526510004500,4.70900439453125,0.3329050899207592,-0.7583673213772475,4.661096206304431
1761467526519987500,4.718987548828125,1.1584580879509447,-1.0962176126152277,3.6251305255562065
1761467526529970400,4.728970458984375,1.831765930071473,-1.4680522987805307,2.40460790335834
1761467526539953400,4.738953369140625,2.4494383942097424,-1.6306645349256694,1.1973895838916302
1761467526549936400,4.748936279296875,2.067948429340124,-1.7514220811598002,0.1641775857657194
1761467526559920400,4.75892041015625,0.8169517584234476,-1.9958735193409025,-0.6352700801491737
1761467526569903400,4.7689033203125,-0.6987500341519713,-2.2458763080388304,-1.5021324091672896
1761467526579886300,4.77888623046875,-0.9976517321839928,-2.1168262958861885,-2.5886685857236382
1761467526589869600,4.78886962890625,-0.7508575302690267,-1.63523739579916,-3.813043791696429
1761467526599852300,4.798852294921875,-0.23497370800077913,-1.2335133289352058,-5.016201437595487
1761467526609835300,4.808835205078125,1.1600921188935638,-1.1297164159826933,-6.045501230713724
1761467526619818500,4.818818603515625,2.231673887424171,-0.9583201310098171,-6.540319468599558
1761467526629801500,4.828801513671875,2.3499399091035125,-0.6249048996098339,-6.598515636980533
1761467526639784400,4.838784423828125,2.3048235870480536,-0.2601223239131272,-6.772670426881313
1761467526649767400,4.848767333984375,2.5939871503978966,-0.1633243299372494,-7.031660970285534
1761467526659751400,4.85875146484375,3.3077883309483527,-0.1369363814882934,-7.190228314954042
1761467526669734400,4.868734375,4.204775749117136,-0.16124109392240643,-7.432452432474493
1761467526679717400,4.87871728515625,4.93042285028398,-0.05820800494924187,-7.44868460535109
1761467526689700400,4.888700439453125,4.94260077933371,0.2850454605065286,-6.639583560428023
1761467526699683300,4.898683349609375,4.274775168016553,0.5602680306568741,-5.462929306051135
1761467526709666600,4.90866650390625,3.2260154721468686,0.6608348756469786,-4.080792226573824
1761467526719649300,4.918649169921875,1.8453280069559812,0.8604045311808586,-2.1206138516008854
1761467526729632300,4.92863232421875,-0.2773819401413202,1.0047565957531333,0.2834206357836723
1761467526739615500,4.938615478515625,-2.623847451132536,0.807735894049704,2.837901705223322
1761467526749599500,4.948599609375,-3.6985087732389568,0.10619403722211718,4.920439800930023
1761467526759582500,4.95858251953125,-3.7314661632061004,-0.32073169091567394,6.3704311039716
1761467526769565400,4.9685654296875,-2.957640429803729,-0.36645927673727274,6.884006649297476
1761467526779548400,4.97854833984375,-2.215736605840921,0.2470487611979246,6.6310244063973425
1761467526789531400,4.988531494140625,-2.554616093996167,0.906229732158035,5.88661298352778
1761467526799514400,4.998514404296875,-4.480307677477598,1.2461692507602273,5.288302806985378
1761467526809497300,5.008497314453125,-6.76913348492682,1.6094463903300462,5.396128390932083
1761467526819480300,5.018480224609375,-8.250715858018397,2.2618983452960846,6.049663611090183
1761467526829463600,5.028463623046875,-7.624113068449497,2.969330867597461,6.1079281685322515
1761467526839447600,5.038447509765625,-5.257276385080814,3.3636399820297953,5.562557555016875
1761467526849430300,5.04843017578125,-3.6071979785025117,3.392504841986298,4.788012859690189
1761467526859413500,5.05841357421875,-2.913652234995365,3.0812595029488206,3.9361353338360785
1761467526869396500,5.068396484375,-2.125593978101015,2.504275899812579,3.2435546359688043
1761467526879379500,5.07837939453125,-1.2083996382057667,1.8337036201357841,2.449642392349243
1761467526889362400,5.088362548828125,-0.02214461179077625,1.183683714622259,1.6601000343769787
1761467526899345400,5.098345458984375,1.208557459115982,0.4618867130123079,0.8431722413510083
1761467526909328400,5.108328369140625,1.7567630037963389,-0.39436610531657934,-0.2050292361140251
1761467526919311400,5.118311279296875,1.4728127911806106,-1.0710926698394119,-1.1624801830738782
1761467526929294300,5.12829443359375,1.21507926210016,-1.3900057670257984,-1.9462188232034443
1761467526939278300,5.1382783203125,0.9574214286044239,-1.3453513633936642,-2.677964241245389
1761467526949261300,5.14826123046875,0.8318436226069926,-1.0690199552185833,-3.400023547053337
1761467526959244500,5.15824462890625,1.1494079355329274,-0.65923766958341,-4.182228986266255
1761467526969227300,5.168227294921875,1.6835487145036458,-0.40474356081560253,-5.015152805325388
1761467526979210500,5.17821044921875,2.0932313391566275,-0.33034429952204225,-5.687193403989077
1761467526989193500,5.188193359375,2.8076830925703047,-0.3960496744893491,-6.171449915850162
1761467526999176400,5.198176513671875,3.54602893179059,-0.6171349962607026,-6.387798418357968
1761467527009159400,5.208159423828125,4.422232505127788,-0.8065519449621439,-6.509762417772412
1761467527019142400,5.218142333984375,5.320073325255513,-0.9584025485962628,-6.728450176882744
1761467527029125400,5.22812548828125,6.284780526953935,-1.0565632092274724,-6.993738359126448
1761467527039109400,5.238109375,6.920050607103109,-1.123156034553796,-7.10820878791511
1761467527049092400,5.24809228515625,7.273269586256146,-1.206757423956692,-6.8972250273108475
1761467527059075300,5.258075439453125,7.210444589030742,-1.3195016134746371,-6.329229325011372
1761467527069058300,5.268058349609375,6.632092912411689,-1.457833833235502,-5.717619521912932
1761467527079041500,5.27804150390625,5.249082557231188,-1.4072928557828068,-4.505576558768749
1761467527089024300,5.288024169921875,3.975667133757472,-1.169569556812942,-3.0794144596040245
1761467527099007500,5.298007568359375,2.5456354996830224,-0.8593301799476146,-1.484766848346591
1761467527108990500,5.307990478515625,0.3857575591862201,-0.3472413660481572,0.5959878710746764
1761467527118973400,5.317973388671875,-2.072249341404438,0.3059717825487256,2.8345208306133745
1761467527128956400,5.327956298828125,-4.217563334497809,0.8606804255127907,4.7104076419621705
1761467527138940400,5.3379404296875,-4.937205057770013,1.3460428527891635,6.65249506444931
1761467527148923400,5.34792333984375,-4.772727612274885,1.668703758201748,8.347745907184482
1761467527158906600,5.35790673828125,-5.349520953536033,1.3989999514728784,9.08535992499888
1761467527168889900,5.367889892578125,-6.220668412527441,0.42920974742174145,8.951741728147864
1761467527178872600,5.37787255859375,-6.123036890336871,-0.4899046007506549,7.808871669951081
1761467527188855600,5.38785546875,-5.011846164995432,-0.3152496062427759,6.895768398761749
1761467527198838800,5.3978388671875,-3.470134317372739,0.2855104476697743,6.6279147499442095
1761467527208821500,5.407821533203125,-2.773570395088196,0.46260333684906363,6.770378516551852
1761467527218804500,5.417804443359375,-2.961267680390179,0.14850187772810458,6.984531554841995
1761467527228788700,5.427788818359375,-3.410587026643753,-0.35789120874777436,7.0976429702371355
1761467527238771700,5.437771728515625,-3.092733667643368,-0.7215275370188057,6.84134473465681
1761467527248754700,5.447754638671875,-2.253912022717297,-0.7224354456439613,6.024385961970687
1761467527258737700,5.457737548828125,-1.5416595329135656,-0.5415323505267501,4.681494851210713
1761467527268720600,5.467720703125,-0.9547267826929687,-0.40692017420232296,3.088725893306732
1761467527278703600,5.47770361328125,-0.45642596338838337,-0.37373394391536713,1.5861831497728824
1761467527288686800,5.487686767578125,0.1391466048836708,-0.4506650617741048,0.09121756349503994
1761467527298669600,5.497669677734375,0.888753842830658,-0.4152788372248411,-1.3534130892962217
1761467527308652500,5.507652587890625,1.3009662782222031,-0.4138999500870704,-2.4773481453984973
1761467527318635800,5.5176357421875,1.4757231256693601,-0.41966801209449767,-3.359036287626624
1761467527328619800,5.527619873046875,1.6584499290823935,-0.537261541339755,-4.140692276263237
1761467527338602500,5.5376025390625,1.8415259843245149,-0.6977601463317871,-4.810034721884131
1761467527348585700,5.547585693359375,1.914846072079241,-0.9385296811297535,-5.414769378516078
1761467527358568700,5.557568603515625,2.184915935641527,-1.106149808564782,-6.1095554774731395
1761467527368551700,5.5675517578125,2.8042782525628804,-1.2994655182704329,-6.788299957689643
1761467527378534700,5.57753466796875,3.2669971786156293,-1.4073793650224804,-7.241976037847995
1761467527388517600,5.587517578125,3.3094349291115996,-1.3666551404461265,-7.695289129912853
1761467527398500600,5.59750048828125,3.279732741548121,-1.2060606738641857,-8.05816908685863
1761467527408483800,5.60748388671875,3.1477243179813024,-0.945078664381802,-8.175345851996541
1761467527418466600,5.617466552734375,2.9915207798346874,-0.6151867848023772,-8.051739930593968
1761467527428450600,5.627450439453125,2.4959067153960466,-0.12597586540430783,-7.520574952563643
1761467527438433500,5.63743359375,2.4679034407049416,0.4992468679830432,-6.560837355971336
1761467527448416800,5.647416748046875,2.265135427521169,0.8887515047430992,-5.242422514820099
1761467527458399500,5.6573994140625,2.228183999481797,1.0041665209054946,-3.84616455553174
1761467527468382700,5.6673828125,2.1889245867609977,0.9365665643632411,-1.8863555983930824
1761467527478365700,5.67736572265625,1.1875830601483583,0.8488578857719897,0.4066261596918106
1761467527488348700,5.6873486328125,-0.6177963827788829,0.6249573604494333,2.685633168438077
1761467527498331600,5.69733154296875,-2.250735438507795,0.3420357602290809,5.1224423826992505
1761467527508314600,5.707314697265625,-3.273844560292363,0.0339522462233901,7.359647308504581
1761467527518297600,5.717297607421875,-3.2684166900247336,0.003827449333667755,8.532708506825566
1761467527528281600,5.727281494140625,-3.1133412791252133,0.27516733283177014,8.36272544965148
1761467527538264800,5.737264892578125,-4.304330932846665,0.7400710555776954,7.410731014531851
1761467527548247600,5.74724755859375,-5.675470232969523,1.2290490430027246,6.330355698692799
1761467527558230500,5.75723046875,-5.765525182425976,2.1607696286395193,5.492038496157527
1761467527568213800,5.7672138671875,-5.301884173092246,2.916166555903852,4.680491811648011
1761467527578196700,5.77719677734375,-4.727456099657714,3.031538609707355,3.9028883132725953
1761467527588179700,5.7871796875,-3.653053136226535,2.675170226612687,3.370725556376576
1761467527598162700,5.79716259765625,-2.3709032021552323,2.0985155631698666,3.070094258072972
1761467527608145700,5.807145751953125,-1.4923960280507802,1.4575531165979803,2.73853766015172
1761467527618128600,5.817128662109375,-1.0541507412582636,0.9854584594346583,2.116658391973376
1761467527628111600,5.827111572265625,-0.4281050010502338,0.8068588189542293,1.3348662097364663
1761467527638095600,5.837095703125,0.35229660361111165,0.7882784755162894,0.5132610725492238
1761467527648078600,5.84707861328125,0.817430189590156,0.8187140919208526,-0.2863654570639133
1761467527658061800,5.857061767578125,0.8628513398110866,0.8759164269588887,-1.0080074142426252
1761467527668044500,5.86704443359375,0.7853191873192786,0.8614001180894673,-1.6548785003364086
1761467527678027500,5.877027587890625,0.7555012644216418,0.6315564664535224,-2.2188830871731042
1761467527688010800,5.8870107421875,0.7213140403985977,0.4084846470400691,-2.5399071851640938
1761467527697993700,5.89699365234375,0.6074222882807254,0.32403204763531684,-2.735409298998117
1761467527707976700,5.906976806640625,0.6208189454704522,0.07341288060471415,-3.0198943491429087
1761467527717959700,5.916959716796875,0.8283739006698131,-0.3296998641386628,-3.4173522829949854
1761467527727943700,5.926943603515625,1.2278168708592652,-0.7121225798137486,-3.8397535194456576
1761467527737926700,5.9369267578125,1.7338742956399917,-0.9598891338922083,-4.176594195249677
1761467527747909600,5.94690966796875,2.4877619873851535,-1.124339545249939,-4.587569197800756
1761467527757892600,5.956892578125,3.062197659604251,-1.1794228423073887,-5.026022574386
1761467527767875600,5.96687548828125,3.4327827840998766,-1.1936783082835376,-5.300957705897092
1761467527777858800,5.97685888671875,3.8207197331517935,-1.0490030031062663,-5.526877169826626
1761467527787841500,5.986841552734375,4.039152640718221,-0.8739860434181987,-5.578261904627085
1761467527797824500,5.996824462890625,4.016355702498555,-0.7320303724631667,-5.518825965318084
1761467527807807700,6.006807861328125,3.800783737321198,-0.806510736168921,-5.387541179850698
1761467527817790700,6.016790771484375,3.5994027945816516,-0.897770969761908,-5.092309694764018
1761467527827773700,6.026773681640625,3.1286937465578317,-1.0605959718748927,-4.578704338821768
1761467527837757700,6.0367578125,2.1917098335653544,-1.1449509561240672,-3.6421430351555344
1761467527847740700,6.04674072265625,1.0839724635481833,-0.8828972257569432,-2.273968430057168
1761467527857723600,6.0567236328125,0.12833411896824837,-0.38395913146212696,-0.8321528346866369
1761467527867706600,6.06670654296875,-0.781789844149351,0.3243820301167667,0.40054420942962166
1761467527877689600,6.076689697265625,-0.9184536923065781,1.2562405629195272,1.8468974482297895
1761467527887672600,6.086672607421875,-1.5262842691272496,1.9714725069254635,3.1848218764930962
1761467527897655800,6.09665576171875,-2.4362679469913244,2.3336197656825184,4.57851495372951
1761467527907638500,6.106638427734375,-3.6684190476626157,2.43035463129431,6.090062841495871
1761467527917621500,6.11662158203125,-4.935356215032935,1.8586380087755618,7.353498722746968
1761467527927604700,6.126604736328125,-5.358175384634733,0.9104077484950422,8.24338127734661
1761467527937587700,6.136587646484375,-4.861382047283649,0.18939152199923992,8.844221264627576
1761467527947571700,6.14657177734375,-3.7989571064159273,-0.021651275315880774,8.93250219014883
1761467527957554700,6.1565546875,-3.135446435688436,0.13865999041050672,8.548744280347227
1761467527967537700,6.16653759765625,-2.6848236056208608,0.2525648942708969,7.827312751048803
1761467527977520600,6.176520751953125,-2.3154019719466565,0.14434768065810202,6.952827087545394
1761467527987503900,6.18650390625,-1.8685235891044139,-0.16574205860346555,6.138389942291378
1761467527997486600,6.196486572265625,-1.2281731369510291,-0.7126604860827326,5.243052044895291
1761467528007469600,6.206469482421875,-0.469000490540266,-1.3259636490955948,3.9283798974037167
1761467528017452800,6.216452880859375,0.2641062789827585,-1.7270687072783708,2.5280033968806266
1761467528027435500,6.226435546875,0.4182598988622427,-1.8953636652350425,1.3561322851270436
1761467528037418500,6.23641845703125,0.5691068784117699,-1.8937240813344716,0.1403442902356386
1761467528047402500,6.246402587890625,0.9297750045269727,-1.8436939760133624,-1.2762836723864077
1761467528057385700,6.2563857421875,1.1961328618288039,-1.6982774970799683,-2.5806267335653303
1761467528067368700,6.26636865234375,1.3587439289301633,-1.5298144890800118,-3.645281333181262
1761467528077351700,6.2763515625,1.4635703310608863,-1.3437544495910405,-4.335010733270645
1761467528087334700,6.286334716796875,1.603537604677677,-1.3335925365388392,-4.798688567483425
1761467528097317600,6.296317626953125,1.6848253103107214,-1.3909583915755153,-5.3497448254197835
1761467528107300900,6.30630078125,1.6433678030237555,-1.2926733739122747,-5.981657996356487
1761467528117283600,6.31628369140625,1.6099302283242345,-1.1425608461171388,-6.468336766928434
1761467528127266600,6.3262666015625,1.6989330383792518,-1.0423851924017071,-6.7199424607783556
1761467528137249800,6.336249755859375,1.9612544797718523,-1.1799956737592816,-6.966195103162526
1761467528147233800,6.34623388671875,2.384943125684559,-1.3673998213335872,-7.29245301015377
1761467528157216500,6.356216552734375,2.6791768319055436,-1.6114575840219854,-7.620962495464086
1761467528167200500,6.366200439453125,3.009554449175298,-1.6583774483680724,-7.86355486177504
1761467528177183700,6.376183837890625,3.2673698113203047,-1.4539032157883047,-7.747835894230008
1761467528187166500,6.38616650390625,3.5760236725598573,-1.1690382264152168,-7.339429280862212
1761467528197149400,6.3961494140625,3.7399309169515966,-0.5629819657906889,-6.489484768897294
1761467528207132700,6.406132568359375,3.1992110518515107,0.25807021368891,-4.875770053598284
1761467528217115600,6.41611572265625,2.2940049636527893,0.79933222284168,-3.1125299627423284
1761467528227098400,6.426098388671875,1.5655749537691472,0.8697314547136425,-1.4093798911899327
1761467528237081600,6.43608154296875,1.1378697656914591,0.6423486402332782,0.5301210219353437
1761467528247064600,6.446064697265625,1.0817734921991824,-0.017574819657206534,2.647060568937659
1761467528257048600,6.456048583984375,0.6086416009426117,-0.9175999980866908,4.787210895657539
1761467528267031600,6.466031494140625,-0.4083025684714317,-1.397540400314331,6.643053282365202
1761467528277014500,6.4760146484375,-1.6923077750205993,-1.5836758431270717,8.045344676598907
1761467528286997500,6.48599755859375,-4.724496080808342,-1.4332836216077207,8.814257503518462
1761467528296980700,6.495980712890625,-8.680812909668683,-0.3216355078876018,9.040306731307506
1761467528306963500,6.50596337890625,-10.636388174760341,2.335477668508887,8.715234819230437
1761467528316946400,6.515946533203125,-8.75728415493071,4.9479474010586735,7.764559650015831
1761467528326929700,6.5259296875,-5.203439580953121,6.112387486028671,6.303676950603723
1761467528336912600,6.53591259765625,-3.935402927908301,6.417362951016425,5.153654682564735
1761467528346895400,6.545895263671875,-3.580612169393897,6.324158597618341,4.8135348389595745
1761467528356878600,6.555878662109375,-2.7817934490323064,5.611991155749559,4.979515674754977
1761467528366862600,6.565862548828125,-1.8852642960250376,4.454570301891863,4.736822770678997
1761467528376845600,6.575845458984375,-0.9207304050669074,3.148407916331291,4.210858868423104
1761467528386828500,6.58582861328125,-0.11605039145648478,2.0883616872936486,3.3391853397309776
1761467528396811500,6.5958115234375,0.5451359279766679,1.1649793064132332,2.353212647163868
1761467528406794500,6.60579443359375,0.6503729567348957,0.24633491384014486,1.0953168643832205
1761467528416777700,6.61577783203125,0.8954396042048931,-0.48334378093034025,-0.31961189310550686
1761467528426760400,6.625760498046875,1.0791606793522834,-0.9485554005816579,-1.6381564981162546
1761467528436743400,6.635743408203125,0.855916572111845,-1.0950455000959336,-2.6052128932893273
1761467528446726700,6.6457265625,0.5075970554381609,-0.8770889778696,-3.383651088923216
1761467528456709600,6.655709716796875,0.485586006899178,-0.42375849627852435,-4.2145933787763115
1761467528466693600,6.665693603515625,0.7144061607062816,-0.11558920368552207,-4.916362176227569
1761467528476676400,6.67567626953125,1.302257487076521,-0.02004968533813953,-5.408641251024603
1761467528486659600,6.68565966796875,1.8417039712399244,-0.20598492940366267,-5.602434807375073
1761467528496642600,6.695642578125,2.219750517657399,-0.4443723913706839,-5.7633303027302025
1761467528506625500,6.70562548828125,2.5817957773447033,-0.7121176113776863,-5.958228605452179
1761467528516608500,6.7156083984375,3.261791426666081,-0.9199212806411087,-6.116942080593109
1761467528526591500,6.725591552734375,4.018556427413225,-1.033559350258857,-6.204726747030019
1761467528536574700,6.73557470703125,4.389699770313501,-1.154199115332216,-6.2431047007411715
1761467528546557400,6.745557373046875,4.5538592359006405,-1.0759379179134965,-6.289539119657873
1761467528556540400,6.75554052734375,4.948713124734163,-1.0365217071957886,-6.210124806681275
1761467528566523600,6.765523681640625,5.286221909058094,-1.0622117365084587,-6.127205115932226
1761467528576507600,6.775507568359375,4.753072771473229,-0.9894771935567259,-5.751335913553834
1761467528586490600,6.78549072265625,3.6729011615127325,-0.8305942070677876,-4.925977561312914
1761467528596473300,6.795473388671875,2.348391510617733,-0.8107624022640287,-3.5239807661116123
1761467528606456600,6.80545654296875,0.992878818693757,-0.733196347502619,-1.7061948460757732
1761467528616439600,6.815439453125,-0.06817804869115353,-0.7797711978033185,0.2564180625677109
1761467528626422500,6.825422607421875,-0.7051154775306582,-0.5907194291524589,1.6914613873243332
1761467528636405500,6.835405517578125,-0.8054314164996147,-0.4380446496538818,2.2366315098315477
1761467528646388500,6.845388427734375,-0.5771145360395312,-0.052352849180251355,2.4990175408929587
1761467528656371700,6.855371826171875,-0.7036456972390412,0.5286174855045974,3.1098072597801685
1761467528666354400,6.8653544921875,-0.9507587558448314,1.1232412286192177,4.328096423837542
1761467528676338400,6.87533837890625,-1.3976935450494288,1.3831554627396165,5.641209651449322
1761467528686321400,6.8853212890625,-2.5936352682203054,0.7974160139568149,6.87263945210874
1761467528696304600,6.8953046875,-4.15099856622219,-0.5083804609008133,7.570536961084604
1761467528706287600,6.90528759765625,-4.595409974429011,-1.6825398297220469,7.712346063175797
1761467528716270300,6.915270263671875,-3.673192837935686,-1.933590666168183,7.60845957224369
1761467528726253600,6.925253662109375,-2.439705520224571,-1.643049823115766,7.38531132659316
1761467528736236500,6.935236572265625,-1.969597360703349,-1.147120409117639,7.216233693826198
1761467528746219500,6.945219482421875,-2.245399922698736,-0.6064635262511671,6.980781846919656
1761467528756202500,6.955202392578125,-4.026788833707571,0.20881459987163542,6.492003473719954
1761467528766185500,6.965185546875,-5.065823838898539,0.8725069107763469,5.46890662689507
1761467528776168700,6.975168701171875,-4.110846880836784,1.0839259940579533,4.491760799384116
1761467528786152700,6.985152587890625,-2.290454869955778,0.9391163949765264,3.1739971156179903
1761467528796135400,6.995135498046875,-0.5015083831742405,0.5797244262769818,1.6371739168196915
1761467528806118400,7.005118408203125,0.5809396472856402,0.27375425116345287,0.21616846976578236
1761467528816101600,7.0151015625,1.4041156870514153,0.04296645054519176,-1.1466945849210024
1761467528826084600,7.025084716796875,2.401318214163184,-0.24900544822365045,-2.3351345541596413
1761467528836067300,7.0350673828125,3.0106723472893235,-0.48439840454980726,-3.2604993410289285
1761467528846050600,7.045050537109375,3.2406337800860405,-0.5349130785174667,-3.91757501027286
1761467528856033500,7.055033447265625,3.323112156808376,-0.40545711591243744,-4.285957071766257
1761467528866016500,7.0650166015625,3.405245665615797,-0.22970322025194762,-4.621374436768889
1761467528875999500,7.07499951171875,3.0269132879942653,-0.1286428926564753,-4.8623196203947066
1761467528885982500,7.084982421875,2.8130671236962077,0.08545783092454075,-4.97585481415987
1761467528895966500,7.094966552734375,2.885671464397013,0.22227438542544842,-5.071918648642301
1761467528905949700,7.10494970703125,2.9673902549237012,0.30320100266113875,-5.418261896806955
1761467528915932400,7.114932373046875,3.079820702317357,0.19861644646227358,-5.787036757010221
1761467528925915400,7.124915283203125,3.1116315525978804,0.1480327989116311,-6.075228844979405
1761467528935898600,7.134898681640625,3.16894392388165,-0.0574500261887908,-6.397822968766093
1761467528945881600,7.144881591796875,3.069046210324764,-0.23529373373538254,-6.5862266487717624
1761467528955864300,7.1548642578125,2.8362407862737773,-0.295898132301867,-6.486052456361055
1761467528965847600,7.16484765625,2.5136072072595357,-0.19651158313751219,-6.121474463325739
1761467528975830500,7.17483056640625,1.9712246696442364,0.20036738178282976,-5.264409305700659
1761467528985813500,7.1848134765625,1.531382469049096,0.4713390164904296,-4.207877806785702
1761467528995796500,7.19479638671875,1.1422291299447416,0.399261330012232,-3.004168372222781
1761467529005780500,7.204780517578125,0.8380848550841212,0.038569092369079586,-1.3897481390029192
1761467529015763500,7.214763427734375,0.012300678646564483,-0.3972622651495039,0.7260626962304115
1761467529025746700,7.22474658203125,-1.6194553047776221,-0.7800605361387133,3.2231010460048912
1761467529035729400,7.2347294921875,-3.52486164059937,-1.071824345114827,5.664245659121871
1761467529045712400,7.24471240234375,-4.811653847518563,-0.916741919952631,7.635266915148496
1761467529055695600,7.254695556640625,-5.26017561365366,-0.567704025876522,8.351455283096433
1761467529065678600,7.2646787109375,-4.959267836496234,-0.5107704247772693,7.8543083100020885
1761467529075661300,7.274661376953125,-4.830860652291775,-0.28500907401889564,6.837714269199967
1761467529085644500,7.28464453125,-5.089801511335373,0.47133945488184686,5.96915741122365
1761467529095627500,7.29462744140625,-5.796030210804939,1.9181869069397448,5.317948003664612
1761467529105610500,7.304610595703125,-6.394912634277343,3.0472236700952053,4.653576332193613
1761467529115594800,7.3145947265625,-6.338879781410098,3.491822709828615,3.935184901243448
1761467529125577500,7.324577392578125,-5.425452685093879,3.228084971897304,3.2607758198827503
1761467529135560400,7.334560546875,-3.7412510596394535,2.5777801119625567,2.6040578780353068
1761467529145543700,7.344543701171875,-2.3063813378840683,1.7549822578594088,1.9089824407428502
1761467529155526700,7.354526611328125,-1.2861737827599047,0.9069182989440858,1.1552625067800282
1761467529165508600,7.364508544921875,-0.21247429142296312,0.2645078455209732,0.4832604865610599
1761467529175491600,7.37449169921875,0.6503560056000948,-0.13642229448631404,-0.2462736851722002
1761467529185474600,7.384474609375,1.4452081604182718,-0.39635450265482064,-1.028676108261943
1761467529195457500,7.39445751953125,2.017500098606944,-0.5867088783368468,-1.753165271565318
1761467529205440500,7.4044404296875,2.1206091754257677,-0.6701734896175563,-2.3870178861320017
1761467529215423500,7.414423583984375,1.976602271029353,-0.7111980123147368,-2.8485493559658526
1761467529225407500,7.424407470703125,1.5434557686805723,-0.5926011512458325,-3.1309903330624103
1761467529235390500,7.434390380859375,1.1002069745123386,-0.2823601669453084,-3.1893086665183303
1761467529245373400,7.44437353515625,0.5771826328396796,0.07755977115109562,-3.223787859225273
1761467529255356700,7.454356689453125,0.3478746955156326,0.23870894900634884,-3.2138246836155653
1761467529265339600,7.464339599609375,0.4228688539624214,0.22369974205344914,-3.1449358563065526
1761467529275322400,7.474322265625,0.8830348806619643,0.02795899715796113,-3.0555098524034023
1761467529285305600,7.4843056640625,1.4937345831781625,-0.15096183810085056,-3.022010902905464
1761467529295288600,7.49428857421875,2.046661311161518,-0.3234843506246805,-3.084363606444001
1761467529305271600,7.504271484375,2.3491788616031406,-0.4931602415457368,-3.264356016457081
1761467529315254500,7.514254638671875,2.462062897983193,-0.5574833683744073,-3.554830077883601
1761467529325237500,7.524237548828125,2.7425094863921404,-0.5081964826360345,-3.8503245978206393
1761467529335221500,7.534221435546875,2.832127213475108,-0.429011009979248,-3.9852152988255023
1761467529345204500,7.54420458984375,2.9138527260035274,-0.2465823127299547,-3.9403310319602487
1761467529355187500,7.5541875,3.202647456040978,-0.12869739932268856,-3.7430081324398516
1761467529365170400,7.56417041015625,3.3471307457774877,-0.08553542620539664,-3.556557340067625
1761467529375153700,7.574153564453125,3.277513019672036,-0.03924304610788822,-3.201211870279908
1761467529385136600,7.58413671875,3.072610624808073,-0.07411211491525173,-2.719990196070075
1761467529395119400,7.594119384765625,2.908745758253336,-0.31957156109511853,-1.959834091579914
1761467529405102600,7.6041025390625,1.9742893179118632,-0.4807914660990238,-0.8421376376062631
1761467529415085600,7.61408544921875,1.0395546451509,-0.6076204412013292,0.54223173096776
1761467529425068500,7.624068603515625,0.03246083862185478,-0.7537003524795174,1.9341747496664523
1761467529435051500,7.634051513671875,-1.198407821023464,-1.0502823753923176,2.9639357305556535
1761467529445035500,7.644035400390625,-1.967118987891078,-1.442867734771967,3.4642537349015474
1761467529455018500,7.6540185546875,-2.8335376647949215,-1.4418778469517826,3.992219040107727
1761467529465001500,7.66400146484375,-3.378223803177476,-0.9259187674902379,4.715571892857551
1761467529474984700,7.673984619140625,-3.4642531503796574,-0.1973844204492867,5.161903455471992
1761467529484967400,7.683967529296875,-2.9791788923949003,0.3459671083286404,4.969281280988454
1761467529494950700,7.69395068359375,-2.4235569339781997,0.6486493478126824,4.453551187977195
1761467529504933600,7.70393359375,-2.4726275466173884,0.8458899758771061,4.287526513040065
1761467529514916400,7.713916259765625,-2.814720736122131,0.9200456376731395,4.629389985442161
1761467529524899600,7.723899658203125,-3.0262025093764064,0.9678741412967443,5.435585372051596
1761467529534882600,7.733882568359375,-3.3869209043741226,1.0798239655666053,6.188699156814813
1761467529544865500,7.743865478515625,-3.9133991858929393,1.065118856126815,6.63516925111711
1761467529554849500,7.753849609375,-4.286946667325497,0.4936052088342607,6.299746040895581
1761467529564832500,7.76383251953125,-3.4532676459848877,-0.15173822930082678,5.159530881121754
1761467529574815500,7.7738154296875,-1.8265613471657036,-0.7499908304370939,3.280804462432861
1761467529584798500,7.783798583984375,0.22186697366833685,-1.0430379572220145,1.24129185398221
1761467529594781700,7.79378173828125,1.7672814752012491,-0.9952844185307621,-0.680177143368125
1761467529604764400,7.803764404296875,2.495728436219692,-0.968515215679258,-2.359436051723361
1761467529614747600,7.81374755859375,2.7012100922763347,-1.0179717588961124,-3.7641198940515515
1761467529624730600,7.823730712890625,2.800968689623475,-1.021918012303859,-4.956829211172461
1761467529634713300,7.83371337890625,3.3051772716671226,-0.8942562396392225,-5.968493978878855
1761467529644696600,7.843696533203125,4.006771297073364,-0.721777858518064,-6.603665274828672
1761467529654679600,7.853679443359375,4.5467216391056775,-0.5094517433941363,-6.866438259381056
1761467529664663600,7.86366357421875,4.751760227569937,-0.3673332830928266,-7.021129639399051
1761467529674646500,7.873646484375,4.748341359037161,-0.29886107376068827,-7.007827674755454
1761467529684629500,7.88362939453125,4.792109189093113,-0.4107449931874871,-6.876441767001151
1761467529694612500,7.893612548828125,5.207120899814367,-0.6769542357988655,-6.77866352981627
1761467529704595500,7.903595458984375,5.655403596496582,-0.720032183894515,-6.631222559317946
1761467529714578700,7.91357861328125,5.5519952444702385,-0.5274753297321498,-6.440561455774307
1761467529724561400,7.9235615234375,5.204027609974146,-0.27090748343020676,-6.044125266185403
1761467529734544600,7.933544677734375,4.236968292191625,0.1292532796397805,-5.112902400937676
1761467529744527600,7.943527587890625,3.022312516200542,0.16020225239396094,-3.7284652278244494
1761467529754510600,7.953510498046875,1.2640922993332147,0.06707184101492167,-2.119226196634769
1761467529764493600,7.96349365234375,-0.44539340498149393,0.06252835236638785,0.1920142717182636
1761467529774477600,7.9734775390625,-3.077088647004962,0.000173018479347229,3.36527313618958
1761467529784460500,7.98346044921875,-6.346376274645328,0.5435659021809697,6.942249579429626
1761467529794443500,7.993443603515625,-7.758693972852826,0.894270268164575,9.30093276695907
1761467529804426500,8.003426513671876,-8.343415769025682,1.1349988864302634,9.42971229160726
1761467529814409500,8.013409423828126,-7.9820304345518345,0.7456660991057753,7.779336947908997
1761467529824392400,8.023392333984376,-6.973130455383658,0.25675445491522547,5.685457373976707
1761467529834375700,8.033375732421876,-6.461099216890335,0.43744624536931515,4.251208414468169
1761467529844358400,8.0433583984375,-6.144509886476397,1.3332377317517996,3.592740414083004
1761467529854341600,8.053341552734375,-5.555844321113825,2.436139644436538,3.242829244303703
1761467529864324600,8.06332470703125,-5.023569336014986,2.9587095203399656,2.744551805874705
1761467529874307600,8.0733076171875,-4.302449356883764,3.1506098102897404,2.249630107614398
1761467529884291300,8.083291259765625,-3.138010440957546,3.080724957680702,1.9289736738920211
1761467529894274600,8.093274658203125,-2.2004484358161687,2.649948107072711,1.7159031701415777
1761467529904257500,8.103257568359375,-1.4538193368971346,1.8001701838463544,1.2515057894825934
1761467529914240500,8.113240478515625,-0.6136451083183289,0.9634149699307978,0.7260545129239558
1761467529924223500,8.123223388671875,0.23714637586474419,0.2913853310525417,0.216432089138031
1761467529934206500,8.13320654296875,0.957066916078329,-0.11105433673486113,-0.3757435301721096
1761467529944189400,8.143189453125,1.3821516925245523,-0.37331104232817885,-1.199788461726904
1761467529954172700,8.153172607421874,1.6193208647429942,-0.4649221351854503,-1.9718436783254145
1761467529964155400,8.1631552734375,1.362552673563361,-0.40620150453895326,-2.4562679479688403
1761467529974138600,8.173138671875,0.6040741468966007,-0.17564619750231503,-2.615051565736532
1761467529984121600,8.18312158203125,-0.13236030574440955,-0.0011073767200112342,-2.6748224360883235
1761467529994104600,8.1931044921875,-0.6420166317999363,-0.002620265500992536,-2.7268770329743623
1761467530004088600,8.203088623046876,-0.5515770669400691,-0.14104250163286924,-2.812024336645007
1761467530014071600,8.213071533203125,-0.014269932892918585,-0.3061655515551567,-2.9764105967253447
1761467530024054500,8.223054443359375,0.5972352407872676,-0.4890329324826598,-3.106794049438834
1761467530034037500,8.23303759765625,1.454687936425209,-0.6103124567642808,-3.2382664664328096
1761467530044020500,8.2430205078125,2.6426211251854896,-0.7842866294011474,-3.4043788196533917
1761467530054003500,8.25300341796875,3.619047990772128,-0.8795122594937682,-3.5125194608986376
1761467530063986400,8.262986328125,4.319510381799936,-0.9443991576850413,-3.677909345063567
1761467530073969700,8.2729697265625,4.880041155046224,-0.9281409735843539,-3.8194115731626748
1761467530083952400,8.282952392578125,4.96837644110322,-0.9300967838272451,-3.8091263259917496
1761467530093935600,8.292935546875,4.753758123388886,-1.126273435921967,-3.577186286598444
1761467530103918600,8.302918701171874,4.3200417121976615,-1.3134890751868487,-3.0796891848921772
1761467530113902600,8.312902587890624,3.9326434000670907,-1.2966001919671892,-2.4233172800034284
1761467530123885600,8.322885498046874,3.089870387166738,-1.255253743839264,-1.7476625824958085
1761467530133868500,8.33286865234375,2.220875137773156,-1.1723609410971403,-1.0899380939543246
1761467530143851500,8.3428515625,1.3544132062494754,-0.9492483512818812,-0.1475204654753208
1761467530153834500,8.35283447265625,0.6323048006027937,-0.5745613444253802,0.9826941092878579
1761467530163818200,8.362818359375,-0.08791384577453136,-0.07671703671663999,2.026133486917615
1761467530173801200,8.37280126953125,-0.868654473131895,0.35074002181887626,2.682843245458603
1761467530183784200,8.3827841796875,-1.1380407383441924,0.3921671339675784,2.8554069667756554
1761467530193767200,8.39276708984375,-0.874318490242958,0.12925766355395316,2.8272230748206377
1761467530203750100,8.402750244140625,-0.702609339928627,-0.13855214612185954,2.716256270238757
1761467530213733000,8.412733154296875,-0.9346388111710547,-0.15824980315193532,2.7643238433152435
1761467530223717000,8.422717041015625,-1.1122264981299639,0.19653116462081668,2.9535435158789154
1761467530233700000,8.4327001953125,-1.4594050280749797,0.6533391130641102,3.113107470369339
1761467530243683000,8.44268310546875,-2.3373662587344644,1.2578640724681318,3.3428146361440416
1761467530253666000,8.452666015625,-3.585986848169565,1.6865778530664741,3.8855075548827647
1761467530263649300,8.462649169921875,-4.2154426890820265,1.9949254248358308,4.450508751541376
1761467530273632000,8.472632080078125,-4.425792535696924,2.098797448851168,5.120287835013866
1761467530283615200,8.482615234375,-4.356461809839308,1.9983393249325454,5.385823854538798
1761467530293598200,8.49259814453125,-3.313897461478412,1.631911758507788,5.028545370861887
1761467530303581200,8.502581298828124,-1.8399638495743273,1.0861534608490764,4.316977063930034
1761467530313564200,8.512564208984376,-0.4871630469575524,0.26096213573813437,3.240479466307163
1761467530323547100,8.522547119140626,0.6298094766557216,-0.4609899103030562,2.0254554415255783
1761467530333531100,8.53253125,1.708994413666427,-0.849259306179732,0.8080658566564322
1761467530343514000,8.54251416015625,2.265493447178602,-1.1899272851869462,-0.006599252134561538
1761467530353497300,8.552497314453126,2.1284651496231555,-1.6749197101071476,-0.6336012701541185
1761467530363480000,8.56247998046875,2.3799741051003336,-2.1593116849161684,-1.1181307537376879
1761467530373463000,8.572463134765625,1.109950662152469,-2.1973886098541318,-1.7972995968461036
1761467530383446300,8.5824462890625,-0.02173077029287815,-2.0628869081668553,-2.8015888673484324
1761467530393429000,8.592428955078125,0.8496446522355079,-1.8225272693440318,-3.8197663779497146
1761467530403412200,8.602412109375,1.7514540837332606,-1.6841627547487616,-4.839620297330618
1761467530413395200,8.612395263671875,2.398153320391476,-1.6694747425742447,-6.0498471509635445
1761467530423378200,8.622378173828125,2.301116841484606,-1.7364070289880036,-7.259633859613538
1761467530433361200,8.632361083984375,2.2985627730876206,-1.7166010892778634,-8.197699138101935
1761467530443344100,8.64234423828125,1.9311717684581875,-1.481567321652919,-8.646152515175938
1761467530453328100,8.652328125,1.6146423515379429,-0.9900134923905134,-8.982396978652476
1761467530463311000,8.66231103515625,1.7812883732438087,-0.5456935618594289,-9.160585554113984
1761467530473294300,8.67229443359375,1.4866165678665042,-0.1339572195470333,-8.982219283998012
1761467530483277000,8.682277099609376,1.1660364142507313,0.26569354817420243,-8.570849144649506
1761467530493260000,8.692260009765626,1.5562141279667614,0.6686074093446135,-7.565653865218162
1761467530503243300,8.7022431640625,2.0382067865490914,1.0843436349481343,-5.747525999876856
1761467530513226200,8.712226318359376,1.5907564490377901,1.1779366954028605,-3.7664942219674584
1761467530523209200,8.722209228515625,0.9485089310914278,0.8531739954054355,-1.748931579518318
1761467530533192200,8.732192138671875,0.6896224325835705,0.4891681031696498,0.5054775790661573
1761467530543175200,8.742175048828125,0.7820072862923145,0.279717397351563,3.0685581345468758
1761467530553158100,8.752158203125,0.36229485053420063,0.3104989045843482,6.030312429410219
1761467530563141000,8.76214111328125,-0.22331688021570442,-0.03299786810800433,8.329836741006375
1761467530573125000,8.772125,-1.5682009183585643,-0.6412151061587035,9.421103453215956
1761467530583108000,8.782108154296875,-3.5310745237648486,-0.8904046787776052,9.806564659804105
1761467530593091300,8.79209130859375,-5.731341173273325,-0.9580822306007146,9.779138308218121
1761467530603074000,8.802073974609375,-8.274017238628863,0.2837405153878033,10.085948587417603
1761467530613057000,8.81205712890625,-9.395250050035118,2.6629145561516285,10.197004239326715
1761467530623040300,8.822040283203124,-9.251382846370339,4.35928475830555,9.256002322864532
1761467530633023200,8.832023193359374,-7.445392578068375,4.899610947912931,8.129977016484737
1761467530643006200,8.842006103515626,-4.9542736814707515,4.82010895665288,6.951581471398472
1761467530652989200,8.8519892578125,-3.788105457533896,4.113509085783362,5.864079080158472
1761467530662972200,8.86197216796875,-3.167726949307322,3.188095491336286,4.637767937687039
1761467530672955100,8.871955078125,-1.0428688842654228,2.5581752477824686,3.4268256292611357
1761467530682938000,8.881938232421875,1.2859037336468695,1.995703861862421,2.193058325564861
1761467530692922000,8.891922119140625,2.9134195952832695,1.4188419854097067,0.8081792539030312
1761467530702905000,8.901905029296875,3.6401229275047777,0.7525545434452593,-0.7586772641092538
1761467530712888300,8.911888427734375,3.5864112110614776,-0.06284545549154281,-2.184189959454536
1761467530722871000,8.92187109375,2.792102077078819,-0.767444507932663,-3.165280725198984
1761467530732854000,8.93185400390625,1.6178279958367348,-0.90555358646214,-3.983328462165594
1761467530742837200,8.941837158203125,0.8020330062329769,-0.5551954035677016,-4.60697474001646
1761467530752820200,8.9518203125,0.4100456127464771,-0.07005962465405463,-4.965477797052264
1761467530762803200,8.96180322265625,0.5640697610273957,0.23304376285150646,-5.259211152535677
1761467530772786200,8.9717861328125,1.0474483210101724,0.3615430092535913,-5.755049965640902
1761467530782769200,8.98176904296875,1.692643875107169,0.16478125074729322,-6.298859905710816
1761467530792752400,8.99175244140625,2.6162849069237706,-0.02660977450609207,-6.791927500537038
1761467530802736000,9.001736083984374,3.428531556396186,-0.20409999243989585,-7.0689604811102145
1761467530812719000,9.011718994140624,4.281574911159277,-0.3151139971643686,-7.1927920279622075
1761467530822702000,9.0217021484375,5.127947409856319,-0.3715169985182583,-7.2379668022066355
1761467530832685300,9.031685302734376,5.715229411906003,-0.3835791922338307,-7.134699904477596
1761467530842668000,9.04166796875,5.725850759163499,-0.48835883261337876,-6.716636404970288
1761467530852651000,9.051651123046875,5.320006689760088,-0.3723701082162559,-5.945963582640886
1761467530862634200,9.06163427734375,4.656925642621517,-0.10181202274560927,-5.0374347797602415
1761467530872617200,9.0716171875,4.005280181732774,0.08044321763291955,-4.173956832483411
1761467530882600200,9.08160009765625,3.22821327445209,-0.19470935602113604,-3.159107005000114
1761467530892583200,9.091583251953125,1.9769635055571793,-0.5297695781491697,-1.7883330310583114
1761467530902566100,9.101566162109375,0.1714367631137371,-0.7030068148136138,-0.22128362082242964
1761467530912549400,9.11154931640625,-1.4839806664049624,-0.8174401264622807,1.1272148084253073
1761467530922533000,9.121533203125,-2.5688696602761745,-0.7421794260337948,2.2864298522233963
1761467530932516000,9.13151611328125,-3.2312913667231795,-0.13146861760169268,3.5892817980617284
1761467530942499000,9.1414990234375,-3.3024154057383535,0.8364894025862216,5.127269364464283
1761467530952482300,9.151482421875,-3.3018910896033047,1.556445452504605,6.554715073698759
1761467530962465000,9.161465087890624,-3.632643969926238,1.5050085491254925,7.45685388328135
1761467530972448000,9.171447998046874,-4.175533288019896,0.5479464553527533,7.700521185347437
1761467530982431200,9.18143115234375,-4.722655129116774,-1.1846820780098437,7.575296722832322
1761467530992414200,9.191414306640626,-4.734423892843723,-2.596986916735768,7.124791089403629
1761467531002397200,9.201397216796876,-4.405710993915796,-3.0731098065018654,6.825002671664953
1761467531012380200,9.211380126953125,-4.257012716832757,-2.70770880664587,6.930892319113016
1761467531022363100,9.221363037109375,-3.8415626146942374,-2.3128980263017116,6.726395582440495
1761467531032347100,9.23134716796875,-3.227174579054117,-1.910041156015545,6.046793024089932
1761467531042330400,9.241330322265625,-2.7969425028473136,-1.6734730184301734,5.013049695566297
1761467531052313000,9.25131298828125,-2.318259991726279,-1.4446988957218825,3.757082250499725
1761467531062296000,9.261296142578125,-2.2766923020631076,-1.1264585832305252,2.451727966451645
1761467531072279300,9.271279296875,-2.322240001273155,-0.996842900019139,1.2704127345263958
1761467531082262000,9.281261962890625,-1.7358359511017798,-0.8687618790291249,0.22843232353329657
1761467531092245000,9.291244873046875,-0.8453320497334003,-0.8278281033553183,-0.7692787376224994
1761467531102228200,9.301228271484375,0.08936521362662316,-0.7738019141353666,-1.59329327403903
1761467531112211200,9.311211181640624,0.8859118974030017,-0.66661828135401,-2.1623019527733325
1761467531122194200,9.321194091796874,1.7388976767599582,-0.45282209367752074,-2.566768304082751
1761467531132177200,9.33117724609375,2.4711259098827836,-0.24169483294934033,-2.73505040255785
1761467531142161200,9.3411611328125,3.0083430275589227,-0.09322145066335796,-2.847271006593108
1761467531152144100,9.35114404296875,3.4319945563316345,0.05177241894379258,-3.066117755657434
1761467531162127000,9.361127197265626,3.870445010307431,0.21907997329831122,-3.374555928319692
1761467531172110000,9.371110107421876,4.253704907459021,0.31613501077517864,-3.7633839809924363
1761467531182093000,9.381093017578126,4.407049549043179,0.42992651738896964,-4.113564615362883
1761467531192076300,9.391076171875,4.486891732043028,0.6379926369808614,-4.503405059948563
1761467531202059000,9.40105908203125,4.564281261193752,0.8307005900517106,-4.9522325310319655
1761467531212042000,9.4110419921875,4.698614328315854,0.8423822600170969,-5.329837763422727
1761467531222025200,9.421025146484375,4.710086154922843,0.9038403528034686,-5.577648156642914
1761467531232008200,9.43100830078125,4.59108509696722,0.942373643206805,-5.739277226969599
1761467531241992000,9.440991943359375,4.480991568088531,0.9964346114791929,-5.911354041552543
1761467531251975200,9.45097509765625,4.207679653865099,1.1140556132532655,-5.781075218257308
1761467531261958100,9.460958251953125,3.8012949017137285,1.2830004134207964,-5.499688134127855
1761467531271941000,9.470941162109375,3.239457722043991,1.1912727084465324,-5.127319633346795
1761467531281924000,9.480924072265625,2.4563766690403224,0.9127906981088221,-4.236805210584402
1761467531291907000,9.490906982421874,1.3257681265234946,0.5699379224084318,-2.725178996884823
1761467531301890000,9.50089013671875,-0.4011094420969486,0.09218217074349522,-1.213287410247326
1761467531311873300,9.510873291015624,-2.342843228840828,-0.7113521799631416,0.549059531161189
1761467531321856000,9.52085595703125,-3.7865076669484377,-1.2647396573260425,2.764373527675867
1761467531331839000,9.5308388671875,-4.9938440598368645,-1.5080563923887909,4.997485631209612
1761467531341822200,9.540822265625,-5.516023182857036,-1.6071728924401103,6.415960098481178
1761467531351805200,9.55080517578125,-5.464525635331869,-0.9108407330848276,6.938436743143201
1761467531361789200,9.5607890625,-5.263658195072412,-0.026051556101441383,6.784304750573635
1761467531371772200,9.570772216796875,-5.088018719571829,0.6023311026215553,6.4450979301601645
1761467531381755100,9.580755126953125,-4.822109775081277,1.103607284475118,6.505919186347723
1761467531391738000,9.590738037109375,-4.623978481787443,1.68553185114488,6.656847998961806
1761467531401721000,9.60072119140625,-4.257649261170625,2.0985398208282886,6.534675909754633
1761467531411704000,9.6107041015625,-3.6694676799327133,2.238450834213197,5.989139876544475
1761467531421687000,9.62068701171875,-3.2581162452846764,2.1775198340408504,5.023011117610335
1761467531431670300,9.630670166015625,-2.9937703123271464,1.909639151085913,3.929311625295877
1761467531441653000,9.640653076171875,-2.862381481963396,1.6768598843894897,3.071587711501121
1761467531451636000,9.650635986328124,-2.600730779439211,1.377757110827416,2.2297511026680468
1761467531461619200,9.660619140625,-1.6986434077829122,1.0293092915989457,1.1591805570065974
1761467531471603200,9.670603271484374,-0.6580553279310465,0.711955698814243,0.1413034906566143
1761467531481586200,9.680586181640624,0.26610359027981756,0.4830651101194322,-0.8958101910829543
1761467531491569200,9.690569091796876,0.9478285476118326,0.22768340486213565,-1.9857208125084638
1761467531501552000,9.70055224609375,1.5454945810317993,0.12490809004232287,-2.9817057805240155
1761467531511535000,9.71053515625,1.986167971754074,0.07907105249688029,-3.7349873230695723
1761467531521518000,9.72051806640625,2.2195541183024643,0.13723784865289926,-4.315397101262212
1761467531531501000,9.7305009765625,2.1010195088148116,0.23276333847492933,-4.637451126822829
1761467531541484000,9.740484130859375,1.8479630316346882,0.344312765250355,-4.713656414625048
1761467531551467300,9.75046728515625,1.9998679958045482,0.20470804133564233,-4.868466452586651
1761467531561450000,9.760449951171875,2.132878874412179,-0.1172980534300208,-4.981418293505906
1761467531571434000,9.77043408203125,2.383932779598236,-0.4914072603985667,-4.989768188700079
1761467531581417000,9.7804169921875,2.889045032483339,-0.5562522191442549,-5.057820565184951
1761467531591400200,9.790400146484375,3.6627573686391113,-0.4777583820134401,-5.114581147804856
1761467531601383200,9.800383056640625,4.483243730929494,-0.3300625599712133,-5.176089801734686
1761467531611366100,9.8103662109375,4.894377723434567,-0.4351614954330027,-5.270685317230225
1761467531621349000,9.82034912109375,4.965874102893472,-0.6550498625047505,-5.094111775749922
1761467531631332000,9.83033203125,4.642121456721425,-0.9403960595235228,-4.425176157364249
1761467531641315300,9.8403154296875,4.103398026135563,-1.3391818809784948,-3.693094054713845
1761467531651298000,9.850298095703126,3.7956969355762005,-1.6307063282407819,-2.732133053806424
1761467531661281000,9.860281005859376,3.4564760866373776,-1.6895000241234897,-1.575810808840394
1761467531671264300,9.87026416015625,2.4363252301365135,-1.6332682876832783,-0.4849433250814676
1761467531681248300,9.880248291015626,0.4326578420490026,-1.524650968836993,0.5757844564795493
1761467531691231000,9.89023095703125,-1.8122043205112217,-1.340633394961059,1.4420365446448324
1761467531701214000,9.9002138671875,-3.4188194329380988,-0.8455300565235316,2.0144272670328616
1761467531711197200,9.910197265625,-4.059103541857004,0.15487521215230227,2.679888487306237
1761467531721180200,9.92018017578125,-4.270926091372966,1.090860761757195,3.588976677635312
1761467531731163100,9.9301630859375,-4.284744188845157,1.396687875138223,4.5640059513837095
1761467531741146000,9.94014599609375,-4.168201629957556,0.992620606148988,5.420203678524494
1761467531751129000,9.950129150390625,-4.145581801870465,0.15938523692265152,5.980610533130169
1761467531761112300,9.9601123046875,-4.267663874706626,-0.813783211389929,5.922369941085576
1761467531771095000,9.970094970703125,-3.8032863677918907,-1.9652862195059655,5.55654165572822
1761467531781078000,9.980078125,-3.6101024677723643,-2.547714351783693,5.053029239255189
1761467531791062000,9.99006201171875,-3.9585301209956407,-2.258049853174388,4.7694297397732734
1761467531801045200,10.000045166015624,-4.192283347290754,-2.0213677338205276,4.452390327504277
1761467531811028000,10.010028076171874,-3.720446172019839,-1.6442869636952877,3.894502177721262
1761467531821011000,10.020010986328124,-2.443098669794202,-1.462030408142507,3.0811656871855257
1761467531830994200,10.029994140625,-1.2218968331605196,-1.2278284151665866,2.102217778688669
1761467531840977200,10.03997705078125,-2.556542093622684,-0.4944533500961959,1.6180670652896165
1761467531850960100,10.049960205078126,-2.759601490968466,-0.6026853228867054,0.6272685600012541
1761467531860943000,10.059943115234375,-1.5599106443971396,-0.7738127277903258,0.17116729852259158
1761467531870926000,10.069926025390625,-0.2768628847032785,-0.5887671260409056,-0.27253333106637
1761467531880909300,10.079909423828125,0.446422748029232,-0.49360257848575706,-0.8597674023211002
1761467531890892000,10.08989208984375,0.8765496102958917,-0.33758608734384177,-1.2661919019609689
1761467531900876000,10.0998759765625,1.070742979618907,-0.230976308927685,-1.6271125415325163
