time,seconds_elapsed,z,y,x
1761467592910540300,0.117540283203125,0.22324687242507935,0.04002736881375313,-0.1674400418996811
1761467592920523500,0.1275234375,0.29193514585494995,-0.020749693736433983,-0.1963510513305664
1761467592930506200,0.13750634765625,0.3508349657058716,0.02478025294840336,-0.1628647744655609
1761467592940489200,0.1474892578125,0.4053370952606201,0.16868096590042114,-0.06502451002597809
1761467592950473200,0.15747314453125,0.47437959909439087,0.3985806405544281,0.0759229063987732
1761467592960456400,0.16745654296875,0.5914402008056641,0.5621578693389893,0.2073773443698883
1761467592970439400,0.177439453125,0.7492230534553528,0.723101794719696,0.31235602498054504
1761467592980422100,0.187422119140625,0.841411828994751,0.8060560822486877,0.40672993659973145
1761467592990405400,0.1974052734375,0.8520926237106323,0.8917898535728455,0.4313635230064392
1761467593000388400,0.207388427734375,0.8541501760482788,0.9338421821594238,0.4079069197177887
1761467593010371300,0.217371337890625,0.8718228936195374,0.9244582653045654,0.304216593503952
1761467593020354300,0.227354248046875,0.9380471706390381,0.9215810298919678,0.09445083886384964
1761467593030337300,0.237337158203125,1.0171172618865967,0.9375995397567749,-0.18634188175201416
1761467593040320500,0.247320556640625,0.9598787426948547,0.9963435530662537,-0.5134332180023193
1761467593050303200,0.25730322265625,0.7516299486160278,1.0372408628463745,-0.8535822629928589
1761467593060286200,0.2672861328125,0.4777429699897766,1.169886589050293,-1.1226457357406616
1761467593070269400,0.27726953125,0.2389671355485916,1.2562413215637207,-1.2772743701934814
1761467593080252400,0.28725244140625,0.08224169909954071,1.4659106731414795,-1.304231882095337
1761467593090235100,0.297235107421875,-0.1695619523525238,2.0170512199401855,-1.2849618196487427
1761467593100219100,0.30721923828125,-0.5319268107414246,2.796290636062622,-1.1307440996170044
1761467593110202400,0.317202392578125,-0.8881350755691528,3.423076629638672,-0.8404449820518494
1761467593120185300,0.327185302734375,-1.1126583814620972,3.6237974166870117,-0.4673027992248535
1761467593130168300,0.337168212890625,-1.2224531173706055,3.7933332920074463,-0.07493439316749573
1761467593140151300,0.3471513671875,-1.3823213577270508,3.3261215686798096,-0.15783247351646423
1761467593150134300,0.35713427734375,-1.4364036321640015,2.3850934505462646,-0.5716471672058105
1761467593160117500,0.367117431640625,-1.1295164823532104,2.0779013633728027,-0.7156474590301514
1761467593170100500,0.3771005859375,-0.6972638368606567,2.1729648113250732,-0.8002191781997681
1761467593180083200,0.387083251953125,-0.32068881392478943,2.0468082427978516,-1.0012691020965576
1761467593190066400,0.39706640625,0.1370503008365631,1.966609001159668,-1.0625478029251099
1761467593200049400,0.40704931640625,0.5047177672386169,1.9087576866149902,-1.1202558279037476
1761467593210032000,0.4170322265625,0.7303486466407776,2.1102659702301025,-1.0253314971923828
1761467593220015400,0.427015380859375,0.9253809452056885,2.1483800411224365,-0.851283073425293
1761467593229998300,0.436998291015625,1.2515066862106323,2.037858009338379,-0.7195817232131958
1761467593239982300,0.446982421875,1.4234689474105835,2.2349560260772705,-0.6275562047958374
1761467593249965300,0.45696533203125,1.5081406831741333,2.316311836242676,-0.8185076117515564
1761467593259948300,0.4669482421875,1.5052272081375122,1.9185978174209595,-1.0050737857818604
1761467593269931300,0.47693115234375,1.5009812116622925,-0.03489444777369499,-0.6857325434684753
1761467593279914200,0.486914306640625,1.368786334991455,-0.09334684163331985,-0.8953837752342224
1761467593289897200,0.496897216796875,1.3217889070510864,0.25986817479133606,-1.252414584159851
1761467593299880200,0.506880126953125,1.2188193798065186,0.06403526663780212,-1.7544851303100586
1761467593309863400,0.516863525390625,1.1847941875457764,0.02192329615354538,-2.349782943725586
1761467593319846100,0.52684619140625,1.2523404359817505,0.06397886574268341,-2.948758602142334
1761467593329829000,0.5368291015625,1.2731695175170898,-0.06958931684494019,-3.371974229812622
1761467593339812400,0.546812255859375,1.1423345804214478,-0.22055646777153015,-3.5723814964294434
1761467593349795300,0.55679541015625,0.876919150352478,-0.23150697350502014,-3.5898542404174805
1761467593359778000,0.566778076171875,0.6308438181877136,0.004762542899698019,-3.628471851348877
1761467593369761300,0.57676123046875,0.6625950932502747,0.43788906931877136,-3.841895818710327
1761467593379744300,0.586744140625,0.7512823343276978,0.6082732677459717,-3.9820680618286133
1761467593389728300,0.596728271484375,0.8455334305763245,0.6575068235397339,-4.072196006774902
1761467593399711500,0.60671142578125,0.9092058539390564,0.6339027285575867,-4.232975959777832
1761467593409694200,0.616694091796875,0.9015205502510071,0.6294635534286499,-4.388350009918213
1761467593419677200,0.62667724609375,0.8733437657356262,0.752153754234314,-4.495664119720459
1761467593429660400,0.636660400390625,0.7867231369018555,0.8338455557823181,-4.545491695404053
1761467593439643100,0.64664306640625,0.5066219568252563,0.847606360912323,-4.2397260665893555
1761467593449626000,0.656626220703125,0.2874407172203064,1.1001490354537964,-4.010377407073975
1761467593459609300,0.666609375,0.05019594356417656,1.1517107486724854,-3.7769880294799805
1761467593469592300,0.67659228515625,-0.07018325477838516,1.381846308708191,-3.734365940093994
1761467593479575000,0.686574951171875,-0.07984547317028046,1.7849173545837402,-3.761937379837036
1761467593489558300,0.696558349609375,0.05621127039194107,2.5443429946899414,-3.949418783187866
1761467593499541200,0.706541259765625,0.10208981484174728,2.972825288772583,-4.389431476593018
1761467593509524200,0.716524169921875,0.0713372603058815,3.2201218605041504,-4.477904796600342
1761467593519508500,0.726508544921875,0.09695021063089371,3.401571035385132,-4.327894687652588
1761467593529491200,0.7364912109375,0.08065459877252579,3.2257492542266846,-4.267301082611084
1761467593539474200,0.74647412109375,0.052310049533843994,2.6760871410369873,-4.0695271492004395
1761467593549457400,0.75645751953125,0.11481472104787827,2.04768705368042,-3.8010129928588867
1761467593559440100,0.766440185546875,0.25358033180236816,1.4259819984436035,-3.5171706676483154
1761467593569423000,0.776423095703125,0.4394208490848541,0.9211927056312561,-3.3017897605895996
1761467593579406300,0.78640625,0.6890248656272888,0.6393389105796814,-3.1887338161468506
1761467593589389300,0.796389404296875,0.8961582183837891,0.585884153842926,-3.1357100009918213
1761467593599372000,0.8063720703125,1.016183614730835,0.706026554107666,-3.1041553020477295
1761467593609355300,0.816355224609375,1.0581330060958862,1.1268357038497925,-3.085150957107544
1761467593619338200,0.826338134765625,0.971692681312561,2.0466649532318115,-3.158663034439087
1761467593629321200,0.8363212890625,0.763947069644928,3.6022393703460693,-3.3235526084899902
1761467593639304200,0.84630419921875,0.4273773431777954,5.658175945281982,-3.281461238861084
1761467593649287200,0.856287109375,-0.18051189184188843,5.466126918792725,-2.449209690093994
1761467593659271200,0.866271240234375,-0.30991995334625244,3.4772369861602783,-0.8206329941749573
1761467593669254400,0.87625439453125,0.0009858864359557629,0.9706264138221741,0.9033172130584717
1761467593679237400,0.8862373046875,0.008678426966071129,-0.29344484210014343,1.8643649816513062
1761467593689220000,0.89622021484375,-0.13717453181743622,-0.17525877058506012,1.9473403692245483
1761467593699203300,0.906203369140625,-0.2892756462097168,-0.4064485728740692,2.2277846336364746
1761467593709186300,0.916186279296875,-0.24808330833911896,-0.1577760875225067,1.997365951538086
1761467593719169000,0.9261689453125,-0.11171639710664749,-0.08549018204212189,1.6096680164337158
1761467593729152300,0.93615234375,0.008155832067131996,0.0559953972697258,1.2176142930984497
1761467593739135200,0.94613525390625,0.18086394667625427,0.3577749729156494,0.7038822770118713
1761467593749118200,0.9561181640625,0.3336314558982849,0.47357094287872314,0.15258508920669556
1761467593759101200,0.96610107421875,0.5471930503845215,0.41032248735427856,-0.3399825096130371
1761467593769084200,0.976084228515625,0.7776661515235901,0.36767542362213135,-0.7010151147842407
1761467593779067400,0.9860673828125,0.9355769157409668,0.309576153755188,-0.8760215044021606
1761467593789050400,0.99605029296875,1.0672072172164917,0.3265880346298218,-0.9245866537094116
1761467593799034400,1.006034423828125,0.8864378929138184,0.08617091178894043,-0.9557690620422363
1761467593809017000,1.01601708984375,0.5043990612030029,0.08048444986343384,-0.8792899250984192
1761467593819000300,1.026000244140625,0.2320181429386139,0.1736447513103485,-0.7047327756881714
1761467593828983300,1.0359833984375,0.17857486009597778,0.12894639372825623,-0.4600575268268585
1761467593838966300,1.04596630859375,0.2042141705751419,0.0065224748104810715,-0.10348181426525116
1761467593848949200,1.05594921875,0.26607656478881836,0.15773877501487732,0.24173153936862946
1761467593858932200,1.06593212890625,0.3425111472606659,-0.07207711786031723,0.3918219804763794
1761467593868915200,1.075915283203125,0.23770473897457123,-0.19210807979106903,0.48436927795410156
1761467593878898200,1.085898193359375,0.19250956177711487,-0.17527876794338226,0.42971134185791016
1761467593888881200,1.095881103515625,0.2219877392053604,-0.10596126317977905,0.2728276252746582
1761467593898864400,1.105864501953125,0.2557896375656128,-0.10009831190109253,-0.011730331927537918
1761467593908847400,1.115847412109375,0.22847753763198853,0.021965377032756805,-0.36628657579421997
1761467593918830000,1.125830078125,0.1622162163257599,0.2360723465681076,-0.4587254226207733
1761467593928813300,1.135813232421875,0.26347607374191284,0.2617728114128113,-0.294645756483078
1761467593938796300,1.14579638671875,0.3647632896900177,0.3134940564632416,-0.031795237213373184
1761467593948780300,1.1557802734375,0.30657193064689636,0.8580389022827148,0.09993945807218552
1761467593958763300,1.16576318359375,0.30755943059921265,0.3644523620605469,-0.0665014460682869
1761467593968746200,1.175746337890625,0.43157774209976196,-0.36250370740890503,-0.2618187367916107
1761467593978729200,1.185729248046875,0.40884631872177124,-0.46207156777381897,-0.4489572048187256
1761467593988712200,1.195712158203125,0.2664072513580322,-0.10666853934526443,-0.42668023705482483
1761467593998695200,1.205695068359375,0.17125223577022552,0.20142590999603271,-0.06723923981189728
1761467594008678100,1.21567822265625,0.14735588431358337,0.2976144552230835,0.4641720652580261
1761467594018661400,1.225661376953125,0.14880304038524628,-0.1457960158586502,0.574223518371582
1761467594028644400,1.235644287109375,0.18611089885234833,-0.5270549058914185,0.26612550020217896
1761467594038627000,1.245626953125,0.1904153674840927,-0.7960517406463623,-0.13395345211029053
1761467594048610300,1.2556103515625,0.20271916687488556,-0.9929664134979248,-0.5389786958694458
1761467594058593300,1.26559326171875,0.10356728732585907,-1.0319085121154785,-0.7261185050010681
1761467594068576300,1.275576171875,-0.10831836611032486,-0.7502666711807251,-0.5430878400802612
1761467594078559200,1.285559326171875,-0.19069847464561462,-0.3488108515739441,-0.2937147617340088
1761467594088543200,1.295543212890625,-0.0533265694975853,-0.25150591135025024,-0.3340888023376465
1761467594098526200,1.305526123046875,0.19955629110336304,-0.18156731128692627,-0.4022042155265808
1761467594108509200,1.31550927734375,0.35500967502593994,-0.17093828320503235,-0.4094446301460266
1761467594118492400,1.325492431640625,0.4438793659210205,-0.1564544141292572,-0.4742060601711273
1761467594128475100,1.33547509765625,0.4778209626674652,-0.10591486841440201,-0.47505107522010803
1761467594138458400,1.345458251953125,0.5060036182403564,-0.0804704949259758,-0.5223836898803711
1761467594148441300,1.35544140625,0.5893038511276245,-0.10442548245191574,-0.6559103727340698
1761467594158424000,1.365424072265625,0.6426650881767273,-0.033868491649627686,-0.7286117076873779
1761467594168407300,1.3754072265625,0.6121636629104614,0.19778351485729218,-0.6394696831703186
1761467594178390300,1.385390380859375,0.47820717096328735,0.3792949914932251,-0.3908199071884155
1761467594188373200,1.395373291015625,0.36902856826782227,0.7052582502365112,-0.2869506776332855
1761467594198356200,1.405356201171875,0.24238194525241852,0.818763792514801,-0.18488262593746185
1761467594208339200,1.415339111328125,0.2486797273159027,0.5749998688697815,-0.07057922333478928
1761467594218322200,1.425322265625,0.18434254825115204,0.4928733706474304,0.022053508087992668
1761467594228310300,1.435310302734375,0.16483309864997864,0.43233588337898254,0.06839239597320557
1761467594238293500,1.44529345703125,0.12096922844648361,0.4011175036430359,0.024686461314558983
1761467594248276500,1.4552763671875,0.062473114579916,0.34514105319976807,-0.028265638276934624
1761467594258259200,1.46525927734375,0.04420063644647598,0.22126038372516632,-0.12367364764213562
1761467594268242400,1.475242431640625,0.011310204863548279,0.11659514904022217,-0.09707974642515182
1761467594278225400,1.485225341796875,0.05364061892032623,0.15166446566581726,0.030628683045506477
1761467594288208400,1.49520849609375,0.1606389284133911,0.09602659195661545,0.12271880358457565
1761467594298191400,1.50519140625,0.26533734798431396,-0.04984432831406593,0.16016818583011627
1761467594308174300,1.51517431640625,0.3780992329120636,-0.21268615126609802,0.13074254989624023
1761467594318157300,1.5251572265625,0.49120768904685974,-0.5002294778823853,-0.01699310913681984
1761467594328140500,1.535140625,0.5031479597091675,-0.6420095562934875,-0.08216012269258499
1761467594338123300,1.545123291015625,0.32147082686424255,-0.39342159032821655,0.07283478230237961
1761467594348106500,1.5551064453125,0.13295280933380127,-0.3219338357448578,0.10857556760311127
1761467594358089500,1.56508935546875,-0.022172322496771812,-0.4804326593875885,0.027373120188713074
1761467594368073500,1.575073486328125,-0.21782752871513367,-0.5675859451293945,-0.014189036563038826
1761467594378056200,1.58505615234375,-0.3639450669288635,-0.4913598597049713,-0.06300345063209534
1761467594388039400,1.595039306640625,-0.32381153106689453,-0.35508954524993896,-0.16053441166877747
1761467594398022400,1.6050224609375,-0.22800858318805695,-0.26305627822875977,-0.18553084135055542
1761467594408005400,1.61500537109375,-0.14369507133960724,-0.22916850447654724,-0.22515691816806793
1761467594417988400,1.62498828125,-0.11588660627603531,-0.18349555134773254,-0.30478039383888245
1761467594427971300,1.634971435546875,-0.15328767895698547,-0.020265966653823853,-0.397219717502594
1761467594437954300,1.644954345703125,-0.20897383987903595,0.16461680829524994,-0.4861341416835785
1761467594447937500,1.6549375,-0.2532568871974945,0.27483344078063965,-0.5237086415290833
1761467594457920300,1.664920166015625,-0.2793523967266083,0.3331518769264221,-0.49613717198371887
1761467594467903500,1.674903564453125,-0.2967339754104614,0.4343748092651367,-0.3951801061630249
1761467594477886500,1.684886474609375,-0.3175404369831085,0.559288501739502,-0.2410440891981125
1761467594487869200,1.694869140625,-0.3549754321575165,0.6865199208259583,-0.08092380315065384
1761467594497852400,1.704852294921875,-0.2839691638946533,0.7591946721076965,-0.0727071538567543
1761467594507836400,1.71483642578125,-0.4285891354084015,0.911184549331665,0.09752321988344193
1761467594517819400,1.7248193359375,-0.39513397216796875,0.8560035824775696,0.15846993029117584
1761467594527802400,1.73480224609375,-0.3650110363960266,0.5154107809066772,0.2274569422006607
1761467594537785300,1.744785400390625,-0.1995384246110916,0.03393605723977089,0.24844211339950562
1761467594547768300,1.754768310546875,-0.06307908892631531,-0.28603553771972656,0.24864830076694489
1761467594557751300,1.764751220703125,0.046760328114032745,-0.39599743485450745,0.24470175802707672
1761467594567734500,1.774734619140625,0.18847611546516418,-0.4528640806674957,0.2271348387002945
1761467594577717200,1.78471728515625,0.3248682916164398,-0.43135932087898254,0.19798919558525085
1761467594587700500,1.794700439453125,0.42820584774017334,-0.3515267074108124,0.1322161853313446
1761467594597683500,1.804683349609375,0.5929667949676514,-0.21949784457683563,-0.07153987139463425
1761467594607666400,1.81466650390625,0.5704416632652283,-0.10988805443048477,-0.24340979754924774
1761467594617649400,1.8246494140625,0.4686061143875122,-0.26801297068595886,-0.33608728647232056
1761467594627632400,1.83463232421875,0.43706396222114563,-0.4860137104988098,-0.29626697301864624
1761467594637615400,1.844615478515625,0.3918676972389221,-0.5241240859031677,-0.16265778243541718
1761467594647599400,1.854599365234375,0.3166621923446655,-0.4260329604148865,-0.12834784388542175
1761467594657582300,1.864582275390625,0.28241392970085144,-0.35053661465644836,-0.20989330112934113
1761467594667565300,1.8745654296875,0.2733902633190155,-0.40709349513053894,-0.3356143832206726
1761467594677548300,1.88454833984375,0.29244840145111084,-0.48120102286338806,-0.42026135325431824
1761467594687531500,1.894531494140625,0.31063997745513916,-0.4820220470428467,-0.3750775456428528
1761467594697514200,1.90451416015625,0.3413717746734619,-0.4483402669429779,-0.21156051754951477
1761467594707497500,1.91449755859375,0.36299213767051697,-0.4332379996776581,-0.00791429728269577
1761467594717480400,1.92448046875,0.34712687134742737,-0.38386857509613037,0.17046768963336945
1761467594727463400,1.93446337890625,0.294511079788208,-0.36222773790359497,0.25946441292762756
1761467594737446400,1.9444462890625,0.20808379352092743,-0.3904183506965637,0.24872758984565735
1761467594747429400,1.954429443359375,0.09266028553247452,-0.42466339468955994,0.1814161092042923
1761467594757412400,1.964412353515625,-0.01749684289097786,-0.49939942359924316,0.10527554899454117
1761467594767395600,1.9743955078125,-0.11268656700849533,-0.6155964732170105,0.021994328126311302
1761467594777378300,1.98437841796875,-0.18060463666915894,-0.7604492902755737,-0.09920772910118103
1761467594787362300,1.9943623046875,-0.2124844342470169,-0.8563991189002991,-0.19251711666584015
1761467594797345300,2.00434521484375,-0.22089682519435883,-0.8234108090400696,-0.24521973729133606
1761467594807328500,2.01432861328125,-0.20051759481430054,-0.7840294241905212,-0.3324112594127655
1761467594817311200,2.024311279296875,-0.18144962191581726,-0.7179750204086304,-0.4451223611831665
1761467594827294500,2.03429443359375,-0.16398762166500092,-0.6165516972541809,-0.5223638415336609
1761467594837277400,2.04427734375,-0.14707894623279572,-0.5373501181602478,-0.5643549561500549
1761467594847260400,2.054260498046875,-0.12256437540054321,-0.4731293022632599,-0.5722530484199524
1761467594857243400,2.064243408203125,-0.09763133525848389,-0.3718905746936798,-0.5577737092971802
1761467594867226400,2.074226318359375,-0.04751553386449814,-0.211648091673851,-0.5901823043823242
1761467594877209300,2.084209228515625,-0.015871858224272728,-0.023330651223659515,-0.6653534770011902
1761467594887192600,2.094192626953125,0.004959347192198038,0.1720726490020752,-0.7188140749931335
1761467594897175300,2.10417529296875,0.027010055258870125,0.32821565866470337,-0.7293232083320618
1761467594907158300,2.114158203125,0.05545976385474205,0.39511236548423767,-0.8025359511375427
1761467594917142300,2.124142333984375,0.08063089847564697,0.4864702522754669,-0.8923448920249939
1761467594927125500,2.13412548828125,0.09995872527360916,0.6155537366867065,-0.8571825623512268
1761467594937108200,2.144108154296875,0.11890924721956253,0.657953143119812,-0.7524840831756592
1761467594947091500,2.154091552734375,0.1532674878835678,0.6325828433036804,-0.6471141576766968
1761467594957074400,2.164074462890625,0.1998850554227829,0.6224774718284607,-0.4786044657230377
1761467594967057400,2.174057373046875,0.2429347038269043,0.6519849300384521,-0.17576321959495544
1761467594977040400,2.184040283203125,0.2509497404098511,0.6777552962303162,0.13325080275535583
1761467594987023400,2.1940234375,0.18765601515769958,0.7338899374008179,0.33271971344947815
1761467594997006300,2.20400634765625,0.11574320495128632,0.8787416815757751,0.42254120111465454
1761467595006989600,2.213989501953125,0.014974306337535381,0.9843372106552124,0.4800031781196594
1761467595016972300,2.22397216796875,-0.1124398410320282,0.9529481530189514,0.5396228432655334
1761467595026955300,2.233955322265625,-0.1690889447927475,0.7169265151023865,0.6727409958839417
1761467595036938500,2.2439384765625,-0.17534151673316956,0.4845736622810364,0.8668652176856995
1761467595046921500,2.25392138671875,-0.1692424714565277,0.4048498570919037,1.0765951871871948
1761467595056905200,2.2639052734375,-0.15283261239528656,0.4998837113380432,1.2138677835464478
1761467595066888400,2.273888427734375,-0.13796129822731018,0.7052011489868164,1.2198898792266846
1761467595076871400,2.283871337890625,-0.1318272352218628,0.9981827139854431,1.2239456176757812
1761467595086854400,2.2938544921875,-0.12812431156635284,1.2215803861618042,1.2329528331756592
1761467595096837400,2.30383740234375,-0.11539705842733383,1.2487233877182007,1.2233054637908936
1761467595106820400,2.3138203125,-0.09668080508708954,1.1558587551116943,1.1798536777496338
1761467595116803300,2.32380322265625,-0.16476105153560638,1.0994538068771362,1.1277971267700195
1761467595126786600,2.33378662109375,-0.2050071507692337,1.0706382989883423,1.0030564069747925
1761467595136769300,2.343769287109375,-0.2682335078716278,0.978909969329834,0.8516889810562134
1761467595146752300,2.353752197265625,-0.2956611216068268,0.7514489889144897,0.6492807865142822
1761467595156735500,2.363735595703125,-0.2573496997356415,0.5882546901702881,0.5644090175628662
1761467595166718500,2.373718505859375,-0.20526140928268433,0.5037137269973755,0.629529595375061
1761467595176701200,2.383701171875,-0.17248988151550293,0.38674479722976685,0.6437857151031494
1761467595186684400,2.393684326171875,-0.15907429158687592,0.3385516405105591,0.5586980581283569
1761467595196667400,2.40366748046875,-0.1869964599609375,0.39347854256629944,0.4588148891925812
1761467595206651400,2.4136513671875,-0.25294163823127747,0.46481508016586304,0.3835943341255188
1761467595216634400,2.42363427734375,-0.338265597820282,0.5043123960494995,0.38263240456581116
1761467595226617300,2.433617431640625,-0.41597098112106323,0.49377259612083435,0.4434865713119507
1761467595236596000,2.443595947265625,-0.48535484075546265,0.49433159828186035,0.5386421084403992
1761467595246579000,2.453578857421875,-0.5343881845474243,0.5592142343521118,0.6710212230682373
1761467595256562000,2.46356201171875,-0.5643734931945801,0.6320223808288574,0.8211638331413269
1761467595266545200,2.473545166015625,-0.5321224927902222,0.573065996170044,0.931743860244751
1761467595276527900,2.48352783203125,-0.46081551909446716,0.324653297662735,0.9809148907661438
1761467595286510800,2.4935107421875,-0.37082284688949585,0.03418492525815964,1.026170015335083
1761467595296494000,2.503494140625,-0.26079994440078735,-0.26308271288871765,1.103494644165039
1761467595306477000,2.51347705078125,-0.13290275633335114,-0.5718235373497009,1.1613668203353882
1761467595316459800,2.523459716796875,0.0006347890011966228,-0.9458178877830505,1.1371142864227295
1761467595326443000,2.533443115234375,0.13195239007472992,-1.2349227666854858,1.0463190078735352
1761467595336427000,2.543427001953125,0.17158183455467224,-1.2517499923706055,0.9391401410102844
1761467595346410000,2.553409912109375,0.12640205025672913,-0.9416883587837219,0.7815505862236023
1761467595356393000,2.56339306640625,0.05928080901503563,-0.32847529649734497,0.44242236018180847
1761467595366376000,2.5733759765625,-0.028592538088560104,0.16054435074329376,0.017598746344447136
1761467595376359000,2.58335888671875,-0.10945036262273788,0.16165035963058472,-0.3844869136810303
1761467595386342100,2.593342041015625,-0.11121140420436859,-0.28223106265068054,-0.6844594478607178
1761467595396324900,2.603324951171875,-0.13286902010440826,-0.7812888026237488,-0.924737274646759
1761467595406307800,2.613307861328125,-0.1482224017381668,-1.0722070932388306,-1.13611900806427
1761467595416291000,2.623291015625,-0.1288638859987259,-1.0445884466171265,-1.3467202186584473
1761467595426274000,2.633274169921875,-0.02558714523911476,-0.786011815071106,-1.3467696905136108
1761467595436256800,2.6432568359375,0.13615702092647552,-0.4373803436756134,-1.0956995487213135
1761467595446240000,2.653239990234375,0.22729411721229553,-0.12146791070699692,-0.8173226118087769
1761467595456223000,2.663222900390625,0.275790274143219,0.5260610580444336,-0.5359101295471191
1761467595466207000,2.67320703125,0.3238960802555084,1.1235246658325195,-0.229013130068779
1761467595476190000,2.68318994140625,0.39498329162597656,1.3791271448135376,0.0039048069156706333
1761467595486173000,2.6931728515625,0.4805620610713959,1.2665859460830688,0.17819128930568695
1761467595496156000,2.703156005859375,0.515273928642273,0.9586266875267029,0.3077154755592346
1761467595506139100,2.71313916015625,0.5000434517860413,0.6482256650924683,0.34074315428733826
1761467595516121900,2.723121826171875,0.43669164180755615,0.5066317319869995,0.32291117310523987
1761467595526104800,2.733104736328125,0.34427905082702637,0.4642275273799896,0.25611254572868347
1761467595536088000,2.743088134765625,0.24189835786819458,0.4176490902900696,0.17223815619945526
1761467595546071000,2.753071044921875,0.15181314945220947,0.2860671877861023,0.09437956660985947
1761467595556053800,2.7630537109375,0.0438842810690403,0.1399981528520584,0.05015964433550835
1761467595566037000,2.773037109375,0.0004292028024792671,0.08270982652902603,0.048803798854351044
1761467595576020000,2.78302001953125,0.00132029689848423,0.06071105971932411,0.01610657200217247
1761467595586003000,2.7930029296875,0.0423678457736969,0.06392773985862732,-0.017248939722776413
1761467595595986000,2.80298583984375,0.09443370997905731,0.05291477218270302,-0.04841884225606918
1761467595605970000,2.812969970703125,0.17741212248802185,0.08129509538412094,-0.05686138570308685
1761467595615953000,2.822952880859375,0.2885138690471649,0.14823497831821442,-0.08254331350326538
1761467595625936100,2.83293603515625,0.4049701690673828,0.20960406959056854,-0.17412835359573364
1761467595635918800,2.8429189453125,0.48154085874557495,0.2990868091583252,-0.2643094062805176
1761467595645901800,2.85290185546875,0.5372675061225891,0.408146470785141,-0.32266271114349365
1761467595655885000,2.862885009765625,0.5338853001594543,0.480026513338089,-0.34468626976013184
1761467595665868000,2.872867919921875,0.49113842844963074,0.4412434697151184,-0.33626869320869446
1761467595675850800,2.882850830078125,0.4533820152282715,0.18568305671215057,-0.34188663959503174
1761467595685834000,2.892833984375,0.44313114881515503,-0.15277493000030518,-0.33839985728263855
1761467595695817000,2.90281689453125,0.43763571977615356,-0.46393945813179016,-0.28182661533355713
1761467595705800000,2.912800048828125,0.43798041343688965,-0.6196326017379761,-0.15699732303619385
1761467595715783000,2.922782958984375,0.47023528814315796,-0.4784184992313385,0.05309972167015076
1761467595725766000,2.932765869140625,0.49775275588035583,-0.2711474299430847,0.23329325020313263
1761467595735749000,2.9427490234375,0.425266295671463,-0.22059716284275055,0.349465936422348
1761467595745733000,2.952733154296875,0.3211800754070282,-0.22715254127979279,0.2869702875614166
1761467595755715800,2.9627158203125,0.1858893781900406,-0.19017162919044495,0.07972601056098938
1761467595765698800,2.97269873046875,-0.019355803728103638,-0.08225575089454651,-0.15913556516170502
1761467595775682000,2.98268212890625,-0.22229453921318054,0.20350834727287292,-0.31036344170570374
1761467595785665000,2.9926650390625,-0.27895572781562805,0.2545378506183624,-0.2298901081085205
1761467595795647700,3.002647705078125,-0.25338006019592285,-0.048839353024959564,0.09660864621400833
1761467595805631000,3.012630859375,-0.12329748272895813,-0.597445011138916,0.4363410770893097
1761467595815614000,3.022614013671875,0.03451637923717499,-0.8875023722648621,0.6096180081367493
1761467595825597000,3.032596923828125,0.12345277518033981,-0.7754729390144348,0.5455203056335449
1761467595835580000,3.042579833984375,0.20585337281227112,-0.5522414445877075,0.35498180985450745
1761467595845563000,3.05256298828125,0.27160272002220154,-0.44938212633132935,0.17165131866931915
1761467595855546000,3.062546142578125,0.3138585388660431,-0.4155072569847107,0.047143470495939255
1761467595865529000,3.072529052734375,0.3094484210014343,-0.3815472424030304,-0.04007463529706001
1761467595875513000,3.08251318359375,0.2826026976108551,-0.28662341833114624,-0.10640918463468552
1761467595885495800,3.092495849609375,0.23953400552272797,-0.15537448227405548,-0.14249595999717712
1761467595895479000,3.10247900390625,0.1733536571264267,-0.05452802777290344,-0.10925012826919556
1761467595905462000,3.1124619140625,0.10865640640258789,0.0034167629200965166,-0.0151599682867527
1761467595915444700,3.12244482421875,0.07365341484546661,0.04789368435740471,0.06569147109985352
1761467595925428000,3.132427978515625,0.06618665158748627,0.06318672001361847,0.08772977441549301
1761467595935411000,3.142410888671875,0.08870181441307068,0.04296321049332619,0.06948605924844742
1761467595945394000,3.152393798828125,0.11420337855815887,0.0035706376656889915,0.013156052678823471
1761467595955377000,3.162376953125,0.1282627433538437,-0.05440531298518181,-0.04101743549108505
1761467595965359900,3.17235986328125,0.13296762108802795,-0.1206672191619873,-0.07155751436948776
1761467595975343000,3.182343017578125,0.050487931817770004,-0.05829758942127228,-0.07935551553964615
1761467595985326000,3.192326171875,-0.05984240770339966,-0.011004289612174034,-0.053239427506923676
1761467595995308800,3.202308837890625,-0.19958992302417755,0.1330018937587738,-0.005815988406538963
1761467596005292000,3.2122919921875,-0.29978013038635254,0.16967655718326569,0.014177478849887848
1761467596015276000,3.222276123046875,-0.40083324909210205,0.19570976495742798,0.10782354325056076
1761467596025259000,3.232259033203125,-0.4889436960220337,0.26806169748306274,0.22696027159690857
1761467596035242000,3.242241943359375,-0.5590820908546448,0.32274892926216125,0.33408698439598083
1761467596045225000,3.252224853515625,-0.590196430683136,0.33397310972213745,0.4178524613380432
1761467596055208000,3.2622080078125,-0.5836362838745117,0.2741859555244446,0.48868879675865173
1761467596065191000,3.27219091796875,-0.49814584851264954,0.09042172133922577,0.5099614858627319
1761467596075174000,3.282173828125,-0.3559860587120056,-0.22680069506168365,0.49179714918136597
1761467596085156900,3.292156982421875,-0.17660917341709137,-0.5194865465164185,0.43694108724594116
1761467596095140000,3.30214013671875,-0.030231721699237823,-0.6845719218254089,0.2924816608428955
1761467596105123000,3.312123046875,0.08512887358665466,-0.6358949542045593,0.08285507559776306
1761467596115105800,3.322105712890625,0.15063199400901794,-0.3643907308578491,-0.21010462939739227
1761467596125089000,3.332089111328125,0.16083964705467224,0.0900108814239502,-0.577909529209137
1761467596135072000,3.342072021484375,0.18145038187503815,0.6278796792030334,-0.8807239532470703
1761467596145056000,3.352055908203125,0.15226863324642181,0.7624073028564453,-1.0868134498596191
1761467596155039000,3.3620390625,0.12105026841163635,0.3729495704174042,-1.345960021018982
1761467596165022000,3.37202197265625,0.0924798995256424,-0.19361944496631622,-1.5221309661865234
1761467596175005000,3.3820048828125,0.10836458951234818,-0.405815064907074,-1.4147224426269531
1761467596184988000,3.39198779296875,0.08181076496839523,-0.345478892326355,-1.1791399717330933
1761467596194971000,3.401970947265625,0.029603753238916397,-0.26640748977661133,-1.0609205961227417
1761467596204953900,3.411953857421875,-0.013776898384094238,-0.26299482583999634,-0.983668863773346
1761467596214937000,3.42193701171875,0.04800897091627121,-0.36803096532821655,-0.8734914660453796
1761467596224920000,3.431920166015625,0.17568139731884003,-0.478271484375,-0.7098914384841919
1761467596234903000,3.441903076171875,0.3418338894844055,-0.5493032932281494,-0.5212538838386536
1761467596244886000,3.451885986328125,0.5088129639625549,-0.6042441129684448,-0.34779125452041626
1761467596254869000,3.461868896484375,0.6501631736755371,-0.6876969337463379,-0.13161258399486542
1761467596264852000,3.47185205078125,0.7290111780166626,-0.7289832234382629,0.035014212131500244
1761467596274835200,3.481835205078125,0.6854383945465088,-0.7945199012756348,0.14537853002548218
1761467596284819000,3.49181884765625,0.5673516988754272,-0.8434702754020691,0.14592665433883667
1761467596294802000,3.501802001953125,0.41085633635520935,-0.859241783618927,0.059271130710840225
1761467596304785000,3.511784912109375,0.27331507205963135,-0.8185681700706482,-0.09295953065156937
1761467596314768100,3.52176806640625,0.17585933208465576,-0.7558579444885254,-0.22382406890392303
1761467596324750800,3.531750732421875,0.14270320534706116,-0.6869921088218689,-0.31184130907058716
1761467596334734000,3.541734130859375,0.13969889283180237,-0.5971948504447937,-0.368376761674881
1761467596344717000,3.551717041015625,0.12261147797107697,-0.46518781781196594,-0.3949679434299469
1761467596354700000,3.561699951171875,0.09953784942626953,-0.31241610646247864,-0.41758057475090027
1761467596364683000,3.57168310546875,0.10694950819015503,-0.17860262095928192,-0.4601692259311676
1761467596374666000,3.581666015625,0.11379808932542801,-0.04440139979124069,-0.5349262952804565
1761467596384649000,3.59164892578125,0.1241215392947197,0.129690483212471,-0.6190149784088135
1761467596394632200,3.601632080078125,0.1357952356338501,0.34812110662460327,-0.6742553114891052
1761467596404615000,3.611614990234375,0.15400351583957672,0.5391982793807983,-0.7599285244941711
1761467596414599000,3.621598876953125,0.16077113151550293,0.653857946395874,-0.8658581376075745
1761467596424582000,3.631581787109375,0.17463473975658417,0.7173659205436707,-0.9670578241348267
1761467596434565000,3.641565185546875,0.19045311212539673,0.6355411410331726,-1.0605287551879883
1761467596444547800,3.6515478515625,0.17927801609039307,0.4942403733730316,-1.0757486820220947
1761467596454531000,3.661531005859375,0.14479807019233704,0.3871211111545563,-0.9970107674598694
1761467596464514000,3.67151416015625,0.11317518353462219,0.26302218437194824,-0.8582671880722046
1761467596474497000,3.6814970703125,0.13061383366584778,0.18759535253047943,-0.7299438118934631
1761467596484480000,3.69147998046875,0.14130118489265442,0.21453246474266052,-0.597603440284729
1761467596494463000,3.701462890625,0.1780591905117035,0.254167765378952,-0.46121788024902344
1761467596504446000,3.711446044921875,0.1926119029521942,0.18967659771442413,-0.35636112093925476
1761467596514429200,3.72142919921875,0.1472707837820053,0.1857963651418686,-0.3338768482208252
1761467596524412000,3.731411865234375,0.03820009157061577,0.17902053892612457,-0.3693039119243622
1761467596534395000,3.741394775390625,-0.11617617309093475,0.09254104644060135,-0.38352441787719727
1761467596544379000,3.75137890625,-0.25466978549957275,-0.08983618021011353,-0.3007657825946808
1761467596554362000,3.761362060546875,-0.3123037815093994,-0.2575293183326721,0.0408426858484745
1761467596564345000,3.771344970703125,-0.33033016324043274,-0.4026549458503723,0.4563988447189331
1761467596574328000,3.781328125,-0.3081420361995697,-0.5685278177261353,0.7208379507064819
1761467596584311000,3.79131103515625,-0.29758569598197937,-0.568048357963562,0.8789432644844055
1761467596594294000,3.8012939453125,-0.27999499440193176,-0.478091299533844,0.8550560474395752
1761467596604277000,3.811277099609375,-0.2473892867565155,-0.32759323716163635,0.7637569904327393
1761467596614260000,3.821260009765625,-0.20203299820423126,-0.2080061286687851,0.6226877570152283
1761467596624243000,3.831242919921875,-0.15364404022693634,-0.15752770006656647,0.4751697778701782
1761467596634226200,3.84122607421875,-0.09302010387182236,-0.113410584628582,0.3118650019168854
1761467596644209000,3.851208984375,-0.029326409101486206,-0.039403896778821945,0.1543910950422287
1761467596654191900,3.86119189453125,0.022572476416826248,-0.0026461491361260414,0.037558477371931076
1761467596664175900,3.87117578125,0.048228055238723755,-0.057326026260852814,-0.028543628752231598
1761467596674159000,3.8811591796875,0.06978794187307358,-0.13468846678733826,-0.050851862877607346
1761467596684142000,3.89114208984375,0.10549070686101913,-0.14374099671840668,-0.08343250304460526
1761467596694125000,3.901125,0.1353820413351059,-0.05681062489748001,-0.150729238986969
1761467596704108000,3.91110791015625,0.13974717259407043,0.08591413497924805,-0.2263217568397522
1761467596714091000,3.921091064453125,0.12232236564159393,0.23055388033390045,-0.27872633934020996
1761467596724074000,3.931073974609375,0.09229786694049835,0.35591989755630493,-0.29141920804977417
1761467596734057000,3.941056884765625,0.033037737011909485,0.3925607204437256,-0.2883150279521942
1761467596744040000,3.9510400390625,-0.03427669033408165,0.3640980124473572,-0.28108102083206177
1761467596754023200,3.961023193359375,-0.09873877465724945,0.32700976729393005,-0.2543567419052124
1761467596764006000,3.971005859375,-0.1498824506998062,0.27788227796554565,-0.18068039417266846
1761467596773988900,3.98098876953125,-0.1841016709804535,0.16609209775924683,-0.1031579002737999
1761467596783972000,3.99097216796875,-0.20422449707984924,0.07665824145078659,-0.026441067457199097
1761467596793956000,4.0009560546875,-0.24732403457164764,0.048338983207941055,0.02998519130051136
1761467596803937800,4.010937744140625,-0.2926853895187378,0.024554703384637833,0.04520750418305397
1761467596813921000,4.020921142578125,-0.3645419776439667,-0.055949725210666656,0.019472580403089523
1761467596823904000,4.030904052734375,-0.43037694692611694,-0.1652464121580124,0.007118391338735819
1761467596833887000,4.040886962890625,-0.46011486649513245,-0.25795450806617737,0.007969271391630173
1761467596843870000,4.050869873046875,-0.43426060676574707,-0.27672335505485535,-0.005434366408735514
1761467596853853000,4.06085302734375,-0.3736382722854614,-0.17145875096321106,-0.06854569166898727
1761467596863836200,4.070836181640625,-0.2989351749420166,-0.06336019933223724,-0.19337046146392822
1761467596873819100,4.080819091796875,-0.2124951034784317,0.010695384815335274,-0.3541644215583801
1761467596883801900,4.0908017578125,-0.10065586119890213,0.07451074570417404,-0.4730963706970215
1761467596893785000,4.10078515625,0.029039552435278893,0.09583786875009537,-0.5058631300926208
1761467596903768000,4.11076806640625,0.15855440497398376,0.08052469789981842,-0.5089870095252991
1761467596913752000,4.120751953125,0.2672760784626007,0.02395223267376423,-0.5177146792411804
1761467596923734800,4.13073486328125,0.3311910033226013,-0.0970938429236412,-0.5248689651489258
1761467596933718000,4.140718017578125,0.33085116744041443,-0.2426276057958603,-0.46015575528144836
1761467596943701000,4.150700927734375,0.2828422486782074,-0.22567692399024963,-0.30056971311569214
1761467596953684000,4.16068408203125,0.20577993988990784,-0.026479925960302353,-0.10399673879146576
1761467596963667000,4.1706669921875,0.14412109553813934,0.21240974962711334,0.0316305011510849
1761467596973650000,4.18064990234375,0.09645156562328339,0.3430279493331909,0.08778005838394165
1761467596983633200,4.190633056640625,0.053300317376852036,0.38119032979011536,0.11408930271863937
1761467596993616100,4.2006162109375,0.04296458885073662,0.33324623107910156,0.13606144487857819
1761467597003598800,4.210598876953125,0.03958249092102051,0.20300868153572083,0.16406992077827454
1761467597013582000,4.22058203125,0.05458062142133713,0.07381287962198257,0.24372293055057526
1761467597023565000,4.23056494140625,0.07544269412755966,-0.025881921872496605,0.36078670620918274
1761467597033548000,4.240548095703125,0.08243376016616821,-0.07963995635509491,0.4600456655025482
1761467597043531800,4.25053173828125,0.06114274635910988,-0.10776498913764954,0.4926965832710266
1761467597053515000,4.260514892578125,-0.0013880073092877865,-0.09122409671545029,0.48943421244621277
1761467597063498000,4.270498046875,-0.06851988285779953,-0.045713722705841064,0.455658495426178
1761467597073481000,4.28048095703125,-0.11133898794651031,-0.00618841964751482,0.3912792503833771
1761467597083464000,4.2904638671875,-0.13040921092033386,0.014744765125215054,0.2865905165672302
1761467597093447000,4.300447021484375,-0.12840969860553741,0.054495636373758316,0.16784974932670593
1761467597103430100,4.31043017578125,-0.10117224603891373,0.11259288340806961,0.07178371399641037
1761467597113413000,4.3204130859375,-0.07066626846790314,0.12892232835292816,0.010172281414270401
1761467597123395800,4.330395751953125,-0.04568358510732651,0.10138116031885147,-0.03546876832842827
1761467597133379000,4.340379150390625,-0.02770804613828659,0.09173998236656189,-0.05299236997961998
1761467597143362000,4.350362060546875,-0.009152330458164215,0.06632377952337265,-0.03966701403260231
1761467597153345000,4.360344970703125,-0.001883497927337885,0.04001894220709801,-0.010314984247088432
1761467597163328800,4.370328857421875,-0.000941496342420578,0.04687340557575226,0.023674193769693375
1761467597173312000,4.38031201171875,0.006368614267557859,0.06419859826564789,0.045825567096471786
1761467597183295000,4.390294921875,0.008633141405880451,0.10525071620941162,0.04174139350652695
1761467597193278000,4.40027783203125,0.005176092032343149,0.17383137345314026,0.025619419291615486
1761467597203261000,4.410260986328125,0.015709159895777702,0.23082861304283142,0.024830590933561325
1761467597213244000,4.420243896484375,0.037061356008052826,0.2067241072654724,0.04187365993857384
1761467597223227100,4.43022705078125,0.05404403433203697,0.11351876705884933,0.09132732450962067
1761467597233213400,4.44021337890625,0.06981846690177917,0.005824526771903038,0.18542027473449707
1761467597243196400,4.450196533203125,0.0863824114203453,-0.10040796548128128,0.2752459943294525
1761467597253179600,4.4601796875,0.10185910761356354,-0.16072243452072144,0.3061772882938385
1761467597263162600,4.47016259765625,0.13007046282291412,-0.11392059922218323,0.21258364617824554
1761467597273145300,4.480145263671875,0.1012239009141922,-0.0608627088367939,0.02524092234671116
1761467597283129300,4.49012939453125,0.0314788855612278,0.02313830889761448,-0.09988126158714294
1761467597293112600,4.500112548828125,-0.0671723261475563,0.06923629343509674,-0.16956819593906403
1761467597303095600,4.510095458984375,-0.0961647629737854,0.10754896700382233,-0.08473041653633118
1761467597313078500,4.52007861328125,-0.04763798043131828,0.1421639323234558,0.20067016780376434
1761467597323061500,4.5300615234375,0.02913026511669159,-0.04606059193611145,0.47316545248031616
1761467597333044500,4.54004443359375,0.09306823462247849,-0.34873712062835693,0.6394779682159424
1761467597343027700,4.55002783203125,0.1360786110162735,-0.5308231711387634,0.6274358034133911
1761467597353010400,4.560010498046875,0.1708136945962906,-0.5222717523574829,0.5005761384963989
1761467597362993400,4.569993408203125,0.20748046040534973,-0.4736107885837555,0.3576667308807373
1761467597372976600,4.5799765625,0.23571689426898956,-0.4879891872406006,0.28092294931411743
1761467597382962400,4.58996240234375,0.2535627782344818,-0.457783579826355,0.23138834536075592
1761467597392945400,4.5999453125,0.25759586691856384,-0.3553520143032074,0.14967617392539978
1761467597402928600,4.6099287109375,0.25755491852760315,-0.23989982903003693,0.030197033658623695
1761467597412911400,4.619911376953125,0.2179800570011139,-0.14261721074581146,-0.06728318333625793
1761467597422894600,4.62989453125,0.17993392050266266,-0.03666547313332558,-0.10689149051904678
1761467597432877600,4.639877685546875,0.14689181745052338,0.08375095576047897,-0.09460819512605667
1761467597442860500,4.649860595703125,0.1218668520450592,0.20030763745307922,-0.024974193423986435
1761467597452843500,4.659843505859375,0.10122150182723999,0.2923094630241394,0.06308988481760025
1761467597462827500,4.66982763671875,0.08141519129276276,0.3762378692626953,0.14870864152908325
1761467597472810500,4.679810546875,0.05101333558559418,0.34921395778656006,0.20965056121349335
1761467597482793500,4.68979345703125,0.017223823815584183,0.23979660868644714,0.25456327199935913
1761467597492776400,4.6997763671875,-0.0338665246963501,0.1732197105884552,0.31004598736763
1761467597502759400,4.709759521484375,-0.09921242296695709,0.1469910740852356,0.4230964779853821
1761467597512742400,4.719742431640625,-0.1728416383266449,0.12072750926017761,0.5444617867469788
1761467597522725600,4.7297255859375,-0.26351118087768555,0.06712576001882553,0.6452023983001709
1761467597532708400,4.739708251953125,-0.354144424200058,0.08793730288743973,0.74478679895401
1761467597542691600,4.749691650390625,-0.4360028803348541,0.09476945549249649,0.8168343305587769
1761467597552674600,4.759674560546875,-0.5174745321273804,0.06214600056409836,0.8523614406585693
1761467597562657500,4.769657470703125,-0.5779995322227478,0.015559403225779533,0.8492521047592163
1761467597572640500,4.779640625,-0.6019746661186218,-0.1743796467781067,0.7834823727607727
1761467597582624500,4.78962451171875,-0.5908222794532776,-0.4615916311740875,0.6647999286651611
1761467597592607500,4.799607421875,-0.5450431108474731,-0.7103199362754822,0.4903709292411804
1761467597602590500,4.809590576171875,-0.48838096857070923,-0.8301538825035095,0.29236748814582825
1761467597612573400,4.819573486328125,-0.42894214391708374,-0.8281589150428772,0.08107814192771912
1761467597622556400,4.829556396484375,-0.36898207664489746,-0.6487880945205688,-0.14027777314186096
1761467597632539400,4.839539306640625,-0.3200262486934662,-0.2876490354537964,-0.3402433395385742
1761467597642522600,4.849522705078125,-0.27743637561798096,0.028786199167370796,-0.5451329946517944
1761467597652505300,4.85950537109375,-0.20254933834075928,0.08001209795475006,-0.8073601126670837
1761467597662488600,4.869488525390625,-0.09919552505016327,-0.0731862410902977,-1.0391755104064941
1761467597672471600,4.879471435546875,0.029232218861579895,-0.3332124650478363,-1.0995067358016968
1761467597682454500,4.88945458984375,0.1121232733130455,-0.48774686455726624,-0.9168967604637146
1761467597692437500,4.8994375,0.13848909735679626,-0.47687584161758423,-0.7061371207237244
1761467597702421500,4.90942138671875,0.1075783297419548,-0.31068819761276245,-0.6133790612220764
1761467597712404500,4.919404541015625,0.06980964541435242,-0.1067691519856453,-0.6221153140068054
1761467597722387500,4.929387451171875,0.0551295168697834,0.0894915834069252,-0.6638887524604797
1761467597732370700,4.93937060546875,0.05140109360218048,0.17476946115493774,-0.604543149471283
1761467597742353400,4.949353515625,0.060594528913497925,0.1270585060119629,-0.46899011731147766
1761467597752336400,4.95933642578125,0.09053405374288559,0.01500307209789753,-0.2984069287776947
1761467597762319600,4.969319580078125,0.11862130463123322,-0.11219830811023712,-0.11395914107561111
1761467597772302300,4.97930224609375,0.11948923021554947,-0.20500148832798004,0.018102489411830902
1761467597782285600,4.98928564453125,0.10323745757341385,-0.2102861851453781,0.07716643810272217
1761467597792268500,4.9992685546875,0.07816991955041885,-0.16181398928165436,0.07409847527742386
1761467597802251500,5.00925146484375,0.05946764349937439,-0.12004734575748444,0.02007949911057949
1761467597812234500,5.019234375,0.05362546816468239,-0.10036472231149673,-0.05817669257521629
1761467597822218500,5.029218505859375,0.04523814842104912,-0.09654359519481659,-0.1586996614933014
1761467597832201500,5.039201416015625,0.040772028267383575,-0.12357175350189209,-0.2813350260257721
1761467597842184400,5.049184326171875,0.03556763753294945,-0.15683145821094513,-0.3688700199127197
1761467597852167700,5.059167724609375,0.05386648327112198,-0.16433463990688324,-0.44091278314590454
1761467597862150400,5.069150390625,0.09626486897468567,-0.12422621250152588,-0.49261003732681274
1761467597872133400,5.07913330078125,0.14594772458076477,-0.06832060217857361,-0.4973773658275604
1761467597882116600,5.08911669921875,0.19899022579193115,-0.040933966636657715,-0.5107004642486572
1761467597892099600,5.099099609375,0.26485952734947205,-0.005035087466239929,-0.5356848835945129
1761467597902082600,5.10908251953125,0.3431219160556793,0.055675704032182693,-0.5552172064781189
1761467597912065500,5.1190654296875,0.4167625606060028,0.0822729542851448,-0.5823239088058472
1761467597922048500,5.129048583984375,0.4854559302330017,0.10472182929515839,-0.6213862895965576
1761467597932031500,5.139031494140625,0.5397875905036926,0.15718770027160645,-0.6769829988479614
1761467597942014500,5.149014404296875,0.5860666036605835,0.1198422759771347,-0.7659556865692139
1761467597951998500,5.15899853515625,0.6136417388916016,0.04176025837659836,-0.8533302545547485
1761467597961981400,5.1689814453125,0.6338258385658264,-0.026295490562915802,-0.917918860912323
1761467597971964700,5.178964599609375,0.637887716293335,-0.10192553699016571,-0.9483441114425659
1761467597981947400,5.188947509765625,0.6435667872428894,-0.1199241653084755,-0.9225903749465942
1761467597991930400,5.198930419921875,0.6363224983215332,-0.17670994997024536,-0.8160865902900696
1761467598001913600,5.20891357421875,0.6197864413261414,-0.2513546049594879,-0.6099027395248413
1761467598011896600,5.218896484375,0.594258725643158,-0.2455747425556183,-0.37042006850242615
1761467598021879600,5.228879638671875,0.541905403137207,-0.015110275708138943,-0.20233666896820068
1761467598031862500,5.238862548828125,0.4473903477191925,0.20709297060966492,-0.1764877587556839
1761467598041845500,5.248845458984375,0.34361428022384644,0.17952345311641693,-0.24275954067707062
1761467598051828700,5.258828857421875,0.22330011427402496,-0.05339767783880234,-0.20051035284996033
1761467598061811500,5.2688115234375,0.1452610343694687,-0.28619667887687683,0.01703566685318947
1761467598071795500,5.27879541015625,0.11780703067779541,-0.3472592234611511,0.37989670038223267
1761467598081778400,5.2887783203125,0.10020560771226883,-0.28030404448509216,0.6353289484977722
1761467598091761700,5.29876171875,0.0781564936041832,-0.20917795598506927,0.7447851300239563
1761467598101744400,5.308744384765625,0.07236406952142715,-0.1859031468629837,0.7621509432792664
1761467598111727400,5.318727294921875,0.10443278402090073,-0.20252421498298645,0.7226861119270325
1761467598121710600,5.328710693359375,0.1620103120803833,-0.24256391823291779,0.640387773513794
1761467598131693600,5.338693603515625,0.2176474779844284,-0.2562403082847595,0.5298554301261902
1761467598141676500,5.348676513671875,0.2661389708518982,-0.24907566606998444,0.4160684049129486
1761467598151659500,5.358659423828125,0.2812076807022095,-0.21650788187980652,0.33087679743766785
1761467598161642500,5.368642578125,0.27878302335739136,-0.21627570688724518,0.28095439076423645
1761467598171625700,5.378625732421875,0.25389978289604187,-0.25939175486564636,0.19911544024944305
1761467598181608400,5.3886083984375,0.21642309427261353,-0.2667563855648041,0.1140824407339096
1761467598191592400,5.398592529296875,0.1828709989786148,-0.1772582083940506,0.05723300576210022
1761467598201575400,5.408575439453125,0.17461532354354858,-0.004959207959473133,0.010258296504616737
1761467598211558700,5.41855859375,0.18253503739833832,0.21811755001544952,-0.030147450044751167
1761467598221541400,5.428541259765625,0.21026113629341125,0.39394843578338623,-0.03823515772819519
1761467598231524600,5.438524658203125,0.21677549183368683,0.4441905915737152,-0.006385616958141327
1761467598241507600,5.448507568359375,0.1592794954776764,0.43385636806488037,0.07103031873703003
1761467598251490600,5.458490478515625,0.06030098348855972,0.4527762532234192,0.1665022373199463
1761467598261473500,5.4684736328125,-0.05381050705909729,0.3734802007675171,0.2673932611942291
1761467598271456500,5.47845654296875,-0.18319512903690338,0.23005883395671844,0.3651003837585449
1761467598281439500,5.488439453125,-0.2808897793292999,0.1148974671959877,0.4686723053455353
1761467598291422700,5.498422607421875,-0.352538138628006,0.0927058756351471,0.5561608672142029
1761467598301405700,5.50840576171875,-0.4232540428638458,0.11921568214893341,0.5923420786857605
1761467598311389700,5.5183896484375,-0.47626641392707825,0.10541971027851105,0.5539840459823608
1761467598321372400,5.528372314453125,-0.5187389850616455,0.08263891935348511,0.4647239148616791
1761467598331355600,5.538355712890625,-0.5701755285263062,0.009042996913194656,0.3463701009750366
1761467598341338600,5.548338623046875,-0.5992337465286255,-0.11192958056926727,0.20977291464805603
1761467598351321600,5.558321533203125,-0.6101832985877991,-0.2982778549194336,0.020618164911866188
1761467598361304600,5.5683046875,-0.520405650138855,-0.44624465703964233,-0.25097623467445374
1761467598371287600,5.57828759765625,-0.385453462600708,-0.5034283399581909,-0.5223518013954163
1761467598381270500,5.5882705078125,-0.3580515384674072,-0.3694136142730713,-0.5839534401893616
1761467598391253500,5.59825341796875,-0.28966474533081055,-0.23726198077201843,-0.5517345666885376
1761467598401236500,5.608236572265625,-0.2041938751935959,-0.3680286705493927,-0.5028061270713806
1761467598411219700,5.6182197265625,-0.09220261126756668,-0.5937278866767883,-0.4981863498687744
1761467598421202700,5.62820263671875,0.007793469820171595,-0.7305724024772644,-0.5521385073661804
1761467598431185400,5.638185302734375,0.0900430753827095,-0.6686885356903076,-0.5775684714317322
1761467598441169400,5.64816943359375,0.1269111931324005,-0.507081151008606,-0.6646890044212341
1761467598451152600,5.658152587890625,0.12914133071899414,-0.3408786356449127,-0.8089260458946228
1761467598461135600,5.668135498046875,0.12446612864732742,-0.17116670310497284,-0.9422378540039062
1761467598471118600,5.67811865234375,0.11679675430059433,-0.04569453001022339,-0.9827144742012024
1761467598481101600,5.6881015625,0.1467777043581009,0.0835595354437828,-0.888480544090271
1761467598491084500,5.69808447265625,0.17694438993930817,0.20018123090267181,-0.6956037878990173
1761467598501067500,5.708067626953125,0.21949411928653717,0.27293580770492554,-0.4658917486667633
1761467598511050800,5.71805078125,0.24951326847076416,0.2654009163379669,-0.24653486907482147
1761467598521033500,5.728033447265625,0.2671099603176117,0.2808033525943756,-0.04355619102716446
1761467598531016700,5.7380166015625,0.26150134205818176,0.31713739037513733,0.10168994963169098
1761467598540999700,5.747999755859375,0.24041847884655,0.27578839659690857,0.1751188337802887
1761467598550982400,5.757982421875,0.21906152367591858,0.21305762231349945,0.20869995653629303
1761467598560966400,5.76796630859375,0.19436340034008026,0.1974552571773529,0.21008232235908508
1761467598570949600,5.77794970703125,0.18255095183849335,0.24151219427585602,0.19202342629432678
1761467598580932600,5.7879326171875,0.17786990106105804,0.2618716359138489,0.13459625840187073
1761467598590915600,5.79791552734375,0.18733105063438416,0.22420497238636017,0.06617673486471176
1761467598600898600,5.807898681640625,0.19922922551631927,0.17068620026111603,0.003180357161909342
1761467598610881500,5.817881591796875,0.22517400979995728,0.08589407801628113,-0.04005127027630806
1761467598620864500,5.827864501953125,0.22968849539756775,0.023733587935566902,-0.10480809956789017
1761467598630847700,5.83784765625,0.22589430212974548,0.016153166070580482,-0.18148556351661682
1761467598640830500,5.84783056640625,0.19138295948505402,0.027896130457520485,-0.24900808930397034
1761467598650813700,5.857813720703125,0.16075927019119263,0.01793430931866169,-0.29601290822029114
1761467598660796700,5.867796630859375,0.13098187744617462,0.07611222565174103,-0.3462591767311096
1761467598670779600,5.877779541015625,0.09972408413887024,0.22392219305038452,-0.3764048218727112
1761467598680763400,5.887763427734375,0.0768962875008583,0.3842640817165375,-0.38655683398246765
1761467598690746600,5.89774658203125,0.06954063475131989,0.46708494424819946,-0.39911550283432007
1761467598700729600,5.9077294921875,0.04883413389325142,0.3867415487766266,-0.41531383991241455
1761467598710712600,5.917712646484375,0.03155474737286568,0.14353634417057037,-0.42814335227012634
1761467598720695600,5.927695556640625,-0.012083832174539566,-0.06107393652200699,-0.38569799065589905
1761467598730678500,5.937678466796875,-0.07932411879301071,-0.16968058049678802,-0.3096682131290436
1761467598740661500,5.94766162109375,-0.13757500052452087,-0.2503347098827362,-0.25090938806533813
1761467598750644700,5.957644775390625,-0.1671086549758911,-0.2730453610420227,-0.2017274647951126
1761467598760627500,5.96762744140625,-0.16330841183662415,-0.23572373390197754,-0.16268344223499298
1761467598770610700,5.977610595703125,-0.1500815600156784,-0.16197441518306732,-0.1237456277012825
1761467598780593700,5.98759375,-0.13067784905433655,-0.1144026666879654,-0.0982399582862854
1761467598790576600,5.99757666015625,-0.10904393345117569,-0.0927511677145958,-0.027070440351963043
1761467598800560400,6.007560302734375,-0.09568508714437485,-0.09138728678226471,0.12788377702236176
1761467598810543600,6.017543701171875,-0.13356056809425354,-0.14081715047359467,0.343482106924057
1761467598820526600,6.027526611328125,-0.20677001774311066,-0.2214035987854004,0.5693467259407043
1761467598830509600,6.037509521484375,-0.29669326543807983,-0.37566080689430237,0.7517900466918945
1761467598840492500,6.047492431640625,-0.385201096534729,-0.5584242343902588,0.826514482498169
1761467598850475500,6.0574755859375,-0.4345982074737549,-0.6269644498825073,0.7983419895172119
1761467598860458500,6.06745849609375,-0.41530641913414,-0.520720899105072,0.7077687382698059
1761467598870441700,6.077441650390625,-0.3331015706062317,-0.34322094917297363,0.5782637596130371
1761467598880424400,6.087424560546875,-0.20685504376888275,-0.15605883300304413,0.4470579922199249
1761467598890407700,6.09740771484375,-0.06674054265022278,0.0014194773975759745,0.3460509479045868
1761467598900390700,6.107390625,0.06999082118272781,0.08473534137010574,0.25916019082069397
1761467598910373600,6.11737353515625,0.16417883336544037,0.10528188943862915,0.20726238191127777
1761467598920357600,6.127357666015625,0.21808910369873047,0.07236690074205399,0.17791962623596191
1761467598930340600,6.137340576171875,0.2349431812763214,0.03191561996936798,0.15863193571567535
1761467598940323600,6.147323486328125,0.21227258443832397,-0.02137206494808197,0.14429518580436707
1761467598950306600,6.157306640625,0.16905799508094788,-0.07656820863485336,0.13317622244358063
1761467598960289500,6.16728955078125,0.1206841692328453,-0.09092379361391068,0.13018779456615448
1761467598970272500,6.1772724609375,0.08493150025606155,-0.003424837253987789,0.14977215230464935
1761467598980255500,6.18725537109375,0.049396488815546036,0.13732486963272095,0.17278516292572021
1761467598990238700,6.19723876953125,0.009915659204125404,0.2578731179237366,0.19954034686088562
1761467599000221400,6.207221435546875,-0.0256658922880888,0.34254559874534607,0.22988997399806976
1761467599010204700,6.21720458984375,-0.06850709766149521,0.4246830642223358,0.2629978656768799
1761467599020187600,6.227187744140625,-0.11674077808856964,0.5219913125038147,0.3170487880706787
1761467599030170600,6.237170654296875,-0.16864392161369324,0.6358017921447754,0.3854883015155792
1761467599040153600,6.247153564453125,-0.2290564924478531,0.7169605493545532,0.4390277564525604
1761467599050137600,6.2571376953125,-0.29798707365989685,0.6434599757194519,0.466968834400177
1761467599060120600,6.26712060546875,-0.3475916385650635,0.5006449818611145,0.5110533237457275
1761467599070103600,6.277103515625,-0.40810319781303406,0.382773220539093,0.5589755773544312
1761467599080086500,6.28708642578125,-0.4516773819923401,0.2565285563468933,0.6246460676193237
1761467599090069500,6.297069580078125,-0.49924567341804504,0.02129022777080536,0.7403713464736938
1761467599100052500,6.307052490234375,-0.5362301468849182,-0.3699355125427246,0.8892428874969482
1761467599110035700,6.31703564453125,-0.5750662088394165,-0.7298332452774048,0.9381465315818787
1761467599120018400,6.327018310546875,-0.6067438721656799,-0.8939763307571411,0.7835716605186462
1761467599130001700,6.337001708984375,-0.6443501114845276,-0.822037935256958,0.45276764035224915
1761467599139984600,6.346984619140625,-0.6640753149986267,-0.5541512370109558,0.043343812227249146
1761467599149967600,6.356967529296875,-0.623778760433197,-0.13065508008003235,-0.3381361663341522
1761467599159951600,6.36695166015625,-0.49422377347946167,-0.02342599630355835,-0.5391067862510681
1761467599169934600,6.3769345703125,-0.34891054034233093,-0.28584325313568115,-0.5240122675895691
1761467599179917600,6.38691748046875,-0.2509533762931824,-0.6351064443588257,-0.4109955430030823
1761467599189900500,6.396900634765625,-0.20296961069107056,-0.8485697507858276,-0.24107332527637482
1761467599199883800,6.4068837890625,-0.2032005339860916,-0.8475701212882996,0.02524457685649395
1761467599209866500,6.416866455078125,-0.2193070650100708,-0.6408693790435791,0.3182053565979004
1761467599219849500,6.426849365234375,-0.23929347097873688,-0.40230152010917664,0.46671298146247864
1761467599229829600,6.43682958984375,-0.23596717417240143,-0.19060419499874115,0.3918211758136749
1761467599239812400,6.446812255859375,-0.15727029740810394,0.029987672343850136,0.2672625780105591
1761467599249795300,6.45679541015625,-0.009559934027493,0.1213894933462143,0.200539231300354
1761467599259778600,6.466778564453125,0.12588025629520416,0.06235630810260773,0.21898557245731354
1761467599269761500,6.476761474609375,0.23159098625183105,-0.0103842094540596,0.25977322459220886
1761467599279744500,6.48674462890625,0.2992626130580902,-0.03664875403046608,0.25661545991897583
1761467599289728500,6.496728515625,0.3334413468837738,-0.022471683099865913,0.180635467171669
1761467599299711500,6.50671142578125,0.33733659982681274,0.005672397557646036,0.056762147694826126
1761467599309694500,6.516694580078125,0.3143964111804962,0.04419422149658203,-0.06308303028345108
1761467599319677400,6.526677490234375,0.2753540873527527,0.07330970466136932,-0.17929166555404663
1761467599329660400,6.536660400390625,0.2231646329164505,0.07755158841609955,-0.2799716591835022
1761467599339643400,6.546643310546875,0.1764628291130066,0.06038427725434303,-0.37351879477500916
1761467599349626600,6.556626708984375,0.1479576826095581,0.007966875098645687,-0.4315381348133087
1761467599359609300,6.566609375,0.12104910612106323,-0.030583709478378296,-0.48083338141441345
1761467599369592300,6.57659228515625,0.10778895765542984,-0.012809504754841328,-0.5341429114341736
1761467599379575600,6.586575439453125,0.13339459896087646,-0.00633595883846283,-0.5472328066825867
1761467599389558500,6.59655859375,0.1706484854221344,-0.006766858510673046,-0.5252556204795837
1761467599399542500,6.60654248046875,0.19243010878562927,-0.01787375658750534,-0.49473878741264343
1761467599409525500,6.616525390625,0.20465321838855743,-0.020654363557696342,-0.47391125559806824
1761467599419508500,6.626508544921875,0.20804646611213684,0.008983608335256577,-0.4543386697769165
1761467599429491500,6.636491455078125,0.18579256534576416,0.06347135454416275,-0.44404610991477966
1761467599439474400,6.646474365234375,0.1679106056690216,0.14337755739688873,-0.4412952661514282
1761467599449457400,6.65645751953125,0.15580147504806519,0.20214499533176422,-0.4615083932876587
1761467599459440400,6.6664404296875,0.1520068198442459,0.23543214797973633,-0.46509063243865967
1761467599469423600,6.676423583984375,0.15367768704891205,0.14718884229660034,-0.5064365267753601
1761467599479406300,6.68640625,0.17650330066680908,-0.007716747000813484,-0.5526412725448608
1761467599489389300,6.696389404296875,0.19027584791183472,-0.1162504181265831,-0.5579465627670288
1761467599499372500,6.70637255859375,0.226064532995224,-0.2732934057712555,-0.4852169454097748
1761467599509355500,6.71635546875,0.26757654547691345,-0.43315789103507996,-0.3386794328689575
1761467599519339500,6.726339599609375,0.2759253680706024,-0.4739636182785034,-0.18349680304527283
1761467599529322500,6.736322509765625,0.2714129090309143,-0.39132198691368103,-0.0926680862903595
1761467599539305500,6.746305419921875,0.2663787305355072,-0.282686322927475,-0.044763319194316864
1761467599549288400,6.756288330078125,0.24913740158081055,-0.2531849145889282,-0.0744466483592987
1761467599559271700,6.766271728515625,0.21619687974452972,-0.2478332370519638,-0.1400449424982071
1761467599569254400,6.77625439453125,0.1843489408493042,-0.22626295685768127,-0.1910545974969864
1761467599579237400,6.7862373046875,0.14419248700141907,-0.16328491270542145,-0.16545553505420685
1761467599589220600,6.796220703125,0.10053689032793045,-0.09129540622234344,-0.00905634369701147
1761467599599203300,6.806203369140625,0.0689292624592781,-0.03135519102215767,0.2566785514354706
1761467599609186300,6.816186279296875,0.042137593030929565,-0.013835318386554718,0.4525340795516968
1761467599619169500,6.82616943359375,0.04562344774603844,0.013020018115639687,0.5141854882240295
1761467599629152500,6.836152587890625,0.06292413920164108,0.10402262955904007,0.4824520945549011
1761467599639135500,6.846135498046875,0.08762536942958832,0.2755085527896881,0.39200419187545776
1761467599649119500,6.856119384765625,0.10919564217329025,0.41562679409980774,0.2905356287956238
1761467599659102500,6.8661025390625,0.12836241722106934,0.45298346877098083,0.20086568593978882
1761467599669085400,6.87608544921875,0.1308780312538147,0.4129428565502167,0.11901502311229706
1761467599679068700,6.886068603515625,0.07359831780195236,0.15703389048576355,0.1457468718290329
1761467599689051400,6.896051513671875,0.10684096068143845,-0.02990616299211979,0.19438019394874573
1761467599699034400,6.906034423828125,0.08817795664072037,0.0423625223338604,0.09653518348932266
1761467599709017600,6.916017578125,0.028085853904485703,0.10357367992401123,0.0057096704840660095
1761467599719000600,6.92600048828125,0.019555505365133286,0.15725649893283844,-0.016345346346497536
1761467599728983300,6.9359833984375,0.030122926458716393,0.2515465021133423,0.035050999373197556
1761467599738966500,6.945966552734375,0.0354405976831913,0.37845727801322937,0.10410672426223755
1761467599748949500,6.955949462890625,0.02328699640929699,0.5043097734451294,0.15777741372585297
1761467599758932500,6.965932373046875,0.0048744408413767815,0.6021282076835632,0.2038107067346573
1761467599768916500,6.97591650390625,-0.012633180245757103,0.6302610039710999,0.2289096713066101
1761467599778899500,6.9858994140625,-0.03552864491939545,0.6018578410148621,0.30730050802230835
1761467599788882400,6.99588232421875,-0.07156360894441605,0.5505017042160034,0.4690246880054474
1761467599798865700,7.00586572265625,-0.156302809715271,0.4499029219150543,0.6162653565406799
1761467599808848400,7.015848388671875,-0.23270145058631897,0.30576223134994507,0.7101362347602844
1761467599818831400,7.025831298828125,-0.27663642168045044,0.08151555806398392,0.7599486708641052
1761467599828814600,7.035814697265625,-0.33843109011650085,-0.21305668354034424,0.7401869893074036
1761467599838797600,7.045797607421875,-0.3549533784389496,-0.5509291291236877,0.676516592502594
1761467599848780300,7.0557802734375,-0.3049216568470001,-0.866887092590332,0.62801194190979
1761467599858763500,7.065763427734375,-0.22525176405906677,-1.154393196105957,0.5832681655883789
1761467599868746500,7.07574658203125,-0.10044804960489273,-1.4624087810516357,0.49724486470222473
1761467599878729200,7.085729248046875,0.026678968220949173,-1.6228970289230347,0.29637280106544495
1761467599888712400,7.09571240234375,0.08356782048940659,-1.4719525575637817,-0.04385746270418167
1761467599898696400,7.105696533203125,0.11386337131261826,-1.0742442607879639,-0.39638495445251465
1761467599908679400,7.115679443359375,0.141353040933609,-0.6790812611579895,-0.6348446607589722
1761467599918662700,7.12566259765625,0.22231368720531464,-0.5840914845466614,-0.7699916958808899
1761467599928645400,7.135645263671875,0.36103829741477966,-0.727054238319397,-0.7818971276283264
1761467599938628400,7.14562841796875,0.5034117102622986,-0.8254024982452393,-0.7257819771766663
1761467599948611600,7.155611572265625,0.5735713839530945,-0.751744270324707,-0.6151614189147949
1761467599958594600,7.165594482421875,0.5308971405029297,-0.6195012927055359,-0.5093790292739868
1761467599968577300,7.175577392578125,0.4042132496833801,-0.5364301204681396,-0.39831775426864624
1761467599978560500,7.185560546875,0.26891958713531494,-0.48769089579582214,-0.3510551452636719
1761467599988543500,7.19554345703125,0.20966611802577972,-0.3782365918159485,-0.310099720954895
1761467599998526500,7.2055263671875,0.2419048547744751,-0.20895443856716156,-0.15396052598953247
1761467600008509400,7.215509521484375,0.30683910846710205,-0.08030512183904648,0.06418060511350632
1761467600018493400,7.225493408203125,0.3849376142024994,0.06896412372589111,0.24832063913345337
1761467600028476400,7.235476318359375,0.4432387351989746,0.16770267486572266,0.3613729178905487
1761467600038459600,7.245459716796875,0.4648383557796478,0.19357919692993164,0.4441825747489929
1761467600048442400,7.2554423828125,0.45088261365890503,0.15529891848564148,0.423783540725708
1761467600058425300,7.26542529296875,0.4134403169155121,0.08077775686979294,0.3267750144004822
1761467600068408600,7.27540869140625,0.36831119656562805,-0.0055030640214681625,0.22310666739940643
1761467600078391600,7.2853916015625,0.3244747519493103,0.009952574968338013,0.1587512493133545
1761467600088374300,7.295374267578125,0.2766989767551422,0.08208535611629486,0.09569104760885239
1761467600098357500,7.305357421875,0.22978787124156952,0.15022151172161102,-0.011783416382968426
1761467600108340500,7.315340576171875,0.17738032341003418,0.1706245243549347,-0.12754543125629425
1761467600118323500,7.325323486328125,0.13790731132030487,0.16785061359405518,-0.253214567899704
1761467600128306400,7.335306396484375,0.09611165523529053,0.15627917647361755,-0.38189929723739624
1761467600138289400,7.345289306640625,0.07044744491577148,0.13719916343688965,-0.4651183485984802
1761467600148273400,7.3552734375,0.0711880698800087,0.14788749814033508,-0.49492231011390686
1761467600158256600,7.365256591796875,0.07000652700662613,0.21217665076255798,-0.5440906286239624
1761467600168239400,7.3752392578125,0.07489902526140213,0.2556042969226837,-0.5890394449234009
1761467600178222300,7.385222412109375,0.0737880989909172,0.34516260027885437,-0.6156385540962219
1761467600188205600,7.39520556640625,0.05617208406329155,0.4401165246963501,-0.666435182094574
1761467600198188500,7.4051884765625,0.03340047970414162,0.5275070071220398,-0.7353306412696838
1761467600208171300,7.415171142578125,0.017689161002635956,0.535499095916748,-0.7994555830955505
1761467600218154500,7.425154541015625,-0.004781690426170826,0.48070958256721497,-0.8137035369873047
1761467600228137500,7.435137451171875,-0.010737317614257336,0.3667478561401367,-0.7974066138267517
1761467600238123800,7.445123779296875,-0.034951064735651016,0.16729958355426788,-0.765795886516571
1761467600248106800,7.455106689453125,-0.01938062533736229,-0.028615329414606094,-0.720069169998169
1761467600258089700,7.46508984375,0.006890514399856329,-0.14349231123924255,-0.6338953971862793
1761467600268073700,7.47507373046875,0.03863326460123062,-0.16641519963741302,-0.5157346725463867
1761467600278057000,7.485056884765625,0.03424724191427231,0.014318985864520073,-0.39590734243392944
1761467600288039700,7.495039794921875,0.027736347168684006,0.08899801969528198,-0.283163458108902
1761467600298022700,7.505022705078125,0.036548107862472534,0.06634525209665298,-0.22837819159030914
1761467600308006000,7.515005859375,0.03200528770685196,-0.05931733921170235,-0.22546975314617157
1761467600317988900,7.52498876953125,0.0224491897970438,-0.24167084693908691,-0.26294758915901184
1761467600327971600,7.5349716796875,0.0020395226310938597,-0.3783373534679413,-0.3342241644859314
1761467600337954800,7.544954833984375,-0.025920182466506958,-0.4140528440475464,-0.3408114016056061
1761467600347937800,7.554937744140625,-0.06061051785945892,-0.37324655055999756,-0.21358183026313782
1761467600357920800,7.564920654296875,-0.07991933822631836,-0.27420005202293396,-0.007602083496749401
1761467600367903700,7.57490380859375,-0.06935777515172958,-0.15117454528808594,0.225446879863739
1761467600377886700,7.58488671875,-0.021852020174264908,-0.09311188757419586,0.3469957709312439
1761467600387870700,7.59487060546875,0.043390367180109024,-0.0804019495844841,0.35046079754829407
1761467600397854000,7.60485400390625,0.09080604463815689,-0.10926370322704315,0.28214672207832336
1761467600407836700,7.614836669921875,0.10933578759431839,-0.13873344659805298,0.19191057980060577
1761467600417819600,7.624819580078125,0.10805300623178482,-0.17249923944473267,0.10823775827884674
1761467600427803000,7.634802978515625,0.1067720279097557,-0.1619912087917328,0.026653677225112915
1761467600437785900,7.644785888671875,0.12102586030960083,-0.12569215893745422,-0.05541946738958359
1761467600447768600,7.6547685546875,0.14636103808879852,-0.09075068682432175,-0.12376204133033752
1761467600457751800,7.664751708984375,0.17781871557235718,-0.021936798468232155,-0.1559201329946518
1761467600467734800,7.67473486328125,0.1952754706144333,0.09433548152446747,-0.17624512314796448
1761467600477717800,7.6847177734375,0.20711931586265564,0.2350732833147049,-0.18230493366718292
1761467600487700700,7.69470068359375,0.19607332348823547,0.3362259864807129,-0.17340518534183502
1761467600497683700,7.70468359375,0.18319815397262573,0.34390223026275635,-0.1461832970380783
1761467600507667000,7.7146669921875,0.16783703863620758,0.2816503047943115,-0.09896812587976456
1761467600517651000,7.72465087890625,0.15788763761520386,0.22641882300376892,-0.05124102532863617
1761467600527633700,7.734633544921875,0.13814881443977356,0.1907564401626587,0.008200463838875294
1761467600537616600,7.74461669921875,0.10562237352132797,0.16940803825855255,0.0742807537317276
1761467600547600000,7.754599853515625,0.04927201569080353,0.16671505570411682,0.12186452001333237
1761467600557582800,7.764582763671875,-0.03958265110850334,0.18845729529857635,0.14092527329921722
1761467600567565600,7.774565673828125,-0.13299249112606049,0.2089862823486328,0.15530714392662048
1761467600577548800,7.784548828125,-0.22665104269981384,0.22508840262889862,0.16199813783168793
1761467600587531800,7.79453173828125,-0.2982322871685028,0.26246532797813416,0.14041614532470703
1761467600597514800,7.8045146484375,-0.33200815320014954,0.2915716767311096,0.09937336295843124
1761467600607497700,7.814497802734375,-0.299769788980484,0.22246743738651276,0.05260638892650604
1761467600617480700,7.824480712890625,-0.21856868267059326,0.0339403972029686,-0.029877187684178352
1761467600627464000,7.8344638671875,-0.11128777265548706,-0.11913037300109863,-0.11835485696792603
1761467600637448000,7.844447998046875,-0.012534541077911854,-0.19467373192310333,-0.2808697521686554
1761467600647430700,7.8544306640625,0.08022016286849976,-0.20245547592639923,-0.5037187933921814
1761467600657413600,7.86441357421875,0.14817653596401215,-0.24660058319568634,-0.7264964580535889
1761467600667396900,7.87439697265625,0.2237224280834198,-0.37393510341644287,-0.8562563061714172
1761467600677379800,7.8843798828125,0.29088127613067627,-0.5079353451728821,-0.8755074739456177
1761467600687362600,7.894362548828125,0.34109118580818176,-0.5576627254486084,-0.8183232545852661
1761467600697345800,7.904345703125,0.35235655307769775,-0.568487823009491,-0.7505396008491516
1761467600707328800,7.914328857421875,0.33162811398506165,-0.5490928292274475,-0.7475634813308716
1761467600717311700,7.924311767578125,0.3066256642341614,-0.4881332814693451,-0.7429474592208862
1761467600727294700,7.934294677734375,0.2853139638900757,-0.4385063350200653,-0.7164703011512756
1761467600737277700,7.944277587890625,0.2604268193244934,-0.4240666329860687,-0.6662487387657166
1761467600747261000,7.954260986328125,0.25569435954093933,-0.4036524295806885,-0.5589832663536072
1761467600757245000,7.964244873046875,0.28064340353012085,-0.3224077820777893,-0.42168521881103516
1761467600767227600,7.9742275390625,0.33106929063796997,-0.22233577072620392,-0.27967482805252075
1761467600777210600,7.984210693359375,0.3881259262561798,-0.17925222218036652,-0.17730450630187988
1761467600787193900,7.99419384765625,0.4225880205631256,-0.202455535531044,-0.13057801127433777
1761467600797176800,8.0041767578125,0.44259652495384216,-0.2705407738685608,-0.12280868738889694
1761467600807159600,8.01415966796875,0.4326043426990509,-0.29284048080444336,-0.10910672694444656
1761467600817142800,8.024142822265626,0.38914212584495544,-0.2582690417766571,-0.07971745729446411
1761467600827125800,8.034125732421876,0.319243460893631,-0.22596357762813568,-0.08226504176855087
1761467600837108700,8.044108642578125,0.23754842579364777,-0.22893734276294708,-0.12016335874795914
1761467600847091700,8.054091796875,0.16625002026557922,-0.24649344384670258,-0.16330018639564514
1761467600857074700,8.06407470703125,0.12252513319253922,-0.25909364223480225,-0.20333659648895264
1761467600867058000,8.074057861328125,0.09942620992660522,-0.2712635099887848,-0.2558586597442627
1761467600877042000,8.0840419921875,0.07954227179288864,-0.2739108204841614,-0.32774433493614197
1761467600887024600,8.094024658203125,0.04310968890786171,-0.25356853008270264,-0.4162537157535553
1761467600897007600,8.104007568359375,0.013771462254226208,-0.2054859697818756,-0.5142984390258789
1761467600906990800,8.113990966796875,-0.008751955814659595,-0.12539167702198029,-0.6145329475402832
1761467600916973800,8.123973876953125,-0.020954636856913567,-0.007943909615278244,-0.6874179244041443
1761467600926956500,8.13395654296875,-0.0024294224567711353,0.1124887615442276,-0.736602783203125
1761467600936939800,8.143939697265624,0.06293938308954239,0.19278915226459503,-0.7559035420417786
1761467600946922800,8.1539228515625,0.15536679327487946,0.2522013485431671,-0.7354813814163208
1761467600956905700,8.16390576171875,0.22977125644683838,0.27826160192489624,-0.7133008241653442
1761467600966888700,8.173888671875,0.28723934292793274,0.2972105145454407,-0.6895145177841187
1761467600976871700,8.18387158203125,0.30275410413742065,0.27926182746887207,-0.6623153686523438
1761467600986855000,8.19385498046875,0.287154883146286,0.23260565102100372,-0.5892491340637207
1761467600996839000,8.2038388671875,0.26113030314445496,0.1858985275030136,-0.466708779335022
1761467601006822000,8.21382177734375,0.19866427779197693,0.10297434031963348,-0.36198341846466064
1761467601016804600,8.2238046875,0.1321738362312317,-0.0054103657603263855,-0.2916082739830017
1761467601026787800,8.233787841796875,0.07998838275671005,0.014500224962830544,-0.257628470659256
1761467601036770800,8.243770751953125,0.05176416039466858,0.15947310626506805,-0.26086267828941345
1761467601046753500,8.25375341796875,0.028393857181072235,0.22355514764785767,-0.3110499382019043
1761467601056736800,8.26373681640625,0.027916643768548965,0.20696885883808136,-0.3381519019603729
1761467601066719700,8.2737197265625,0.02866925299167633,0.13098940253257751,-0.33249160647392273
1761467601076702700,8.28370263671875,0.03474236652255058,0.01120684016495943,-0.2777232229709625
1761467601086685700,8.293685791015625,0.04445997253060341,-0.10147683322429657,-0.12331927567720413
1761467601096668700,8.303668701171874,0.05699760094285011,-0.1566721796989441,0.08298954367637634
1761467601106652000,8.31365185546875,0.0774080753326416,-0.15264707803726196,0.23919352889060974
1761467601116636000,8.323635986328124,0.12740014493465424,-0.1554051637649536,0.30021101236343384
1761467601126619000,8.333618896484374,0.16665993630886078,-0.1846322864294052,0.3117901682853699
1761467601136601600,8.3436015625,0.16884760558605194,-0.20528064668178558,0.30323129892349243
1761467601146584800,8.353584716796876,0.13681244850158691,-0.2244948297739029,0.18954655528068542
1761467601156567800,8.36356787109375,0.08691610395908356,-0.16320103406906128,0.08672019839286804
1761467601166550500,8.373550537109375,0.04514229670166969,-0.11957740038633347,0.03343114256858826
1761467601176533800,8.38353369140625,0.015465381555259228,-0.12771694362163544,-0.008184791542589664
1761467601186516700,8.393516845703125,0.040029846131801605,-0.11352148652076721,-0.009679091162979603
1761467601196499700,8.403499755859375,0.07394231855869293,-0.12149178236722946,0.016343506053090096
1761467601206482700,8.413482666015625,0.12701085209846497,-0.14975270628929138,0.032228466123342514
1761467601216465700,8.423465576171875,0.15074551105499268,-0.15628983080387115,0.044796139001846313
1761467601226449000,8.433448974609375,0.14810551702976227,-0.14215217530727386,0.05420668423175812
1761467601236434700,8.4434345703125,0.1106920912861824,-0.12140827625989914,0.056436166167259216
1761467601246417700,8.453417724609375,0.05650235712528229,-0.09361153095960617,0.07703465223312378
1761467601256401000,8.46340087890625,-0.0052453274838626385,-0.07400275766849518,0.1076313778758049
1761467601266383600,8.473383544921875,-0.0661904364824295,-0.02895325794816017,0.13150927424430847
1761467601276366600,8.48336669921875,-0.13401645421981812,0.03442313149571419,0.1752168834209442
1761467601286349800,8.493349853515625,-0.17641957104206085,0.11264283210039139,0.23861077427864075
1761467601296332500,8.50333251953125,-0.1959497034549713,0.14999374747276306,0.31491315364837646
1761467601306315800,8.513315673828124,-0.1986304372549057,0.1557815968990326,0.3766375184059143
1761467601316298800,8.523298828125,-0.22036631405353546,0.1777217984199524,0.4206739068031311
1761467601326281700,8.53328173828125,-0.251499742269516,0.21997711062431335,0.4234260022640228
1761467601336264700,8.5432646484375,-0.2792799174785614,0.27681764960289,0.3604837954044342
1761467601346248700,8.553248779296876,-0.2994227111339569,0.3945900797843933,0.246143639087677
1761467601356231700,8.563231689453126,-0.31679201126098633,0.5360026955604553,0.09441086649894714
1761467601366214700,8.573214599609376,-0.3380568027496338,0.5973184704780579,-0.08457832038402557
1761467601376198000,8.583197998046876,-0.36291807889938354,0.6030051112174988,-0.25054070353507996
1761467601386180600,8.5931806640625,-0.36829739809036255,0.5566919445991516,-0.3382399380207062
1761467601396163600,8.60316357421875,-0.3353951573371887,0.4454352855682373,-0.29093578457832336
1761467601406146800,8.613146728515625,-0.2640019357204437,0.28293025493621826,-0.12394201755523682
1761467601416129800,8.6231298828125,-0.18085506558418274,0.11987517774105072,0.002039738465100527
1761467601426112800,8.63311279296875,-0.0641055479645729,-0.057067640125751495,0.022211585193872452
1761467601436095700,8.643095703125,0.06610704958438873,-0.22787533700466156,-0.018739162012934685
1761467601446078700,8.65307861328125,0.15013325214385986,-0.3022601008415222,-0.09972242265939713
1761467601456061700,8.663061767578125,0.17959453165531158,-0.29055798053741455,-0.22365647554397583
1761467601466045700,8.673045654296875,0.18529236316680908,-0.2129225879907608,-0.3209529221057892
1761467601476028700,8.683028564453124,0.19097761809825897,-0.15536785125732422,-0.402108758687973
1761467601486011600,8.69301171875,0.1996488720178604,-0.15084554255008698,-0.45263320207595825
1761467601495995000,8.702994873046874,0.2279941737651825,-0.1709846407175064,-0.4491786062717438
1761467601505977600,8.7129775390625,0.28219136595726013,-0.16798245906829834,-0.4033844769001007
1761467601515960600,8.722960693359376,0.3550431430339813,-0.15747672319412231,-0.320421040058136
1761467601525943800,8.73294384765625,0.42571011185646057,-0.21399939060211182,-0.23716981709003448
1761467601535926800,8.7429267578125,0.4683433771133423,-0.32851195335388184,-0.19677618145942688
1761467601545909800,8.75290966796875,0.4917570948600769,-0.3860010802745819,-0.1440621018409729
1761467601555892700,8.762892822265625,0.47555625438690186,-0.40420034527778625,-0.10249035060405731
1761467601565875700,8.772875732421875,0.4405572712421417,-0.38878223299980164,-0.08796067535877228
1761467601575859000,8.78285888671875,0.3843008577823639,-0.34620484709739685,-0.0944240614771843
1761467601585842700,8.7928427734375,0.32103025913238525,-0.2895897924900055,-0.1145612895488739
1761467601595825700,8.80282568359375,0.25489160418510437,-0.24050524830818176,-0.15090981125831604
1761467601605808600,8.81280859375,0.20675840973854065,-0.20486043393611908,-0.21719536185264587
1761467601615791900,8.8227919921875,0.18632036447525024,-0.19726252555847168,-0.3179592788219452
1761467601625774600,8.832774658203125,0.19566352665424347,-0.18846556544303894,-0.4539770483970642
1761467601635757600,8.842757568359374,0.23097793757915497,-0.14454585313796997,-0.5798279047012329
1761467601645740800,8.85274072265625,0.258564829826355,-0.09663453698158264,-0.6878888607025146
1761467601655723800,8.862723876953124,0.2908916473388672,-0.053086623549461365,-0.7611926198005676
1761467601665706800,8.872706787109376,0.32471728324890137,-0.044789280742406845,-0.8055970668792725
1761467601675689700,8.882689697265626,0.3657015860080719,-0.06662952899932861,-0.8171665072441101
1761467601685672700,8.892672607421876,0.414595365524292,-0.08224763721227646,-0.7942276000976562
1761467601695656000,8.902656005859376,0.4510369300842285,-0.10217305272817612,-0.7749173045158386
1761467601705639700,8.9126396484375,0.44519075751304626,-0.12143196910619736,-0.7876525521278381
1761467601715622700,8.92262255859375,0.4112904667854309,-0.10339976102113724,-0.8113570213317871
1761467601725605600,8.932605712890625,0.35652095079421997,-0.00022996636107563972,-0.7960352897644043
1761467601735588900,8.9425888671875,0.30132120847702026,0.17999590933322906,-0.7152742147445679
1761467601745571600,8.952571533203125,0.2452206313610077,0.34482666850090027,-0.5984389185905457
1761467601755554600,8.962554443359375,0.20332466065883636,0.4373539686203003,-0.48311513662338257
1761467601765537800,8.972537841796875,0.18412967026233673,0.42365413904190063,-0.3652960956096649
1761467601775520800,8.982520751953125,0.1989384889602661,0.2875858247280121,-0.22886087000370026
1761467601785503700,8.992503662109375,0.2268926203250885,0.12410394847393036,-0.09613077342510223
1761467601795486700,9.00248681640625,0.2288578897714615,0.09145139902830124,-0.024927329272031784
1761467601805469700,9.0124697265625,0.22142954170703888,0.1972169727087021,-0.0050396425649523735
1761467601815453000,9.022452880859374,0.21316465735435486,0.2691531777381897,-0.020956609398126602
1761467601825437000,9.03243701171875,0.2197016477584839,0.18646632134914398,-0.0318518690764904
1761467601835419600,9.042419677734374,0.2031029313802719,0.024613741785287857,0.06265529245138168
1761467601845402600,9.052402587890626,0.16178052127361298,-0.10908705741167068,0.25342899560928345
1761467601855385900,9.0623857421875,0.09034193307161331,-0.20654283463954926,0.4053936302661896
1761467601865368600,9.07236865234375,0.018828606233000755,-0.26088088750839233,0.4557023346424103
1761467601875351600,9.0823515625,-0.03594053164124489,-0.2671133279800415,0.43317779898643494
1761467601885334800,9.092334716796875,-0.04860306531190872,-0.2932237386703491,0.3415863513946533
1761467601895317800,9.10231787109375,-0.023051917552947998,-0.3351987600326538,0.19492517411708832
1761467601905300700,9.11230078125,0.009225062094628811,-0.36502960324287415,0.041181694716215134
1761467601915283700,9.12228369140625,0.04148714616894722,-0.37403684854507446,-0.07759679108858109
1761467601925266700,9.1322666015625,0.06760983169078827,-0.3571777045726776,-0.1518385261297226
1761467601935250000,9.14225,0.09129438549280167,-0.3772296905517578,-0.210220605134964
1761467601945234000,9.15223388671875,0.12162486463785172,-0.4250963032245636,-0.22481712698936462
1761467601955216600,9.162216552734375,0.15048635005950928,-0.4593638479709625,-0.19540256261825562
1761467601965199600,9.17219970703125,0.16170811653137207,-0.49643316864967346,-0.1552191972732544
1761467601975182800,9.182182861328124,0.16560201346874237,-0.500435471534729,-0.11519677191972733
1761467601985165600,9.19216552734375,0.15387292206287384,-0.4346494972705841,-0.06727585196495056
1761467601995148500,9.2021484375,0.11926490813493729,-0.34139105677604675,-0.006949141621589661
1761467602005131800,9.2121318359375,0.07028219103813171,-0.22723545134067535,0.06876532733440399
1761467602015114800,9.22211474609375,0.02621348947286606,-0.08640192449092865,0.15587502717971802
1761467602025097700,9.23209765625,-0.011500334367156029,0.05482923239469528,0.25263512134552
1761467602035080700,9.242080810546875,-0.04987744614481926,0.17294806241989136,0.3415384292602539
1761467602045063700,9.252063720703125,-0.08677101880311966,0.23882295191287994,0.40045633912086487
1761467602055047700,9.262047607421875,-0.13287408649921417,0.26314225792884827,0.4140673577785492
1761467602065031000,9.272031005859375,-0.1694515347480774,0.2610580623149872,0.40734076499938965
1761467602075013600,9.282013671875,-0.21182683110237122,0.23104645311832428,0.38434290885925293
1761467602084996600,9.29199658203125,-0.24568387866020203,0.20257937908172607,0.3459811210632324
1761467602094979800,9.301979736328125,-0.26815032958984375,0.19512422382831573,0.35288622975349426
1761467602104962800,9.311962890625,-0.27719151973724365,0.18545295298099518,0.40531107783317566
1761467602114945500,9.321945556640625,-0.27151599526405334,0.20184195041656494,0.42744073271751404
1761467602124928800,9.3319287109375,-0.29632332921028137,0.2502603530883789,0.35186952352523804
1761467602134911700,9.341911865234374,-0.32364752888679504,0.3408030867576599,0.19115324318408966
1761467602144894700,9.351894775390624,-0.337064266204834,0.42718032002449036,0.03017660789191723
1761467602154877700,9.361877685546874,-0.30959552526474,0.39908456802368164,-0.11701871454715729
1761467602164860700,9.371860595703126,-0.2575882375240326,0.22115875780582428,-0.26306644082069397
1761467602174844700,9.3818447265625,-0.18546108901500702,-0.03344437852501869,-0.3946479260921478
1761467602184828000,9.391827880859376,-0.11306837946176529,-0.2662808299064636,-0.5027467012405396
1761467602194810600,9.401810546875,-0.05902233347296715,-0.4192814826965332,-0.5911598801612854
1761467602204793600,9.411793701171876,-0.025053713470697403,-0.4837307929992676,-0.6454372406005859
1761467602214776800,9.42177685546875,0.007211016025394201,-0.41828814148902893,-0.6401818990707397
1761467602224759800,9.431759765625,0.04951053485274315,-0.2296106219291687,-0.5900129675865173
1761467602234737700,9.441737548828126,0.0900026485323906,-0.08786703646183014,-0.5128964781761169
1761467602244720600,9.451720703125,0.14019151031970978,-0.02072821371257305,-0.41075366735458374
1761467602254703900,9.461703857421876,0.22509361803531647,-0.046866752207279205,-0.2900775074958801
1761467602264686800,9.471686767578126,0.3063730001449585,-0.1442292481660843,-0.16942141950130463
1761467602274669600,9.481669677734375,0.366809606552124,-0.25746026635169983,-0.08027346432209015
1761467602284652800,9.49165283203125,0.3968753516674042,-0.3482793867588043,-0.013506416231393814
1761467602294636800,9.50163671875,0.40582382678985596,-0.36740610003471375,0.046852461993694305
1761467602304619800,9.511619873046875,0.40567946434020996,-0.3028857111930847,0.13567927479743958
1761467602314602500,9.5216025390625,0.392612487077713,-0.21554529666900635,0.2937140166759491
1761467602324585700,9.531585693359375,0.3773994445800781,-0.20794889330863953,0.35862722992897034
1761467602334568700,9.541568603515625,0.26138561964035034,-0.36383217573165894,0.05346525087952614
1761467602344551700,9.5515517578125,0.2395213097333908,-0.4012090861797333,-0.18671965599060059
1761467602354534700,9.56153466796875,0.1793440878391266,-0.3540287911891937,-0.20502467453479767
1761467602364517600,9.571517578125,0.16107799112796783,-0.3138371407985687,-0.1819438487291336
1761467602374500900,9.5815009765625,0.1641353815793991,-0.2454681545495987,-0.177320197224617
1761467602384483800,9.59148388671875,0.16947822272777557,-0.22994032502174377,-0.17934340238571167
1761467602394466600,9.601466552734376,0.1665225327014923,-0.24911101162433624,-0.15921783447265625
