time,seconds_elapsed,z,y,x
1761467444312275700,0.122275634765625,0.31735286116600037,-0.4189460277557373,0.21233640611171722
1761467444322258700,0.1322587890625,0.3469932973384857,-0.15851284563541412,0.2202574461698532
1761467444332241700,0.14224169921875,0.3750213086605072,0.17178772389888763,0.19969739019870758
1761467444342225000,0.152224853515625,0.37966132164001465,0.5188546180725098,0.1598370522260666
1761467444352207600,0.16220751953125,0.3637591600418091,0.8537009358406067,0.11362148821353912
1761467444362190800,0.17219091796875,0.3357405662536621,1.1836930513381958,0.06077904254198074
1761467444372173800,0.182173828125,0.30273377895355225,1.4583981037139893,0.0008492893539369106
1761467444382156500,0.192156494140625,0.2672854959964752,1.6193864345550537,-0.06914737075567245
1761467444392138800,0.202138671875,0.25773167610168457,1.6243144273757935,-0.14294090867042542
1761467444402121700,0.212121826171875,0.26788604259490967,1.5065933465957642,-0.21242064237594604
1761467444412104700,0.222104736328125,0.2998017966747284,1.3416211605072021,-0.2842966318130493
1761467444422087700,0.232087646484375,0.33562344312667847,1.1380773782730103,-0.38713592290878296
1761467444432070700,0.242070556640625,0.3735847771167755,0.8935748338699341,-0.5327739119529724
1761467444442054000,0.252053955078125,0.3936820328235626,0.6111284494400024,-0.6673088073730469
1761467444452036600,0.26203662109375,0.38636887073516846,0.3243187665939331,-0.8046643733978271
1761467444462019600,0.27201953125,0.3660516142845154,0.14001841843128204,-0.8970319032669067
1761467444472001800,0.282001708984375,0.33783623576164246,0.10408645868301392,-0.9120534062385559
1761467444481984500,0.291984619140625,0.3239966034889221,0.16268399357795715,-0.8750152587890625
1761467444491967700,0.3019677734375,0.33910292387008667,0.2545287311077118,-0.7883864641189575
1761467444501950700,0.31195068359375,0.3999950587749481,0.33616551756858826,-0.6610333323478699
1761467444511933700,0.32193359375,0.4546259641647339,0.4213029742240906,-0.4924769103527069
1761467444521916700,0.331916748046875,0.4578973948955536,0.5439983010292053,-0.32369616627693176
1761467444531899600,0.341899658203125,0.43163928389549255,0.6165432333946228,-0.232453390955925
1761467444541883000,0.3518828125,0.3879735767841339,0.6310766339302063,-0.25884076952934265
1761467444551864600,0.361864501953125,0.3198746144771576,0.5961885452270508,-0.390381395816803
1761467444561847800,0.371847900390625,0.2333383858203888,0.5643142461776733,-0.5506056547164917
1761467444571830800,0.381830810546875,0.14445693790912628,0.5897363424301147,-0.6229872107505798
1761467444581813800,0.391813720703125,0.06785297393798828,0.7201521396636963,-0.56850266456604
1761467444591796700,0.401796630859375,0.012144124135375023,0.9078078866004944,-0.3964737057685852
1761467444601779700,0.41177978515625,-0.03389900177717209,1.0886107683181763,-0.20653389394283295
1761467444611762700,0.4217626953125,-0.07213468849658966,1.2589662075042725,-0.09551426768302917
1761467444621746000,0.431745849609375,-0.09996365010738373,1.4513421058654785,-0.056468598544597626
1761467444631728600,0.441728759765625,-0.13219054043293,1.6899629831314087,-0.1257542222738266
1761467444641710800,0.4517109375,-0.183074489235878,1.7524082660675049,-0.15995533764362335
1761467444651693800,0.46169384765625,-0.20284105837345123,1.5281833410263062,-0.13154342770576477
1761467444661676500,0.471676513671875,-0.20104262232780457,1.0861473083496094,-0.07149633020162582
1761467444671659800,0.48165966796875,-0.18442195653915405,0.6440470218658447,-0.06276549398899078
1761467444681642800,0.491642822265625,-0.1793994903564453,0.2696947157382965,-0.14082594215869904
1761467444691625700,0.501625732421875,-0.17286017537117004,-0.0943474993109703,-0.24665899574756622
1761467444701608700,0.511608642578125,-0.179660826921463,-0.41317394375801086,-0.3215388357639313
1761467444711591700,0.521591796875,-0.2213418334722519,-0.6033514738082886,-0.3278559744358063
1761467444721574000,0.531573974609375,-0.28953394293785095,-0.6291031837463379,-0.2600044906139374
1761467444731556600,0.541556640625,-0.350799560546875,-0.4733748435974121,-0.15275323390960693
1761467444741539800,0.551539794921875,-0.3769720494747162,-0.17843693494796753,-0.06208644434809685
1761467444751522800,0.561522705078125,-0.38010841608047485,0.16125838458538055,-0.013347888365387917
1761467444761505500,0.571505615234375,-0.3648940324783325,0.48363587260246277,0.031195877119898796
1761467444771488800,0.58148876953125,-0.35466498136520386,0.730954110622406,0.09013304114341736
1761467444781471700,0.5914716796875,-0.34468182921409607,0.9331242442131042,0.19360031187534332
1761467444791454700,0.601454833984375,-0.34527209401130676,1.1315189599990845,0.3127140402793884
1761467444801437700,0.611437744140625,-0.3624369502067566,1.3386540412902832,0.4328628182411194
1761467444811419600,0.621419677734375,-0.46026378870010376,1.4813028573989868,0.5655425190925598
1761467444821403000,0.63140283203125,-0.6347847580909729,1.5788880586624146,0.802830696105957
1761467444831385600,0.641385498046875,-0.7112135887145996,1.7541041374206543,1.0839793682098389
1761467444841368600,0.65136865234375,-0.8173429369926453,1.6967295408248901,1.1903880834579468
1761467444851351800,0.661351806640625,-0.9145531058311462,1.295658826828003,1.0513347387313843
1761467444861334800,0.671334716796875,-1.0024396181106567,0.6452637910842896,0.8305084705352783
1761467444871317500,0.6813173828125,-0.9827646017074585,-0.004000313580036163,0.6938173174858093
1761467444881300700,0.69130078125,-0.8096029162406921,-0.49193161725997925,0.6148378252983093
1761467444891283700,0.70128369140625,-0.5646853446960449,-0.6790122985839844,0.5299493074417114
1761467444901265700,0.711265625,-0.37290021777153015,-0.581082284450531,0.36888429522514343
1761467444911248600,0.72124853515625,-0.26148658990859985,-0.4133133292198181,0.10026613622903824
1761467444921232000,0.73123193359375,-0.2308008372783661,-0.4852794110774994,-0.2049587517976761
1761467444931214800,0.74121484375,-0.2515713572502136,-0.7371421456336975,-0.42451778054237366
1761467444941197600,0.751197509765625,-0.25294288992881775,-0.8381561040878296,-0.4822646975517273
1761467444951180800,0.761180908203125,-0.2818323075771332,-0.7040823698043823,-0.3332241177558899
1761467444961163800,0.771163818359375,-0.30840399861335754,-0.31496790051460266,0.03268514946103096
1761467444971146800,0.781146728515625,-0.3200113773345947,0.1549987941980362,0.3551301062107086
1761467444981128700,0.791128662109375,-0.31491169333457947,0.37787315249443054,0.3242896497249603
1761467444991111700,0.801111572265625,-0.2523937523365021,0.32230502367019653,0.12167813628911972
1761467445001095000,0.811094970703125,-0.13536939024925232,0.06713557243347168,-0.011114799417555332
1761467445011077600,0.82107763671875,-0.00772896921262145,-0.15006838738918304,-0.0646081417798996
1761467445021060600,0.831060546875,0.07473447918891907,-0.23974767327308655,-0.12581025063991547
1761467445031043800,0.8410439453125,0.11371248960494995,-0.24055789411067963,-0.1979430764913559
1761467445041026800,0.85102685546875,0.12844668328762054,-0.17612484097480774,-0.21571993827819824
1761467445051009500,0.861009521484375,0.13080474734306335,-0.06461160629987717,-0.16841571033000946
1761467445060992800,0.87099267578125,0.14750197529792786,0.07722435891628265,-0.0831546038389206
1761467445070975700,0.880975830078125,0.15388566255569458,0.17975501716136932,-0.013237732462584972
1761467445080957400,0.89095751953125,0.13998475670814514,0.2363613098859787,0.009577834978699684
1761467445090940400,0.9009404296875,0.12133768945932388,0.2687148153781891,-0.019770050421357155
1761467445100923600,0.910923583984375,0.09460381418466568,0.2321392297744751,-0.08841995149850845
1761467445110906400,0.92090625,0.08005884289741516,0.15819726884365082,-0.17979314923286438
1761467445120889300,0.930889404296875,0.10050232708454132,0.12126774340867996,-0.253941148519516
1761467445130872600,0.94087255859375,0.1515272855758667,0.1010666936635971,-0.30054524540901184
1761467445140855600,0.95085546875,0.19730542600154877,0.11067990958690643,-0.31200137734413147
1761467445150838300,0.96083837890625,0.24641582369804382,0.16374695301055908,-0.32447412610054016
1761467445160821500,0.970821533203125,0.27584347128868103,0.2603403329849243,-0.3819475471973419
1761467445170803500,0.980803466796875,0.26303189992904663,0.43332231044769287,-0.4588465690612793
1761467445180786400,0.990786376953125,0.271560400724411,0.6517614126205444,-0.5308986902236938
1761467445190769400,1.000769287109375,0.2911311984062195,0.8029457926750183,-0.5624110698699951
1761467445200752400,1.01075244140625,0.30302515625953674,0.8228276371955872,-0.5480976104736328
1761467445210735600,1.020735595703125,0.31830736994743347,0.6898412108421326,-0.4738710820674896
1761467445220718300,1.03071826171875,0.3213585615158081,0.4391738772392273,-0.3349829912185669
1761467445230701600,1.04070166015625,0.32718536257743835,0.1735295057296753,-0.18073338270187378
1761467445240684500,1.0506845703125,0.33843615651130676,-0.09154369682073593,-0.09686723351478577
1761467445250667500,1.06066748046875,0.3347146809101105,-0.3603547215461731,-0.13897153735160828
1761467445260649500,1.0706494140625,0.2775866687297821,-0.6752623319625854,-0.25994136929512024
1761467445270632400,1.080632568359375,0.15628065168857574,-0.9098184108734131,-0.3096408545970917
1761467445280615700,1.09061572265625,0.011881409212946892,-1.0089987516403198,-0.2649570107460022
1761467445290598400,1.100598388671875,-0.0682457759976387,-1.1379835605621338,-0.12842458486557007
1761467445300581400,1.110581298828125,-0.03368273749947548,-1.2704449892044067,0.03437047079205513
1761467445310564600,1.120564697265625,0.062252163887023926,-1.240408182144165,0.11792357265949249
1761467445320547600,1.130547607421875,0.18993476033210754,-1.0141830444335938,0.0007884248625487089
1761467445330530300,1.1405302734375,0.2479807436466217,-0.8744456768035889,-0.1855839043855667
1761467445340513500,1.150513427734375,0.2707718014717102,-0.7542622685432434,-0.25201937556266785
1761467445350496500,1.16049658203125,0.2651187777519226,-0.550987184047699,-0.11605184525251389
1761467445360478500,1.170478515625,0.27966657280921936,-0.3633536398410797,0.25440797209739685
1761467445370461400,1.18046142578125,0.2985122799873352,-0.006869721692055464,0.609306812286377
1761467445380444400,1.1904443359375,0.2551368474960327,0.34432530403137207,0.8201373219490051
1761467445390427600,1.200427734375,0.23940609395503998,0.3840712606906891,0.841242253780365
1761467445400410400,1.210410400390625,0.23753362894058228,0.23801392316818237,0.692476749420166
1761467445410393600,1.2203935546875,0.2697920799255371,0.10637868940830231,0.43586426973342896
1761467445420376600,1.23037646484375,0.2759229242801666,0.14327146112918854,0.175938680768013
1761467445430359300,1.240359375,0.26473182439804077,0.3090856671333313,-0.1107223778963089
1761467445440342500,1.250342529296875,0.24854673445224762,0.4804001450538635,-0.34603822231292725
1761467445450325500,1.260325439453125,0.24877895414829254,0.6251899600028992,-0.4719373285770416
1761467445460307500,1.270307373046875,0.2619469463825226,0.7421852946281433,-0.5274293422698975
1761467445470290400,1.28029052734375,0.2609789967536926,0.8343923091888428,-0.5800553560256958
1761467445480273400,1.2902734375,0.2242039442062378,0.9106918573379517,-0.6317899227142334
1761467445490256600,1.300256591796875,0.15915560722351074,0.9800884127616882,-0.6479260325431824
1761467445500239400,1.3102392578125,0.09289829432964325,1.015138030052185,-0.6111147403717041
1761467445510222300,1.320222412109375,0.06063412129878998,1.0207756757736206,-0.4843030571937561
1761467445520205600,1.33020556640625,0.0540449284017086,0.9944982528686523,-0.32055434584617615
1761467445530188500,1.3401884765625,0.07736431807279587,0.8850907683372498,-0.22161290049552917
1761467445540171300,1.350171142578125,0.12100287526845932,0.7434958219528198,-0.19230347871780396
1761467445550154500,1.360154541015625,0.16179576516151428,0.6452717185020447,-0.22087956964969635
1761467445560136400,1.370136474609375,0.15175139904022217,0.6476169228553772,-0.28507372736930847
1761467445570119400,1.380119384765625,0.07674956321716309,0.6806020736694336,-0.36724159121513367
1761467445580102400,1.390102294921875,-0.03519055247306824,0.7051181197166443,-0.42690303921699524
1761467445590085600,1.400085693359375,-0.16875846683979034,0.6176514625549316,-0.45107704401016235
1761467445600068600,1.410068603515625,-0.2989228665828705,0.3960202932357788,-0.4305613934993744
1761467445610051300,1.42005126953125,-0.4017948508262634,-0.036243684589862823,-0.39208048582077026
1761467445620034600,1.43003466796875,-0.45512038469314575,-0.4485207200050354,-0.3036576807498932
1761467445630017500,1.440017578125,-0.44396284222602844,-0.7488270998001099,-0.15939241647720337
1761467445640000500,1.45000048828125,-0.398788183927536,-0.955703616142273,-0.03890807926654816
1761467445649983500,1.4599833984375,-0.32830536365509033,-0.9927826523780823,0.11012469977140427
1761467445659965400,1.46996533203125,-0.26107147336006165,-0.970760703086853,0.2563048005104065
1761467445669948700,1.47994873046875,-0.19786107540130615,-1.085322618484497,0.3699227273464203
1761467445679931400,1.489931396484375,-0.0998101457953453,-1.3546510934829712,0.44991448521614075
1761467445689914400,1.499914306640625,0.00688974279910326,-1.4803574085235596,0.37665489315986633
1761467445699897600,1.509897705078125,0.013285057619214058,-1.0478707551956177,0.0678805410861969
1761467445709880300,1.51988037109375,-0.027799241244792938,-0.24324975907802582,-0.35478678345680237
1761467445719863300,1.52986328125,-0.05304201319813728,0.09713178128004074,-0.6381034255027771
1761467445729846500,1.539846435546875,-0.028120677918195724,-0.241559237241745,-0.6647168397903442
1761467445739829500,1.54982958984375,0.00902961753308773,-0.6402427554130554,-0.4915919601917267
1761467445749812500,1.5598125,0.21512873470783234,-0.6920362710952759,-0.2599019408226013
1761467445759795500,1.56979541015625,0.32864704728126526,-0.5983295440673828,0.015406059101223946
1761467445769777700,1.579777587890625,0.43343374133110046,-0.6254642605781555,0.11139195412397385
1761467445779760400,1.589760498046875,0.47964197397232056,-0.6583793759346008,0.10518812388181686
1761467445789743400,1.599743408203125,0.4757976531982422,-0.5561818480491638,0.10274221748113632
1761467445799726600,1.6097265625,0.4655282199382782,-0.4435596764087677,0.1354825794696808
1761467445809709600,1.61970947265625,0.470999151468277,-0.30750536918640137,0.20412907004356384
1761467445819692300,1.6296923828125,0.45801466703414917,-0.1826196163892746,0.2926466763019562
1761467445829675500,1.639675537109375,0.42275646328926086,0.02828148379921913,0.434788316488266
1761467445839658500,1.649658447265625,0.3761804401874542,0.28805047273635864,0.5635659694671631
1761467445849641500,1.659641357421875,0.3348642885684967,0.4515571594238281,0.6173532009124756
1761467445859624400,1.66962451171875,0.30164483189582825,0.5419909358024597,0.6207048296928406
1761467445869607400,1.679607421875,0.266356885433197,0.6272662281990051,0.5971024632453918
1761467445879589600,1.689589599609375,0.26826584339141846,0.678900957107544,0.5454073548316956
1761467445889572400,1.699572265625,0.3411174416542053,0.7496482133865356,0.49604251980781555
1761467445899555300,1.709555419921875,0.4529939293861389,0.8897296786308289,0.3927834928035736
1761467445909538600,1.71953857421875,0.55441814661026,1.10404372215271,0.2080812305212021
1761467445919521500,1.729521484375,0.586396336555481,1.3988404273986816,0.015238020569086075
1761467445929504500,1.73950439453125,0.545809805393219,1.7087407112121582,-0.13933494687080383
1761467445939487500,1.749487548828125,0.4839712381362915,1.8864047527313232,-0.29372477531433105
1761467445949470500,1.759470458984375,0.44118598103523254,1.7375701665878296,-0.4460826814174652
1761467445959453700,1.76945361328125,0.4211462438106537,1.3399546146392822,-0.5712155103683472
1761467445969436400,1.7794365234375,0.4055328667163849,0.8794087767601013,-0.6321388483047485
1761467445979419400,1.78941943359375,0.3510802686214447,0.3535708487033844,-0.7025443315505981
1761467445989401600,1.799401611328125,0.29541268944740295,-0.1389303058385849,-0.7420227527618408
1761467445999384300,1.80938427734375,0.2774595320224762,-0.44765329360961914,-0.7339882850646973
1761467446009367600,1.819367431640625,0.23958301544189453,-0.5408039689064026,-0.7387008666992188
1761467446019350500,1.8293505859375,0.17139998078346252,-0.4756108820438385,-0.7710623145103455
1761467446029333200,1.839333251953125,0.10484177619218826,-0.37222641706466675,-0.7345722317695618
1761467446039316500,1.84931640625,0.053448889404535294,-0.26478302478790283,-0.5610710382461548
1761467446049299500,1.859299560546875,0.02384667657315731,-0.31213945150375366,-0.28934988379478455
1761467446059282400,1.869282470703125,0.03929700702428818,-0.5126917362213135,-0.04731301963329315
1761467446069265400,1.879265380859375,0.12985776364803314,-0.6601881980895996,0.044411834329366684
1761467446079248600,1.88924853515625,0.25540265440940857,-0.6318711042404175,0.02861742116510868
1761467446089231600,1.899231689453125,0.32405227422714233,-0.49642011523246765,0.001996950712054968
1761467446099213800,1.9092138671875,0.316493958234787,-0.3582600951194763,0.015788929536938667
1761467446109196500,1.919196533203125,0.26275864243507385,-0.33912384510040283,0.04448064789175987
1761467446119179800,1.9291796875,0.20298133790493011,-0.5437097549438477,0.16641587018966675
1761467446129162800,1.939162841796875,0.1436643749475479,-0.8133666515350342,0.46894630789756775
1761467446139145700,1.949145751953125,0.02909225970506668,-0.9161350727081299,0.8513287901878357
1761467446149128700,1.959128662109375,-0.1146567314863205,-0.8227651119232178,1.0978379249572754
1761467446159111700,1.969111572265625,-0.1969718486070633,-0.5696532726287842,1.0762361288070679
1761467446169095000,1.979094970703125,-0.18008477985858917,-0.4092959463596344,0.8562184572219849
1761467446179078000,1.989077880859375,-0.18399909138679504,-0.34513774514198303,0.6785608530044556
1761467446189060600,1.999060546875,-0.17523887753486633,-0.28449884057044983,0.5493318438529968
1761467446199043800,2.0090439453125,-0.14671482145786285,-0.2242216318845749,0.4436538815498352
1761467446209026800,2.01902685546875,-0.07161127775907516,-0.18019424378871918,0.30370980501174927
1761467446219008800,2.0290087890625,-0.0003123302012681961,-0.10003790259361267,0.1535719931125641
1761467446228991700,2.03899169921875,0.06708162277936935,0.09257332235574722,0.04305994510650635
1761467446238974700,2.048974609375,0.08934139460325241,0.35045361518859863,-0.04920659959316254
1761467446248958000,2.0589580078125,0.05609201267361641,0.6831434965133667,-0.11654503643512726
1761467446258940700,2.068940673828125,-0.004762282595038414,0.9602885842323303,-0.15611961483955383
1761467446268923600,2.078923583984375,-0.060437873005867004,1.1506253480911255,-0.16267770528793335
1761467446278907000,2.088906982421875,-0.09905903786420822,1.2268167734146118,-0.16000628471374512
1761467446288889600,2.0988896484375,-0.1167420819401741,1.202501654624939,-0.17608843743801117
1761467446298872800,2.108872802734375,-0.10644309967756271,1.1902867555618286,-0.20178554952144623
1761467446308855800,2.118855712890625,-0.095088891685009,1.1826905012130737,-0.2366521656513214
1761467446318838800,2.1288388671875,-0.11968158185482025,1.1672170162200928,-0.26346832513809204
1761467446328820700,2.13882080078125,-0.18324658274650574,1.1755672693252563,-0.2647800147533417
1761467446338803700,2.1488037109375,-0.2787446081638336,1.143611192703247,-0.17523734271526337
1761467446348787000,2.158786865234375,-0.3576507568359375,0.9132226705551147,-0.1271810233592987
1761467446358769700,2.168769775390625,-0.4263171851634979,0.591026246547699,-0.0834183618426323
1761467446368752600,2.178752685546875,-0.4707120656967163,0.2020866572856903,0.1253330260515213
1761467446378735900,2.18873583984375,-0.4135102927684784,-0.18782702088356018,0.08199594169855118
1761467446388718800,2.19871875,-0.36239275336265564,-0.4051612615585327,0.12245041877031326
1761467446398701600,2.20870166015625,-0.3071382939815521,-0.4552484154701233,0.15165996551513672
1761467446408684800,2.218684814453125,-0.2813916504383087,-0.5646686553955078,0.13867279887199402
1761467446418667800,2.228667724609375,-0.26316097378730774,-0.784188449382782,0.025217615067958832
1761467446428650800,2.238650634765625,-0.27293825149536133,-0.8390429019927979,-0.1735493689775467
1761467446438633700,2.2486337890625,-0.34072449803352356,-0.6753048300743103,-0.4664238393306732
1761467446448616700,2.25861669921875,-0.41297927498817444,-0.4370226562023163,-0.7307576537132263
1761467446458599000,2.268598876953125,-0.4173010289669037,-0.34211769700050354,-0.8801210522651672
1761467446468581600,2.27858154296875,-0.28719425201416016,-0.4742683172225952,-0.9144511222839355
1761467446478564900,2.28856494140625,-0.10801199078559875,-0.5539546012878418,-0.7879107594490051
1761467446488547800,2.2985478515625,0.021809594705700874,-0.4336322844028473,-0.5981033444404602
1761467446498530800,2.30853076171875,0.13407301902770996,-0.3130888342857361,-0.4237547516822815
1761467446508513800,2.318513671875,0.19222570955753326,-0.37254711985588074,-0.2359282374382019
1761467446518496800,2.328496826171875,0.21332088112831116,-0.4398747682571411,-0.12398118525743484
1761467446528479700,2.338479736328125,0.2546015679836273,-0.2987295985221863,-0.16175323724746704
1761467446538463000,2.348462890625,0.2818489074707031,-0.04492157697677612,-0.14925342798233032
1761467446548445700,2.35844580078125,0.31063026189804077,0.1396097093820572,-0.058883342891931534
1761467446558428700,2.3684287109375,0.3560691177845001,0.22897367179393768,0.04805003106594086
1761467446568412000,2.378411865234375,0.4019138813018799,0.235146626830101,0.17414383590221405
1761467446578393600,2.3883935546875,0.4323676526546478,0.22554193437099457,0.3470700681209564
1761467446588376800,2.398376953125,0.39269551634788513,0.2368093580007553,0.52154940366745
1761467446598359800,2.40835986328125,0.3233009874820709,0.29720479249954224,0.6370623707771301
1761467446608342500,2.418342529296875,0.22895023226737976,0.36677733063697815,0.6515467166900635
1761467446618325800,2.42832568359375,0.13190090656280518,0.3443319499492645,0.5548866987228394
1761467446628308700,2.438308837890625,0.039447031915187836,0.35150957107543945,0.40070846676826477
1761467446638291700,2.448291748046875,-0.037036824971437454,0.48466843366622925,0.2613731920719147
1761467446648274700,2.458274658203125,-0.10687358677387238,0.6501554846763611,0.17904029786586761
1761467446658257700,2.468257568359375,-0.17960263788700104,0.7227311730384827,0.14636997878551483
1761467446668241000,2.478240966796875,-0.25483036041259766,0.7269381284713745,0.16434718668460846
1761467446678224000,2.488223876953125,-0.31207525730133057,0.7269397377967834,0.2012293040752411
1761467446688206600,2.49820654296875,-0.3392285108566284,0.7729715704917908,0.1887747347354889
1761467446698189800,2.50818994140625,-0.3898823857307434,0.8307064771652222,0.15439358353614807
1761467446708171800,2.518171875,-0.4375430941581726,0.8100804090499878,0.17986375093460083
1761467446718154800,2.52815478515625,-0.4823704659938812,0.6944811344146729,0.27191218733787537
1761467446728137700,2.5381376953125,-0.5050670504570007,0.4677589237689972,0.3981705605983734
1761467446738120700,2.54812060546875,-0.5058800578117371,0.14928561449050903,0.5208908915519714
1761467446748104000,2.55810400390625,-0.4685167074203491,-0.16577503085136414,0.5972229242324829
1761467446758086700,2.568086669921875,-0.41330936551094055,-0.4208326041698456,0.5956109166145325
1761467446768069600,2.578069580078125,-0.3510006368160248,-0.5959312915802002,0.5382264852523804
1761467446778052900,2.588052978515625,-0.2875923812389374,-0.6367729902267456,0.528925895690918
1761467446788035800,2.598035888671875,-0.2236364483833313,-0.6370358467102051,0.5705739259719849
1761467446798018800,2.608018798828125,-0.18535324931144714,-0.6634709239006042,0.6678333878517151
1761467446808001800,2.618001708984375,-0.12880143523216248,-0.7695996165275574,0.7481746077537537
1761467446817984800,2.62798486328125,-0.018511416390538216,-0.8573814034461975,0.7974854707717896
1761467446827967700,2.6379677734375,0.08350789546966553,-0.7635435461997986,0.8294984102249146
1761467446837949700,2.64794970703125,0.1790330857038498,-0.6340137720108032,0.754666268825531
1761467446847933000,2.657932861328125,0.24294711649417877,-0.42298316955566406,0.5764055848121643
1761467446857916000,2.667916015625,0.2702551782131195,-0.22020076215267181,0.40657365322113037
1761467446867898600,2.677898681640625,0.20551705360412598,-0.11231829226016998,0.24187402427196503
1761467446877881900,2.6878818359375,0.06363607943058014,-0.16687580943107605,0.036447107791900635
1761467446887864800,2.69786474609375,-0.07936085760593414,-0.21893560886383057,0.07064474374055862
1761467446897847600,2.70784765625,-0.18472883105278015,-0.24922293424606323,0.2814304828643799
1761467446907830800,2.717830810546875,-0.26862484216690063,-0.3779186010360718,0.37812474370002747
1761467446917813800,2.727813720703125,-0.2839702367782593,-0.416565865278244,0.3872703015804291
1761467446927796700,2.737796630859375,-0.24025481939315796,-0.28864264488220215,0.32005220651626587
1761467446937779700,2.74777978515625,-0.1802000105381012,-0.08298242092132568,0.20811238884925842
1761467446947762700,2.7577626953125,-0.13145725429058075,0.10833548754453659,0.07180065661668777
1761467446957745700,2.76774560546875,-0.09559991955757141,0.28454485535621643,-0.08873628824949265
1761467446967727600,2.7777275390625,-0.08042840659618378,0.47056278586387634,-0.2180357277393341
1761467446977710800,2.7877109375,-0.07543710619211197,0.5876790285110474,-0.2933203876018524
1761467446987693800,2.79769384765625,-0.08133480697870255,0.5830665230751038,-0.3538438677787781
1761467446997676800,2.8076767578125,-0.09473955631256104,0.6652378439903259,-0.4243830144405365
1761467447007659800,2.81765966796875,-0.13072676956653595,0.8292362689971924,-0.506729781627655
1761467447017642800,2.827642822265625,-0.16557902097702026,1.007918357849121,-0.5625690817832947
1761467447027625700,2.837625732421875,-0.1755611002445221,1.1725733280181885,-0.5437543988227844
1761467447037609000,2.84760888671875,-0.19845816493034363,1.168596625328064,-0.5635989308357239
1761467447047591700,2.857591796875,-0.1643170714378357,1.1551028490066528,-0.4973130524158478
1761467447057574700,2.86757470703125,-0.10632114857435226,1.0644479990005493,-0.38452816009521484
1761467447067558000,2.877557861328125,-0.047617968171834946,0.9492733478546143,-0.24605102837085724
1761467447077540900,2.887540771484375,0.033069685101509094,0.7961908578872681,-0.14664959907531738
1761467447087523800,2.89752392578125,0.08557289838790894,0.6564210057258606,-0.07115434855222702
1761467447097507000,2.907507080078125,0.08682644367218018,0.5670381188392639,-0.02290000393986702
1761467447107488800,2.91748876953125,0.06226668506860733,0.4643131196498871,-0.0046402751468122005
1761467447117472000,2.927471923828125,0.018130917102098465,0.3245123326778412,-0.02329864725470543
1761467447127455000,2.937455078125,-0.03774945065379143,0.15729449689388275,-0.026694010943174362
1761467447137437700,2.947437744140625,-0.10455378890037537,-0.056353338062763214,0.029012659564614296
1761467447147421000,2.9574208984375,-0.18120722472667694,-0.22207589447498322,0.10851051658391953
1761467447157404000,2.96740380859375,-0.23919914662837982,-0.5084253549575806,0.2521315813064575
1761467447167387000,2.977386962890625,-0.24693870544433594,-0.732435941696167,0.3565739095211029
1761467447177369900,2.987369873046875,-0.20013739168643951,-0.9507073163986206,0.45337873697280884
1761467447187352800,2.997352783203125,-0.11139263957738876,-1.1961593627929688,0.5475957989692688
1761467447197336000,3.007336181640625,0.01438925415277481,-1.3207489252090454,0.5924492478370667
1761467447207318800,3.01731884765625,0.12040584534406662,-1.236877202987671,0.5444245934486389
1761467447217301800,3.0273017578125,0.17273829877376556,-1.189130187034607,0.4250984489917755
1761467447227285000,3.037284912109375,0.2374730408191681,-1.296392560005188,0.27396413683891296
1761467447237266700,3.0472666015625,0.28897884488105774,-1.4131925106048584,0.10632213950157166
1761467447247250000,3.05725,0.2833305299282074,-1.3996152877807617,-0.10607384145259857
1761467447257233000,3.06723291015625,0.2370077669620514,-1.353105068206787,-0.2870369851589203
1761467447267216000,3.0772158203125,0.07681085914373398,-1.1998790502548218,-0.3669978976249695
1761467447277198800,3.08719873046875,-0.05882686376571655,-1.0544416904449463,-0.49062079191207886
1761467447287181800,3.097181884765625,-0.08393378555774689,-0.8532755970954895,-0.5693044066429138
1761467447297164800,3.107164794921875,-0.06417153775691986,-0.6356833577156067,-0.68809974193573
1761467447307148000,3.11714794921875,-0.023734187707304955,-0.49860116839408875,-0.8411562442779541
1761467447317130800,3.127130859375,0.05211104080080986,-0.593873918056488,-0.8858067989349365
1761467447327114000,3.137114013671875,0.1693958342075348,-0.7590235471725464,-0.8255224227905273
1761467447337097000,3.147096923828125,0.2777710258960724,-0.8505374789237976,-0.6312251091003418
1761467447347080000,3.157079833984375,0.3200319707393646,-0.8282896280288696,-0.33903321623802185
1761467447357063000,3.16706298828125,0.28611740469932556,-0.6738249659538269,-0.0385974757373333
1761467447367046000,3.1770458984375,0.20287680625915527,-0.4769694209098816,0.22099116444587708
1761467447377028000,3.187028076171875,0.12503819167613983,-0.3225308358669281,0.3852924704551697
1761467447387010800,3.1970107421875,0.07588005810976028,-0.18091244995594025,0.46796226501464844
1761467447396993800,3.206993896484375,0.032623130828142166,-0.13076673448085785,0.47720903158187866
1761467447406977000,3.21697705078125,0.0004469859413802624,-0.13045868277549744,0.4132370054721832
1761467447416960000,3.2269599609375,-0.022699611261487007,-0.09720724821090698,0.32111212611198425
1761467447426942700,3.236942626953125,-0.019787870347499847,-0.012881074100732803,0.23370572924613953
1761467447436926000,3.246926025390625,-0.0038712206296622753,0.10645224153995514,0.13057322800159454
1761467447446909000,3.256908935546875,0.04891183227300644,0.21598511934280396,-0.014810871332883835
1761467447456891600,3.2668916015625,0.11089051514863968,0.2860821783542633,-0.17244629561901093
1761467447466875000,3.276875,0.171444833278656,0.391282856464386,-0.29173409938812256
1761467447476857900,3.28685791015625,0.19159618020057678,0.5181947350502014,-0.3957345485687256
1761467447486841000,3.296841064453125,0.17281559109687805,0.6143341064453125,-0.48210862278938293
1761467447496823800,3.30682373046875,0.1543407142162323,0.5204265713691711,-0.4725244343280792
1761467447506806000,3.316805908203125,0.13488152623176575,0.3307812809944153,-0.3763395845890045
1761467447516789000,3.3267890625,0.14827536046504974,0.17855659127235413,-0.24850411713123322
1761467447526771700,3.336771728515625,0.18808628618717194,0.04778207838535309,-0.144415020942688
1761467447536755000,3.3467548828125,0.2287871092557907,-0.04301973059773445,-0.07708151638507843
1761467447546738000,3.356738037109375,0.27517494559288025,-0.06879667937755585,-0.038243819028139114
1761467447556721000,3.366720947265625,0.30331310629844666,-0.08299984782934189,-0.04037168622016907
1761467447566703900,3.376703857421875,0.3163146674633026,-0.11681196838617325,-0.030848395079374313
1761467447576686800,3.386686767578125,0.318040132522583,-0.16540959477424622,0.04451613500714302
1761467447586669800,3.396669921875,0.3237926661968231,-0.21900667250156403,0.16208377480506897
1761467447596653000,3.406653076171875,0.32523873448371887,-0.39953115582466125,0.25938424468040466
1761467447606635800,3.4166357421875,0.2850559949874878,-0.7523879408836365,0.31151440739631653
1761467447616618800,3.42661865234375,0.23434008657932281,-1.0525091886520386,0.32961350679397583
1761467447626602000,3.43660205078125,0.23533178865909576,-1.113916277885437,0.34524455666542053
1761467447636585000,3.4465849609375,0.24877037107944489,-1.1057296991348267,0.3037509024143219
1761467447646567000,3.45656689453125,0.29951000213623047,-0.9720413684844971,0.2271691858768463
1761467447656550000,3.4665498046875,0.36450526118278503,-0.7656210660934448,0.11085803061723709
1761467447666533000,3.476533203125,0.42663079500198364,-0.6753200888633728,-0.041033968329429626
1761467447676515800,3.486515869140625,0.4507097601890564,-0.6115536093711853,-0.17312197387218475
1761467447686498800,3.496498779296875,0.46505090594291687,-0.5556424856185913,-0.24740417301654816
1761467447696482000,3.50648193359375,0.4691399335861206,-0.5150058269500732,-0.23932601511478424
1761467447706465000,3.516465087890625,0.4726753830909729,-0.2192588448524475,-0.09830780327320099
1761467447716447700,3.52644775390625,0.4029324948787689,0.19585205614566803,0.03210586681962013
1761467447726431000,3.536430908203125,0.31863918900489807,0.4092440605163574,0.013935022056102753
1761467447736414000,3.5464140625,0.23691129684448242,0.34565070271492004,-0.11171344667673111
1761467447746396700,3.556396728515625,0.20234288275241852,0.17912669479846954,-0.2310612052679062
1761467447756380000,3.5663798828125,0.170288547873497,0.10388308018445969,-0.2664809823036194
1761467447766363000,3.57636279296875,0.13683655858039856,0.16282539069652557,-0.2568837106227875
1761467447776344800,3.5863447265625,0.09855708479881287,0.30430901050567627,-0.2933841943740845
1761467447786327800,3.596327880859375,0.029581382870674133,0.5092711448669434,-0.3683815598487854
1761467447796310800,3.606310791015625,-0.04185285046696663,0.6968628764152527,-0.4590526223182678
1761467447806294000,3.6162939453125,-0.11024165153503418,0.7989301085472107,-0.5606235265731812
1761467447816276700,3.62627685546875,-0.15423919260501862,0.8250312209129333,-0.6323174238204956
1761467447826260000,3.636260009765625,-0.15244890749454498,0.8209226131439209,-0.6381062269210815
1761467447836243000,3.646242919921875,-0.12046460807323456,0.8005790114402771,-0.5838150382041931
1761467447846226000,3.656225830078125,-0.06623668223619461,0.7715356945991516,-0.4876074194908142
1761467447856209000,3.666208984375,-0.010803252458572388,0.7184032201766968,-0.34853315353393555
1761467447866192000,3.67619189453125,0.02766706980764866,0.6715997457504272,-0.2081003040075302
1761467447876174800,3.6861748046875,0.04807646945118904,0.6768141984939575,-0.10123136639595032
1761467447886158000,3.696157958984375,0.05894207954406738,0.7083132266998291,-0.062345944344997406
1761467447896140800,3.706140869140625,0.03219542279839516,0.7509946823120117,-0.06675267964601517
1761467447906123800,3.716123779296875,-0.021719366312026978,0.7785627841949463,-0.09549109637737274
1761467447916106000,3.72610595703125,-0.12151414155960083,0.7204563617706299,-0.1423393040895462
1761467447926088700,3.736088623046875,-0.2542259991168976,0.521072506904602,-0.17059621214866638
1761467447936072000,3.746072021484375,-0.3434048891067505,0.18773765861988068,-0.17891113460063934
1761467447946055000,3.756054931640625,-0.40908417105674744,-0.1598564237356186,-0.17678524553775787
1761467447956038000,3.766037841796875,-0.43729397654533386,-0.41376644372940063,-0.15368951857089996
1761467447966020900,3.776020751953125,-0.4016641676425934,-0.6076534390449524,-0.10882174968719482
1761467447976003800,3.78600390625,-0.2881549298763275,-0.6778277158737183,-0.0732421875
1761467447985987000,3.795987060546875,-0.15055915713310242,-0.4890041649341583,-0.12758050858974457
1761467447995969800,3.8059697265625,-0.06313928961753845,-0.026026422157883644,-0.26918768882751465
1761467448005952800,3.815952880859375,-0.03720184788107872,0.4568448066711426,-0.46903619170188904
1761467448015936000,3.82593603515625,0.0030153461266309023,0.6405504941940308,-0.5479788780212402
1761467448025919000,3.8359189453125,0.10323622822761536,0.39136257767677307,-0.44374382495880127
1761467448035901700,3.845901611328125,0.21759717166423798,0.12734131515026093,-0.2958424985408783
1761467448045885000,3.855885009765625,0.25625136494636536,-0.011148307472467422,-0.297064870595932
1761467448055867000,3.865866943359375,0.2549469470977783,-0.24351470172405243,-0.563839852809906
1761467448065849900,3.875849853515625,0.2428683042526245,-0.393504798412323,-0.8636882305145264
1761467448075832800,3.885832763671875,0.19745421409606934,-0.31739938259124756,-0.9834449887275696
1761467448085815600,3.895815673828125,0.1283433437347412,-0.05993655323982239,-0.9373462200164795
1761467448095798800,3.905798828125,0.04296240210533142,0.18735019862651825,-0.8088617324829102
1761467448105781800,3.91578173828125,-0.011698550544679165,0.3114648461341858,-0.564716100692749
1761467448115764700,3.9257646484375,-0.06555858254432678,0.2969695031642914,-0.2354377955198288
1761467448125747700,3.935747802734375,-0.11064497381448746,0.22764453291893005,0.10885032266378403
1761467448135730700,3.945730712890625,-0.13283097743988037,0.19957855343818665,0.41256946325302124
1761467448145714000,3.9557138671875,-0.14387738704681396,0.23388871550559998,0.6346023082733154
1761467448155696600,3.965696533203125,-0.15229670703411102,0.314432829618454,0.7363198399543762
1761467448165679600,3.9756796875,-0.14780154824256897,0.40814441442489624,0.726535975933075
1761467448175662800,3.985662841796875,-0.13699311017990112,0.48495692014694214,0.6423555612564087
1761467448185645800,3.995645751953125,-0.11518450081348419,0.48651739954948425,0.5059687495231628
1761467448195628500,4.005628662109375,-0.08620718121528625,0.4103776216506958,0.35801923274993896
1761467448205610800,4.01561083984375,-0.0530812107026577,0.29116982221603394,0.22445255517959595
1761467448215593700,4.02559375,-0.011212857440114021,0.19737383723258972,0.10062649101018906
1761467448225576700,4.03557666015625,0.03907892480492592,0.17840801179409027,0.024423928931355476
1761467448235559700,4.0455595703125,0.08757002651691437,0.19441068172454834,0.0045815156772732735
1761467448245542700,4.055542724609375,0.11980659514665604,0.22133222222328186,0.038733240216970444
1761467448255526000,4.06552587890625,0.13170532882213593,0.21935002505779266,0.12173012644052505
1761467448265508600,4.075508544921875,0.13377580046653748,0.20711596310138702,0.21775157749652863
1761467448275491800,4.085491943359375,0.13811755180358887,0.1902773231267929,0.28770163655281067
1761467448285474800,4.095474853515625,0.13279680907726288,0.1791791170835495,0.3390064537525177
1761467448295457500,4.10545751953125,0.13320693373680115,0.19679592549800873,0.35891997814178467
1761467448305440800,4.115440673828125,0.14485469460487366,0.24476546049118042,0.36374467611312866
1761467448315423700,4.125423828125,0.14949765801429749,0.29225414991378784,0.3686443567276001
1761467448325406700,4.13540673828125,0.1605529487133026,0.3184536099433899,0.37004807591438293
1761467448335389700,4.1453896484375,0.16679298877716064,0.26384440064430237,0.3323976397514343
1761467448345371600,4.15537158203125,0.16830486059188843,0.1405002921819687,0.27580249309539795
1761467448355355000,4.16535498046875,0.14838840067386627,0.010960415005683899,0.2509000897407532
1761467448365337600,4.175337646484375,0.12384606897830963,-0.05880364403128624,0.24392256140708923
1761467448375320600,4.185320556640625,0.09032779186964035,-0.095176562666893,0.2095390111207962
1761467448385303800,4.1953037109375,0.05278153717517853,-0.06859198957681656,0.18132692575454712
1761467448395286800,4.205286865234375,0.001440851017832756,0.1032538041472435,0.16311809420585632
1761467448405269500,4.21526953125,-0.1021411120891571,0.3023008704185486,0.08006485551595688
1761467448415252700,4.225252685546875,-0.20046687126159668,0.2771236002445221,-0.05958997830748558
1761467448425235700,4.235235595703125,-0.2807122468948364,0.047746796160936356,-0.18448089063167572
1761467448435218700,4.24521875,-0.28766655921936035,-0.1921563446521759,-0.15236929059028625
1761467448445201700,4.25520166015625,-0.22958214581012726,-0.2842797040939331,0.12045840173959732
1761467448455184600,4.2651845703125,-0.1566898375749588,-0.26401597261428833,0.4530304968357086
1761467448465168000,4.27516796875,-0.17338640987873077,-0.2467048466205597,0.7270785570144653
1761467448475150800,4.28515087890625,-0.27267196774482727,-0.25998789072036743,0.8424805402755737
1761467448485132800,4.2951328125,-0.3799293041229248,-0.24214333295822144,0.7861148715019226
1761467448495115800,4.30511572265625,-0.48835060000419617,-0.10222484916448593,0.678354024887085
1761467448505098800,4.3150986328125,-0.5767963528633118,0.02822166495025158,0.6070091128349304
1761467448515081700,4.325081787109375,-0.6071057915687561,0.051547762006521225,0.5268735289573669
1761467448525064700,4.335064697265625,-0.6117011904716492,0.044510312378406525,0.4349226653575897
1761467448535047700,4.345047607421875,-0.5845769047737122,0.06336895376443863,0.31153973937034607
1761467448545031000,4.355031005859375,-0.5290287733078003,0.1458396017551422,0.17077256739139557
1761467448555013600,4.365013671875,-0.45542535185813904,0.2917933464050293,0.04086970165371895
1761467448564996600,4.37499658203125,-0.3647562563419342,0.43758076429367065,-0.08184628188610077
1761467448574979800,4.384979736328125,-0.26824116706848145,0.572504460811615,-0.19366391003131866
1761467448584962600,4.394962646484375,-0.20173025131225586,0.684184193611145,-0.269825279712677
1761467448594945800,4.40494580078125,-0.17995785176753998,0.7378910779953003,-0.3106622099876404
1761467448604928800,4.4149287109375,-0.22271160781383514,0.7821674942970276,-0.2978120744228363
1761467448614911700,4.424911865234375,-0.27063626050949097,0.842941403388977,-0.23408102989196777
1761467448624894700,4.434894775390625,-0.31565719842910767,0.8410921692848206,-0.17137892544269562
1761467448634876700,4.444876708984375,-0.34594452381134033,0.7664389610290527,-0.14611990749835968
1761467448644860000,4.45485986328125,-0.33897435665130615,0.6306367516517639,-0.1366306096315384
1761467448654842600,4.464842529296875,-0.3192070424556732,0.5166643857955933,-0.11954668909311295
1761467448664825600,4.47482568359375,-0.28056809306144714,0.3863937258720398,-0.06666301935911179
1761467448674808800,4.484808837890625,-0.2362925112247467,0.30320456624031067,-0.0305287167429924
1761467448684791800,4.494791748046875,-0.18753577768802643,0.2192501574754715,0.024223804473876953
1761467448694774500,4.5047744140625,-0.1472131311893463,0.05297650024294853,0.12828361988067627
1761467448704757800,4.5147578125,-0.12455295771360397,-0.09123300015926361,0.3133515417575836
1761467448714740700,4.52474072265625,-0.08736404776573181,-0.24605080485343933,0.4534370005130768
1761467448724723700,4.5347236328125,-0.07090634107589722,-0.46390852332115173,0.5347478985786438
1761467448734706700,4.544706787109375,-0.08960892260074615,-0.7090319991111755,0.6677027344703674
1761467448744689700,4.554689697265625,-0.11131651699542999,-0.809790313243866,0.726738691329956
1761467448754672600,4.564672607421875,-0.18886937201023102,-0.5876416563987732,0.5843355059623718
1761467448764655900,4.57465576171875,-0.32364577054977417,-0.227430060505867,0.2829546332359314
1761467448774637800,4.584637939453125,-0.43894678354263306,-0.02410304546356201,0.028855785727500916
1761467448784620800,4.594620849609375,-0.5121435523033142,0.041341908276081085,0.003870174754410982
1761467448794603800,4.604603759765625,-0.4970759153366089,-0.10153588652610779,0.15536169707775116
1761467448804586800,4.614586669921875,-0.37478792667388916,-0.2383241206407547,0.35629788041114807
1761467448814569700,4.62456982421875,-0.24202348291873932,-0.1358875036239624,0.5040668845176697
1761467448824552700,4.634552734375,-0.14996129274368286,0.008774321526288986,0.5105683207511902
1761467448834536000,4.644535888671875,-0.059605296701192856,-0.15948793292045593,0.28791579604148865
1761467448844518700,4.6545185546875,-0.023325227200984955,-0.3603847622871399,0.05251776799559593
1761467448854501600,4.664501708984375,-0.0062900506891310215,-0.12191521376371384,-0.026605013757944107
1761467448864484900,4.67448486328125,0.027820594608783722,0.24358095228672028,-0.07820263504981995
1761467448874467600,4.684467529296875,0.08983442932367325,0.3885232210159302,0.01707780733704567
1761467448884450600,4.694450439453125,0.1813528686761856,0.36900871992111206,0.2602619528770447
1761467448894433800,4.704433837890625,0.26439929008483887,0.3701956868171692,0.530409038066864
1761467448904416800,4.714416748046875,0.3123895227909088,0.37907931208610535,0.7049487829208374
1761467448914399700,4.724399658203125,0.32077983021736145,0.3801725208759308,0.7848630547523499
1761467448924381700,4.734381591796875,0.2963150441646576,0.3855399787425995,0.768867552280426
1761467448934364700,4.74436474609375,0.2615474760532379,0.3979167640209198,0.6509127020835876
1761467448944347600,4.75434765625,0.21287456154823303,0.4185486137866974,0.44270431995391846
1761467448954330600,4.76433056640625,0.1697089821100235,0.4752470552921295,0.19184336066246033
1761467448964313900,4.77431396484375,0.1506451964378357,0.518581211566925,-0.05442306771874428
1761467448974296800,4.784296875,0.15985679626464844,0.516110360622406,-0.2521952688694
1761467448984279600,4.794279541015625,0.17865301668643951,0.5200369954109192,-0.3656880855560303
1761467448994262800,4.8042626953125,0.2002512514591217,0.5343347191810608,-0.41851478815078735
1761467449004245800,4.814245849609375,0.20672257244586945,0.5209031701087952,-0.4185512661933899
1761467449014228700,4.824228759765625,0.20451907813549042,0.5052733421325684,-0.3649761974811554
1761467449024211700,4.834211669921875,0.1831410527229309,0.511103630065918,-0.280475378036499
1761467449034194700,4.844194580078125,0.15522980690002441,0.49220213294029236,-0.17118431627750397
1761467449044177700,4.854177734375,0.1496191918849945,0.42702239751815796,-0.062039025127887726
1761467449054161000,4.864160888671875,0.14940400421619415,0.3365529477596283,0.040326230227947235
1761467449064143600,4.8741435546875,0.15977978706359863,0.19591544568538666,0.12356521189212799
1761467449074125800,4.884125732421875,0.18409258127212524,-0.01551743596792221,0.16737687587738037
1761467449084108300,4.8941083984375,0.21694327890872955,-0.27501749992370605,0.173552006483078
1761467449094091500,4.904091552734375,0.21947409212589264,-0.5488687753677368,0.14086222648620605
1761467449104074200,4.91407421875,0.24801591038703918,-0.7207388877868652,0.1371939778327942
1761467449114057200,4.92405712890625,0.2818330228328705,-0.8280070424079895,0.1628388911485672
1761467449124040400,4.93404052734375,0.3230057656764984,-0.9276134371757507,0.2211327701807022
1761467449134023400,4.9440234375,0.36615484952926636,-1.031462550163269,0.29713138937950134
1761467449144006100,4.954006103515625,0.4032938480377197,-1.1592330932617188,0.4197138249874115
1761467449153989400,4.9639892578125,0.48064616322517395,-1.059771180152893,0.5420341491699219
1761467449163972400,4.973972412109375,0.5381090044975281,-0.6310017704963684,0.6400901675224304
1761467449173955300,4.983955322265625,0.5465749502182007,-0.42725422978401184,0.4996662437915802
1761467449183938300,4.993938232421875,0.5022921562194824,-0.4092227518558502,0.24978423118591309
1761467449193921300,5.00392138671875,0.38988810777664185,-0.4233492314815521,0.09854090958833694
1761467449203904500,5.013904541015625,0.1622346192598343,-0.3850228190422058,-0.004857354797422886
1761467449213886200,5.02388623046875,-0.014769725501537323,-0.4837408661842346,0.013179702684283257
1761467449223869400,5.033869384765625,-0.13795870542526245,-0.6091986894607544,0.2074572592973709
1761467449233852400,5.043852294921875,-0.2129213660955429,-0.6954086422920227,0.3258076310157776
1761467449243835400,5.05383544921875,-0.26051416993141174,-0.613590657711029,0.31543809175491333
1761467449253818400,5.063818359375,-0.2539587914943695,-0.36711615324020386,0.2006548047065735
1761467449263801300,5.07380126953125,-0.16514535248279572,-0.140281081199646,0.08499664068222046
1761467449273784300,5.083784423828125,-0.019925301894545555,-0.03292505070567131,0.024200933054089546
1761467449283767600,5.093767578125,0.12661680579185486,0.0040157753974199295,-0.04705219715833664
1761467449293750300,5.103750244140625,0.23838914930820465,0.008179361000657082,-0.13300998508930206
1761467449303733200,5.113733154296875,0.30569881200790405,-0.028221212327480316,-0.2178882360458374
1761467449313716500,5.123716552734375,0.2986622154712677,0.03828590735793114,-0.30048030614852905
1761467449323699200,5.13369921875,0.22857819497585297,0.19013330340385437,-0.3675636947154999
1761467449333682200,5.14368212890625,0.14365798234939575,0.3620041608810425,-0.38959604501724243
1761467449343665400,5.15366552734375,0.06954950839281082,0.4591999053955078,-0.352751225233078
1761467449353648400,5.1636484375,0.013345887884497643,0.5010080933570862,-0.25061818957328796
1761467449363630300,5.17363037109375,-0.005827263463288546,0.5062084794044495,-0.11898129433393478
1761467449373613300,5.18361328125,0.002456765389069915,0.4670450985431671,0.000545901944860816
1761467449383596500,5.193596435546875,0.014099307358264923,0.42490217089653015,0.1012919545173645
1761467449393579300,5.203579345703125,0.011702194809913635,0.40969181060791016,0.14658619463443756
1761467449403562200,5.213562255859375,-0.02085149474442005,0.4005125164985657,0.1502724289894104
1761467449413545500,5.22354541015625,-0.07414161413908005,0.3700709939002991,0.1639874279499054
1761467449423528400,5.233528564453125,-0.150264710187912,0.22022749483585358,0.20272627472877502
1761467449433511200,5.24351123046875,-0.2244425266981125,-0.006063956767320633,0.2543628513813019
1761467449443494400,5.253494384765625,-0.27545085549354553,-0.20701278746128082,0.33868688344955444
1761467449453477400,5.263477294921875,-0.34344935417175293,-0.3800863027572632,0.4233543574810028
1761467449463460400,5.27346044921875,-0.41626718640327454,-0.4655967950820923,0.4680761396884918
1761467449473443300,5.283443359375,-0.48637518286705017,-0.4494614899158478,0.49421799182891846
1761467449483426300,5.29342626953125,-0.5420528650283813,-0.3273468017578125,0.5019035339355469
1761467449493409300,5.3034091796875,-0.5463911890983582,-0.1777879297733307,0.4642624258995056
1761467449503392500,5.313392578125,-0.4963759183883667,-0.14440608024597168,0.44495558738708496
1761467449513374200,5.323374267578125,-0.3989495038986206,-0.24770717322826385,0.49093079566955566
1761467449523357400,5.333357421875,-0.29711979627609253,-0.3684442341327667,0.5472129583358765
1761467449533340400,5.34334033203125,-0.27429917454719543,-0.3334311246871948,0.5137359499931335
1761467449543323400,5.353323486328125,-0.3191404342651367,-0.2105213701725006,0.4272109270095825
1761467449553306400,5.363306396484375,-0.36913570761680603,-0.18861687183380127,0.3041297495365143
1761467449563289300,5.373289306640625,-0.40651845932006836,-0.10360272228717804,0.08274197578430176
1761467449573272300,5.383272216796875,-0.48443108797073364,0.15004393458366394,-0.24113862216472626
1761467449583255300,5.39325537109375,-0.5885023474693298,0.4018145799636841,-0.5008900165557861
1761467449593238300,5.40323828125,-0.6111142039299011,0.4227880537509918,-0.5415825843811035
1761467449603221500,5.413221435546875,-0.5159288644790649,0.3100913465023041,-0.38939058780670166
1761467449613204200,5.423204345703125,-0.3702121078968048,0.22325554490089417,-0.18456552922725677
1761467449623187200,5.433187255859375,-0.19868820905685425,0.1828087419271469,-0.012178884819149971
1761467449633170400,5.44317041015625,-0.05533211678266525,0.11424485594034195,0.08223336935043335
1761467449643153400,5.4531533203125,0.07560277730226517,-0.025692254304885864,0.04030328243970871
1761467449653135400,5.46313525390625,0.22681279480457306,-0.09430966526269913,-0.0021661461796611547
1761467449663118300,5.473118408203125,0.37123116850852966,-0.05552928149700165,0.011568610556423664
1761467449673101300,5.483101318359375,0.44026482105255127,0.013772561214864254,0.07966271042823792
1761467449683084300,5.493084228515625,0.42920365929603577,0.06078587472438812,0.1423143744468689
1761467449693067300,5.5030673828125,0.3950294256210327,0.10790838301181793,0.16817606985569
1761467449703050500,5.513050537109375,0.33640381693840027,0.22071488201618195,0.2137562334537506
1761467449713033500,5.523033447265625,0.2625328004360199,0.36777302622795105,0.22573406994342804
1761467449723016200,5.53301611328125,0.17847192287445068,0.44797852635383606,0.16310173273086548
1761467449732999400,5.54299951171875,0.09577757865190506,0.483472615480423,0.03210190683603287
1761467449742982400,5.552982421875,0.029709467664361,0.5052334666252136,-0.12130071967840195
1761467449752965400,5.56296533203125,-0.012985264882445335,0.543840765953064,-0.24857132136821747
1761467449762948400,5.5729482421875,-0.04116088151931763,0.575560986995697,-0.32071906328201294
1761467449772931300,5.582931396484375,-0.06539031863212585,0.6059761643409729,-0.3286997377872467
1761467449782914300,5.592914306640625,-0.08223038166761398,0.7077962160110474,-0.2692650258541107
1761467449792897500,5.6028974609375,-0.08795244991779327,0.820577085018158,-0.20892418920993805
1761467449802879200,5.612879150390625,-0.09853987395763397,0.876339852809906,-0.14125961065292358
1761467449812862500,5.622862548828125,-0.1014496386051178,0.8499612212181091,-0.0744110718369484
1761467449822845400,5.632845458984375,-0.08575181663036346,0.7356094121932983,-0.023770691826939583
1761467449832828200,5.642828125,-0.04892402142286301,0.5255470275878906,0.011377975344657898
1761467449842811400,5.652811279296875,0.001905607059597969,0.24094660580158234,0.018955864012241364
1761467449852794400,5.66279443359375,0.0416807159781456,-0.010966584086418152,0.00566988717764616
1761467449862777300,5.67277734375,0.07931216806173325,-0.18869924545288086,-0.0347532257437706
1761467449872760300,5.68276025390625,0.11653543263673782,-0.3293892443180084,-0.0844920203089714
1761467449882743300,5.692743408203125,0.15821397304534912,-0.49480384588241577,-0.14635524153709412
1761467449892726500,5.7027265625,0.22070744633674622,-0.7348393797874451,-0.22301699221134186
1761467449902709200,5.712709228515625,0.3148210644721985,-0.947990894317627,-0.2509760856628418
1761467449912692200,5.722692138671875,0.41057127714157104,-1.0782519578933716,-0.2295389622449875
1761467449922675500,5.732675537109375,0.4950111210346222,-1.1080715656280518,-0.1975548416376114
1761467449932658400,5.742658447265625,0.5258710384368896,-1.089072346687317,-0.20811773836612701
1761467449942641200,5.75264111328125,0.5062642693519592,-1.0422217845916748,-0.29223936796188354
1761467449952623400,5.762623291015625,0.43722233176231384,-0.8934879899024963,-0.40540826320648193
1761467449962606300,5.7726064453125,0.28287652134895325,-0.6905571818351746,-0.4961194396018982
1761467449972589300,5.78258935546875,0.08268298208713531,-0.5969976782798767,-0.5507498979568481
1761467449982572300,5.792572265625,-0.12779223918914795,-0.5389001965522766,-0.579725444316864
1761467449992555300,5.80255517578125,-0.30333027243614197,-0.5796880722045898,-0.5580265522003174
1761467450002538500,5.81253857421875,-0.3636366128921509,-0.7180138230323792,-0.3722262382507324
1761467450012521200,5.822521240234375,-0.3396383225917816,-0.7602882981300354,-0.07905719429254532
1761467450022504400,5.83250439453125,-0.23666521906852722,-0.6861478686332703,0.1328936070203781
1761467450032487400,5.8424873046875,-0.08188603073358536,-0.6127979755401611,0.14140745997428894
1761467450042470400,5.852470458984375,0.0700143426656723,-0.5384528040885925,0.0197564996778965
1761467450052453400,5.862453369140625,0.18885204195976257,-0.5057710409164429,-0.09871555119752884
1761467450062436400,5.872436279296875,0.2569926679134369,-0.4810190200805664,-0.17190086841583252
1761467450072419300,5.88241943359375,0.24645107984542847,-0.3842115104198456,-0.25508496165275574
1761467450082402300,5.89240234375,0.17066319286823273,-0.18842020630836487,-0.3676817715167999
1761467450092385000,5.902385009765625,0.08115912973880768,0.0417967364192009,-0.5036412477493286
1761467450102367200,5.9123671875,0.003765903878957033,0.22938024997711182,-0.6306499242782593
1761467450112350200,5.92235009765625,-0.030722031369805336,0.3349713683128357,-0.6910408139228821
1761467450122333000,5.9323330078125,-0.03382201865315437,0.3603748381137848,-0.6732686161994934
1761467450132316200,5.942316162109375,-0.029239783063530922,0.3530109226703644,-0.5860426425933838
1761467450142299100,5.952299072265625,-0.02273101918399334,0.3471463620662689,-0.48667025566101074
1761467450152282000,5.9622822265625,-0.024526255205273628,0.3457804322242737,-0.3929445445537567
1761467450162265000,5.97226513671875,-0.03304150328040123,0.34184712171554565,-0.2909139096736908
1761467450172248000,5.982248046875,-0.0237239021807909,0.35021263360977173,-0.18183721601963043
1761467450182231300,5.992231201171875,0.008801689371466637,0.3810606002807617,-0.09322915971279144
1761467450192214300,6.00221435546875,0.04253781586885452,0.4660114347934723,-0.015722116455435753
1761467450202197000,6.012197021484375,0.053237006068229675,0.5634918212890625,0.0451885387301445
1761467450212180200,6.02218017578125,0.028300495818257332,0.6651433706283569,0.11687470972537994
1761467450222163200,6.0321630859375,-0.030819851905107498,0.7182474732398987,0.17474879324436188
1761467450232146000,6.04214599609375,-0.09811766445636749,0.6363645792007446,0.22105637192726135
1761467450242129200,6.052129150390625,-0.15173277258872986,0.45827516913414,0.2661679685115814
1761467450252111000,6.062111083984375,-0.18391361832618713,0.14879640936851501,0.3103974759578705
1761467450262094000,6.072093994140625,-0.1541079431772232,-0.21553446352481842,0.3243914842605591
1761467450272077000,6.0820771484375,-0.08324521034955978,-0.38775497674942017,0.24470385909080505
1761467450282060000,6.09206005859375,-0.02616254985332489,-0.44106462597846985,0.13887907564640045
1761467450292043300,6.102043212890625,0.023993030190467834,-0.5160238146781921,0.11497160792350769
1761467450302026000,6.11202587890625,0.10261474549770355,-0.6705113649368286,0.16702483594417572
1761467450312009200,6.12200927734375,0.2300262302160263,-0.8712548613548279,0.24054032564163208
1761467450321992200,6.1319921875,0.3498532176017761,-1.0244367122650146,0.2207328826189041
1761467450331975200,6.14197509765625,0.4172418415546417,-1.1401244401931763,0.054682664573192596
1761467450341958100,6.151958251953125,0.3929171562194824,-1.0627111196517944,-0.17966479063034058
1761467450351941000,6.161941162109375,0.3064863979816437,-0.9484606981277466,-0.37382760643959045
1761467450361924000,6.171924072265625,0.25609323382377625,-1.0503052473068237,-0.45630496740341187
1761467450371907300,6.1819072265625,0.2612041234970093,-1.1174774169921875,-0.4408072233200073
1761467450381890000,6.19189013671875,0.27545157074928284,-0.902765154838562,-0.3737691044807434
1761467450391873000,6.201873046875,0.24558928608894348,-0.5767098069190979,-0.35700905323028564
1761467450401855200,6.211855224609375,0.2204991579055786,-0.4060981869697571,-0.42879560589790344
1761467450411838000,6.221837890625,0.21823227405548096,-0.4457249641418457,-0.42409008741378784
1761467450421821200,6.2318212890625,0.23560598492622375,-0.5291330218315125,-0.27414047718048096
1761467450431804200,6.24180419921875,0.22944395244121552,-0.4242710769176483,-0.11552418023347855
1761467450441787100,6.251787109375,0.15153270959854126,-0.2192642092704773,0.024369152262806892
1761467450451770000,6.26177001953125,0.03427160531282425,-0.0322253480553627,0.17930494248867035
1761467450461753000,6.271753173828125,-0.09255398064851761,0.08105459809303284,0.32718655467033386
1761467450471736300,6.281736328125,-0.19498582184314728,0.1622687727212906,0.3888605535030365
1761467450481719300,6.29171923828125,-0.27112045884132385,0.23398905992507935,0.34397172927856445
1761467450491702000,6.301701904296875,-0.30594366788864136,0.30466002225875854,0.2542032301425934
1761467450501685200,6.311685302734375,-0.31021755933761597,0.3600116968154907,0.1251823604106903
1761467450511668200,6.321668212890625,-0.29869404435157776,0.4581238627433777,-0.04207666590809822
1761467450521651000,6.33165087890625,-0.27043572068214417,0.5980720520019531,-0.17869842052459717
1761467450531634200,6.34163427734375,-0.22591805458068848,0.6849179863929749,-0.2981571853160858
1761467450541617200,6.3516171875,-0.1577920764684677,0.6675419807434082,-0.3685765266418457
1761467450551599000,6.36159912109375,-0.08102858811616898,0.639450192451477,-0.3663594424724579
1761467450561582000,6.37158203125,-0.006888569798320532,0.6349555850028992,-0.3224474787712097
1761467450571565000,6.38156494140625,0.0545060820877552,0.6332298517227173,-0.2602517604827881
1761467450581548300,6.39154833984375,0.12500646710395813,0.5870835781097412,-0.21151436865329742
1761467450591531000,6.401531005859375,0.19639676809310913,0.4652048349380493,-0.18811742961406708
1761467450601514000,6.411513916015625,0.2391686737537384,0.3562906086444855,-0.18574868142604828
1761467450611497200,6.421497314453125,0.24557651579380035,0.30835238099098206,-0.18831783533096313
1761467450621480200,6.431480224609375,0.23329955339431763,0.30093199014663696,-0.16752277314662933
1761467450631463200,6.441463134765625,0.224007248878479,0.2934378385543823,-0.13256239891052246
1761467450641446100,6.451446044921875,0.20502284169197083,0.29650911688804626,-0.10443063825368881
1761467450651429000,6.46142919921875,0.1838003695011139,0.24249036610126495,-0.06467337161302567
1761467450661412400,6.471412353515625,0.15174275636672974,0.0015275515615940094,0.03641124069690704
1761467450671395000,6.48139501953125,0.14095748960971832,-0.4661802649497986,0.1766839176416397
1761467450681378000,6.4913779296875,0.18446291983127594,-1.0619624853134155,0.3351844549179077
1761467450691360300,6.5013603515625,0.29193663597106934,-1.5427453517913818,0.48673245310783386
1761467450701343000,6.511343017578125,0.40853285789489746,-1.7463129758834839,0.5768901109695435
1761467450711326200,6.521326171875,0.4817218482494354,-1.6328051090240479,0.5412697792053223
1761467450721309200,6.53130908203125,0.47634848952293396,-1.3807902336120605,0.3966916501522064
1761467450731292200,6.541292236328125,0.3754386603832245,-1.114840030670166,0.21217453479766846
1761467450741275100,6.551275146484375,0.19482582807540894,-0.8661798238754272,0.0346449539065361
1761467450751258000,6.561258056640625,-0.006060673855245113,-0.7068407535552979,-0.1114286333322525
1761467450761241000,6.571240966796875,-0.1524801105260849,-0.5580795407295227,-0.13121116161346436
1761467450771224000,6.58122412109375,-0.24017401039600372,-0.3577203154563904,0.09641161561012268
1761467450781207000,6.59120703125,-0.25293728709220886,-0.15906646847724915,0.40752872824668884
1761467450791190300,6.601190185546875,-0.2274835854768753,-0.10507700592279434,0.6559015512466431
1761467450801173200,6.61117333984375,-0.14053072035312653,-0.15594501793384552,0.7425259947776794
1761467450811156000,6.621156005859375,-0.04011702537536621,-0.09843086451292038,0.6625222563743591
1761467450821139200,6.63113916015625,0.04806132614612579,0.026162903755903244,0.46824634075164795
1761467450831121200,6.64112109375,0.11317294836044312,0.15272751450538635,0.2383878529071808
1761467450841104100,6.651104248046875,0.1774996817111969,0.2456674575805664,0.05349460616707802
1761467450851087000,6.661087158203125,0.22982999682426453,0.2872931957244873,-0.07169394195079803
1761467450861070000,6.671070068359375,0.2574690878391266,0.3001716434955597,-0.16494829952716827
1761467450871053300,6.68105322265625,0.26202282309532166,0.3713363707065582,-0.24130858480930328
1761467450881036000,6.6910361328125,0.25451385974884033,0.5048657655715942,-0.29791367053985596
1761467450891019000,6.70101904296875,0.24160392582416534,0.5740794539451599,-0.32871100306510925
1761467450901002200,6.711002197265625,0.22241529822349548,0.5867548584938049,-0.3452993929386139
1761467450910985200,6.720985107421875,0.17009350657463074,0.6062873005867004,-0.3394524157047272
1761467450920968000,6.730968017578125,0.11207832396030426,0.6308004260063171,-0.2736830413341522
1761467450930951200,6.740951171875,0.06578512489795685,0.6504912972450256,-0.15843287110328674
1761467450940934100,6.75093408203125,0.045409154146909714,0.6699065566062927,-0.033336054533720016
1761467450950917000,6.760917236328125,0.048371121287345886,0.6775215864181519,0.07975880801677704
1761467450960900000,6.770900146484375,0.051806263625621796,0.706167459487915,0.1615978628396988
1761467450970883000,6.780883056640625,0.04153844714164734,0.7831322550773621,0.20142464339733124
1761467450980865300,6.790865234375,-0.0011910125613212585,0.7960157990455627,0.2186795026063919
1761467450990848000,6.800847900390625,-0.08203738927841187,0.7513521909713745,0.22476190328598022
1761467451000831200,6.810831298828125,-0.1889379769563675,0.6462209224700928,0.23912140727043152
1761467451010814200,6.820814208984375,-0.2903929352760315,0.4516218900680542,0.26621827483177185
1761467451020797200,6.830797119140625,-0.37983813881874084,0.1458560973405838,0.30515873432159424
1761467451030780200,6.8407802734375,-0.43671366572380066,-0.14722158014774323,0.35923928022384644
1761467451040763100,6.85076318359375,-0.4369197487831116,-0.46293050050735474,0.3508414924144745
1761467451050746000,6.86074609375,-0.4692651629447937,-0.7282487154006958,0.4027489125728607
1761467451060729000,6.87072900390625,-0.4292680621147156,-1.1494548320770264,0.5807778239250183
1761467451070712000,6.880712158203125,-0.2845337986946106,-1.5062446594238281,0.4870837926864624
1761467451080695000,6.890695068359375,-0.18667304515838623,-1.683092713356018,0.37911462783813477
1761467451090678500,6.900678466796875,-0.13807116448879242,-1.7129216194152832,0.19491416215896606
1761467451100661200,6.9106611328125,-0.16152209043502808,-1.6162089109420776,-0.04188016802072525
1761467451110644200,6.920644287109375,-0.1940443515777588,-1.581416368484497,-0.29509779810905457
1761467451120626400,6.93062646484375,-0.22808589041233063,-1.7393592596054077,-0.4952965974807739
1761467451130609200,6.940609130859375,-0.18561513721942902,-1.7692716121673584,-0.5665609836578369
1761467451140592400,6.95059228515625,-0.11848338693380356,-1.4880880117416382,-0.5211611390113831
1761467451150575400,6.960575439453125,-0.07222294807434082,-0.9622109532356262,-0.4771455228328705
1761467451160558300,6.970558349609375,-0.012441108003258705,-0.3896302878856659,-0.50913006067276
1761467451170541300,6.980541259765625,0.033105071634054184,-0.043604422360658646,-0.5479373335838318
1761467451180524300,6.990524169921875,0.08275335282087326,-0.06768127530813217,-0.4642420709133148
1761467451190507500,7.000507568359375,0.14508916437625885,-0.2827259302139282,-0.24667061865329742
1761467451200490200,7.010490234375,0.2077530026435852,-0.44365647435188293,-0.005251610651612282
1761467451210473200,7.02047314453125,0.25611868500709534,-0.4619763493537903,0.16618885099887848
1761467451220456400,7.03045654296875,0.27784812450408936,-0.435820072889328,0.25858911871910095
1761467451230439400,7.040439453125,0.2742254137992859,-0.37920525670051575,0.2932725250720978
1761467451240422100,7.050422119140625,0.2615823745727539,-0.20402993261814117,0.3678329885005951
1761467451250405400,7.0604052734375,0.2322433888912201,0.02239176072180271,0.43963634967803955
1761467451260387300,7.07038720703125,0.1737603098154068,0.21628056466579437,0.42406904697418213
1761467451270370300,7.080370361328125,0.1015889048576355,0.4017047584056854,0.3273395895957947
1761467451280353300,7.090353271484375,0.02296200394630432,0.6122976541519165,0.18554064631462097
1761467451290336300,7.100336181640625,-0.05013750493526459,0.8422706723213196,0.019856607541441917
1761467451300319500,7.110319580078125,-0.10902795195579529,0.9850277900695801,-0.15314006805419922
1761467451310302200,7.12030224609375,-0.16288718581199646,1.0452879667282104,-0.3193141222000122
1761467451320285400,7.130285400390625,-0.20407499372959137,1.0419657230377197,-0.42776796221733093
1761467451330268400,7.140268310546875,-0.21768614649772644,0.9820398688316345,-0.45567575097084045
1761467451340251400,7.15025146484375,-0.2309597134590149,0.8463642001152039,-0.4233800768852234
1761467451350234400,7.160234375,-0.24829503893852234,0.6989302635192871,-0.32985517382621765
1761467451360217300,7.17021728515625,-0.2488812357187271,0.5868698358535767,-0.2032378613948822
1761467451370200300,7.180200439453125,-0.2600116431713104,0.5213198661804199,-0.07841683179140091
1761467451380183600,7.19018359375,-0.2513408362865448,0.44717249274253845,0.028762370347976685
1761467451390166300,7.200166259765625,-0.24758709967136383,0.35691049695014954,0.07582202553749084
1761467451400149200,7.210149169921875,-0.2720453441143036,0.2335183173418045,0.07507793605327606
1761467451410131500,7.22013134765625,-0.3211233913898468,0.08426198363304138,0.046622324734926224
1761467451420114200,7.2301142578125,-0.3542381525039673,-0.07449041306972504,0.027099138125777245
1761467451430097400,7.240097412109375,-0.3779349625110626,-0.23560340702533722,0.043590497225522995
1761467451440080400,7.250080322265625,-0.3808985650539398,-0.38128963112831116,0.10908494889736176
1761467451450063000,7.26006298828125,-0.366170734167099,-0.47901299595832825,0.2280920147895813
1761467451460046300,7.27004638671875,-0.29813745617866516,-0.5498061776161194,0.3452076017856598
1761467451470029300,7.280029296875,-0.19608724117279053,-0.6749419569969177,0.39615440368652344
1761467451480012500,7.290012451171875,-0.08247802406549454,-0.9296873807907104,0.38163065910339355
1761467451489995300,7.299995361328125,-0.0007362947799265385,-1.0990493297576904,0.29428911209106445
1761467451499978200,7.309978271484375,0.013130576349794865,-1.0051943063735962,0.16959601640701294
1761467451509961500,7.31996142578125,-0.06344383209943771,-0.7513130307197571,0.0564713291823864
1761467451519944400,7.3299443359375,-0.1749957948923111,-0.46441054344177246,0.014227266423404217
1761467451529927200,7.33992724609375,-0.2837609052658081,-0.2181544452905655,0.0885518342256546
1761467451539910400,7.349910400390625,-0.3597756326198578,-0.07543612271547318,0.21956965327262878
1761467451549893400,7.359893310546875,-0.35802221298217773,-0.06831483542919159,0.3930831253528595
1761467451559875300,7.369875244140625,-0.2945212721824646,-0.1537594199180603,0.5239202380180359
1761467451569858300,7.3798583984375,-0.18354441225528717,-0.2711595594882965,0.5188472270965576
1761467451579841300,7.38984130859375,-0.08883669972419739,-0.25066161155700684,0.3636195659637451
1761467451589824500,7.399824462890625,-0.008025739341974258,-0.0706486776471138,0.17163868248462677
1761467451599807200,7.40980712890625,0.048414550721645355,0.24800187349319458,0.029727693647146225
1761467451609790200,7.419790283203125,0.04411540925502777,0.5761110186576843,-0.10592573881149292
1761467451619773400,7.4297734375,0.013754034414887428,0.8634231686592102,-0.182208850979805
1761467451629756400,7.43975634765625,-0.051794882863759995,1.0340957641601562,-0.15318173170089722
1761467451639739400,7.449739501953125,-0.11680004000663757,1.1944468021392822,-0.17712390422821045
1761467451649722400,7.459722412109375,-0.18298117816448212,1.3575589656829834,-0.2780151069164276
1761467451659705300,7.469705322265625,-0.22806034982204437,1.4894976615905762,-0.33052000403404236
1761467451669688600,7.4796884765625,-0.24562229216098785,1.6296894550323486,-0.2666829526424408
1761467451679671300,7.48967138671875,-0.24422211945056915,1.7229136228561401,-0.15361954271793365
1761467451689653500,7.499653564453125,-0.21813885867595673,1.6614084243774414,-0.020044969394803047
1761467451699636500,7.509636474609375,-0.18493640422821045,1.4126776456832886,0.15103939175605774
1761467451709619200,7.519619140625,-0.12304560840129852,1.0998939275741577,0.32983389496803284
1761467451719602400,7.5296025390625,-0.053323421627283096,0.7856456637382507,0.4873916506767273
1761467451729585400,7.53958544921875,0.003645056625828147,0.5074143409729004,0.5825511813163757
1761467451739568000,7.549568115234375,0.022645769640803337,0.29426929354667664,0.6168513894081116
1761467451749551400,7.55955126953125,-0.01686595380306244,0.1562480330467224,0.6550735831260681
1761467451759534300,7.569534423828125,-0.0822845920920372,0.12211345136165619,0.7394216656684875
1761467451769517300,7.579517333984375,-0.1807030439376831,0.029605891555547714,0.7960165143013
1761467451779500300,7.589500244140625,-0.27573662996292114,-0.18305638432502747,0.8309674859046936
1761467451789483300,7.599483154296875,-0.3441327214241028,-0.43425053358078003,0.8431168794631958
1761467451799466500,7.609466552734375,-0.385036826133728,-0.6712163686752319,0.7853370308876038
1761467451809449500,7.619449462890625,-0.3764374852180481,-0.8914754986763,0.7229101061820984
1761467451819432200,7.62943212890625,-0.2823372781276703,-1.1907947063446045,0.7091212272644043
1761467451829415400,7.63941552734375,-0.1276286542415619,-1.503600001335144,0.6484352350234985
1761467451839397400,7.6493974609375,0.05500998720526695,-1.6444638967514038,0.503692090511322
1761467451849380400,7.65938037109375,0.2552568018436432,-1.590135931968689,0.31698429584503174
1761467451859363300,7.66936328125,0.43134382367134094,-1.4873789548873901,0.18405507504940033
1761467451869346300,7.67934619140625,0.5591795444488525,-1.4981439113616943,0.15516377985477448
1761467451879329500,7.68932958984375,0.6165409684181213,-1.703776240348816,0.1981656700372696
1761467451889312300,7.699312255859375,0.6547544002532959,-1.6900465488433838,0.18260376155376434
1761467451899295200,7.709295166015625,0.6054964661598206,-1.2226518392562866,0.08194296061992645
1761467451909278500,7.719278564453125,0.4949861764907837,-0.5980977416038513,-0.20408613979816437
1761467451919261400,7.729261474609375,0.3556877374649048,-0.046267904341220856,-0.5335733294487
1761467451929244200,7.739244140625,0.29388588666915894,0.15959443151950836,-0.6694185137748718
1761467451939227400,7.749227294921875,0.32732683420181274,0.06145595386624336,-0.52392578125
1761467451949210400,7.75921044921875,0.42517590522766113,-0.2647077739238739,-0.24907878041267395
1761467451959193300,7.769193359375,0.5143690705299377,-0.5687685012817383,0.03591454401612282
1761467451969176300,7.77917626953125,0.5459943413734436,-0.6502097845077515,0.26263582706451416
1761467451979158500,7.789158447265625,0.5282450318336487,-0.5374799966812134,0.4583316743373871
1761467451989141500,7.7991416015625,0.48605042695999146,-0.3959372937679291,0.5604513883590698
1761467451999124200,7.809124267578125,0.4414653480052948,-0.29542452096939087,0.5367308259010315
1761467452009107500,7.819107421875,0.4032071828842163,-0.20180164277553558,0.40571582317352295
1761467452019090400,7.82909033203125,0.35642263293266296,-0.03822788968682289,0.23624688386917114
1761467452029073200,7.8390732421875,0.3022795021533966,0.22744479775428772,0.12445031851530075
1761467452039056400,7.849056396484375,0.23395535349845886,0.373986154794693,-0.020429357886314392
1761467452049039400,7.859039306640625,0.15231534838676453,0.43888232111930847,-0.1645849347114563
1761467452059022300,7.869022216796875,0.07661523669958115,0.4950602650642395,-0.2701166570186615
1761467452069005300,7.87900537109375,0.03247414529323578,0.5474188327789307,-0.33042633533477783
1761467452078988300,7.88898828125,0.010680433362722397,0.5303969979286194,-0.3691644072532654
1761467452088974600,7.898974609375,-0.009174764156341553,0.49935171008110046,-0.37959468364715576
1761467452098957600,7.90895751953125,-0.026681922376155853,0.5119243264198303,-0.35340526700019836
1761467452108940300,7.918940185546875,-0.029628444463014603,0.5097421407699585,-0.32628631591796875
1761467452118923500,7.928923583984375,-0.014309108257293701,0.4970342218875885,-0.2737807631492615
1761467452128905500,7.938905517578125,0.0019063465297222137,0.462890625,-0.18539950251579285
1761467452138888400,7.948888427734375,0.025149062275886536,0.3277806341648102,-0.1514982283115387
1761467452148871400,7.958871337890625,0.046031709760427475,0.1635858416557312,-0.1793367862701416
1761467452158854400,7.9688544921875,0.07311709970235825,0.029484914615750313,-0.2354402095079422
1761467452168837600,7.978837646484375,0.10543295741081238,-0.0720590204000473,-0.2604268193244934
1761467452178820400,7.9888203125,0.15417669713497162,-0.18417714536190033,-0.21989868581295013
1761467452188803300,7.99880322265625,0.22338639199733734,-0.3097228407859802,-0.12893922626972198
1761467452198786600,8.00878662109375,0.28265249729156494,-0.4205939769744873,-0.00572690274566412
1761467452208769500,8.01876953125,0.3171430826187134,-0.45291969180107117,0.11827787011861801
1761467452218752500,8.02875244140625,0.3180270195007324,-0.4107995927333832,0.19726645946502686
1761467452228735500,8.038735595703125,0.2730257213115692,-0.35480743646621704,0.22040827572345734
1761467452238718500,8.048718505859375,0.20920239388942719,-0.34516870975494385,0.18359604477882385
1761467452248701700,8.05870166015625,0.15151886641979218,-0.3701672852039337,0.10476567596197128
1761467452258684400,8.068684326171875,0.09064994752407074,-0.39243507385253906,0.046071477234363556
1761467452268666600,8.07866650390625,0.04076308384537697,-0.4075844883918762,0.04274705424904823
1761467452278649600,8.088649658203124,0.02345447987318039,-0.4074167013168335,0.10842745751142502
1761467452288632300,8.09863232421875,0.024699507281184196,-0.39208436012268066,0.19945377111434937
1761467452298615600,8.108615478515626,0.03839530423283577,-0.3462841510772705,0.27282366156578064
1761467452308598500,8.1185986328125,0.052873846143484116,-0.2707614302635193,0.303133100271225
1761467452318581500,8.12858154296875,0.0673728808760643,-0.1792299598455429,0.30096086859703064
1761467452328564500,8.138564453125,0.08741077035665512,-0.12245909124612808,0.24435456097126007
1761467452338547500,8.14854736328125,0.11191879957914352,-0.10614552348852158,0.14618055522441864
1761467452348530400,8.158530517578125,0.13465820252895355,-0.05533427372574806,0.04049353674054146
1761467452358513400,8.168513427734375,0.15858978033065796,0.03133233264088631,-0.09293417632579803
1761467452368496400,8.178496337890625,0.18047058582305908,0.1140434592962265,-0.24284350872039795
1761467452378479400,8.188479248046875,0.1901942640542984,0.1461680680513382,-0.36106574535369873
1761467452388462600,8.198462646484375,0.2021004557609558,0.15833711624145508,-0.42520931363105774
1761467452398445300,8.2084453125,0.2209596484899521,0.1774674355983734,-0.4359413683414459
1761467452408428500,8.218428466796874,0.23618173599243164,0.20393845438957214,-0.41182300448417664
1761467452418410500,8.228410400390626,0.2340124398469925,0.1953440010547638,-0.35181304812431335
1761467452428393500,8.2383935546875,0.20937073230743408,0.14871551096439362,-0.26690346002578735
1761467452438376400,8.24837646484375,0.18236468732357025,0.1414773017168045,-0.13691699504852295
1761467452448359400,8.258359375,0.18459801375865936,0.22386139631271362,0.09942550957202911
1761467452458342700,8.2683427734375,0.16352494060993195,0.23309840261936188,0.14333029091358185
1761467452468325400,8.278325439453125,0.12108506262302399,0.11514647305011749,0.029090268537402153
1761467452478308400,8.288308349609375,0.07239308953285217,0.08904256671667099,-0.03137627989053726
1761467452488291600,8.29829150390625,0.003797516692429781,0.1721441149711609,-0.023458171635866165
1761467452498274600,8.308274658203125,-0.06226208806037903,0.29492342472076416,-0.007511277683079243
1761467452508257300,8.31825732421875,-0.1277068704366684,0.4245602488517761,0.0034596140030771494
1761467452518240500,8.328240478515625,-0.20173975825309753,0.5361223816871643,-0.027720529586076736
1761467452528223500,8.338223388671874,-0.2798004448413849,0.5829077363014221,-0.05435533449053764
1761467452538206500,8.34820654296875,-0.36409640312194824,0.5847926139831543,-0.039373449981212616
1761467452548189400,8.358189453125,-0.41966351866722107,0.569269061088562,0.030371274799108505
1761467452558171400,8.36817138671875,-0.47318390011787415,0.5484468340873718,0.06390085071325302
