time,seconds_elapsed,z,y,x
1761467603627054000,0.11505419921875,-0.7161366939544678,0.4957900643348694,0.1471233367919922
1761467603637037000,0.125037109375,-0.6290450096130371,0.43836548924446106,-0.0559530183672905
1761467603647020000,0.13502001953125,-0.4443414807319641,0.5246401429176331,-0.343809574842453
1761467603657003300,0.145003173828125,-0.20356668531894684,0.6362376809120178,-0.5853698253631592
1761467603666986000,0.154986083984375,0.05118943378329277,0.4925481379032135,-0.6276786923408508
1761467603676969000,0.164968994140625,0.2367555946111679,0.12483751773834229,-0.4023638665676117
1761467603686952200,0.1749521484375,0.345213919878006,-0.1134893000125885,-0.09230905771255493
1761467603696935200,0.18493505859375,0.38273870944976807,-0.13285548985004425,0.15383198857307434
1761467603706918000,0.19491796875,0.3093278706073761,-0.14329081773757935,0.3016991913318634
1761467603716902100,0.204902099609375,0.13819076120853424,-0.1923246830701828,0.292281836271286
1761467603726885000,0.214885009765625,-0.09494634717702866,-0.20623783767223358,0.19355422258377075
1761467603736868000,0.2248681640625,-0.2948217988014221,-0.11784334480762482,0.11537770926952362
1761467603746851000,0.23485107421875,-0.39307940006256104,-0.0292852483689785,0.05395456776022911
1761467603756834000,0.244833984375,-0.38802269101142883,0.037886448204517365,0.02451879158616066
1761467603766817000,0.254817138671875,-0.28014469146728516,0.08664733171463013,0.03600287437438965
1761467603776800300,0.26480029296875,-0.08985799551010132,0.12683525681495667,0.0553528256714344
1761467603786783000,0.274782958984375,0.13184350728988647,0.05546174198389053,0.054766129702329636
1761467603796766000,0.284765869140625,0.3218519687652588,-0.05248888209462166,0.023792831227183342
1761467603806749200,0.294749267578125,0.4395633935928345,-0.0948837399482727,-0.0034872591495513916
1761467603816733200,0.304733154296875,0.476540207862854,-0.05959170684218407,-0.013909883797168732
1761467603826716200,0.314716064453125,0.44152069091796875,0.01715979352593422,-0.03256239742040634
1761467603836699100,0.32469921875,0.3688923418521881,0.0657142698764801,-0.0739925280213356
1761467603846682000,0.33468212890625,0.28750932216644287,0.07615865021944046,-0.1033962219953537
1761467603856665000,0.3446650390625,0.17336073517799377,0.09375979751348495,-0.12546172738075256
1761467603866648000,0.35464794921875,0.07192012667655945,0.08505765348672867,-0.1433267593383789
1761467603876631000,0.364631103515625,-0.00749846501275897,0.08029527962207794,-0.16696801781654358
1761467603886614000,0.374614013671875,-0.04975404217839241,0.06690756976604462,-0.18971461057662964
1761467603896597200,0.38459716796875,-0.0773778185248375,0.049471914768218994,-0.20262879133224487
1761467603906580000,0.394580078125,-0.10137689858675003,0.0679720938205719,-0.18562372028827667
1761467603916564000,0.40456396484375,-0.10128265619277954,0.17823882400989532,-0.13635967671871185
1761467603926547000,0.414546875,-0.0932401716709137,0.325702041387558,-0.08205756545066833
1761467603936530200,0.4245302734375,-0.08957791328430176,0.4152832627296448,-0.06293850392103195
1761467603946513200,0.43451318359375,-0.05340366065502167,0.4572426974773407,-0.12055465579032898
1761467603956496100,0.44449609375,-0.0192093662917614,0.46606913208961487,-0.2544494569301605
1761467603966479000,0.45447900390625,-0.004181946162134409,0.43987613916397095,-0.3955234885215759
1761467603976462000,0.464462158203125,-0.004184368997812271,0.37182822823524475,-0.5242663025856018
1761467603986445300,0.4744453125,0.002790183760225773,0.2517974376678467,-0.6278124451637268
1761467603996428000,0.484427978515625,0.019942602142691612,0.10162673890590668,-0.6535340547561646
1761467604006411000,0.494410888671875,0.07773080468177795,-0.026433493942022324,-0.5779306292533875
1761467604016395000,0.50439501953125,0.17236196994781494,-0.11300300806760788,-0.414000004529953
1761467604026378200,0.514378173828125,0.2897040545940399,-0.21198365092277527,-0.22681227326393127
1761467604036361000,0.52436083984375,0.3931693136692047,-0.29861247539520264,-0.0806245505809784
1761467604046344000,0.534343994140625,0.4771592915058136,-0.33495983481407166,-0.014449795708060265
1761467604056327200,0.5443271484375,0.5170531272888184,-0.32093915343284607,0.029703563079237938
1761467604066310100,0.55431005859375,0.46878594160079956,-0.23011896014213562,0.06045322120189667
1761467604076292900,0.56429296875,0.3555833697319031,-0.24969272315502167,-0.024433715268969536
1761467604086276000,0.574276123046875,0.2248554527759552,-0.32776781916618347,-0.04244174435734749
1761467604096259000,0.584259033203125,0.0825844556093216,-0.2654772102832794,0.19463153183460236
1761467604106243000,0.5942431640625,-0.0723491981625557,-0.20307350158691406,0.4273633062839508
1761467604116226000,0.60422607421875,-0.204973503947258,-0.1661113202571869,0.5271446704864502
1761467604126209000,0.614208984375,-0.261178195476532,-0.13368813693523407,0.5451849102973938
1761467604136192000,0.62419189453125,-0.2773582339286804,-0.09130539745092392,0.5545287728309631
1761467604146175200,0.63417529296875,-0.26777803897857666,-0.10165098309516907,0.530624270439148
1761467604156158000,0.644157958984375,-0.2266259491443634,-0.16945581138134003,0.45945125818252563
1761467604166141000,0.654140869140625,-0.19017793238162994,-0.24061547219753265,0.3717626929283142
1761467604176124200,0.664124267578125,-0.1683615893125534,-0.2713161110877991,0.2672685384750366
1761467604186107100,0.674107177734375,-0.15225692093372345,-0.21055129170417786,0.18433423340320587
1761467604196089900,0.68408984375,-0.1388626992702484,-0.016993749886751175,0.13264857232570648
1761467604206074000,0.69407421875,-0.11731213331222534,0.19017647206783295,0.08851466327905655
1761467604216057000,0.70405712890625,-0.1054776981472969,0.33189547061920166,0.051760751754045486
1761467604226040000,0.7140400390625,-0.09511107951402664,0.40251824259757996,0.010152325965464115
1761467604236019500,0.72401953125,-0.06964778155088425,0.4390532374382019,-0.01734204962849617
1761467604246002400,0.73400244140625,-0.035761453211307526,0.4497852325439453,-0.002013426274061203
1761467604255985200,0.743985107421875,-0.00956688355654478,0.4168521761894226,0.04205193370580673
1761467604265968400,0.753968505859375,0.01278875581920147,0.3580450415611267,0.07438857108354568
1761467604275951400,0.763951416015625,0.020161230117082596,0.2884627878665924,0.08916661888360977
1761467604285934300,0.773934326171875,0.013003984466195107,0.20553994178771973,0.11109188944101334
1761467604295917300,0.783917236328125,0.00019624223932623863,0.09363216161727905,0.14256393909454346
1761467604305901300,0.7939013671875,-0.03503391891717911,-0.035236604511737823,0.17741379141807556
1761467604315884300,0.80388427734375,-0.09599735587835312,-0.1638992428779602,0.23402798175811768
1761467604325867500,0.813867431640625,-0.17831219732761383,-0.2678021788597107,0.33359238505363464
1761467604335850200,0.823850341796875,-0.28998827934265137,-0.2561754584312439,0.4239014685153961
1761467604345833200,0.833833251953125,-0.40294092893600464,-0.10638221353292465,0.49438121914863586
1761467604355816400,0.84381640625,-0.48914042115211487,0.11482611298561096,0.5326046347618103
1761467604365799400,0.85379931640625,-0.5294148325920105,0.3167773485183716,0.5508797764778137
1761467604375782100,0.8637822265625,-0.5455337762832642,0.3239918053150177,0.560168445110321
1761467604385765400,0.873765380859375,-0.5383113026618958,0.1451413482427597,0.4991905987262726
1761467604395748400,0.883748291015625,-0.5381529927253723,0.032423101365566254,0.35848647356033325
1761467604405732400,0.893732421875,-0.5478737950325012,0.0425894521176815,0.16064180433750153
1761467604415715300,0.90371533203125,-0.5345500707626343,0.06671407073736191,-0.0020403158850967884
1761467604425698300,0.9136982421875,-0.475533664226532,-0.03840649127960205,-0.0676981508731842
1761467604435681300,0.923681396484375,-0.37453651428222656,-0.21463535726070404,-0.05987149477005005
1761467604445664500,0.93366455078125,-0.27271321415901184,-0.35155993700027466,-0.030565273016691208
1761467604455647200,0.943647216796875,-0.19661395251750946,-0.3645256459712982,-0.006529279053211212
1761467604465630200,0.953630126953125,-0.14015094935894012,-0.2672632932662964,0.04970176890492439
1761467604475613400,0.963613525390625,-0.12626886367797852,-0.1324433833360672,0.07594173401594162
1761467604485596400,0.973596435546875,-0.12966600060462952,0.014326080679893494,-0.023604029789566994
1761467604495579100,0.9835791015625,-0.11013901233673096,0.13679349422454834,-0.18348734080791473
1761467604505563100,0.993563232421875,-0.05467788502573967,0.2543443739414215,-0.2857162356376648
1761467604515546400,1.00354638671875,0.021020201966166496,0.35074126720428467,-0.2962033748626709
1761467604525529300,1.013529296875,0.10492841899394989,0.39949867129325867,-0.24773545563220978
1761467604535512300,1.02351220703125,0.1978963315486908,0.37000560760498047,-0.17523105442523956
1761467604545495300,1.033495361328125,0.28274810314178467,0.3081563413143158,-0.0985029935836792
1761467604555478300,1.043478271484375,0.33624887466430664,0.26012811064720154,-0.038614094257354736
1761467604565461500,1.05346142578125,0.35176339745521545,0.21561840176582336,-0.0341772697865963
1761467604575444200,1.0634443359375,0.31455129384994507,0.22835057973861694,-0.07468298077583313
1761467604585427200,1.07342724609375,0.23638299107551575,0.3097333312034607,-0.15257619321346283
1761467604595410400,1.083410400390625,0.14592860639095306,0.400333434343338,-0.24192766845226288
1761467604605394400,1.09339453125,0.054880715906620026,0.44513633847236633,-0.32532963156700134
1761467604615377400,1.10337744140625,-0.027213558554649353,0.4381853938102722,-0.3679285943508148
1761467604625360100,1.113360107421875,-0.07755929231643677,0.44480735063552856,-0.3837618827819824
1761467604635343400,1.12334326171875,-0.10241369158029556,0.4673422574996948,-0.40444323420524597
1761467604645326300,1.133326416015625,-0.11440271139144897,0.5050883293151855,-0.4234861433506012
1761467604655309300,1.143309326171875,-0.12450070679187775,0.5487316250801086,-0.425528883934021
1761467604665292300,1.153292236328125,-0.12785974144935608,0.5737296342849731,-0.4261150658130646
1761467604675275300,1.163275146484375,-0.11356808245182037,0.5844765901565552,-0.4266609251499176
1761467604685258500,1.173258544921875,-0.10142885893583298,0.5414223670959473,-0.47539517283439636
1761467604695241200,1.1832412109375,-0.07718921452760696,0.4573272168636322,-0.553191065788269
1761467604705225200,1.19322509765625,-0.03666415810585022,0.30580052733421326,-0.6346995234489441
1761467604715208200,1.203208251953125,0.03882052004337311,0.17800398170948029,-0.6465357542037964
1761467604725191400,1.21319140625,0.1681705117225647,0.12985269725322723,-0.5740428566932678
1761467604735174400,1.22317431640625,0.3120347559452057,0.10107257217168808,-0.4456423819065094
1761467604745157000,1.2331572265625,0.46302664279937744,0.0824514776468277,-0.2952086925506592
1761467604755140400,1.243140380859375,0.5950117707252502,0.003428967436775565,-0.1663178950548172
1761467604765123300,1.253123291015625,0.6697025299072266,-0.08594591915607452,-0.08747181296348572
1761467604775106300,1.263106201171875,0.6452388167381287,-0.1325046420097351,-0.023318156599998474
1761467604785089300,1.27308935546875,0.5043753981590271,-0.1883506029844284,0.020131316035985947
1761467604795073300,1.2830732421875,0.29612302780151367,-0.288139671087265,0.06096310913562775
1761467604805056300,1.29305615234375,0.059338174760341644,-0.38605639338493347,0.1521950215101242
1761467604815039500,1.30303955078125,-0.11400261521339417,-0.3784712553024292,0.35769230127334595
1761467604825022200,1.313022216796875,-0.18797297775745392,-0.35642296075820923,0.6676954627037048
1761467604835005200,1.323005126953125,-0.18286527693271637,-0.338513046503067,0.9170042872428894
1761467604844988400,1.332988525390625,-0.1041446402668953,-0.28540295362472534,1.0170512199401855
1761467604854971400,1.342971435546875,0.016480905935168266,-0.2663431167602539,0.9402511715888977
1761467604864954000,1.3529541015625,0.14622746407985687,-0.3164776563644409,0.7221574187278748
1761467604874937300,1.362937255859375,0.25547870993614197,-0.3629317581653595,0.45648622512817383
1761467604884920300,1.37292041015625,0.335460901260376,-0.3648449778556824,0.20381110906600952
1761467604894903300,1.3829033203125,0.38223469257354736,-0.3573659360408783,0.0020020045340061188
1761467604904887600,1.392887451171875,0.3938450217247009,-0.35555416345596313,-0.1435176432132721
1761467604914870300,1.402870361328125,0.40194380283355713,-0.2995622158050537,-0.253851979970932
1761467604924853200,1.412853271484375,0.4210365414619446,-0.22003038227558136,-0.3275754749774933
1761467604934836500,1.42283642578125,0.4568774104118347,-0.14034630358219147,-0.3444342017173767
1761467604944819200,1.432819091796875,0.502282440662384,-0.05984985828399658,-0.3232865631580353
1761467604954802200,1.44280224609375,0.5328603386878967,-0.00615399144589901,-0.2927969992160797
1761467604964785400,1.452785400390625,0.5416711568832397,-0.017692934721708298,-0.2426116019487381
1761467604974768400,1.462768310546875,0.4890586733818054,-0.04175282269716263,-0.16135969758033752
1761467604984751000,1.472751220703125,0.39724963903427124,-0.07879606634378433,-0.06962233036756516
1761467604994735400,1.4827353515625,0.25053420662879944,-0.12824603915214539,0.03247798979282379
1761467605004718300,1.49271826171875,0.07899095118045807,-0.17205023765563965,0.1509351283311844
1761467605014701300,1.502701416015625,-0.07212070375680923,-0.2031688392162323,0.2810816168785095
1761467605024684500,1.5126845703125,-0.2032044231891632,-0.2447700798511505,0.4044850468635559
1761467605034667300,1.522667236328125,-0.3186619281768799,-0.3185206651687622,0.5024418830871582
1761467605044650200,1.532650146484375,-0.42124050855636597,-0.41738253831863403,0.5609933137893677
1761467605054633500,1.542633544921875,-0.4984245002269745,-0.49694979190826416,0.6067132949829102
1761467605064616200,1.5526162109375,-0.5563551187515259,-0.5303080081939697,0.6218083500862122
1761467605074599200,1.56259912109375,-0.5981281995773315,-0.5028761625289917,0.6168498396873474
1761467605084582400,1.57258251953125,-0.6304249167442322,-0.43461933732032776,0.601117730140686
1761467605094566400,1.58256640625,-0.6552915573120117,-0.3485773503780365,0.5741276144981384
1761467605104549400,1.59254931640625,-0.6682233810424805,-0.2816385328769684,0.5236732363700867
1761467605114532400,1.602532470703125,-0.6649184226989746,-0.22571520507335663,0.3946313261985779
1761467605124515300,1.612515380859375,-0.6636152863502502,-0.09495506435632706,0.2103230059146881
1761467605134498300,1.622498291015625,-0.6381745338439941,0.051964908838272095,0.03808409348130226
1761467605144481500,1.6324814453125,-0.5774126648902893,0.1676102876663208,-0.07855410128831863
1761467605154464300,1.64246435546875,-0.5064606666564941,0.14052674174308777,-0.09554741531610489
1761467605164447200,1.652447265625,-0.4257163107395172,-0.016995497047901154,-0.03370242193341255
1761467605174430500,1.662430419921875,-0.3681534230709076,-0.18998776376247406,0.06584109365940094
1761467605184413400,1.672413330078125,-0.328373521566391,-0.27241742610931396,0.15242604911327362
1761467605194397200,1.682397216796875,-0.28047695755958557,-0.28501343727111816,0.17902205884456635
1761467605204380200,1.692380126953125,-0.23862725496292114,-0.27868789434432983,0.12999778985977173
1761467605214363400,1.70236328125,-0.1981906145811081,-0.23786775767803192,0.026258224621415138
1761467605224346400,1.712346435546875,-0.18103079497814178,-0.17548267543315887,-0.07296502590179443
1761467605234329300,1.722329345703125,-0.18518641591072083,-0.13228686153888702,-0.11195126175880432
1761467605244312300,1.732312255859375,-0.21235013008117676,-0.09512965381145477,-0.06800111383199692
1761467605254295000,1.742294921875,-0.2191150039434433,-0.04240728169679642,0.006328994873911142
1761467605264278300,1.7522783203125,-0.2082221508026123,0.02317146211862564,0.0946202427148819
1761467605274261200,1.76226123046875,-0.18072520196437836,0.08580570667982101,0.16521959006786346
1761467605284244200,1.772244140625,-0.1371724009513855,0.14114220440387726,0.21004031598567963
1761467605294228000,1.78222802734375,-0.09878753125667572,0.1635160595178604,0.2128203809261322
1761467605304211200,1.792211181640625,-0.060487810522317886,0.14571362733840942,0.18959921598434448
1761467605314194200,1.802194091796875,-0.02132960967719555,0.10867777466773987,0.12244731187820435
1761467605324177200,1.81217724609375,0.014174854382872581,0.06721208989620209,0.040949251502752304
1761467605334160100,1.82216015625,0.04077153652906418,0.01188037358224392,-0.03170861303806305
1761467605344143000,1.83214306640625,0.05944855138659477,-0.05611039325594902,-0.0940777137875557
1761467605354126300,1.842126220703125,0.09100184589624405,-0.08357016742229462,-0.16772057116031647
1761467605364109300,1.852109375,0.12962274253368378,-0.11164893954992294,-0.2454017847776413
1761467605374092000,1.862092041015625,0.1739501953125,-0.1350787878036499,-0.30099767446517944
1761467605384075300,1.8720751953125,0.2076900452375412,-0.12523148953914642,-0.32920774817466736
1761467605394059300,1.882059326171875,0.23212884366512299,-0.06962694227695465,-0.3435053825378418
1761467605404042200,1.892042236328125,0.24190263450145721,-0.005380846560001373,-0.3593679666519165
1761467605414025200,1.902025146484375,0.24712437391281128,0.04520594701170921,-0.3825041949748993
1761467605424008200,1.91200830078125,0.26993992924690247,0.04387862607836723,-0.4292922019958496
1761467605433991200,1.9219912109375,0.2957979738712311,0.029442746192216873,-0.5114033222198486
1761467605443974100,1.93197412109375,0.3399609327316284,0.023417344316840172,-0.5725026726722717
1761467605453957000,1.94195703125,0.39122337102890015,0.020520368590950966,-0.5862441062927246
1761467605463940000,1.951940185546875,0.4363202750682831,0.01777518168091774,-0.5279251337051392
1761467605473923300,1.96192333984375,0.47192442417144775,-0.010181967169046402,-0.41607069969177246
1761467605483906300,1.97190625,0.4974502921104431,-0.13049666583538055,-0.30193668603897095
1761467605493890300,1.981890380859375,0.49735599756240845,-0.29774758219718933,-0.2021164447069168
1761467605503873000,1.991873046875,0.4535779058933258,-0.4057938754558563,-0.1335698813199997
1761467605513856300,2.001856201171875,0.3608940541744232,-0.47026991844177246,-0.12218956649303436
1761467605523839200,2.011839111328125,0.2482985258102417,-0.47734329104423523,-0.13672803342342377
1761467605533822200,2.021822265625,0.14871135354042053,-0.3667829930782318,-0.12653584778308868
1761467605543805200,2.03180517578125,0.06110480800271034,-0.15502655506134033,-0.07178205996751785
1761467605553788200,2.0417880859375,0.004699832759797573,-0.006311256438493729,0.03409062698483467
1761467605563771100,2.051771240234375,-0.01947048492729664,-0.009496397338807583,0.1998782604932785
1761467605573754400,2.06175439453125,-0.024419819936156273,-0.10188445448875427,0.4273020625114441
1761467605583737000,2.071737060546875,-0.02199953980743885,-0.2235986441373825,0.6056456565856934
1761467605593721000,2.08172119140625,-0.019059473648667336,-0.3232630789279938,0.6671162843704224
1761467605603704300,2.091704345703125,-0.010409260168671608,-0.36435753107070923,0.6165792942047119
1761467605613687300,2.101687255859375,0.008366558700799942,-0.3045754134654999,0.5064378976821899
1761467605623670000,2.111669921875,0.031610094010829926,-0.1920267641544342,0.3733900785446167
1761467605633653200,2.1216533203125,0.06237827241420746,-0.08241911232471466,0.24574032425880432
1761467605643636200,2.13163623046875,0.1002335175871849,-0.020473985001444817,0.1314702183008194
1761467605653619200,2.141619140625,0.1285729855298996,-0.016949165612459183,0.043814852833747864
1761467605663602200,2.151602294921875,0.15513642132282257,-0.023825712502002716,-0.0024975151754915714
1761467605673585200,2.161585205078125,0.1610035002231598,-0.058256715536117554,-0.012395428493618965
1761467605683568000,2.171568115234375,0.14976949989795685,-0.10128673911094666,-0.0063977232202887535
1761467605693552000,2.18155224609375,0.13372787833213806,-0.10397563129663467,0.0020245197229087353
1761467605703535000,2.19153515625,0.10570849478244781,-0.09811028093099594,0.014610618352890015
1761467605713518000,2.20151806640625,0.07748031616210938,-0.10591494292020798,0.012407651171088219
1761467605723501300,2.211501220703125,0.04826251417398453,-0.08849254250526428,0.014090238139033318
1761467605733484300,2.221484375,0.011837459169328213,-0.05174395814538002,0.03562787547707558
1761467605743467000,2.231467041015625,-0.015250351279973984,0.003592266933992505,0.07543547451496124
1761467605753450200,2.2414501953125,-0.03464582562446594,0.055432990193367004,0.1134190782904625
1761467605763433200,2.25143310546875,-0.05720572918653488,0.0846332237124443,0.14728622138500214
1761467605773416200,2.261416259765625,-0.1011420339345932,0.13410091400146484,0.18330365419387817
1761467605783399200,2.271399169921875,-0.1541956663131714,0.19389420747756958,0.20099663734436035
1761467605793383200,2.281383056640625,-0.20819734036922455,0.20892296731472015,0.20728543400764465
1761467605803366100,2.2913662109375,-0.26835760474205017,0.17401930689811707,0.20156949758529663
1761467605813349000,2.30134912109375,-0.3281368613243103,0.15314078330993652,0.20809145271778107
1761467605823332400,2.311332275390625,-0.39474889636039734,0.16679292917251587,0.20633190870285034
1761467605833315000,2.321315185546875,-0.4550172984600067,0.19060853123664856,0.18813373148441315
1761467605843298300,2.33129833984375,-0.5074714422225952,0.2471727430820465,0.15068568289279938
1761467605853281300,2.34128125,-0.5613216161727905,0.3823438584804535,0.1284247636795044
1761467605863264000,2.351263916015625,-0.6109671592712402,0.5432294011116028,0.10352180898189545
1761467605873247200,2.361247314453125,-0.646027147769928,0.6847329139709473,0.019524626433849335
1761467605883230200,2.371230224609375,-0.6682224273681641,0.8398657441139221,-0.10880991071462631
1761467605893214200,2.381214111328125,-0.6717103719711304,1.0300086736679077,-0.26075994968414307
1761467605903197200,2.391197265625,-0.6165115237236023,1.1461094617843628,-0.38573092222213745
1761467605913180200,2.40118017578125,-0.49290570616722107,1.0306884050369263,-0.4090764820575714
1761467605923163100,2.4111630859375,-0.30476856231689453,0.6451796889305115,-0.28024765849113464
1761467605933146000,2.42114599609375,-0.0980549156665802,0.2404485046863556,-0.10195135325193405
1761467605943129300,2.43112939453125,0.07753075659275055,0.027583913877606392,0.01593293435871601
1761467605953112000,2.441112060546875,0.1776602417230606,-0.05354957655072212,0.07514667510986328
1761467605963095300,2.45109521484375,0.18910518288612366,-0.14120645821094513,0.10695625841617584
1761467605973078300,2.461078369140625,0.12962621450424194,-0.21501140296459198,0.08722714334726334
1761467605983061200,2.471061279296875,0.057088904082775116,-0.23466180264949799,0.028951317071914673
1761467605993045000,2.481044921875,0.023935316130518913,-0.15326236188411713,-0.005340552888810635
1761467606003028200,2.4910283203125,0.02516809292137623,-0.04050412401556969,-0.03656238690018654
1761467606013011200,2.50101123046875,0.062368664890527725,0.060535237193107605,-0.03491244837641716
1761467606022994200,2.510994140625,0.12127672135829926,0.07949960976839066,0.0028863311745226383
1761467606032977200,2.52097705078125,0.18841440975666046,0.06547897309064865,0.04263720288872719
1761467606042960100,2.530960205078125,0.2505073547363281,0.046777188777923584,0.08258887380361557
1761467606052943000,2.540943115234375,0.28497931361198425,0.04715563356876373,0.10391535609960556
1761467606062926300,2.55092626953125,0.2713891863822937,0.07548581063747406,0.09899809956550598
1761467606072909000,2.560908935546875,0.23058442771434784,0.09177950769662857,0.07241256535053253
1761467606082892300,2.570892333984375,0.16396492719650269,0.08435248583555222,0.05568072944879532
1761467606092876300,2.580876220703125,0.08556387573480606,0.08507035672664642,0.03054378181695938
1761467606102859300,2.590859375,0.01665937528014183,0.09179723262786865,-0.010546928271651268
1761467606112842000,2.600842041015625,-0.03329910710453987,0.11090448498725891,-0.048667460680007935
1761467606122825200,2.6108251953125,-0.055465929210186005,0.10336241126060486,-0.11343581229448318
1761467606132808200,2.62080810546875,-0.044634945690631866,0.06677402555942535,-0.20346857607364655
1761467606142791200,2.630791259765625,-0.006940561346709728,0.01532787550240755,-0.2857202887535095
1761467606152774100,2.640774169921875,0.02974686212837696,-0.04364052042365074,-0.35606884956359863
1761467606162757000,2.650757080078125,0.06199001893401146,-0.07152940332889557,-0.3929975926876068
1761467606172740000,2.660739990234375,0.08309698849916458,-0.06939271092414856,-0.407548189163208
1761467606182723300,2.670723388671875,0.09799657762050629,-0.07892496883869171,-0.4264707565307617
1761467606192707300,2.680707275390625,0.11070188134908676,-0.04322414845228195,-0.4883204996585846
1761467606202690000,2.69068994140625,0.1363009810447693,0.023421188816428185,-0.5961236357688904
1761467606212673300,2.70067333984375,0.18414516746997833,0.07945700734853745,-0.7062867283821106
1761467606222656300,2.71065625,0.23354493081569672,0.08519159257411957,-0.7534233331680298
1761467606232639200,2.72063916015625,0.2805546820163727,0.06870005279779434,-0.724178671836853
1761467606242622200,2.730622314453125,0.3148583173751831,0.002483215183019638,-0.6672226786613464
1761467606252605200,2.740605224609375,0.3585434556007385,-0.08764924854040146,-0.603924036026001
1761467606262588200,2.750588134765625,0.43219688534736633,-0.2005733996629715,-0.5348309874534607
1761467606272571400,2.7605712890625,0.523389458656311,-0.3546844720840454,-0.48364150524139404
1761467606282554000,2.77055419921875,0.598844051361084,-0.5062684416770935,-0.43507423996925354
1761467606292538000,2.7805380859375,0.6413660645484924,-0.7298424243927002,-0.34207266569137573
1761467606302521300,2.790521240234375,0.633027195930481,-0.9632464051246643,-0.23231928050518036
1761467606312504300,2.80050439453125,0.5616669654846191,-1.0732554197311401,-0.16852547228336334
1761467606322487300,2.8104873046875,0.4333159029483795,-1.0196478366851807,-0.13116931915283203
1761467606332470300,2.82047021484375,0.30355557799339294,-0.873765230178833,-0.0036716635804623365
1761467606342453200,2.830453369140625,0.20184065401554108,-0.6948825716972351,0.19033962488174438
1761467606352436200,2.840436279296875,0.137932687997818,-0.5115649700164795,0.33845269680023193
1761467606362419200,2.850419189453125,0.08363883197307587,-0.37660422921180725,0.3826238811016083
1761467606372402200,2.860402099609375,0.05105523020029068,-0.3430171608924866,0.2888326048851013
1761467606382385200,2.87038525390625,0.039659030735492706,-0.31631922721862793,0.13925161957740784
1761467606392369200,2.880369140625,0.04183860123157501,-0.3018968999385834,0.026442453265190125
1761467606402352400,2.890352294921875,0.04186949133872986,-0.2665112018585205,-0.03747900202870369
1761467606412335000,2.900335205078125,0.04034673422574997,-0.1941421627998352,-0.10828414559364319
1761467606422318300,2.910318359375,0.039114758372306824,-0.11276208609342575,-0.20513026416301727
1761467606432301300,2.92030126953125,0.052093591541051865,-0.047065939754247665,-0.2921105623245239
1761467606442284300,2.9302841796875,0.07588334381580353,0.004785273224115372,-0.3301492929458618
1761467606452267300,2.940267333984375,0.09693015366792679,0.0003610404673963785,-0.3244948089122772
1761467606462250200,2.950250244140625,0.10732686519622803,0.009130297228693962,-0.2857687175273895
1761467606472233200,2.960233154296875,0.10489015281200409,0.08416739106178284,-0.2511838674545288
1761467606482216200,2.97021630859375,0.0971028059720993,0.20414786040782928,-0.22800637781620026
1761467606492200200,2.9802001953125,0.08088698983192444,0.3373327851295471,-0.17576241493225098
1761467606502183200,2.99018310546875,0.06570297479629517,0.4316102862358093,-0.10219739377498627
1761467606512166100,3.000166259765625,0.04448968544602394,0.4425591230392456,-0.013406381011009216
1761467606522149400,3.0101494140625,-0.0024669026024639606,0.45777270197868347,0.08708187192678452
1761467606532132000,3.020132080078125,-0.08165156096220016,0.5280138850212097,0.19710789620876312
1761467606542115300,3.030115234375,-0.1807166337966919,0.6048610210418701,0.2976917624473572
1761467606552098300,3.040098388671875,-0.27856725454330444,0.6803637742996216,0.38384199142456055
1761467606562081300,3.050081298828125,-0.3852441608905792,0.7132719159126282,0.4515925645828247
1761467606572064300,3.060064208984375,-0.47286227345466614,0.6354637742042542,0.49029025435447693
1761467606582047200,3.070047119140625,-0.537025511264801,0.46451279520988464,0.5017759203910828
1761467606592031200,3.08003125,-0.5604567527770996,0.25912946462631226,0.4946002960205078
1761467606602014200,3.09001416015625,-0.577150821685791,0.08454912900924683,0.43806084990501404
1761467606611997200,3.0999970703125,-0.5855581760406494,0.0010403424967080355,0.31353357434272766
1761467606621980200,3.109980224609375,-0.5633817911148071,-0.06243183836340904,0.16359521448612213
1761467606631963100,3.119963134765625,-0.5633414387702942,-0.15777596831321716,0.011780966073274612
1761467606641946400,3.1299462890625,-0.5785653591156006,-0.1662624031305313,-0.15865014493465424
1761467606651929000,3.13992919921875,-0.6117132902145386,-0.06290782243013382,-0.30655142664909363
1761467606661912300,3.149912353515625,-0.6505551934242249,0.03218194842338562,-0.39798226952552795
1761467606671895300,3.159895263671875,-0.6680514812469482,0.018833085894584656,-0.44327911734580994
1761467606681878300,3.169878173828125,-0.6410478353500366,-0.11912158876657486,-0.501963198184967
1761467606691861200,3.179861328125,-0.5463624596595764,-0.21125318109989166,-0.5407164692878723
1761467606701845200,3.18984521484375,-0.38331571221351624,-0.25685742497444153,-0.54880690574646
1761467606711828200,3.199828125,-0.20912304520606995,-0.31579139828681946,-0.5216227173805237
1761467606721811200,3.209811279296875,-0.03855716809630394,-0.4040898382663727,-0.5064823627471924
1761467606731794200,3.219794189453125,0.08614181727170944,-0.439400315284729,-0.5067411661148071
1761467606741777200,3.229777099609375,0.15404844284057617,-0.48615795373916626,-0.5421657562255859
1761467606751760100,3.239760009765625,0.16783258318901062,-0.5123521685600281,-0.5574473142623901
1761467606761743400,3.249743408203125,0.16347484290599823,-0.4505061209201813,-0.5385963916778564
1761467606771726000,3.25972607421875,0.16694465279579163,-0.3225575089454651,-0.46032068133354187
1761467606781709300,3.269709228515625,0.17678901553153992,-0.17657050490379333,-0.32402968406677246
1761467606791692300,3.2796923828125,0.18418371677398682,-0.04476604238152504,-0.13711045682430267
1761467606801676300,3.28967626953125,0.17844247817993164,0.08323559910058975,0.06009795144200325
1761467606811659300,3.2996591796875,0.16775664687156677,0.21472448110580444,0.22536273300647736
1761467606821642200,3.309642333984375,0.16162925958633423,0.3445623517036438,0.3543641269207001
1761467606831625200,3.319625244140625,0.15365919470787048,0.4634447693824768,0.42170873284339905
1761467606841608200,3.329608154296875,0.1353134661912918,0.4711540937423706,0.41387635469436646
1761467606851591400,3.33959130859375,0.12422750890254974,0.3843865394592285,0.36815592646598816
1761467606861574100,3.34957421875,0.10128969699144363,0.3216523230075836,0.2982868254184723
1761467606871557000,3.35955712890625,0.05024028196930885,0.3326042890548706,0.18870282173156738
1761467606881540400,3.369540283203125,-0.0020378353074193,0.41973012685775757,0.06493507325649261
1761467606891523000,3.379523193359375,-0.047835033386945724,0.5015448331832886,-0.08283982425928116
1761467606901507000,3.389507080078125,-0.07360510528087616,0.5284475684165955,-0.2459765523672104
1761467606911490300,3.399490234375,-0.0865132212638855,0.5386431813240051,-0.40484708547592163
1761467606921473300,3.409473388671875,-0.07546989619731903,0.4951719045639038,-0.5659065246582031
1761467606931456300,3.419456298828125,-0.03593534976243973,0.4168376624584198,-0.6996828317642212
1761467606941439200,3.429439208984375,0.03224477171897888,0.34496641159057617,-0.8041642308235168
1761467606951422200,3.439422119140625,0.12966331839561462,0.28691089153289795,-0.8968172669410706
1761467606961405200,3.4494052734375,0.21452626585960388,0.23303140699863434,-0.9728806018829346
1761467606971388400,3.459388427734375,0.3150049149990082,0.1484127938747406,-1.0069855451583862
1761467606981371100,3.46937109375,0.3990055322647095,0.021047387272119522,-0.9974817633628845
1761467606991355100,3.479355224609375,0.466278076171875,-0.1157047301530838,-0.941249430179596
1761467607001338400,3.48933837890625,0.4986554682254791,-0.2738054096698761,-0.8847118616104126
1761467607011321300,3.4993212890625,0.5139018893241882,-0.49385425448417664,-0.8245172500610352
1761467607021304000,3.509303955078125,0.5216929912567139,-0.7652083039283752,-0.75370192527771
1761467607031287300,3.519287353515625,0.5432736277580261,-1.0050488710403442,-0.6617273092269897
1761467607041270300,3.529270263671875,0.5950489640235901,-1.1436518430709839,-0.523928701877594
1761467607051253200,3.539253173828125,0.6158170700073242,-1.1600961685180664,-0.3524840474128723
1761467607061236200,3.549236328125,0.6069021224975586,-1.0375406742095947,-0.18049708008766174
1761467607071219200,3.55921923828125,0.5510814189910889,-0.8731475472450256,-0.03744401037693024
1761467607081202200,3.5692021484375,0.4392731189727783,-0.8001167178153992,0.06311428546905518
1761467607091186200,3.579186279296875,0.3060871958732605,-0.8037257790565491,0.13136374950408936
1761467607101169400,3.58916943359375,0.2050660252571106,-0.7992309331893921,0.22822344303131104
1761467607111152000,3.599152099609375,0.11093146353960037,-0.7057420611381531,0.3861754536628723
1761467607121135400,3.60913525390625,0.020644977688789368,-0.5365335941314697,0.48900488018989563
1761467607131118300,3.619118408203125,-0.05016474053263664,-0.3518407344818115,0.5052485466003418
1761467607141101000,3.62910107421875,-0.0909704938530922,-0.18673616647720337,0.4594253897666931
1761467607151084300,3.639084228515625,-0.10856743156909943,-0.02033831737935543,0.37426450848579407
1761467607161067300,3.6490673828125,-0.11783470213413239,0.14633828401565552,0.26672500371932983
1761467607171050200,3.65905029296875,-0.10502728819847107,0.2830755114555359,0.13635791838169098
1761467607181033200,3.669033203125,-0.08355528861284256,0.37107062339782715,-0.04075108468532562
1761467607191017200,3.679017333984375,-0.07433576881885529,0.4358379542827606,-0.2249310165643692
1761467607201000200,3.689000244140625,-0.02347126416862011,0.4571339190006256,-0.37032759189605713
1761467607210983200,3.698983154296875,0.031690847128629684,0.4410281181335449,-0.45117583870887756
1761467607220966400,3.70896630859375,0.08428215235471725,0.4380110204219818,-0.4581567943096161
1761467607230949000,3.71894921875,0.13939696550369263,0.4434734880924225,-0.41455408930778503
1761467607240932400,3.728932373046875,0.17393897473812103,0.4405040442943573,-0.37224072217941284
1761467607250915000,3.7389150390625,0.19835205376148224,0.404934287071228,-0.33261334896087646
1761467607260898000,3.74889794921875,0.20926009118556976,0.3714072108268738,-0.3068581819534302
1761467607270881300,3.75888134765625,0.1950550377368927,0.39058956503868103,-0.27745482325553894
1761467607280864000,3.768864013671875,0.15571428835391998,0.4234899878501892,-0.2009403556585312
1761467607290848000,3.778847900390625,0.08497236669063568,0.40053415298461914,-0.08570409566164017
1761467607300831000,3.7888310546875,0.02136383205652237,0.30010342597961426,0.05290891230106354
1761467607310814200,3.798814208984375,-0.05127161368727684,0.21791288256645203,0.19213242828845978
1761467607320797200,3.808797119140625,-0.12686170637607574,0.18646147847175598,0.3158474564552307
1761467607330780000,3.81877978515625,-0.2198488563299179,0.19746875762939453,0.4202576279640198
1761467607340763100,3.82876318359375,-0.33044886589050293,0.1774897277355194,0.49293261766433716
1761467607350746000,3.83874609375,-0.4534129202365875,0.2045275717973709,0.5530164241790771
1761467607360729300,3.848729248046875,-0.57901531457901,0.2731276750564575,0.5880732536315918
1761467607370712000,3.858712158203125,-0.6735132336616516,0.3191899061203003,0.5977929830551147
1761467607380695000,3.868695068359375,-0.7410102486610413,0.30550846457481384,0.5704532265663147
1761467607390679000,3.878678955078125,-0.773310661315918,0.28155624866485596,0.518138587474823
1761467607400662300,3.888662353515625,-0.7582017183303833,0.2579246759414673,0.43878355622291565
1761467607410645000,3.89864501953125,-0.7163017988204956,0.22033049166202545,0.3100105822086334
1761467607420628000,3.9086279296875,-0.6509422063827515,0.17680272459983826,0.11094595491886139
1761467607430611200,3.918611083984375,-0.5801029801368713,0.09776904433965683,-0.06499940901994705
1761467607440594200,3.92859423828125,-0.5297638773918152,-0.06662815809249878,-0.1495411992073059
1761467607450577000,3.938576904296875,-0.4573492407798767,-0.28296709060668945,-0.10080032795667648
1761467607460560100,3.94856005859375,-0.3529123067855835,-0.44407662749290466,0.030551303178071976
1761467607470543000,3.958543212890625,-0.2280738651752472,-0.5067816972732544,0.12559212744235992
1761467607480526300,3.9685263671875,-0.12416239082813263,-0.44166263937950134,0.15174756944179535
1761467607490509000,3.978509033203125,-0.09586858749389648,-0.3240886926651001,0.11738631129264832
1761467607500493000,3.9884931640625,-0.12833677232265472,-0.25072312355041504,0.03830161690711975
1761467607510473000,3.998472900390625,-0.15366947650909424,-0.17777512967586517,0.05128486454486847
1761467607520456200,4.008456298828125,-0.14601369202136993,-0.08999200910329819,0.15172678232192993
1761467607530439200,4.018439208984375,-0.10033217817544937,0.015167451463639736,0.22948555648326874
1761467607540422100,4.028422119140625,0.016933990642428398,0.053393132984638214,0.25406384468078613
1761467607550405000,4.038405029296875,0.1762494146823883,-0.05427829921245575,0.2811901569366455
1761467607560389000,4.04838916015625,0.31939029693603516,-0.2517929673194885,0.3212457001209259
1761467607570372000,4.0583720703125,0.4247092008590698,-0.4338492155075073,0.3693096339702606
1761467607580355000,4.06835498046875,0.46041473746299744,-0.5163875222206116,0.443695992231369
1761467607590338300,4.07833837890625,0.3966696262359619,-0.5123986005783081,0.5997704863548279
1761467607600321000,4.088321044921875,0.33010604977607727,-0.3868553042411804,0.7995626926422119
1761467607610304000,4.098303955078125,0.24533258378505707,-0.1998087465763092,0.9326903223991394
1761467607620287200,4.108287353515625,0.15115229785442352,0.0689137876033783,0.9665234088897705
1761467607630270000,4.11827001953125,0.035912495106458664,0.38997265696525574,0.9035212993621826
1761467607640253200,4.128253173828125,-0.09050643444061279,0.6344518661499023,0.771320104598999
1761467607650236200,4.138236083984375,-0.2295140027999878,0.7392212152481079,0.6172029376029968
1761467607660219100,4.14821923828125,-0.35405218601226807,0.7449190616607666,0.49293822050094604
1761467607670203100,4.158203125,-0.44108814001083374,0.7203397750854492,0.4027516841888428
1761467607680186000,4.16818603515625,-0.5053666830062866,0.679415762424469,0.3609704375267029
1761467607690169000,4.178169189453125,-0.5401917099952698,0.5859820246696472,0.34751731157302856
1761467607700152000,4.188152099609375,-0.5458045601844788,0.4807802140712738,0.33583295345306396
1761467607710135300,4.19813525390625,-0.529487669467926,0.39346861839294434,0.29082465171813965
1761467607720118000,4.208117919921875,-0.47905564308166504,0.3512763977050781,0.22541101276874542
1761467607730101000,4.21810107421875,-0.40569719672203064,0.35469862818717957,0.18791796267032623
1761467607740084200,4.228084228515625,-0.2987592816352844,0.40334445238113403,0.16604569554328918
1761467607750067000,4.23806689453125,-0.19051598012447357,0.4719526767730713,0.1469135284423828
1761467607760051000,4.248051025390625,-0.09898712486028671,0.5665614604949951,0.14174379408359528
1761467607770034200,4.2580341796875,-0.04979819059371948,0.5995639562606812,0.19615495204925537
1761467607780017200,4.26801708984375,-0.0016224076971411705,0.4680229425430298,0.29261571168899536
1761467607790000000,4.278000244140625,0.07501764595508575,0.27430614829063416,0.4248714745044708
1761467607799983000,4.287983154296875,0.15238220989704132,0.10304892063140869,0.5724329948425293
1761467607809966000,4.297966064453125,0.23664365708827972,-0.061505917459726334,0.7171982526779175
1761467607819949000,4.307948974609375,0.3004348576068878,-0.11532814055681229,0.7776845097541809
1761467607829932300,4.317932373046875,0.3083706796169281,-0.053098518401384354,0.7071936726570129
1761467607839915000,4.3279150390625,0.24473898112773895,-0.05717901512980461,0.5924401879310608
1761467607849898000,4.33789794921875,0.14941322803497314,-0.005454057827591896,0.5436129570007324
1761467607859881200,4.347881103515625,0.00687418645247817,0.04812208563089371,0.6385447978973389
1761467607869865200,4.357865234375,-0.09650108218193054,0.03666602820158005,0.8890394568443298
1761467607879848000,4.367847900390625,-0.12734103202819824,0.08563409745693207,1.1858983039855957
1761467607889831200,4.3778310546875,-0.12162736058235168,0.2660217881202698,1.3479080200195312
1761467607899814100,4.387814208984375,-0.11449620872735977,0.41879430413246155,1.338151454925537
1761467607909797000,4.397797119140625,-0.10535386204719543,0.4557330012321472,1.2029765844345093
1761467607919780000,4.407780029296875,-0.0996919795870781,0.42411699891090393,1.0356402397155762
1761467607929763000,4.41776318359375,-0.08677329123020172,0.39641717076301575,0.9194340109825134
1761467607939746000,4.42774609375,-0.08938612043857574,0.4121681749820709,0.8418524265289307
1761467607949729300,4.437729248046875,-0.11895620077848434,0.4415834844112396,0.7916707396507263
1761467607959712000,4.4477119140625,-0.17451506853103638,0.46243739128112793,0.745067834854126
1761467607969696000,4.457696044921875,-0.21842584013938904,0.4685940444469452,0.6647191643714905
1761467607979679200,4.46767919921875,-0.2231960892677307,0.45872676372528076,0.55357825756073
1761467607989662200,4.477662109375,-0.19124828279018402,0.4268452525138855,0.4616895616054535
1761467607999645000,4.48764501953125,-0.12511906027793884,0.3944486975669861,0.39173951745033264
1761467608009628200,4.497628173828125,-0.04328899830579758,0.3997928500175476,0.3641875982284546
1761467608019611100,4.507611083984375,0.034831367433071136,0.37249836325645447,0.38188987970352173
1761467608029594000,4.517593994140625,0.06649676710367203,0.30834969878196716,0.4380802810192108
1761467608039577000,4.5275771484375,0.0403815433382988,0.25232529640197754,0.5215797424316406
1761467608049560000,4.53756005859375,-0.056942861527204514,0.2576083242893219,0.6360076665878296
1761467608059543000,4.54754296875,-0.2070426195859909,0.39544928073883057,0.7170314192771912
1761467608069527000,4.557527099609375,-0.3745252788066864,0.6175536513328552,0.7612020969390869
1761467608079510300,4.56751025390625,-0.558678388595581,0.7982059717178345,0.776063859462738
1761467608089493000,4.577492919921875,-0.7100778222084045,0.8866330981254578,0.7692145705223083
1761467608099478000,4.58747802734375,-0.8227249979972839,0.8874632120132446,0.7479076385498047
1761467608109461000,4.5974609375,-0.916543185710907,0.7075361609458923,0.6975721716880798
1761467608119444200,4.6074443359375,-1.0001091957092285,0.4531800448894501,0.6684550046920776
1761467608129427200,4.61742724609375,-1.0461808443069458,0.23061344027519226,0.6919558048248291
1761467608139410000,4.627409912109375,-1.0394978523254395,0.08141516149044037,0.7135801911354065
1761467608149393200,4.63739306640625,-0.9779451489448547,0.04965425282716751,0.6816107034683228
1761467608159376100,4.647376220703125,-0.8898962140083313,0.07923025637865067,0.6524807810783386
1761467608169359000,4.657359130859375,-0.7616677284240723,-0.022111812606453896,0.6570183038711548
1761467608179342000,4.667342041015625,-0.6483629941940308,-0.1405353993177414,0.6235277056694031
1761467608189326000,4.677326171875,-0.582700788974762,-0.07441386580467224,0.45713767409324646
1761467608199309000,4.68730908203125,-0.5315102934837341,0.23815256357192993,0.21501024067401886
1761467608209292300,4.697292236328125,-0.4327961504459381,0.5157906413078308,0.0434909425675869
1761467608219275000,4.70727490234375,-0.3167760670185089,0.343108594417572,0.029880590736865997
1761467608229258000,4.717258056640625,-0.15195396542549133,-0.017800675705075264,0.03251175582408905
1761467608239241200,4.7272412109375,-0.05760321766138077,-0.3415374457836151,-0.05770735442638397
1761467608249223700,4.7372236328125,-0.049443554133176804,-0.44220399856567383,0.0360214002430439
1761467608259206700,4.74720654296875,-0.05581703409552574,-0.26626038551330566,0.35532137751579285
1761467608269189600,4.757189697265625,-0.0842902660369873,-0.14974993467330933,0.5641300678253174
1761467608279172600,4.767172607421875,-0.07010946422815323,-0.1465509533882141,0.5394777059555054
1761467608289156600,4.777156494140625,-0.027758080512285233,-0.1832696944475174,0.4486939013004303
1761467608299139800,4.787139892578125,-0.02473619021475315,-0.10703592002391815,0.35635462403297424
1761467608309122800,4.797122802734375,-0.03994779661297798,0.07770455628633499,0.26162660121917725
1761467608319105500,4.80710546875,-0.05141749978065491,0.17733341455459595,0.18596430122852325
1761467608329088800,4.8170888671875,-0.03364253789186478,0.14464281499385834,0.17247721552848816
1761467608339071700,4.82707177734375,0.0153226088732481,0.10362427681684494,0.22760623693466187
1761467608349054700,4.8370546875,0.047902002930641174,0.10363885760307312,0.281805157661438
1761467608359037700,4.84703759765625,0.03839052468538284,0.1400224268436432,0.29489484429359436
1761467608369020700,4.857020751953125,-0.0047442237846553326,0.19032032787799835,0.25748422741889954
1761467608379003600,4.867003662109375,-0.07703466713428497,0.237024188041687,0.21268397569656372
1761467608388988000,4.87698779296875,-0.1472148597240448,0.26768675446510315,0.14672274887561798
1761467608398970600,4.886970703125,-0.19867965579032898,0.2996063232421875,0.09263794124126434
1761467608408953600,4.89695361328125,-0.2230082005262375,0.3300347626209259,0.0473664328455925
1761467608418936800,4.906936767578125,-0.21466238796710968,0.39240360260009766,0.011060620658099651
1761467608428919800,4.916919921875,-0.17527048289775848,0.45291557908058167,-0.027220917865633965
1761467608438902500,4.926902587890625,-0.09489601850509644,0.4882242977619171,-0.061114970594644547
1761467608448885800,4.9368857421875,-0.0037036905996501446,0.4748641848564148,-0.09821111708879471
1761467608458868700,4.94686865234375,0.0845462828874588,0.47046706080436707,-0.14924155175685883
1761467608468851700,4.956851806640625,0.16625940799713135,0.43053728342056274,-0.20556563138961792
1761467608478834700,4.966834716796875,0.22096633911132812,0.3857956528663635,-0.2634486258029938
1761467608488818700,4.976818603515625,0.24611027538776398,0.385694295167923,-0.32568463683128357
1761467608498801700,4.9868017578125,0.22685855627059937,0.39290961623191833,-0.401974081993103
1761467608508785000,4.996784912109375,0.1853444129228592,0.38380852341651917,-0.4611789882183075
1761467608518767600,5.006767578125,0.15012703835964203,0.38765013217926025,-0.49487194418907166
1761467608528750600,5.01675048828125,0.14581644535064697,0.29960763454437256,-0.5368599891662598
1761467608538733800,5.02673388671875,0.21447326242923737,0.1421482264995575,-0.5574364066123962
1761467608548716800,5.036716796875,0.38086414337158203,-0.03559671714901924,-0.47120732069015503
1761467608558699500,5.046699462890625,0.5753798484802246,-0.27198633551597595,-0.31940820813179016
1761467608568682800,5.056682861328125,0.7785382866859436,-0.5797379016876221,-0.17424437403678894
1761467608578665700,5.066665771484375,0.9370959997177124,-0.8915948867797852,-0.06624706834554672
1761467608588649700,5.076649658203125,0.946638286113739,-0.993512749671936,-0.025530729442834854
1761467608598632700,5.0866328125,0.7784357070922852,-0.9455598592758179,0.001280912198126316
1761467608608615700,5.09661572265625,0.44899725914001465,-0.8592283129692078,0.001093635568395257
1761467608618598700,5.1065986328125,0.03063943237066269,-0.6139759421348572,-0.016710128635168076
1761467608628582000,5.116581787109375,-0.31845396757125854,-0.31799906492233276,0.11596982926130295
1761467608638564600,5.126564697265625,-0.4750204086303711,-0.12527917325496674,0.47553277015686035
1761467608648547600,5.136547607421875,-0.5797095894813538,-0.137316033244133,0.717639148235321
1761467608658530800,5.14653076171875,-0.5980966091156006,-0.03835589811205864,0.8140125274658203
1761467608668513800,5.156513671875,-0.5654426217079163,0.09289327263832092,0.7989292740821838
1761467608678496500,5.16649658203125,-0.49921995401382446,0.11753496527671814,0.7154796123504639
1761467608688480500,5.17648046875,-0.40131425857543945,0.06872889399528503,0.5941417813301086
1761467608698463700,5.186463623046875,-0.287250280380249,0.0290382020175457,0.47052717208862305
1761467608708446700,5.19644677734375,-0.17030394077301025,-0.03125815838575363,0.36047470569610596
1761467608718429700,5.2064296875,-0.07967735826969147,-0.05544871836900711,0.2762088477611542
1761467608728412700,5.21641259765625,-0.0071538109332323074,-0.042674291878938675,0.19181257486343384
1761467608738395600,5.226395751953125,0.0279727503657341,0.02921321429312229,0.10634586215019226
1761467608748379000,5.23637890625,0.06235434114933014,0.1347196251153946,0.013801183551549911
1761467608758361600,5.246361572265625,0.10084980726242065,0.2012951821088791,-0.06562493741512299
1761467608768344600,5.256344482421875,0.15676215291023254,0.26052606105804443,-0.11412274092435837
1761467608778327800,5.266327880859375,0.19625043869018555,0.2840242087841034,-0.1493811309337616
1761467608788311800,5.276311767578125,0.21591509878635406,0.2730202376842499,-0.16166363656520844
1761467608798294800,5.286294677734375,0.2072949856519699,0.24437525868415833,-0.15630190074443817
1761467608808277500,5.296277587890625,0.1825551986694336,0.19823355972766876,-0.16594184935092926
1761467608818260700,5.3062607421875,0.14089350402355194,0.18341998755931854,-0.18390034139156342
1761467608828243700,5.31624365234375,0.04973430186510086,0.2449033260345459,-0.18206675350666046
1761467608838226700,5.326226806640625,-0.08738813549280167,0.42454394698143005,-0.17404210567474365
1761467608848209700,5.336209716796875,-0.24905869364738464,0.6957866549491882,-0.14039456844329834
1761467608858192600,5.346192626953125,-0.40781480073928833,0.9877369999885559,-0.04576632380485535
1761467608868176000,5.35617578125,-0.5661260485649109,1.1174002885818481,0.10011114180088043
1761467608878158800,5.366158935546875,-0.6954523324966431,1.1137547492980957,0.2240288257598877
1761467608888141600,5.3761416015625,-0.7879136204719543,1.074146032333374,0.3172442615032196
1761467608898125600,5.38612548828125,-0.8351207971572876,0.9489314556121826,0.37439167499542236
1761467608908108800,5.39610888671875,-0.792969286441803,0.66981041431427,0.4122215807437897
1761467608918091800,5.406091796875,-0.7086594700813293,0.20101068913936615,0.46598681807518005
1761467608928074500,5.416074462890625,-0.5430062413215637,-0.4401167035102844,0.4622524082660675
1761467608938057700,5.4260576171875,-0.2862255573272705,-0.9841602444648743,0.3819650411605835
1761467608948040700,5.436040771484375,-0.07086202502250671,-1.3012477159500122,0.1333271712064743
1761467608958023700,5.446023681640625,0.029235277324914932,-1.2071760892868042,-0.24957308173179626
1761467608968006700,5.456006591796875,0.045225728303194046,-0.6644846200942993,-0.6367462873458862
1761467608977989600,5.46598974609375,0.031321629881858826,-0.20667682588100433,-0.8637509346008301
1761467608987972900,5.475972900390625,0.05201945826411247,-0.260999470949173,-0.9374446272850037
1761467608997956900,5.485956787109375,0.10017606616020203,-0.6818130016326904,-0.9523511528968811
1761467609007939600,5.495939697265625,0.13725928962230682,-0.9610137343406677,-0.7510412335395813
1761467609017922600,5.505922607421875,0.153831347823143,-0.7654940485954285,-0.4307330250740051
1761467609027905800,5.51590576171875,0.09547249227762222,-0.44116076827049255,-0.167941614985466
1761467609037888800,5.525888671875,0.023108018562197685,-0.24794898927211761,-0.04949645325541496
1761467609047871500,5.53587158203125,-0.022678768262267113,-0.13154654204845428,-0.08323965966701508
1761467609057854700,5.545854736328125,-0.00954112783074379,-0.03047931380569935,-0.16191449761390686
1761467609067837700,5.555837646484375,0.060499921441078186,0.05036782845854759,-0.16534806787967682
1761467609077820700,5.565820556640625,0.15114086866378784,0.04366039112210274,-0.1109391525387764
1761467609087803600,5.5758037109375,0.2185027003288269,-0.003110125195235014,-0.030585935339331627
1761467609097787600,5.58578759765625,0.27284932136535645,-0.03200675547122955,0.06880535930395126
1761467609107770600,5.5957705078125,0.2961326241493225,-0.03535986691713333,0.13466298580169678
1761467609117753900,5.60575390625,0.28497639298439026,0.012742681428790092,0.16876822710037231
1761467609127736800,5.61573681640625,0.23477719724178314,0.08495749533176422,0.15790095925331116
1761467609137719600,5.625719482421875,0.1596326380968094,0.12433019280433655,0.11199550330638885
1761467609147702800,5.635702880859375,0.07094871252775192,0.14140313863754272,0.035687413066625595
1761467609157685800,5.645685791015625,-0.018621116876602173,0.14344258606433868,-0.06153953820466995
1761467609167668500,5.65566845703125,-0.0830661728978157,0.10234080255031586,-0.1667168140411377
1761467609177651700,5.665651611328125,-0.09437821060419083,0.07364204525947571,-0.2219284027814865
1761467609187634700,5.675634765625,-0.09789320081472397,0.08598827570676804,-0.27029067277908325
1761467609197618700,5.68561865234375,-0.11866346001625061,0.15976236760616302,-0.35193654894828796
1761467609207601700,5.6956015625,-0.15710411965847015,0.2676926553249359,-0.44288405776023865
1761467609217584600,5.705584716796875,-0.21180836856365204,0.36253821849823,-0.5373506546020508
1761467609227567600,5.715567626953125,-0.25546371936798096,0.35464605689048767,-0.608666718006134
1761467609237550800,5.72555078125,-0.27449628710746765,0.2815803587436676,-0.6462852358818054
1761467609247533800,5.735533935546875,-0.2530941367149353,0.19910089671611786,-0.6548726558685303
1761467609257516800,5.745516845703125,-0.2008162885904312,0.1086823120713234,-0.6382297873497009
1761467609267500000,5.7555,-0.15073782205581665,-0.020120758563280106,-0.6169502139091492
1761467609277482800,5.765482666015625,-0.08908272534608841,-0.184202641248703,-0.5527733564376831
1761467609287465700,5.7754658203125,-0.0072572240605950356,-0.37511539459228516,-0.48596176505088806
1761467609297449000,5.785448974609375,0.05254725366830826,-0.6041789650917053,-0.44828230142593384
1761467609307433000,5.795432861328125,0.13680976629257202,-0.7619667649269104,-0.36549079418182373
1761467609317416000,5.805416015625,0.2882184386253357,-0.8483466506004333,-0.17321909964084625
1761467609327398700,5.815398681640625,0.46844300627708435,-0.9075626134872437,-0.001722579007036984
1761467609337382000,5.8253818359375,0.6127314567565918,-0.9307489395141602,0.008646704256534576
1761467609347364900,5.83536474609375,0.6878223419189453,-0.870409369468689,-0.12314964085817337
1761467609357347800,5.845347900390625,0.6602554321289062,-0.9101852774620056,-0.19733251631259918
1761467609367330800,5.855330810546875,0.522327721118927,-1.094366192817688,-0.1574326753616333
1761467609377313800,5.865313720703125,0.3265385627746582,-1.129018783569336,0.0689282938838005
1761467609387297000,5.875297119140625,0.178828626871109,-0.8928105235099792,0.43387848138809204
1761467609397280000,5.885280029296875,0.08587179332971573,-0.40937620401382446,0.7366977334022522
1761467609407263700,5.895263671875,0.01770726591348648,0.10499835759401321,0.9187189340591431
1761467609417246700,5.905246826171875,-0.04206711798906326,0.30267417430877686,0.9600751399993896
1761467609427230000,5.91522998046875,-0.042554229497909546,0.2147396206855774,0.866971492767334
1761467609437213000,5.925212890625,-0.010230377316474915,0.012222737073898315,0.6420975923538208
1761467609447195600,5.935195556640625,0.03652145713567734,-0.09781799465417862,0.3932308554649353
1761467609457179000,5.945178955078125,0.0882221981883049,-0.07969252020120621,0.22597233951091766
1761467609467161900,5.955161865234375,0.09387475997209549,-0.04660780727863312,0.11020006239414215
1761467609477144800,5.965144775390625,0.06572835147380829,0.005052456632256508,0.004419569857418537
1761467609487127800,5.9751279296875,0.031494785100221634,0.0674641951918602,-0.05931568145751953
1761467609497110800,5.98511083984375,0.0038309316150844097,0.11017969995737076,-0.07102986425161362
1761467609507094800,5.9950947265625,-0.025640493258833885,0.13438379764556885,-0.0578671433031559
1761467609517078000,6.005078125,-0.06130128353834152,0.18309859931468964,-0.05382926017045975
1761467609527060700,6.015060791015625,-0.0938977375626564,0.24992042779922485,-0.045487381517887115
1761467609537043700,6.025043701171875,-0.13914698362350464,0.3558753728866577,-0.024314453825354576
1761467609547027000,6.03502685546875,-0.20431862771511078,0.4843103587627411,-0.006002763286232948
1761467609557010000,6.045010009765625,-0.2873557209968567,0.6243407130241394,0.04345027357339859
1761467609566992600,6.05499267578125,-0.3604418635368347,0.8071860671043396,0.14406119287014008
1761467609576976000,6.064975830078125,-0.42254358530044556,0.9866048693656921,0.28661781549453735
1761467609586958800,6.074958740234375,-0.47683361172676086,1.119316816329956,0.4126221239566803
1761467609596941800,6.08494189453125,-0.5212183594703674,1.2391276359558105,0.5218570232391357
1761467609606924800,6.0949248046875,-0.5738406181335449,1.2320998907089233,0.6045877933502197
1761467609616908800,6.10490869140625,-0.6391400098800659,1.1590861082077026,0.6468388438224792
1761467609626891800,6.114891845703125,-0.694434404373169,1.1089435815811157,0.6516839861869812
1761467609636875000,6.124875,-0.7205429673194885,1.0044782161712646,0.687035322189331
1761467609646858000,6.13485791015625,-0.7042284607887268,0.7799379825592041,0.728424608707428
1761467609656840700,6.1448408203125,-0.676206648349762,0.38086196780204773,0.7432477474212646
1761467609666824000,6.154823974609375,-0.6250532269477844,-0.17274241149425507,0.6832670569419861
1761467609676807000,6.164806884765625,-0.5439115166664124,-0.6023398637771606,0.4694724678993225
1761467609686789600,6.17478955078125,-0.43738487362861633,-0.8273212909698486,0.06825573742389679
1761467609696772900,6.18477294921875,-0.2835942506790161,-0.7608517408370972,-0.2910715341567993
1761467609706755800,6.194755859375,-0.11985412985086441,-0.39654630422592163,-0.44275104999542236
1761467609716739800,6.20473974609375,0.07877879589796066,-0.26743438839912415,-0.4408903121948242
1761467609726723000,6.21472314453125,0.2519545257091522,-0.5417686104774475,-0.3462871015071869
1761467609736705800,6.224705810546875,0.3415890634059906,-0.8881489634513855,-0.2774465084075928
1761467609746688800,6.234688720703125,0.31976285576820374,-0.9335812926292419,-0.18875323235988617
1761467609756672000,6.244672119140625,0.24697305262088776,-0.5618143677711487,-0.0068228598684072495
1761467609766655000,6.254655029296875,0.11354073137044907,-0.09491642564535141,0.18205508589744568
1761467609776637700,6.2646376953125,-0.05787895619869232,0.06722401082515717,0.14074119925498962
1761467609786621000,6.274620849609375,-0.19142942130565643,0.05690367892384529,-0.04222368448972702
1761467609796604000,6.28460400390625,-0.19066429138183594,-0.024356825277209282,-0.22720499336719513
1761467609806586600,6.294586669921875,-0.057239554822444916,-0.09319749474525452,-0.3482856750488281
1761467609816569900,6.30456982421875,0.17992374300956726,-0.13554415106773376,-0.3801674544811249
1761467609826553900,6.314553955078125,0.45675086975097656,-0.14569781720638275,-0.3461400866508484
1761467609836536800,6.324536865234375,0.7011910080909729,-0.15976357460021973,-0.3142593801021576
1761467609846520000,6.33452001953125,0.8808870911598206,-0.21696287393569946,-0.3032519519329071
1761467609856502800,6.344502685546875,0.9563080668449402,-0.24444882571697235,-0.29391810297966003
1761467609866485800,6.35448583984375,0.9628927707672119,-0.25218746066093445,-0.2979448735713959
1761467609876469000,6.364468994140625,0.9178451299667358,-0.2508454918861389,-0.3008253574371338
1761467609886452000,6.374451904296875,0.8297276496887207,-0.2256845235824585,-0.32337239384651184
1761467609896434700,6.3844345703125,0.7318767309188843,-0.18266674876213074,-0.3861340582370758
1761467609906418000,6.39441796875,0.65389084815979,-0.16241447627544403,-0.4658339321613312
1761467609916401000,6.40440087890625,0.6310542225837708,-0.1702287197113037,-0.5483690500259399
1761467609926385000,6.414385009765625,0.58382248878479,-0.21486666798591614,-0.6036306023597717
1761467609936367900,6.424367919921875,0.5556696653366089,-0.2211248278617859,-0.6208434104919434
1761467609946350800,6.434350830078125,0.5032554268836975,-0.1815156638622284,-0.6124699711799622
1761467609956333800,6.444333740234375,0.4702780246734619,-0.095107801258564,-0.6031039357185364
1761467609966317000,6.454317138671875,0.46386516094207764,0.011748218908905983,-0.595907986164093
1761467609976299800,6.4642998046875,0.4468102753162384,0.09654007107019424,-0.574324369430542
1761467609986282800,6.47428271484375,0.44531092047691345,0.14732536673545837,-0.5669180154800415
1761467609996266000,6.484265869140625,0.46493256092071533,0.1321253776550293,-0.5846011638641357
1761467610006249000,6.4942490234375,0.49033573269844055,0.09262556582689285,-0.6239867210388184
1761467610016231700,6.504231689453125,0.5384292602539062,0.11148980259895325,-0.6723300218582153
1761467610026215000,6.51421484375,0.5865806937217712,0.13727819919586182,-0.7363457083702087
1761467610036199000,6.524198974609375,0.6246809363365173,0.13521131873130798,-0.8279683589935303
1761467610046182000,6.534181884765625,0.6697713732719421,0.11957521736621857,-0.9132511019706726
1761467610056164900,6.544164794921875,0.7299244999885559,0.09908059239387512,-0.941093921661377
1761467610066147800,6.55414794921875,0.8116680979728699,0.009582923725247383,-0.8664128184318542
1761467610076130800,6.564130859375,0.8989207148551941,-0.19473479688167572,-0.7345131039619446
1761467610086114000,6.574114013671875,0.9675086736679077,-0.4582121670246124,-0.6357867121696472
1761467610096096800,6.5840966796875,1.021296739578247,-0.5879978537559509,-0.6140803694725037
1761467610106079700,6.594079833984375,1.0291529893875122,-0.6465356349945068,-0.6025139689445496
1761467610116063000,6.60406298828125,0.9574222564697266,-0.7032145857810974,-0.5769563913345337
1761467610126046000,6.6140458984375,0.7994135022163391,-0.6870008707046509,-0.5571420788764954
1761467610136028700,6.624028564453125,0.6265341639518738,-0.6632307767868042,-0.49377956986427307
1761467610146012700,6.6340126953125,0.5147483348846436,-0.6250683069229126,-0.3677782714366913
1761467610155996000,6.643995849609375,0.4238929748535156,-0.4833223521709442,-0.2041318416595459
1761467610165979000,6.653978759765625,0.3516051173210144,-0.20966331660747528,-0.05805765837430954
1761467610175961900,6.6639619140625,0.2784379720687866,0.05153793469071388,-0.03007502481341362
1761467610185944800,6.67394482421875,0.2380124032497406,0.23666499555110931,-0.09616941213607788
1761467610195927800,6.683927734375,0.20206318795681,0.25490471720695496,-0.19415323436260223
1761467610205911000,6.6939111328125,0.18150971829891205,0.12726260721683502,-0.23694223165512085
1761467610215893800,6.703893798828125,0.15330763161182404,-0.008361002430319786,-0.22810426354408264
1761467610225876700,6.713876708984375,0.11168321967124939,-0.0828394964337349,-0.24457485973834991
1761467610235860000,6.72385986328125,0.05278101935982704,-0.11957833915948868,-0.2869074046611786
1761467610245847300,6.733847412109375,0.015147173777222633,-0.12417437881231308,-0.32017257809638977
1761467610255830300,6.743830322265625,0.0012902142480015755,-0.09853506088256836,-0.29602330923080444
1761467610265813200,6.753813232421875,0.0014940486289560795,-0.05167203024029732,-0.21644292771816254
1761467610275796500,6.76379638671875,0.011755208484828472,-0.01306605152785778,-0.13252565264701843
1761467610285779200,6.773779296875,0.016063712537288666,-0.005551924929022789,-0.05135713517665863
1761467610295762200,6.78376220703125,0.03299795463681221,-0.018882377073168755,0.02356371283531189
1761467610305745400,6.793745361328125,0.02080884762108326,-0.03662971779704094,0.09480239450931549
1761467610315728400,6.803728271484375,-0.010506464168429375,-0.02975636161863804,0.1692177802324295
1761467610325711400,6.81371142578125,-0.06077303737401962,0.01217020396143198,0.2494267076253891
1761467610335694300,6.8236943359375,-0.14139249920845032,0.03969850018620491,0.3016286790370941
1761467610345677300,6.83367724609375,-0.23322030901908875,0.07981604337692261,0.33959296345710754
1761467610355661300,6.843661376953125,-0.31992268562316895,0.10812065005302429,0.38252872228622437
1761467610365644300,6.853644287109375,-0.39137205481529236,0.0995856449007988,0.42268213629722595
1761467610375627300,6.863627197265625,-0.4376380741596222,0.04248134046792984,0.44574669003486633
1761467610385610200,6.8736103515625,-0.46349337697029114,-0.03812667727470398,0.4511972665786743
1761467610395593500,6.883593505859375,-0.4831480383872986,-0.1083153560757637,0.44862863421440125
1761467610405576200,6.893576171875,-0.49049171805381775,-0.1385667324066162,0.45167237520217896
1761467610415559200,6.90355908203125,-0.48371049761772156,-0.13808336853981018,0.4839046001434326
1761467610425542400,6.91354248046875,-0.4425632059574127,-0.1564057469367981,0.5378963947296143
1761467610435525400,6.923525390625,-0.3883231580257416,-0.1269141584634781,0.5597630739212036
1761467610445508400,6.93350830078125,-0.3099764585494995,-0.029139148071408272,0.5445160269737244
1761467610455492400,6.943492431640625,-0.23558852076530457,0.149630606174469,0.46935203671455383
1761467610465475300,6.953475341796875,-0.16187132894992828,0.30286920070648193,0.3415933847427368
1761467610475458300,6.963458251953125,-0.08190247416496277,0.24722829461097717,0.21436113119125366
1761467610485441300,6.973441162109375,0.0038020468782633543,0.015559917315840721,0.10612612217664719
1761467610495424300,6.98342431640625,0.08158312737941742,-0.25526732206344604,0.011284561827778816
1761467610505407200,6.9934072265625,0.11176414042711258,-0.5194394588470459,-0.06577122211456299
1761467610515390500,7.003390380859375,0.1293252855539322,-0.6074657440185547,-0.13604167103767395
1761467610525373200,7.013373291015625,0.0995144173502922,-0.48870593309402466,-0.18289253115653992
1761467610535356200,7.023356201171875,0.05643219128251076,-0.37259769439697266,-0.2613500654697418
1761467610545339400,7.03333935546875,0.042527541518211365,-0.3952254056930542,-0.3881065249443054
1761467610555322400,7.043322265625,0.06936235725879669,-0.5026615262031555,-0.5302881598472595
1761467610565306400,7.053306396484375,0.13599498569965363,-0.5435248017311096,-0.6295168995857239
1761467610575289300,7.063289306640625,0.20377270877361298,-0.4885970950126648,-0.6230270266532898
1761467610585272300,7.073272216796875,0.24434977769851685,-0.3999934196472168,-0.49209064245224
1761467610595255300,7.08325537109375,0.2597537934780121,-0.3325906991958618,-0.32728996872901917
1761467610605238500,7.093238525390625,0.25627249479293823,-0.25135788321495056,-0.1875120997428894
1761467610615221200,7.10322119140625,0.23028695583343506,-0.12832170724868774,-0.10265233367681503
1761467610625204200,7.113204345703125,0.20059248805046082,-0.015500592067837715,-0.11450814455747604
1761467610635187500,7.1231875,0.14447754621505737,0.08141770213842392,-0.19306553900241852
1761467610645170200,7.133170166015625,0.08001700788736343,0.17296847701072693,-0.3029109537601471
1761467610655153200,7.143153076171875,0.030366096645593643,0.24895912408828735,-0.39496472477912903
1761467610665137400,7.153137451171875,0.008781890384852886,0.28235965967178345,-0.44730204343795776
1761467610675120400,7.163120361328125,0.0202164389193058,0.2360299825668335,-0.4707583785057068
1761467610685103400,7.173103271484375,0.0676627829670906,0.09444515407085419,-0.4875115156173706
1761467610695086300,7.18308642578125,0.12842786312103271,-0.09173910319805145,-0.5321801900863647
1761467610705069300,7.1930693359375,0.1965322047472,-0.21161803603172302,-0.5883727073669434
1761467610715052300,7.20305224609375,0.2514958381652832,-0.21820829808712006,-0.646004319190979
1761467610725035500,7.213035400390625,0.30084362626075745,-0.15413600206375122,-0.7096875905990601
1761467610735018200,7.223018310546875,0.3334417939186096,-0.07064031064510345,-0.7976238131523132
1761467610745001200,7.233001220703125,0.33685871958732605,0.030587272718548775,-0.9113938212394714
1761467610754984400,7.242984375,0.3137557804584503,0.16846443712711334,-1.050979733467102
1761467610764968400,7.252968505859375,0.28572940826416016,0.3020758628845215,-1.1642014980316162
1761467610774951200,7.262951171875,0.2539597749710083,0.29884544014930725,-1.194767951965332
1761467610784934400,7.272934326171875,0.22411884367465973,0.1706881821155548,-1.1279586553573608
1761467610794917400,7.28291748046875,0.18581673502922058,-0.02348235249519348,-1.001810908317566
1761467610804900400,7.292900390625,0.17345915734767914,-0.2856435179710388,-0.8134341835975647
1761467610814883300,7.30288330078125,0.20309214293956757,-0.5235911011695862,-0.5984936356544495
1761467610824866300,7.3128662109375,0.26381441950798035,-0.6466965079307556,-0.3974275290966034
1761467610834849300,7.322849365234375,0.3307409882545471,-0.5714632868766785,-0.23191019892692566
1761467610844832500,7.33283251953125,0.3418732285499573,-0.4663172662258148,-0.14820678532123566
1761467610854815200,7.342815185546875,0.3006237745285034,-0.40971577167510986,-0.15083692967891693
1761467610864798200,7.352798095703125,0.22381149232387543,-0.43097570538520813,-0.16051021218299866
1761467610874782200,7.3627822265625,0.11864966154098511,-0.48549139499664307,-0.12782123684883118
1761467610884765400,7.372765380859375,0.036199502646923065,-0.5506835579872131,-0.06706570088863373
1761467610894748200,7.382748046875,-0.020169496536254883,-0.5315809845924377,0.02312731184065342
1761467610904731400,7.3927314453125,-0.04500224441289902,-0.4315935969352722,0.12049505859613419
1761467610914714400,7.40271435546875,-0.02948666736483574,-0.2574090361595154,0.2233964055776596
1761467610924697300,7.412697265625,-0.002016426995396614,-0.07441684603691101,0.28990793228149414
1761467610934680300,7.422680419921875,0.020290210843086243,0.08113839477300644,0.33007317781448364
1761467610944663300,7.432663330078125,0.0204353928565979,0.17674057185649872,0.374003142118454
1761467610954646300,7.442646240234375,-0.011241842992603779,0.2073267102241516,0.4093874990940094
1761467610964629500,7.45262939453125,-0.07078367471694946,0.22442969679832458,0.4160265028476715
1761467610974613500,7.462613525390625,-0.14858898520469666,0.2494301199913025,0.38392049074172974
1761467610984596200,7.47259619140625,-0.21020543575286865,0.2715919017791748,0.3339332938194275
1761467610994579200,7.4825791015625,-0.2491552233695984,0.2800349295139313,0.3029652535915375
1761467611004562400,7.4925625,-0.2604760527610779,0.33745720982551575,0.3264249265193939
1761467611014545200,7.502545166015625,-0.23439280688762665,0.44877389073371887,0.3910699784755707
1761467611024528400,7.5125283203125,-0.21795843541622162,0.5286074280738831,0.4202335476875305
1761467611034511400,7.522511474609375,-0.22239045798778534,0.5660983324050903,0.4096813201904297
1761467611044494300,7.532494384765625,-0.2588972747325897,0.5871321558952332,0.3887604773044586
1761467611054477300,7.542477294921875,-0.29331517219543457,0.6179412007331848,0.38154250383377075
1761467611064460300,7.552460205078125,-0.324534147977829,0.5672003626823425,0.3907766044139862
1761467611074443300,7.562443359375,-0.35909104347229004,0.48403385281562805,0.4309077858924866
1761467611084427300,7.57242724609375,-0.40279847383499146,0.49484768509864807,0.518847644329071
1761467611094410500,7.582410400390625,-0.4563567638397217,0.5917624831199646,0.6280210018157959
1761467611104393200,7.592393310546875,-0.5288071036338806,0.7106648683547974,0.7499287724494934
1761467611114376200,7.602376220703125,-0.6368557810783386,0.8213666081428528,0.8365859389305115
1761467611124359400,7.612359375,-0.763006329536438,0.9430543184280396,0.8702131509780884
1761467611134342400,7.62234228515625,-0.8968932628631592,0.9782764911651611,0.865542471408844
1761467611144325400,7.632325439453125,-1.030368447303772,0.7749322056770325,0.8361863493919373
1761467611154308400,7.642308349609375,-1.1050264835357666,0.2968495190143585,0.8173007965087891
1761467611164291300,7.652291259765625,-1.081174373626709,-0.23858824372291565,0.7318703532218933
1761467611174274300,7.6622744140625,-1.003851056098938,-0.565788984298706,0.5175793766975403
1761467611184257300,7.67225732421875,-0.894142746925354,-0.5442517399787903,0.19985036551952362
1761467611194241300,7.6822412109375,-0.7272799611091614,-0.12835974991321564,-0.1631094515323639
1761467611204224300,7.692224365234375,-0.524955153465271,0.04328389838337898,-0.487591028213501
1761467611214207500,7.70220751953125,-0.32522788643836975,-0.24436891078948975,-0.699622631072998
1761467611224190200,7.712190185546875,-0.10654178261756897,-0.6296136975288391,-0.7442222833633423
1761467611234173200,7.722173095703125,0.04428155720233917,-0.9345682859420776,-0.6959359645843506
1761467611244153600,7.732153564453125,0.11080257594585419,-1.0703389644622803,-0.6259168386459351
1761467611254136600,7.742136474609375,0.10285303741693497,-1.0190600156784058,-0.5197171568870544
1761467611264119600,7.75211962890625,0.059443164616823196,-0.8422905802726746,-0.3752979636192322
1761467611274102800,7.762102783203125,0.01083701103925705,-0.6575050354003906,-0.2521155774593353
1761467611284085500,7.77208544921875,0.030535858124494553,-0.42793458700180054,-0.18626298010349274
1761467611294068500,7.782068359375,0.08982767909765244,-0.16542093455791473,-0.17014287412166595
1761467611304052500,7.792052490234375,0.18571758270263672,0.009954391978681087,-0.17474761605262756
1761467611314035700,7.80203564453125,0.29559481143951416,0.039754368364810944,-0.14990060031414032
1761467611324018400,7.812018310546875,0.40414950251579285,-0.06103150174021721,-0.09104800224304199
1761467611334001700,7.822001708984375,0.48748913407325745,-0.2312469184398651,-0.031146051362156868
1761467611343984600,7.831984619140625,0.5276880264282227,-0.313838392496109,-0.00023712893016636372
1761467611353967600,7.841967529296875,0.5107141137123108,-0.27637702226638794,-0.0023729840759187937
1761467611363950600,7.85195068359375,0.45819273591041565,-0.1306726336479187,-0.05510266497731209
1761467611373933600,7.86193359375,0.3705976605415344,0.07681263983249664,-0.15141934156417847
1761467611383916500,7.87191650390625,0.27629852294921875,0.2190585732460022,-0.28076285123825073
1761467611393899800,7.881899658203125,0.1924571692943573,0.2897180914878845,-0.39871397614479065
1761467611403883500,7.891883544921875,0.13375775516033173,0.3411123752593994,-0.49700552225112915
1761467611413866500,7.901866455078125,0.09130056947469711,0.3658834993839264,-0.6116487383842468
1761467611423849500,7.911849365234375,0.06527583301067352,0.35432198643684387,-0.7255409359931946
1761467611433832700,7.921832763671875,0.06838320940732956,0.33322978019714355,-0.8307035565376282
1761467611443815400,7.9318154296875,0.06994015723466873,0.2916196584701538,-0.9098527431488037
1761467611453798700,7.941798583984375,0.10726062953472137,0.25312870740890503,-0.9757353663444519
1761467611463781600,7.95178173828125,0.15685315430164337,0.23880793154239655,-1.0124648809432983
1761467611473764600,7.9617646484375,0.21699851751327515,0.24287138879299164,-1.0354654788970947
1761467611483747600,7.97174755859375,0.2981460988521576,0.2846197783946991,-1.0612678527832031
1761467611493730600,7.98173046875,0.37299370765686035,0.2506332993507385,-1.0754307508468628
1761467611503713500,7.991713623046875,0.4215816855430603,0.14078053832054138,-1.078911542892456
1761467611513697500,8.001697509765625,0.4413266181945801,0.08270605653524399,-1.0623586177825928
1761467611523678500,8.011678466796875,0.43121641874313354,0.05732289329171181,-1.0381319522857666
1761467611533661700,8.02166162109375,0.39160826802253723,0.025493059307336807,-1.0170320272445679
1761467611543644700,8.031644775390625,0.30023351311683655,-0.0016719033010303974,-1.012846827507019
1761467611553627400,8.04162744140625,0.20320336520671844,-0.048094525933265686,-1.020259976387024
1761467611563610600,8.051610595703124,0.13224217295646667,-0.14624036848545074,-1.026012659072876
1761467611573593600,8.061593505859374,0.09950578957796097,-0.3282375931739807,-0.9926671981811523
1761467611583576600,8.07157666015625,0.10431359708309174,-0.5430148839950562,-0.8560885787010193
1761467611593560600,8.081560546875,0.1414196789264679,-0.7552938461303711,-0.5958623290061951
1761467611603543600,8.09154345703125,0.16903407871723175,-0.901317298412323,-0.2955450415611267
1761467611613526500,8.101526611328126,0.17565470933914185,-0.8792085647583008,-0.07801271229982376
1761467611623509800,8.111509765625,0.12746845185756683,-0.7133152484893799,0.034764211624860764
1761467611633492500,8.121492431640625,0.05220751836895943,-0.5820358395576477,0.09221898019313812
1761467611643475500,8.131475341796875,-0.016223613172769547,-0.5399996042251587,0.164581760764122
1761467611653458700,8.141458740234375,-0.05589485913515091,-0.47478729486465454,0.28486955165863037
1761467611663441700,8.151441650390625,-0.07669488340616226,-0.36594057083129883,0.374069482088089
1761467611673424400,8.16142431640625,-0.08523963391780853,-0.2578601539134979,0.40877124667167664
1761467611683407600,8.17140771484375,-0.08928454667329788,-0.19681614637374878,0.40487179160118103
1761467611693390600,8.181390625,-0.09399674087762833,-0.20579180121421814,0.35303178429603577
1761467611703374600,8.19137451171875,-0.10001057386398315,-0.2206878662109375,0.2918066382408142
1761467611713357600,8.201357666015625,-0.10552597790956497,-0.19996900856494904,0.21549218893051147
1761467611723340500,8.211340576171875,-0.11368726193904877,-0.20288558304309845,0.11831504851579666
1761467611733323500,8.221323486328124,-0.0905877947807312,-0.2503916025161743,0.034507762640714645
1761467611743306800,8.231306640625,-0.060663625597953796,-0.2459668070077896,0.03043362684547901
1761467611753289500,8.24128955078125,-0.006218491122126579,-0.1569993942975998,0.11267311125993729
1761467611763272400,8.2512724609375,0.04240806773304939,-0.028842680156230927,0.23117730021476746
1761467611773255700,8.261255615234376,0.055416278541088104,0.0962316170334816,0.32980480790138245
1761467611783238700,8.27123876953125,0.02412131056189537,0.19505104422569275,0.3894559442996979
1761467611793221400,8.281221435546875,-0.04035089164972305,0.23925340175628662,0.41487714648246765
1761467611803204600,8.29120458984375,-0.11869700998067856,0.19672808051109314,0.4307903051376343
1761467611813188600,8.301188720703125,-0.1893583983182907,0.10775002092123032,0.4702591598033905
1761467611823171600,8.311171630859375,-0.24798662960529327,0.05171680822968483,0.533595860004425
1761467611833154600,8.321154541015625,-0.30338385701179504,0.04808798432350159,0.6401965618133545
1761467611843137500,8.331137451171875,-0.33890193700790405,0.06163213029503822,0.7728406190872192
1761467611853120500,8.34112060546875,-0.3949553370475769,0.10592477023601532,0.879256546497345
1761467611863103700,8.351103759765625,-0.4548105299472809,0.20064961910247803,0.9124410152435303
1761467611873086500,8.36108642578125,-0.5161218047142029,0.2970355451107025,0.877479612827301
1761467611883069400,8.3710693359375,-0.5609963536262512,0.2819163501262665,0.7817915081977844
1761467611893052700,8.381052734375,-0.5750205516815186,0.19746673107147217,0.6317484974861145
1761467611903035600,8.39103564453125,-0.5738929510116577,0.10540274530649185,0.4497887194156647
1761467611913019600,8.40101953125,-0.5616786479949951,0.04696153849363327,0.23911164700984955
1761467611923002400,8.41100244140625,-0.5563328862190247,0.0484587661921978,0.03117416426539421
1761467611932985600,8.420985595703126,-0.542192280292511,0.0300547257065773,-0.14365889132022858
1761467611942968600,8.430968505859376,-0.511433482170105,-0.08384023606777191,-0.3084307312965393
1761467611952951600,8.44095166015625,-0.4516470730304718,-0.26862257719039917,-0.4349021315574646
1761467611962934500,8.4509345703125,-0.3532326817512512,-0.47823774814605713,-0.5097199082374573
1761467611972917500,8.46091748046875,-0.22972242534160614,-0.6462901830673218,-0.5376447439193726
1761467611982900700,8.470900634765625,-0.12337034940719604,-0.7352953553199768,-0.5479038953781128
1761467611992883700,8.4808837890625,-0.043933577835559845,-0.7246136665344238,-0.5227303504943848
1761467612002866400,8.490866455078125,-0.010780131444334984,-0.6547196507453918,-0.4488796591758728
1761467612012849700,8.500849609375,-0.021788308396935463,-0.5638419389724731,-0.32648101449012756
1761467612022833700,8.510833740234375,-0.062276002019643784,-0.5056081414222717,-0.18574829399585724
1761467612032816600,8.520816650390625,-0.09841296076774597,-0.5389447808265686,0.005334845744073391
1761467612042799400,8.53079931640625,-0.11939209699630737,-0.5594549179077148,0.1921820044517517
1761467612052782600,8.540782470703125,-0.13472923636436462,-0.5728164911270142,0.3367096185684204
1761467612062765600,8.550765625,-0.1308976262807846,-0.5927156209945679,0.4202621579170227
1761467612072748500,8.56074853515625,-0.09054701030254364,-0.5720584988594055,0.4924229085445404
1761467612082731500,8.5707314453125,-0.024393882602453232,-0.47745922207832336,0.5430256128311157
1761467612092714500,8.580714599609376,0.05135760083794594,-0.3203692138195038,0.5579574108123779
1761467612102699500,8.590699462890624,0.12920483946800232,-0.1473061591386795,0.5481008887290955
1761467612112682500,8.6006826171875,0.21188506484031677,0.02437104657292366,0.508757472038269
1761467612122665700,8.610665771484374,0.26799672842025757,0.122220478951931,0.415859192609787
1761467612132648400,8.6206484375,0.3247998356819153,0.13088588416576385,0.2995685338973999
1761467612142631400,8.63063134765625,0.36257827281951904,0.12334775924682617,0.21019531786441803
1761467612152615400,8.640615478515626,0.36861246824264526,0.09829593449831009,0.13459695875644684
1761467612162598700,8.6505986328125,0.3430742025375366,0.09112849086523056,0.05314023792743683
1761467612172581600,8.66058154296875,0.2933175563812256,0.13510632514953613,-0.034252990037202835
1761467612182564600,8.670564697265625,0.24456878006458282,0.20419172942638397,-0.10805287212133408
1761467612192547600,8.680547607421875,0.21541675925254822,0.2935152053833008,-0.17178897559642792
1761467612202530600,8.690530517578125,0.21176423132419586,0.37769970297813416,-0.2174997329711914
1761467612212513800,8.700513671875,0.20961451530456543,0.4138188362121582,-0.26324188709259033
1761467612222496500,8.71049658203125,0.19794340431690216,0.42720451951026917,-0.299798846244812
1761467612232479500,8.7204794921875,0.17715930938720703,0.4496285915374756,-0.3347778618335724
1761467612242462700,8.730462646484375,0.17050215601921082,0.4619623124599457,-0.3561479151248932
1761467612252445700,8.74044580078125,0.17566469311714172,0.46544307470321655,-0.35934609174728394
1761467612262428700,8.7504287109375,0.19419392943382263,0.46814754605293274,-0.3490368127822876
1761467612272411600,8.76041162109375,0.22188468277454376,0.4813445806503296,-0.32897815108299255
1761467612282394600,8.77039453125,0.25955644249916077,0.5200899839401245,-0.3236236274242401
1761467612292377600,8.780377685546876,0.27598467469215393,0.5810297727584839,-0.3650434911251068
1761467612302360800,8.79036083984375,0.27797940373420715,0.6808798313140869,-0.46594488620758057
1761467612312343600,8.800343505859376,0.2564102113246918,0.7699090242385864,-0.5748454928398132
1761467612322326800,8.810326904296875,0.22212857007980347,0.7578351497650146,-0.6514446139335632
1761467612332309800,8.820309814453125,0.19008967280387878,0.5928941369056702,-0.6492035388946533
1761467612342292700,8.830292724609375,0.17855340242385864,0.283775269985199,-0.5466290712356567
1761467612352275700,8.840275634765625,0.17209391295909882,-0.12778349220752716,-0.37107348442077637
1761467612362259700,8.850259765625,0.18864117562770844,-0.49692416191101074,-0.15218888223171234
1761467612372242700,8.86024267578125,0.19507457315921783,-0.6926132440567017,0.05510891228914261
1761467612382225700,8.8702255859375,0.18243037164211273,-0.6629034280776978,0.16612665355205536
1761467612392208600,8.880208740234375,0.1167064756155014,-0.47341257333755493,0.17610019445419312
1761467612402191600,8.890191650390625,0.057985492050647736,-0.28923308849334717,0.17588649690151215
1761467612412174600,8.900174560546875,0.004542240872979164,-0.18704546988010406,0.2160421758890152
1761467612422157800,8.91015771484375,-0.03786366060376167,-0.14526160061359406,0.2965187430381775
1761467612432140500,8.920140625,-0.05247935652732849,-0.039407603442668915,0.40786606073379517
1761467612442123800,8.930123779296874,-0.048692382872104645,0.050124119967222214,0.5516664385795593
1761467612452106800,8.940106689453126,-0.027754606679081917,0.06811697036027908,0.7095870971679688
1761467612462089700,8.95008984375,-0.03698473796248436,0.03225304186344147,0.8363797068595886
1761467612472073700,8.96007373046875,-0.055056147277355194,0.07123293727636337,0.8833586573600769
1761467612482056700,8.970056640625,-0.0805361270904541,0.2710566222667694,0.846930980682373
1761467612492039700,8.980039794921876,-0.10010157525539398,0.46611398458480835,0.7525429129600525
1761467612502022700,8.990022705078125,-0.11100389808416367,0.5599790215492249,0.5768726468086243
1761467612512006000,9.000005859375,-0.11013783514499664,0.5709722638130188,0.37040117383003235
1761467612521988600,9.009988525390625,-0.08131090551614761,0.5118021965026855,0.16721701622009277
1761467612531971600,9.0199716796875,-0.039793819189071655,0.39016151428222656,-0.016220461577177048
1761467612541954800,9.029954833984375,0.006516340654343367,0.21994714438915253,-0.1585356444120407
1761467612551937500,9.0399375,0.02424873411655426,-0.00322096049785614,-0.2265208214521408
1761467612561920800,9.049920654296875,0.03847646340727806,-0.1599520891904831,-0.20875431597232819
1761467612571903700,9.05990380859375,0.020339805632829666,-0.21074868738651276,-0.08278706669807434
1761467612581887700,9.0698876953125,-0.034568943083286285,-0.11817745864391327,0.08030720800161362
1761467612591870700,9.07987060546875,-0.12439577281475067,0.0982121005654335,0.23043467104434967
1761467612601853700,9.089853759765624,-0.2283228188753128,0.35079583525657654,0.33938154578208923
1761467612611836700,9.099836669921874,-0.34634026885032654,0.5514117479324341,0.4179847240447998
1761467612621819600,9.109819580078126,-0.47552555799484253,0.7106661796569824,0.43907642364501953
1761467612631803000,9.119802978515626,-0.6052382588386536,0.7744728326797485,0.4164981544017792
1761467612641785600,9.12978564453125,-0.703068196773529,0.6789225339889526,0.3724004030227661
1761467612651768600,9.1397685546875,-0.7384672164916992,0.45598793029785156,0.39380156993865967
1761467612661751800,9.149751708984375,-0.705743134021759,0.0850326269865036,0.49775099754333496
1761467612671734800,9.15973486328125,-0.5903677940368652,-0.34377652406692505,0.5258857011795044
1761467612681717800,9.1697177734375,-0.4651441276073456,-0.6414659023284912,0.3411097228527069
1761467612691701800,9.17970166015625,-0.39448487758636475,-0.7493518590927124,-0.05056004598736763
1761467612701684700,9.189684814453125,-0.3256250023841858,-0.6751914620399475,-0.4848492443561554
1761467612711667700,9.199667724609375,-0.18830524384975433,-0.504349946975708,-0.750525951385498
1761467612721650700,9.209650634765625,-0.022783122956752777,-0.48550060391426086,-0.7913143634796143
1761467612731633700,9.219633544921875,0.1290825754404068,-0.6495435833930969,-0.6970658898353577
1761467612741616600,9.22961669921875,0.26309916377067566,-0.8226920962333679,-0.6278649568557739
1761467612751599900,9.239599853515625,0.32992851734161377,-0.8437023162841797,-0.6084747314453125
1761467612761582600,9.24958251953125,0.3347169756889343,-0.7215264439582825,-0.5984817743301392
1761467612771565600,9.259565673828124,0.3037273585796356,-0.5801432132720947,-0.6367735266685486
1761467612781548800,9.269548828125,0.2736878991127014,-0.4591103196144104,-0.6772247552871704
1761467612791531800,9.27953173828125,0.2845599949359894,-0.3811475932598114,-0.6256132125854492
1761467612801515500,9.289515625,0.3477165997028351,-0.35007089376449585,-0.44972577691078186
1761467612811498800,9.299498779296876,0.4542403817176819,-0.3764050304889679,-0.1839606761932373
1761467612821481700,9.309481689453126,0.5596888065338135,-0.40112045407295227,0.11443901807069778
1761467612831464700,9.319464599609375,0.6111120581626892,-0.38962677121162415,0.33804014325141907
1761467612841447700,9.32944775390625,0.6134694218635559,-0.30293628573417664,0.4668525159358978
1761467612851430700,9.3394306640625,0.5609095096588135,-0.13552118837833405,0.5387901067733765
1761467612861413600,9.34941357421875,0.4787631034851074,0.07644741982221603,0.5514479875564575
1761467612871396900,9.35939697265625,0.3750912845134735,0.24932146072387695,0.5212820768356323
1761467612881379600,9.369379638671875,0.26985761523246765,0.35586726665496826,0.461940199136734
1761467612891362600,9.379362548828125,0.18792836368083954,0.34510836005210876,0.3937795162200928
1761467612901346600,9.3893466796875,0.1307878941297531,0.24868808686733246,0.30827176570892334
1761467612911329800,9.399329833984375,0.10191018134355545,0.15903089940547943,0.22261570394039154
1761467612921312800,9.409312744140625,0.09430287778377533,0.06226774677634239,0.12186440080404282
1761467612931295700,9.419295654296874,0.09112226217985153,-0.035143230110406876,0.012762680649757385
1761467612941278700,9.42927880859375,0.11477813869714737,-0.08676643669605255,-0.10979801416397095
1761467612951261700,9.43926171875,0.13118188083171844,-0.10896148532629013,-0.1909613162279129
1761467612961244700,9.44924462890625,0.14091919362545013,-0.17166294157505035,-0.2258438915014267
1761467612971227600,9.4592275390625,0.15538202226161957,-0.2393527776002884,-0.23727205395698547
1761467612981210600,9.469210693359376,0.1711697280406952,-0.304359495639801,-0.25200673937797546
1761467612991193900,9.47919384765625,0.18377287685871124,-0.36656108498573303,-0.2664381265640259
1761467613001176600,9.489176513671875,0.20137183368206024,-0.4467921555042267,-0.2691691517829895
1761467613011160600,9.49916064453125,0.21966694295406342,-0.5360365509986877,-0.27422675490379333
1761467613021143600,9.5091435546875,0.22339989244937897,-0.5890582203865051,-0.2887280583381653
1761467613031126800,9.519126708984375,0.24229688942432404,-0.6150171160697937,-0.27608761191368103
1761467613041109800,9.52910986328125,0.2640162408351898,-0.5934577584266663,-0.2481614351272583
1761467613051092700,9.5390927734375,0.2811691164970398,-0.5654019117355347,-0.2253490686416626
1761467613061075700,9.54907568359375,0.2977302074432373,-0.5065112113952637,-0.22483578324317932
1761467613071058700,9.55905859375,0.3199249804019928,-0.3733249008655548,-0.25883716344833374
1761467613081042000,9.5690419921875,0.32913437485694885,-0.14961597323417664,-0.27404168248176575
1761467613091024600,9.579024658203124,0.3483208417892456,0.14335837960243225,-0.16682226955890656
1761467613101007600,9.589007568359374,0.35949093103408813,0.311120867729187,0.10046297311782837
1761467613110990800,9.598990966796874,0.3027181923389435,0.25451165437698364,0.4296131730079651
1761467613120974800,9.608974853515624,0.18154427409172058,0.10289451479911804,0.7149222493171692
1761467613130957600,9.61895751953125,0.07323136925697327,0.006409521214663982,0.8240721821784973
1761467613140940500,9.6289404296875,-0.0025501255877316,-0.09628113359212875,0.7495962977409363
1761467613150923800,9.638923828125,-0.04290181025862694,-0.18523336946964264,0.5751872062683105
1761467613160906800,9.64890673828125,-0.047839924693107605,-0.2138006091117859,0.41868433356285095
1761467613170889700,9.6588896484375,0.0012453291565179825,-0.2307814508676529,0.3210485875606537
1761467613180872700,9.668872802734375,0.06375197321176529,-0.27156585454940796,0.2552426755428314
1761467613190855700,9.678855712890625,0.12716583907604218,-0.2686707377433777,0.19156117737293243
1761467613200839000,9.6888388671875,0.17743556201457977,-0.20264768600463867,0.11213245987892151
1761467613210821600,9.698821533203125,0.2313707023859024,-0.12031605839729309,0.011576557531952858
1761467613220804600,9.7088046875,0.2707763910293579,-0.059403195977211,-0.07585187256336212
1761467613230788600,9.71878857421875,0.30517005920410156,-0.0014810371212661266,-0.13762415945529938
1761467613240771800,9.728771728515625,0.3262077569961548,0.026265006512403488,-0.19364707171916962
1761467613250754600,9.738754638671875,0.32948318123817444,0.010505483485758305,-0.24661308526992798
1761467613260737500,9.748737548828124,0.3238750100135803,-0.0020297907758504152,-0.2526593506336212
1761467613270720800,9.758720703125,0.31095680594444275,-0.014418549835681915,-0.23723672330379486
1761467613280703700,9.768703857421874,0.29601314663887024,-0.02225123532116413,-0.21575503051280975
1761467613290686700,9.778686767578124,0.28315863013267517,0.01200074516236782,-0.17707954347133636
1761467613300669700,9.788669677734376,0.24866324663162231,0.06803912669420242,-0.11511380225419998
1761467613310652700,9.798652587890626,0.2115161418914795,0.10407329350709915,-0.053101032972335815
1761467613320636000,9.808635986328126,0.14525116980075836,0.14416003227233887,-0.0010063021909445524
1761467613330618600,9.81861865234375,0.07940585166215897,0.14448201656341553,0.05079431086778641
1761467613340602600,9.8286025390625,0.019024450331926346,0.10134728252887726,0.106267049908638
1761467613350585600,9.838585693359375,-0.039000239223241806,0.03504868596792221,0.1590849906206131
1761467613360568800,9.84856884765625,-0.09638454020023346,-0.020155368372797966,0.2118503898382187
1761467613370551600,9.858551513671875,-0.14911380410194397,-0.05891128256917,0.2574692666530609
1761467613380534500,9.868534423828125,-0.22775602340698242,-0.06830498576164246,0.2875905930995941
1761467613390517800,9.878517822265625,-0.30187126994132996,-0.04920639470219612,0.2872060239315033
1761467613400500700,9.888500732421875,-0.36309751868247986,0.02430674061179161,0.30724814534187317
1761467613410483700,9.898483642578125,-0.39378777146339417,0.09901320189237595,0.3737688660621643
1761467613420466700,9.908466796875,-0.40645721554756165,0.15501190721988678,0.44140657782554626
1761467613430449700,9.91844970703125,-0.40267765522003174,0.19400323927402496,0.5327524542808533
1761467613440433000,9.928432861328124,-0.3785284459590912,0.18422821164131165,0.6367428302764893
1761467613450417000,9.9384169921875,-0.35235971212387085,0.1193607971072197,0.6121290922164917
1761467613460399600,9.948399658203124,-0.31934839487075806,0.1107545718550682,0.5174072980880737
1761467613470382600,9.958382568359376,-0.30615538358688354,0.18130411207675934,0.3662329614162445
1761467613480365800,9.96836572265625,-0.32091596722602844,0.28475725650787354,0.12905818223953247
1761467613490348500,9.9783486328125,-0.34208571910858154,0.3375275135040283,-0.09848629683256149
1761467613500331500,9.98833154296875,-0.34547585248947144,0.3188892602920532,-0.26684868335723877
1761467613510314800,9.998314697265625,-0.30811887979507446,0.3209793269634247,-0.28803786635398865
1761467613520297700,10.008297607421875,-0.2552874684333801,0.3044447898864746,-0.22549426555633545
1761467613530280700,10.01828076171875,-0.21991534531116486,0.2652409076690674,-0.15162937343120575
