time,seconds_elapsed,z,y,x
1761467497734318600,0.115318603515625,-0.05476922169327736,0.4767414927482605,0.07494369894266129
1761467497744301600,0.125301513671875,-0.012160510756075382,0.5521861910820007,-0.017969999462366104
1761467497754284500,0.135284423828125,0.036638349294662476,0.6641309857368469,-0.1518833339214325
1761467497764267500,0.145267578125,0.053852491080760956,0.759010910987854,-0.3190310597419739
1761467497774250500,0.15525048828125,0.06469493359327316,0.791880190372467,-0.5094112157821655
1761467497784233500,0.1652333984375,0.05330725759267807,0.8387709856033325,-0.6811347603797913
1761467497794216400,0.175216552734375,0.017318136990070343,0.950143575668335,-0.7946999073028564
1761467497804199400,0.185199462890625,-0.017077652737498283,1.009024739265442,-0.8643543124198914
1761467497814182400,0.195182373046875,-0.04677766188979149,0.9274163842201233,-0.9292659163475037
1761467497824165600,0.20516552734375,-0.0696994885802269,0.7740476131439209,-0.9938952326774597
1761467497834148400,0.2151484375,-0.07247492671012878,0.5662775635719299,-1.025077223777771
1761467497844131600,0.225131591796875,-0.05060797557234764,0.3256133198738098,-1.0171295404434204
1761467497854114600,0.235114501953125,0.005959051661193371,0.13680586218833923,-1.0103636980056763
1761467497864097500,0.24509765625,0.07263022661209106,0.05714724585413933,-0.9910200834274292
1761467497874080500,0.25508056640625,0.14278177917003632,-0.052505139261484146,-0.9390797019004822
1761467497884063500,0.2650634765625,0.21694175899028778,-0.2749488651752472,-0.8483558893203735
1761467497894046500,0.27504638671875,0.3069377839565277,-0.5745935440063477,-0.7189614772796631
1761467497904029700,0.28502978515625,0.47836464643478394,-0.8305757641792297,-0.539932370185852
1761467497914012400,0.295012451171875,0.7366407513618469,-0.9907740950584412,-0.31503331661224365
1761467497923995400,0.304995361328125,0.9950896501541138,-1.1236963272094727,-0.11448051035404205
1761467497933978600,0.314978515625,1.136387825012207,-1.1780545711517334,-0.03415307402610779
1761467497943961600,0.324961669921875,1.053181529045105,-1.1300418376922607,-0.11763598024845123
1761467497953944300,0.3349443359375,0.823558509349823,-1.40779447555542,-0.4217705726623535
1761467497963927600,0.344927490234375,0.6048219203948975,-1.450919508934021,-0.786576509475708
1761467497973910500,0.35491064453125,0.27897772192955017,-1.0945497751235962,-1.0279934406280518
1761467497983893500,0.3648935546875,-0.0005287495441734791,-0.7048288583755493,-1.0868340730667114
1761467497993876500,0.37487646484375,-0.17923863232135773,-0.20623676478862762,-0.7016861438751221
1761467498003859500,0.384859375,-0.2845136523246765,0.2144223004579544,-0.0694487914443016
1761467498013842700,0.3948427734375,-0.2589505612850189,0.18925897777080536,0.3250929117202759
1761467498023825400,0.404825439453125,-0.10855226218700409,-0.03829801082611084,0.2884177267551422
1761467498033808400,0.414808349609375,-0.03872747719287872,-0.14154434204101562,0.04263243079185486
1761467498043792400,0.42479248046875,-0.04479415714740753,0.06615930795669556,-0.2497757375240326
1761467498053775600,0.434775634765625,-0.11830408126115799,0.39800509810447693,-0.5310861468315125
1761467498063758600,0.444758544921875,-0.19134898483753204,0.5032204985618591,-0.7996768355369568
1761467498073741300,0.4547412109375,-0.2658268213272095,0.5144498348236084,-0.9888430833816528
1761467498083724500,0.464724609375,-0.32901591062545776,0.4986877143383026,-1.0826377868652344
1761467498093707500,0.47470751953125,-0.30623480677604675,0.555072546005249,-1.0753556489944458
1761467498103690800,0.484690673828125,-0.19869451224803925,0.6081866025924683,-0.9835580587387085
1761467498113673500,0.494673583984375,-0.0427904948592186,0.5886985659599304,-0.839446485042572
1761467498123656400,0.504656494140625,0.12155450880527496,0.5329367518424988,-0.6437094807624817
1761467498133643000,0.51464306640625,0.2570493221282959,0.48196372389793396,-0.4136592149734497
1761467498143626000,0.5246259765625,0.3751669228076935,0.44187673926353455,-0.18643298745155334
1761467498153609000,0.53460888671875,0.4773199260234833,0.4724428951740265,0.009517766535282135
1761467498163592000,0.544592041015625,0.5325174331665039,0.5754014849662781,0.13117443025112152
1761467498173575000,0.554574951171875,0.5291510224342346,0.6676214337348938,0.1419094055891037
1761467498183558000,0.564557861328125,0.4659923315048218,0.7262772917747498,0.07409360259771347
1761467498193540900,0.574540771484375,0.3431927561759949,0.7887554168701172,-0.04152965918183327
1761467498203523800,0.58452392578125,0.18873366713523865,0.8206454515457153,-0.1659160554409027
1761467498213506800,0.5945068359375,0.05144701153039932,0.7797796130180359,-0.2561529874801636
1761467498223490000,0.604489990234375,-0.06488332897424698,0.6708176732063293,-0.29956865310668945
1761467498233472800,0.61447265625,-0.15000173449516296,0.48128190636634827,-0.2833832800388336
1761467498243456000,0.6244560546875,-0.17170196771621704,0.2142062783241272,-0.22862976789474487
1761467498253439000,0.63443896484375,-0.13727042078971863,-0.07599210739135742,-0.18987131118774414
1761467498263422000,0.644421875,-0.03442525863647461,-0.3164457380771637,-0.22170886397361755
1761467498273405000,0.654405029296875,0.13875684142112732,-0.5645759701728821,-0.26217740774154663
1761467498283388000,0.664387939453125,0.37304869294166565,-0.7711493968963623,-0.3098495900630951
1761467498293371000,0.674370849609375,0.639744222164154,-0.8328565359115601,-0.4239291846752167
1761467498303354000,0.68435400390625,0.851199746131897,-0.756054162979126,-0.5129043459892273
1761467498313336800,0.6943369140625,0.9859200119972229,-0.6020609736442566,-0.5427022576332092
1761467498323319800,0.70431982421875,1.0267529487609863,-0.4337412416934967,-0.5456359386444092
1761467498333303000,0.714302978515625,0.9624936580657959,-0.1841072291135788,-0.5473091006278992
1761467498343286000,0.7242861328125,0.8221509456634521,0.16741058230400085,-0.6676791906356812
1761467498353268700,0.734268798828125,0.613695502281189,0.4174114167690277,-0.9392993450164795
1761467498363252000,0.744251953125,0.3587372303009033,0.3948405981063843,-1.129227638244629
1761467498373236000,0.754236083984375,0.10782124102115631,0.32211339473724365,-1.0945498943328857
1761467498383219000,0.764218994140625,-0.03968726471066475,0.2836267054080963,-0.9257952570915222
1761467498393202000,0.774201904296875,-0.07182677090167999,0.2739124894142151,-0.690739095211029
1761467498403185000,0.784184814453125,-0.05213801935315132,0.3009640872478485,-0.4288605749607086
1761467498413167900,0.79416796875,-0.05069638788700104,0.40589261054992676,-0.17745959758758545
1761467498423151000,0.804151123046875,-0.0727713331580162,0.6074467301368713,0.052444979548454285
1761467498433133800,0.8141337890625,-0.1134752407670021,0.7595767378807068,0.27366578578948975
1761467498443116800,0.82411669921875,-0.1638936698436737,0.7960833311080933,0.46565839648246765
1761467498453100000,0.83410009765625,-0.21677522361278534,0.7200554609298706,0.6010716557502747
1761467498463083000,0.8440830078125,-0.2467688024044037,0.581123948097229,0.64005047082901
1761467498473065700,0.854065673828125,-0.2605474591255188,0.45229241251945496,0.5418093204498291
1761467498483049000,0.864049072265625,-0.2739788293838501,0.34313449263572693,0.3665738105773926
1761467498493032000,0.874031982421875,-0.29530516266822815,0.23696640133857727,0.16620604693889618
1761467498503015200,0.88401513671875,-0.3177318871021271,0.13522087037563324,-0.008089042268693447
1761467498512998000,0.893997802734375,-0.30357614159584045,-0.01081356406211853,-0.15726254880428314
1761467498522980900,0.90398095703125,-0.26841601729393005,-0.16061770915985107,-0.26760369539260864
1761467498532964000,0.913964111328125,-0.22337909042835236,-0.30105018615722656,-0.3450148105621338
1761467498542946800,0.92394677734375,-0.17522647976875305,-0.41715121269226074,-0.3694801926612854
1761467498552929800,0.9339296875,-0.13663244247436523,-0.5264407992362976,-0.3242915868759155
1761467498562913000,0.9439130859375,-0.08989876508712769,-0.6098163723945618,-0.2940053343772888
1761467498572896000,0.95389599609375,-0.04687237739562988,-0.6441954970359802,-0.3195311427116394
1761467498582878700,0.963878662109375,-0.008928456343710423,-0.6404780149459839,-0.35212209820747375
1761467498592862000,0.973862060546875,0.036053143441677094,-0.6352753043174744,-0.3663785755634308
1761467498602845000,0.983844970703125,0.10831961780786514,-0.6454312801361084,-0.39983347058296204
1761467498612828000,0.993827880859375,0.21820233762264252,-0.662093460559845,-0.477385014295578
1761467498622811000,1.003810791015625,0.3732244074344635,-0.6974032521247864,-0.5691314339637756
1761467498632793900,1.0137939453125,0.5679461359977722,-0.7304599285125732,-0.6309929490089417
1761467498642777000,1.023777099609375,0.7496041059494019,-0.667793869972229,-0.6839677691459656
1761467498652760000,1.033760009765625,0.910603404045105,-0.5515233874320984,-0.7346123456954956
1761467498662742800,1.04374267578125,1.0060827732086182,-0.45639660954475403,-0.8091912865638733
1761467498672726000,1.05372607421875,1.0377131700515747,-0.38792291283607483,-0.9294451475143433
1761467498682709000,1.063708984375,1.0037474632263184,-0.32937517762184143,-1.0547770261764526
1761467498692692000,1.07369189453125,0.924239993095398,-0.27303487062454224,-1.1496477127075195
1761467498702675700,1.08367578125,0.8092889189720154,-0.232910618185997,-1.1591589450836182
1761467498712659000,1.093658935546875,0.6720510721206665,-0.18499982357025146,-1.0782530307769775
1761467498722642000,1.103641845703125,0.54343581199646,-0.1392778754234314,-0.9700443148612976
1761467498732625000,1.113625,0.4428955316543579,-0.14752784371376038,-0.850870668888092
1761467498742608000,1.12360791015625,0.3814159035682678,-0.14760667085647583,-0.7106067538261414
1761467498752590800,1.1335908203125,0.3405303359031677,-0.09964945912361145,-0.5698184967041016
1761467498762574000,1.143573974609375,0.30814307928085327,0.026615263894200325,-0.4377174973487854
1761467498772557000,1.15355712890625,0.2637866735458374,0.2164020538330078,-0.33120355010032654
1761467498782539800,1.163539794921875,0.19022241234779358,0.3930647075176239,-0.2531593441963196
1761467498792523000,1.17352294921875,0.10378949344158173,0.4441504180431366,-0.19884240627288818
1761467498802506000,1.183506103515625,-0.004464808385819197,0.39550909399986267,-0.1941179633140564
1761467498812489000,1.193489013671875,-0.11903353780508041,0.2800070345401764,-0.2666296362876892
1761467498822472000,1.203471923828125,-0.21307002007961273,0.0896293893456459,-0.36937466263771057
1761467498832455000,1.213454833984375,-0.2569887042045593,-0.07836446166038513,-0.4834583103656769
1761467498842438000,1.22343798828125,-0.19831021130084991,-0.2504076063632965,-0.5729061961174011
1761467498852421000,1.233421142578125,-0.059801094233989716,-0.3219497501850128,-0.5967974662780762
1761467498862403800,1.24340380859375,0.13520781695842743,-0.037908442318439484,-0.6697545051574707
1761467498872386800,1.25338671875,0.36391472816467285,0.31442829966545105,-0.7556191086769104
1761467498882370000,1.2633701171875,0.545153796672821,0.367033451795578,-0.8155305981636047
1761467498892352800,1.273352783203125,0.4351162612438202,-0.19072379171848297,-1.0422323942184448
1761467498902336000,1.2833359375,0.4108783006668091,-0.6557044982910156,-1.2217955589294434
1761467498912319000,1.293319091796875,0.33356520533561707,-0.7191088795661926,-1.3068917989730835
1761467498922302000,1.303302001953125,0.14360538125038147,-0.29460716247558594,-1.272514820098877
1761467498932285000,1.313284912109375,-0.1289074718952179,0.39360469579696655,-1.2222168445587158
1761467498942268000,1.323267822265625,-0.2988128960132599,1.0843397378921509,-1.2299293279647827
1761467498952251000,1.3332509765625,-0.3009493350982666,1.3342159986495972,-1.3929941654205322
1761467498962234000,1.343234130859375,-0.11511927098035812,1.0245712995529175,-1.779005527496338
1761467498972216800,1.353216796875,0.23466168344020844,0.6814500689506531,-2.0277583599090576
1761467498982199800,1.36319970703125,0.6631070971488953,0.4554097652435303,-1.899365782737732
1761467498992183000,1.37318310546875,1.10244882106781,0.06798049062490463,-1.7186843156814575
1761467499002166000,1.383166015625,1.4742399454116821,-0.3082951307296753,-1.6123991012573242
1761467499012148700,1.393148681640625,1.6597256660461426,-0.5876454710960388,-1.557822823524475
1761467499022133000,1.403133056640625,1.6607650518417358,-0.7159208655357361,-1.5435293912887573
1761467499032116000,1.413115966796875,1.5400413274765015,-0.655672013759613,-1.5214190483093262
1761467499042099000,1.423098876953125,1.3658918142318726,-0.520820677280426,-1.4634926319122314
1761467499052082000,1.43308203125,1.2018934488296509,-0.24576227366924286,-1.308420181274414
1761467499062065000,1.44306494140625,1.034651756286621,0.09609627723693848,-1.1073983907699585
1761467499072047900,1.4530478515625,0.8626562356948853,0.3703271746635437,-0.9498146772384644
1761467499082031000,1.463031005859375,0.7193936109542847,0.41862040758132935,-0.9131445288658142
1761467499092013800,1.473013916015625,0.6469662189483643,0.3437914252281189,-0.9089536666870117
1761467499101996800,1.482996826171875,0.6039601564407349,0.25612202286720276,-0.8595983982086182
1761467499111980000,1.49297998046875,0.5786830186843872,0.12864618003368378,-0.7880670428276062
1761467499121963000,1.502962890625,0.5653294324874878,-0.04838719218969345,-0.7263895869255066
1761467499131942100,1.512942138671875,0.5735026001930237,-0.21612542867660522,-0.6628779768943787
1761467499141924900,1.5229248046875,0.5675475001335144,-0.30112287402153015,-0.6151877045631409
1761467499151907800,1.532907958984375,0.5492081046104431,-0.3243362605571747,-0.6036240458488464
1761467499161891000,1.54289111328125,0.5105941295623779,-0.3189137876033783,-0.6235002875328064
1761467499171874000,1.5528740234375,0.4875783324241638,-0.34227368235588074,-0.6518722176551819
1761467499181856800,1.562856689453125,0.4705530107021332,-0.3965883255004883,-0.6871641874313354
1761467499191840000,1.572840087890625,0.45138365030288696,-0.4575400650501251,-0.7399567365646362
1761467499201823000,1.582822998046875,0.4331255555152893,-0.5085198879241943,-0.8130333423614502
1761467499211805700,1.5928056640625,0.40613844990730286,-0.5655356049537659,-0.8668964505195618
1761467499221789000,1.602788818359375,0.3701016306877136,-0.5992429852485657,-0.8972612619400024
1761467499231772000,1.61277197265625,0.3101809024810791,-0.6171858310699463,-0.8930538892745972
1761467499241755100,1.622755126953125,0.24336084723472595,-0.637599766254425,-0.8680878281593323
1761467499251737900,1.63273779296875,0.17495504021644592,-0.6976556777954102,-0.8456801772117615
1761467499261720800,1.642720947265625,0.10289868712425232,-0.7496232986450195,-0.8343241810798645
1761467499271704000,1.6527041015625,0.09965822845697403,-0.8368038535118103,-0.8522816896438599
1761467499281687000,1.66268701171875,0.14665503799915314,-0.9266179203987122,-0.8656688928604126
1761467499291669800,1.672669677734375,0.22500833868980408,-0.9135534167289734,-0.8597231507301331
1761467499301653000,1.682653076171875,0.29478609561920166,-0.8296946883201599,-0.9073942303657532
1761467499311636000,1.692635986328125,0.34462857246398926,-0.7257764935493469,-1.009062647819519
1761467499321620000,1.702619873046875,0.34143730998039246,-0.6659661531448364,-1.1402512788772583
1761467499331602700,1.712602783203125,0.3080101013183594,-0.6567595601081848,-1.2876148223876953
1761467499341586000,1.7225859375,0.2640722095966339,-0.6608847975730896,-1.4976398944854736
1761467499351569000,1.73256884765625,0.22161003947257996,-0.5849850177764893,-1.7593530416488647
1761467499361552100,1.74255224609375,0.19542130827903748,-0.5151873230934143,-2.04314923286438
1761467499371534800,1.752534912109375,0.23090104758739471,-0.5845916867256165,-2.1999611854553223
1761467499381517800,1.762517822265625,0.37165817618370056,-0.7184751629829407,-2.1112184524536133
1761467499391501000,1.7725009765625,0.5713402032852173,-0.7537840008735657,-1.8456661701202393
1761467499401484000,1.782484130859375,0.7587364912033081,-0.643923282623291,-1.5475263595581055
1761467499411466800,1.792466796875,0.8654799461364746,-0.49602749943733215,-1.3317320346832275
1761467499421450000,1.802449951171875,0.9332001805305481,-0.531196653842926,-1.233149528503418
1761467499431433000,1.812432861328125,0.974789023399353,-0.6122795343399048,-1.2187118530273438
1761467499441416000,1.822416015625,0.9869524836540222,-0.5850830674171448,-1.2655084133148193
1761467499451399000,1.83239892578125,0.9881057739257812,-0.47134628891944885,-1.3654991388320923
1761467499461382000,1.8423818359375,0.9540585875511169,-0.2541053295135498,-1.4532703161239624
1761467499471364900,1.85236474609375,0.8900670409202576,-0.010943617671728134,-1.5095411539077759
1761467499481348000,1.86234814453125,0.8103703856468201,0.16517361998558044,-1.5766667127609253
1761467499491330800,1.872330810546875,0.7164138555526733,0.21809788048267365,-1.6914666891098022
1761467499501314000,1.88231396484375,0.6149303317070007,0.16770635545253754,-1.8831897974014282
1761467499511297000,1.892297119140625,0.5278290510177612,0.08519305288791656,-2.1288437843322754
1761467499521279700,1.90227978515625,0.46816301345825195,0.0443180575966835,-2.369378089904785
1761467499531263000,1.912262939453125,0.43872612714767456,-0.006453849840909243,-2.5354197025299072
1761467499541246000,1.922245849609375,0.4611574113368988,-0.0170710738748312,-2.6235063076019287
1761467499551229000,1.93222900390625,0.49666744470596313,-0.02695133537054062,-2.623122215270996
1761467499561212000,1.9422119140625,0.5257278680801392,-0.026870639994740486,-2.5864243507385254
1761467499571195000,1.95219482421875,0.5381485819816589,-0.0020439215004444122,-2.5329346656799316
1761467499581177900,1.962177734375,0.5231544375419617,0.03791201859712601,-2.4817066192626953
1761467499591161000,1.9721611328125,0.5099306106567383,0.05531032755970955,-2.3986291885375977
1761467499601143800,1.982143798828125,0.5296792984008789,0.015623902902007103,-2.3013017177581787
1761467499611127800,1.9921279296875,0.5758204460144043,-0.033035777509212494,-2.184988021850586
1761467499621111000,2.002111083984375,0.6634016633033752,0.0166766494512558,-2.0382111072540283
1761467499631094000,2.012093994140625,0.7226904034614563,0.19697260856628418,-1.8670625686645508
1761467499641077000,2.022076904296875,0.678481936454773,0.4668070077896118,-1.756466031074524
1761467499651060000,2.03206005859375,0.5068582892417908,0.5861689448356628,-1.6945304870605469
1761467499661043000,2.04204296875,0.399809330701828,0.30374574661254883,-1.5080397129058838
1761467499671026000,2.05202587890625,0.4507266879081726,-0.0049539655447006226,-1.4311658143997192
1761467499681009000,2.0620087890625,0.4877515435218811,-0.23327767848968506,-1.5011705160140991
1761467499690991900,2.071991943359375,0.5451523065567017,-0.5797773003578186,-1.2520681619644165
1761467499700974800,2.081974853515625,0.6465833187103271,-1.1565901041030884,-0.6459587812423706
1761467499710958000,2.0919580078125,0.6238120198249817,-1.3405970335006714,0.0021195909939706326
1761467499720940800,2.10194091796875,0.407926082611084,-1.0568681955337524,0.2961919903755188
1761467499730923800,2.111923828125,0.15445394814014435,-0.7661029100418091,0.3432796895503998
1761467499740907000,2.121906982421875,-0.043349407613277435,-0.6529827117919922,0.24152535200119019
1761467499750890000,2.131889892578125,-0.15817084908485413,-0.5119651556015015,0.079471156001091
1761467499760873000,2.141873046875,-0.2660624384880066,-0.2881389856338501,-0.16438065469264984
1761467499770856000,2.15185595703125,-0.3476022481918335,-0.11899586766958237,-0.45686763525009155
1761467499780839000,2.1618388671875,-0.40349745750427246,0.03598226234316826,-0.6745911836624146
1761467499790822100,2.171822265625,-0.44368380308151245,0.10475842654705048,-0.7589046359062195
1761467499800804900,2.181804931640625,-0.45505228638648987,-0.008056273683905602,-0.7767917513847351
1761467499810787800,2.191787841796875,-0.44342222809791565,-0.176748126745224,-0.7495445013046265
1761467499820771000,2.20177099609375,-0.4596720337867737,-0.22095739841461182,-0.6660059094429016
1761467499830754000,2.211754150390625,-0.43836694955825806,-0.17311036586761475,-0.5038405656814575
1761467499840736800,2.22173681640625,-0.3754742741584778,-0.1879364252090454,-0.2872379720211029
1761467499850720000,2.231719970703125,-0.26900386810302734,-0.22053369879722595,-0.020108478143811226
1761467499860703000,2.241702880859375,-0.13560587167739868,-0.22511939704418182,0.25480300188064575
1761467499870687000,2.25168701171875,-0.02773207798600197,-0.13705433905124664,0.4894295930862427
1761467499880670000,2.261669921875,-0.005369246006011963,0.005669253878295422,0.6259269714355469
1761467499890653000,2.27165283203125,-0.049677904695272446,0.07599552720785141,0.7077022194862366
1761467499900636000,2.281635986328125,-0.08870812505483627,0.04339657723903656,0.6812463998794556
1761467499910619100,2.291619140625,-0.11052946746349335,-0.044707655906677246,0.5063669085502625
1761467499920601900,2.301601806640625,-0.08334392309188843,-0.14048026502132416,0.06141529232263565
1761467499930584800,2.311584716796875,-0.0352482944726944,-0.34697696566581726,-0.526580810546875
1761467499940568000,2.321568115234375,0.0686488077044487,-0.6198270916938782,-1.0255934000015259
1761467499950551000,2.331551025390625,0.22179637849330902,-0.6159744262695312,-1.2997409105300903
1761467499960533800,2.34153369140625,0.373720645904541,-0.3894560635089874,-1.2874075174331665
1761467499970517000,2.35151708984375,0.45405545830726624,-0.2978293299674988,-1.0331358909606934
1761467499980500000,2.3615,0.454556941986084,-0.41022828221321106,-0.7290349006652832
1761467499990483000,2.37148291015625,0.40822526812553406,-0.43909385800361633,-0.6158486604690552
1761467500000466000,2.3814658203125,0.3178993761539459,-0.30345800518989563,-0.6996104121208191
1761467500010449000,2.391448974609375,0.25277745723724365,-0.207173690199852,-0.865831196308136
1761467500020432000,2.401431884765625,0.2641318440437317,-0.20729725062847137,-0.966093897819519
1761467500030414800,2.411414794921875,0.350564181804657,-0.279789000749588,-0.9945896863937378
1761467500040397800,2.421397705078125,0.47976717352867126,-0.3868728578090668,-0.9695003032684326
1761467500050381000,2.431381103515625,0.6163196563720703,-0.4932295083999634,-0.8614298701286316
1761467500060364000,2.441364013671875,0.7577124834060669,-0.5568712949752808,-0.746187686920166
1761467500070346800,2.4513466796875,0.8509328365325928,-0.5339049696922302,-0.6481456756591797
1761467500080330000,2.461330078125,0.8702939748764038,-0.4740733206272125,-0.5535792708396912
1761467500090313000,2.47131298828125,0.8496020436286926,-0.398542195558548,-0.4920527935028076
1761467500100296000,2.4812958984375,0.7879847884178162,-0.32231026887893677,-0.4595896601676941
1761467500110279000,2.49127880859375,0.7019899487495422,-0.2456226646900177,-0.45630109310150146
1761467500120263000,2.501262939453125,0.5996444225311279,-0.13281302154064178,-0.49954521656036377
1761467500130246000,2.511245849609375,0.5151506662368774,-0.008016528561711311,-0.5634735226631165
1761467500140232700,2.521232666015625,0.42028191685676575,0.06344939768314362,-0.6193626523017883
1761467500150216000,2.5312158203125,0.31201207637786865,0.10244178771972656,-0.6571078896522522
1761467500160199000,2.541198974609375,0.22799892723560333,0.12105382233858109,-0.6713294386863708
1761467500170182000,2.551181884765625,0.18165580928325653,0.22372883558273315,-0.6698257327079773
1761467500180164900,2.561164794921875,0.15348514914512634,0.3584837019443512,-0.5849569439888
1761467500190147800,2.57114794921875,0.10809921473264694,0.48198696970939636,-0.4901716709136963
1761467500200130800,2.581130859375,0.06599143892526627,0.5576476454734802,-0.446932852268219
1761467500210114000,2.591114013671875,0.054285719990730286,0.641940176486969,-0.45754891633987427
1761467500220096800,2.6010966796875,0.042553164064884186,0.736162006855011,-0.478971391916275
1761467500230080000,2.611080078125,0.05977771431207657,0.7696552872657776,-0.515160083770752
1761467500240063000,2.62106298828125,0.12452422082424164,0.6709691882133484,-0.5592823028564453
1761467500250045700,2.631045654296875,0.2090710997581482,0.5213579535484314,-0.5993152260780334
1761467500260029000,2.64102880859375,0.30976176261901855,0.3582838177680969,-0.6087937355041504
1761467500270012000,2.651011962890625,0.3985559642314911,0.2283720076084137,-0.5567770600318909
1761467500279995000,2.660994873046875,0.4739881455898285,0.1695220023393631,-0.4812804162502289
1761467500289977900,2.670977783203125,0.5420863032341003,0.1734340488910675,-0.4195253252983093
1761467500299960800,2.6809609375,0.6326977014541626,0.16735059022903442,-0.37514376640319824
1761467500309943800,2.69094384765625,0.6950747966766357,0.1769191026687622,-0.3793385922908783
1761467500319927000,2.700927001953125,0.7179816961288452,0.21263901889324188,-0.42925024032592773
1761467500329909800,2.71090966796875,0.7293554544448853,0.21842575073242188,-0.5489113330841064
1761467500339893000,2.72089306640625,0.725419819355011,0.17991696298122406,-0.7014936804771423
1761467500349876000,2.7308759765625,0.6618150472640991,0.16225595772266388,-0.8102020621299744
1761467500359859000,2.74085888671875,0.5677737593650818,0.18503449857234955,-0.8075117468833923
1761467500369842700,2.7508427734375,0.4627303183078766,0.15732932090759277,-0.7003928422927856
1761467500379826000,2.760825927734375,0.3825891613960266,0.05263940244913101,-0.5214470624923706
1761467500389809000,2.770808837890625,0.32651805877685547,-0.04253697022795677,-0.29640984535217285
1761467500399791900,2.7807919921875,0.2560252249240875,-0.04644729197025299,-0.10257193446159363
1761467500409774800,2.79077490234375,0.18374373018741608,-0.00791382510215044,-0.034938301891088486
1761467500419757800,2.8007578125,0.1434897929430008,0.033850133419036865,-0.06474386900663376
1761467500429740800,2.81074072265625,0.12279798835515976,0.0901399627327919,-0.11146024614572525
1761467500439724000,2.82072412109375,0.09781274199485779,0.12906046211719513,-0.1495104432106018
1761467500449706800,2.830706787109375,0.07659725099802017,0.10980038344860077,-0.1641293168067932
1761467500459689700,2.840689697265625,0.03671775013208389,0.044191814959049225,-0.1310773491859436
1761467500469673000,2.8506728515625,-0.0030834893696010113,-0.03841451555490494,-0.09353248029947281
1761467500479656000,2.860656005859375,-0.034833163022994995,-0.11713515967130661,-0.06289467960596085
1761467500489639000,2.870638916015625,-0.04907713457942009,-0.12542255222797394,-0.0356028713285923
1761467500499622000,2.880621826171875,-0.05123775824904442,-0.04486513137817383,-0.02507166750729084
1761467500509604900,2.89060498046875,-0.050714220851659775,0.07800458371639252,-0.017001010477542877
1761467500519588000,2.900588134765625,-0.0394999161362648,0.18980595469474792,0.008061731234192848
1761467500529570800,2.91057080078125,-0.016775012016296387,0.2704241871833801,0.06533120572566986
1761467500539553800,2.9205537109375,0.01058523915708065,0.29226770997047424,0.13822326064109802
1761467500549537000,2.930537109375,0.032359037548303604,0.2900729775428772,0.1985485851764679
1761467500559519700,2.940519775390625,0.03690052777528763,0.2728263735771179,0.25670722126960754
1761467500569502700,2.950502685546875,0.029143422842025757,0.19158168137073517,0.3283441960811615
1761467500579486000,2.96048583984375,0.01604306697845459,0.10231277346611023,0.40385839343070984
1761467500589470000,2.970469970703125,-0.015772104263305664,0.027336517348885536,0.46397167444229126
1761467500599453000,2.980452880859375,-0.0526299849152565,0.005177418701350689,0.49929770827293396
1761467500609436000,2.990435791015625,-0.11641015112400055,0.03848903998732567,0.4849809408187866
1761467500619419000,3.0004189453125,-0.21247196197509766,0.10966494679450989,0.4286186099052429
1761467500629401900,3.01040185546875,-0.32905665040016174,0.1672954261302948,0.37673887610435486
1761467500639385000,3.020385009765625,-0.4666110575199127,0.2215765118598938,0.3952244222164154
1761467500649367800,3.030367919921875,-0.6125996708869934,0.23338443040847778,0.4428643584251404
1761467500659350800,3.040350830078125,-0.6921118497848511,0.2528904974460602,0.43007799983024597
1761467500669334000,3.050333984375,-0.693864643573761,0.23060239851474762,0.3436882495880127
1761467500679317000,3.06031689453125,-0.6203198432922363,0.2216336727142334,0.18582884967327118
1761467500689299700,3.0702998046875,-0.5102161765098572,0.2320912927389145,0.03531663119792938
1761467500699283000,3.080282958984375,-0.416429728269577,0.252877801656723,-0.0941510796546936
1761467500709266000,3.090265869140625,-0.3310425281524658,0.22876402735710144,-0.18127325177192688
1761467500719249000,3.100248779296875,-0.2947700023651123,0.14785586297512054,-0.20912618935108185
1761467500729232000,3.11023193359375,-0.3228495121002197,0.02974296733736992,-0.20455247163772583
1761467500739214800,3.12021484375,-0.35647138953208923,-0.03433774784207344,-0.19823679327964783
1761467500749198000,3.130197998046875,-0.3544711172580719,-0.046855710446834564,-0.21827271580696106
1761467500759180800,3.140180908203125,-0.2902684211730957,-0.0953550636768341,-0.28328844904899597
1761467500769163800,3.150163818359375,-0.18749289214611053,-0.14228534698486328,-0.3623099625110626
1761467500779147000,3.16014697265625,-0.03895215690135956,-0.17426511645317078,-0.43518441915512085
1761467500789130000,3.1701298828125,0.12971487641334534,-0.25091689825057983,-0.4900156557559967
1761467500799112700,3.18011279296875,0.31973007321357727,-0.30828726291656494,-0.49037066102027893
1761467500809096000,3.190095947265625,0.4869733154773712,-0.30938923358917236,-0.44315874576568604
1761467500819080000,3.200079833984375,0.6141848564147949,-0.2908586859703064,-0.34030747413635254
1761467500829063000,3.21006298828125,0.6914392113685608,-0.28299757838249207,-0.2080909162759781
1761467500839046000,3.2200458984375,0.7102605700492859,-0.287150502204895,-0.09475822746753693
1761467500849028900,3.23002880859375,0.712158739566803,-0.25072401762008667,-0.021296104416251183
1761467500859011800,3.24001171875,0.6563183665275574,-0.1929163783788681,0.015755124390125275
1761467500868995000,3.2499951171875,0.5526790618896484,-0.1356898546218872,0.01807168871164322
1761467500878977800,3.259977783203125,0.4293898642063141,-0.133483424782753,-0.025398822501301765
1761467500888960800,3.269960693359375,0.3027326464653015,-0.13469751179218292,-0.09696945548057556
1761467500898944000,3.279944091796875,0.19390550255775452,-0.11193813383579254,-0.16030128300189972
1761467500908927000,3.289927001953125,0.10695548355579376,-0.06778621673583984,-0.20453639328479767
1761467500918909700,3.29990966796875,0.06689301878213882,-0.019281260669231415,-0.26605966687202454
1761467500928893000,3.309892822265625,0.07020454853773117,-0.0024072835221886635,-0.33561158180236816
1761467500938876000,3.3198759765625,0.11219167709350586,-0.026993852108716965,-0.3952765166759491
1761467500948859000,3.32985888671875,0.19643984735012054,-0.10001148283481598,-0.43423572182655334
1761467500958841900,3.339841796875,0.27984845638275146,-0.19681233167648315,-0.4283839762210846
1761467500968824800,3.349824951171875,0.3815707862377167,-0.23343811929225922,-0.4115033447742462
1761467500978807800,3.359807861328125,0.4634574055671692,-0.12646453082561493,-0.3984732925891876
1761467500988791000,3.369791015625,0.4774189293384552,0.0425422340631485,-0.4022311568260193
1761467500998773800,3.379773681640625,0.4506986439228058,0.19345664978027344,-0.4260701835155487
1761467501008757000,3.389757080078125,0.3700655400753021,0.26948198676109314,-0.4134571850299835
1761467501018740000,3.399739990234375,0.2745211720466614,0.1917581856250763,-0.39269277453422546
1761467501028724000,3.409723876953125,0.25308501720428467,0.0063343713991343975,-0.3567514419555664
1761467501038706700,3.419706787109375,0.3053032159805298,-0.17483915388584137,-0.3307400643825531
1761467501048690000,3.42968994140625,0.36364004015922546,-0.22717079520225525,-0.31340742111206055
1761467501058673000,3.4396728515625,0.36050495505332947,-0.15182624757289886,-0.33111026883125305
1761467501068655900,3.44965576171875,0.24286557734012604,-0.038742370903491974,-0.5469695925712585
1761467501078638800,3.459638916015625,0.0859670415520668,0.09644927084445953,-0.9010632038116455
1761467501088621800,3.469621826171875,-0.033270448446273804,0.2570452392101288,-1.0996843576431274
1761467501098604800,3.479604736328125,-0.07489592581987381,0.2909265160560608,-1.01482355594635
1761467501108588000,3.489588134765625,-0.06987477093935013,-0.05049674212932587,-0.7225631475448608
1761467501118570800,3.49957080078125,-0.0416034534573555,-0.5577682256698608,-0.27210327982902527
1761467501128554000,3.509553955078125,-0.020108964294195175,-0.7581061720848083,0.23074087500572205
1761467501138532900,3.519532958984375,-0.02814611606299877,-0.6077790260314941,0.605413556098938
1761467501148515800,3.529515869140625,-0.0677928701043129,-0.3599395155906677,0.7717604637145996
1761467501158499000,3.5394990234375,-0.09021056443452835,-0.1594865918159485,0.7383087873458862
1761467501168481800,3.549481689453125,-0.11046076565980911,-0.06134448200464249,0.6004047393798828
1761467501178464800,3.55946484375,-0.14935170114040375,0.07773856818675995,0.44201695919036865
1761467501188448000,3.569447998046875,-0.19526337087154388,0.24172282218933105,0.3176005184650421
1761467501198430700,3.5794306640625,-0.23316068947315216,0.2850271165370941,0.19891221821308136
1761467501208414000,3.5894140625,-0.23928235471248627,0.2686387002468109,0.12411126494407654
1761467501218397000,3.59939697265625,-0.204054594039917,0.2815030813217163,0.08139602839946747
1761467501228380000,3.6093798828125,-0.15847046673297882,0.32053032517433167,0.08143635094165802
1761467501238363000,3.61936279296875,-0.10993807762861252,0.3808458745479584,0.11767664551734924
1761467501248347000,3.629346923828125,-0.0706334337592125,0.4455319046974182,0.16321177780628204
1761467501258329900,3.639329833984375,-0.03431084379553795,0.4552055895328522,0.2424972802400589
1761467501268312800,3.649312744140625,0.02326539158821106,0.3695148527622223,0.3389758765697479
1761467501278296000,3.659296142578125,0.11239713430404663,0.25173521041870117,0.4466829001903534
1761467501288278800,3.66927880859375,0.2026415765285492,0.17399270832538605,0.5669856071472168
1761467501298261800,3.67926171875,0.27512162923812866,0.16612733900547028,0.6371434330940247
1761467501308245000,3.689244873046875,0.2983000576496124,0.11680925637483597,0.6495676636695862
1761467501318227700,3.699227783203125,0.2804582118988037,0.1411428302526474,0.6188281774520874
1761467501328211000,3.7092109375,0.20995520055294037,0.25802695751190186,0.5702129602432251
1761467501338194000,3.71919384765625,0.10869089514017105,0.3893386423587799,0.5138524770736694
1761467501348177000,3.729177001953125,0.011030562222003937,0.5316212177276611,0.42878618836402893
1761467501358160000,3.739159912109375,-0.04159030318260193,0.632422924041748,0.41488954424858093
1761467501368142800,3.749142822265625,-0.047621771693229675,0.6569117307662964,0.4228949248790741
1761467501378125800,3.759125732421875,-0.07966892421245575,0.7164586782455444,0.424363911151886
1761467501388109000,3.769109130859375,-0.17411532998085022,0.9075236916542053,0.4779723584651947
1761467501398091800,3.779091796875,-0.32914912700653076,0.991670548915863,0.5385028123855591
1761467501408074800,3.78907470703125,-0.4501325786113739,0.8505344390869141,0.5845586657524109
1761467501418058000,3.79905810546875,-0.4914397895336151,0.6728403568267822,0.5949460864067078
1761467501428041000,3.809041015625,-0.5384752750396729,0.5055252313613892,0.5961874723434448
1761467501438023700,3.819023681640625,-0.5737102031707764,0.17689356207847595,0.4776661694049835
1761467501448007000,3.8290068359375,-0.5462193489074707,-0.0794166550040245,0.3848906457424164
1761467501457991000,3.838990966796875,-0.4231155216693878,-0.2857980728149414,0.3497115969657898
1761467501467974000,3.848973876953125,-0.19502288103103638,-0.5594465136528015,0.42084425687789917
1761467501477956900,3.858956787109375,0.1010039895772934,-0.7359408736228943,0.5515572428703308
1761467501487939800,3.86893994140625,0.40839651226997375,-0.8070763349533081,0.6131525039672852
1761467501497922800,3.8789228515625,0.6426385641098022,-0.8415141701698303,0.5248799324035645
1761467501507906000,3.888906005859375,0.7598293423652649,-0.8839383721351624,0.295965313911438
1761467501517888800,3.898888671875,0.7215192317962646,-0.9455817341804504,0.12188299745321274
1761467501527871700,3.908871826171875,0.5536669492721558,-0.8884633779525757,0.09556660801172256
1761467501537855000,3.91885498046875,0.3356866240501404,-0.616253674030304,0.08195438981056213
1761467501547838000,3.928837890625,0.10967155545949936,-0.22047725319862366,0.008042347617447376
1761467501557820700,3.938820556640625,-0.07326576858758926,0.06025320291519165,-0.12737460434436798
1761467501567804000,3.948803955078125,-0.19860781729221344,0.20657731592655182,-0.20509843528270721
1761467501577787000,3.958786865234375,-0.2548884153366089,0.35855355858802795,-0.21974769234657288
1761467501587770000,3.96877001953125,-0.2798047661781311,0.4952634274959564,-0.18952158093452454
1761467501597752800,3.9787529296875,-0.2849324345588684,0.6220299005508423,-0.10234088450670242
1761467501607735800,3.98873583984375,-0.2602509558200836,0.678229808807373,0.049611739814281464
1761467501617719000,3.998718994140625,-0.20350965857505798,0.673903226852417,0.17829196155071259
1761467501627702000,4.008701904296875,-0.13861247897148132,0.6620588302612305,0.20601975917816162
1761467501637684700,4.018684814453125,-0.09665358066558838,0.6359017491340637,0.16354286670684814
1761467501647668000,4.02866796875,-0.09516888856887817,0.5290965437889099,0.08407000452280045
1761467501657651000,4.03865087890625,-0.10738267749547958,0.4179108440876007,0.015762589871883392
1761467501667633700,4.048633544921875,-0.12884311378002167,0.33805811405181885,-0.044610485434532166
1761467501677617700,4.05861767578125,-0.1628977656364441,0.24141226708889008,-0.11418077349662781
1761467501687601000,4.068600830078125,-0.19474607706069946,0.1348261535167694,-0.18725790083408356
1761467501697583900,4.078583984375,-0.18808284401893616,-0.04268445447087288,-0.2247658520936966
1761467501707567000,4.088567138671875,-0.118536576628685,-0.1790429949760437,-0.24060101807117462
1761467501717549800,4.0985498046875,-0.0021050437353551388,-0.13036014139652252,-0.28472185134887695
1761467501727532800,4.10853271484375,0.13280194997787476,0.027914023026823997,-0.36735737323760986
1761467501737516000,4.11851611328125,0.25375765562057495,0.14046533405780792,-0.453869104385376
1761467501747499000,4.1284990234375,0.35556504130363464,0.15817372500896454,-0.4961209297180176
1761467501757481700,4.138481689453125,0.42931199073791504,0.1519152969121933,-0.49216029047966003
1761467501767465000,4.14846484375,0.4487491548061371,0.2083122730255127,-0.47037404775619507
1761467501777448000,4.158447998046875,0.4183928370475769,0.29688528180122375,-0.4707450270652771
1761467501787431000,4.168430908203125,0.35881274938583374,0.4243890941143036,-0.5010773539543152
1761467501797414000,4.178413818359375,0.2916499674320221,0.5199036598205566,-0.54373699426651
1761467501807396900,4.18839697265625,0.21917198598384857,0.5417940020561218,-0.6039813160896301
1761467501817379800,4.1983798828125,0.14137066900730133,0.4474102556705475,-0.6657205820083618
1761467501827362800,4.20836279296875,0.08633597940206528,0.32115253806114197,-0.6828620433807373
1761467501837345800,4.218345703125,0.08306482434272766,0.1387915015220642,-0.6393544673919678
1761467501847329000,4.2283291015625,0.11602002382278442,-0.09101367741823196,-0.5253698229789734
1761467501857312000,4.23831201171875,0.16479262709617615,-0.323074609041214,-0.3559293746948242
1761467501867294700,4.248294677734375,0.21287165582180023,-0.5025501251220703,-0.10810157656669617
1761467501877278000,4.25827783203125,0.2473159283399582,-0.593801736831665,0.12541452050209045
1761467501887262000,4.268261962890625,0.2617604434490204,-0.6859405636787415,0.32904261350631714
1761467501897245000,4.278244873046875,0.2726469337940216,-0.8603190779685974,0.43702101707458496
1761467501907228000,4.288227783203125,0.28192052245140076,-1.012776494026184,0.4750449061393738
1761467501917211000,4.2982109375,0.26669415831565857,-1.0614739656448364,0.46199142932891846
1761467501927193900,4.30819384765625,0.21652764081954956,-1.0394043922424316,0.3944299519062042
1761467501937176800,4.3181767578125,0.1302255243062973,-0.9944313168525696,0.3035871386528015
1761467501947160000,4.32816015625,0.027276335284113884,-0.9246842265129089,0.22315919399261475
1761467501957142800,4.338142822265625,-0.07237862050533295,-0.798035740852356,0.13850583136081696
1761467501967126000,4.3481259765625,-0.14644671976566315,-0.6891811490058899,0.07018854469060898
1761467501977109000,4.35810888671875,-0.1765710711479187,-0.5984491109848022,0.018678750842809677
1761467501987091700,4.368091796875,-0.16703149676322937,-0.5274070501327515,-0.023237720131874084
1761467501997075000,4.378074951171875,-0.10962599515914917,-0.4642565846443176,-0.050674136728048325
1761467502007058000,4.388057861328125,-0.04114924371242523,-0.43035757541656494,-0.08638311922550201
1761467502017041000,4.398041015625,0.04117066413164139,-0.4653744399547577,-0.10187125951051712
1761467502027024000,4.40802392578125,0.11301302164793015,-0.49009862542152405,-0.09006185084581375
1761467502037006800,4.4180068359375,0.16180452704429626,-0.5172982811927795,-0.049329597502946854
1761467502046989800,4.42798974609375,0.17134395241737366,-0.5204079151153564,0.012264571152627468
1761467502056973000,4.43797314453125,0.1509990096092224,-0.4651731848716736,0.06692248582839966
1761467502066955800,4.447955810546875,0.11744014918804169,-0.361084520816803,0.0957128033041954
1761467502076938800,4.457938720703125,0.061162497848272324,-0.2544374167919159,0.11152558773756027
1761467502086922000,4.467921875,0.00029443856328725815,-0.20404691994190216,0.12049255520105362
1761467502096905000,4.477905029296875,-0.06401344388723373,-0.23180505633354187,0.11449671536684036
1761467502106888700,4.487888671875,-0.1297847032546997,-0.31119537353515625,0.11587739735841751
1761467502116872000,4.497871826171875,-0.19288724660873413,-0.38648292422294617,0.1395515650510788
1761467502126855000,4.50785498046875,-0.246054545044899,-0.4436183571815491,0.15392948687076569
1761467502136839000,4.5178388671875,-0.2575295865535736,-0.45149970054626465,0.10462559759616852
1761467502146822000,4.52782177734375,-0.23364214599132538,-0.43737077713012695,0.06327318400144577
1761467502156805000,4.53780517578125,-0.14803855121135712,-0.3511860966682434,0.06377226114273071
1761467502166788000,4.5477880859375,-0.07270896434783936,-0.1544288992881775,0.09655249863862991
1761467502176770800,4.557770751953125,-0.06935524195432663,0.13754063844680786,0.13483278453350067
1761467502186754000,4.567754150390625,-0.12287650257349014,0.44797950983047485,0.12859849631786346
1761467502196737000,4.577737060546875,-0.2175004780292511,0.6463807225227356,0.022666729986667633
1761467502206720000,4.587719970703125,-0.29180580377578735,0.7017214894294739,-0.14194877445697784
1761467502216703000,4.597702880859375,-0.37767890095710754,0.6598933339118958,-0.28791555762290955
1761467502226686000,4.60768603515625,-0.4364907145500183,0.5631058812141418,-0.4381057322025299
1761467502236669200,4.617669189453125,-0.4878905117511749,0.4210078716278076,-0.5646085143089294
1761467502246652200,4.627652099609375,-0.4823676645755768,0.22543878853321075,-0.650381863117218
1761467502256635000,4.637634765625,-0.4317971467971802,0.07451772689819336,-0.7089756727218628
1761467502266618000,4.6476181640625,-0.3987950086593628,0.05749886855483055,-0.7558085322380066
1761467502276601000,4.65760107421875,-0.3760193884372711,0.15729683637619019,-0.7215248346328735
1761467502286583800,4.667583740234375,-0.3127773404121399,0.1337013840675354,-0.6130616664886475
1761467502296567000,4.677567138671875,-0.19682066142559052,-0.008295167237520218,-0.44342395663261414
1761467502306550000,4.687550048828125,-0.04235707223415375,-0.12829256057739258,-0.25769370794296265
1761467502316534000,4.697533935546875,0.07622949779033661,-0.21465115249156952,-0.08923866599798203
1761467502326517000,4.70751708984375,0.15661823749542236,-0.215773344039917,0.03358281031250954
1761467502336500000,4.7175,0.19039031863212585,-0.19966121017932892,0.12160027772188187
1761467502346483000,4.72748291015625,0.20247036218643188,-0.16646070778369904,0.20002081990242004
1761467502356466200,4.737466064453125,0.1715412139892578,-0.10143935680389404,0.22691476345062256
1761467502366449200,4.74744921875,0.1512192189693451,-0.021820910274982452,0.16570089757442474
1761467502376431900,4.757431884765625,0.11403590440750122,0.0038029614370316267,0.09845101833343506
1761467502386415000,4.7674150390625,0.059785112738609314,-0.027028245851397514,0.05508548021316528
1761467502396398000,4.777398193359375,0.02095915377140045,-0.027859151363372803,0.024278566241264343
1761467502406381000,4.787381103515625,-0.04628310352563858,-0.006708876695483923,-0.013254947029054165
1761467502416364000,4.797364013671875,-0.1302347332239151,0.030379105359315872,-0.08187555521726608
1761467502426347000,4.807346923828125,-0.1822638362646103,0.10828763246536255,-0.20396022498607635
1761467502436330000,4.817330078125,-0.2072480022907257,0.18179994821548462,-0.3333115577697754
1761467502446313000,4.82731298828125,-0.18852822482585907,0.2681407630443573,-0.43600231409072876
1761467502456296000,4.8372958984375,-0.14651472866535187,0.3678705394268036,-0.5178902745246887
1761467502466279000,4.84727880859375,-0.10571940988302231,0.357085645198822,-0.5689009428024292
1761467502476262100,4.85726220703125,-0.08325298130512238,0.21571998298168182,-0.5819038152694702
1761467502486244900,4.867244873046875,-0.08268709480762482,0.1013779491186142,-0.5699582695960999
1761467502496228000,4.87722802734375,-0.08545385301113129,0.049263350665569305,-0.5765421390533447
1761467502506211000,4.887211181640625,-0.08930417895317078,0.07502858340740204,-0.6048787832260132
1761467502516194000,4.897194091796875,-0.08221085369586945,0.1593349426984787,-0.6469466090202332
1761467502526177000,4.907177001953125,-0.05690619722008705,0.27587661147117615,-0.687601625919342
1761467502536160000,4.917159912109375,0.0006969105452299118,0.39579156041145325,-0.7059465646743774
1761467502546144000,4.92714404296875,0.06909029185771942,0.4854825437068939,-0.6933332085609436
1761467502556127000,4.937126953125,0.13330122828483582,0.48773184418678284,-0.6361732482910156
1761467502566110000,4.94710986328125,0.18536578118801117,0.3678158223628998,-0.5340917706489563
1761467502576093000,4.957093017578125,0.20583084225654602,0.1987202763557434,-0.3960507810115814
1761467502586076000,4.967075927734375,0.20508751273155212,0.06169304624199867,-0.2417912781238556
1761467502596059100,4.97705908203125,0.1890164017677307,-0.008990444242954254,-0.10238412767648697
1761467502606041900,4.987041748046875,0.17967835068702698,-0.0569242388010025,0.030519597232341766
1761467502616025000,4.997025146484375,0.1586170196533203,-0.08632341027259827,0.16457539796829224
1761467502626008000,5.007008056640625,0.15418635308742523,-0.07707902789115906,0.308931827545166
1761467502635991000,5.016990966796875,0.20258478820323944,-0.10022243112325668,0.4521696865558624
1761467502645974000,5.02697412109375,0.25951504707336426,-0.21174944937229156,0.5513008832931519
1761467502655957000,5.03695703125,0.3399331867694855,-0.30164048075675964,0.6445232033729553
1761467502665940000,5.04693994140625,0.3932538628578186,-0.4019201695919037,0.7376793026924133
1761467502675923200,5.056923095703125,0.3776554763317108,-0.4474032521247864,0.786719799041748
1761467502685906000,5.066906005859375,0.29184070229530334,-0.34869468212127686,0.8463774919509888
1761467502695889000,5.076888916015625,0.16702315211296082,-0.13426628708839417,0.8257036209106445
1761467502705872100,5.0868720703125,0.028709489852190018,0.0720193013548851,0.6755818128585815
1761467502715855000,5.096855224609375,-0.10476255416870117,0.31080925464630127,0.4558619558811188
1761467502725837800,5.106837890625,-0.1793876737356186,0.47209468483924866,0.2546539306640625
1761467502735821000,5.116821044921875,-0.1945173591375351,0.5085003972053528,0.13426415622234344
1761467502745804000,5.126803955078125,-0.16688820719718933,0.4645484685897827,0.1010730192065239
1761467502755787000,5.136787109375,-0.11333469301462173,0.39812204241752625,0.12034578621387482
1761467502765770000,5.14677001953125,-0.04825614392757416,0.35478508472442627,0.1692771166563034
1761467502775754000,5.15675390625,0.013057548552751541,0.33573150634765625,0.2474677860736847
1761467502785737000,5.166737060546875,0.047292809933423996,0.32067182660102844,0.35186415910720825
1761467502795720200,5.17672021484375,0.05593103915452957,0.3012773394584656,0.473305344581604
1761467502805703000,5.186702880859375,0.031195079907774925,0.2649078071117401,0.5837327241897583
1761467502815686000,5.196685791015625,-0.020545346662402153,0.2408679723739624,0.6724061369895935
1761467502825669000,5.206669189453125,-0.09268593043088913,0.22283396124839783,0.7316304445266724
1761467502835652000,5.216652099609375,-0.18525153398513794,0.24270619451999664,0.7712529301643372
1761467502845634800,5.226634765625,-0.2994004487991333,0.30652451515197754,0.8257416486740112
1761467502855618000,5.2366181640625,-0.4432697296142578,0.33389994502067566,0.8797910213470459
1761467502865601000,5.24660107421875,-0.5870450735092163,0.2572403848171234,0.9040908813476562
1761467502875584000,5.256583984375,-0.7359181642532349,0.1450320929288864,0.8859845995903015
1761467502885567000,5.26656689453125,-0.8352521061897278,0.04076952114701271,0.8158150315284729
1761467502895550000,5.276550048828125,-0.8549381494522095,-0.11126794666051865,0.6830213069915771
1761467502905533200,5.286533203125,-0.8032997250556946,-0.35624468326568604,0.49870744347572327
1761467502915516000,5.296515869140625,-0.7105754017829895,-0.5923717617988586,0.2940046191215515
1761467502925499000,5.306498779296875,-0.5714439749717712,-0.755595326423645,0.0698588564991951
1761467502935482000,5.316482177734375,-0.4276047646999359,-0.8842059969902039,-0.09875625371932983
1761467502945465000,5.326465087890625,-0.2880682945251465,-0.9205335378646851,-0.113792784512043
1761467502955447800,5.33644775390625,-0.1620435118675232,-0.9133619070053101,0.0716862604022026
1761467502965431000,5.34643115234375,-0.02844535931944847,-0.969782829284668,0.3015754222869873
1761467502975414000,5.3564140625,0.10475903004407883,-1.0610663890838623,0.45634475350379944
1761467502985397000,5.36639697265625,0.20935514569282532,-1.0754976272583008,0.4715017080307007
1761467502995380000,5.3763798828125,0.23301546275615692,-1.092596173286438,0.3519337773323059
1761467503005363000,5.386363037109375,0.19876046478748322,-1.1833082437515259,0.11784586310386658
1761467503015347000,5.396346923828125,0.16015420854091644,-1.1940025091171265,-0.10617631673812866
1761467503025330200,5.406330078125,0.10039481520652771,-0.9540356993675232,-0.18624034523963928
1761467503035313200,5.416313232421875,0.02332906238734722,-0.5771986842155457,-0.17099082469940186
1761467503045295900,5.4262958984375,-0.0008099484257400036,-0.24889744818210602,-0.15686511993408203
1761467503055279000,5.436279052734375,0.024516979232430458,-0.03760251775383949,-0.1351185441017151
1761467503065262000,5.446261962890625,0.07398276031017303,0.060354385524988174,-0.06496080756187439
1761467503075244800,5.456244873046875,0.12421317398548126,0.12280311435461044,0.026534220203757286
1761467503085228000,5.46622802734375,0.1657404601573944,0.18046359717845917,0.08685760945081711
1761467503095211000,5.4762109375,0.19341284036636353,0.2723469138145447,0.07302488386631012
1761467503105194000,5.486194091796875,0.20706015825271606,0.31334832310676575,-0.009420531801879406
1761467503115177000,5.496177001953125,0.20321029424667358,0.34008485078811646,-0.1375606656074524
1761467503125160000,5.506159912109375,0.1819342076778412,0.40127870440483093,-0.28491735458374023
1761467503135142000,5.516141845703125,0.12960387766361237,0.38017234206199646,-0.4306284785270691
1761467503145124600,5.52612451171875,0.07106375694274902,0.3137657046318054,-0.560434877872467
1761467503155107800,5.53610791015625,0.02872694842517376,0.2554406225681305,-0.6451883912086487
1761467503165090800,5.5460908203125,0.0059740724973380566,0.18048223853111267,-0.7030253410339355
1761467503175073800,5.55607373046875,-0.0015853103250265121,0.09896580874919891,-0.7285240292549133
1761467503185056800,5.566056884765625,-0.01752862147986889,0.05689359828829765,-0.7577618956565857
1761467503195039700,5.576039794921875,-0.024538859724998474,0.06589587777853012,-0.7559906244277954
1761467503205022700,5.586022705078125,-0.02222955971956253,0.08047976344823837,-0.7187805771827698
1761467503215006000,5.596005859375,-0.028559893369674683,0.07059650868177414,-0.6402338147163391
1761467503224988700,5.60598876953125,-0.04123220220208168,0.06388290226459503,-0.5499644875526428
1761467503234971600,5.6159716796875,-0.07529137283563614,0.03166530281305313,-0.4853194057941437
1761467503244955000,5.625954833984375,-0.10885141044855118,-0.032130543142557144,-0.45255959033966064
1761467503254937600,5.6359375,-0.13381294906139374,-0.1062210202217102,-0.447488933801651
1761467503264921600,5.645921630859375,-0.14200004935264587,-0.17157000303268433,-0.4647859036922455
1761467503274904800,5.65590478515625,-0.11789044737815857,-0.1988101452589035,-0.46185216307640076
1761467503284887800,5.6658876953125,-0.06730901449918747,-0.12335678189992905,-0.45061609148979187
1761467503294870800,5.675870849609375,-0.013499312102794647,0.04370145499706268,-0.43482860922813416
1761467503304853800,5.685853759765625,0.02877289243042469,0.2429122030735016,-0.40846309065818787
1761467503314836700,5.695836669921875,0.04025324806571007,0.48663458228111267,-0.34380608797073364
1761467503324819700,5.70581982421875,0.043711818754673004,0.6950624585151672,-0.29888269305229187
1761467503334803000,5.715802978515625,0.029395200312137604,0.8819546103477478,-0.2831878960132599
1761467503344785700,5.72578564453125,0.0323888398706913,0.9365108013153076,-0.2857832908630371
1761467503354768600,5.7357685546875,0.06905390322208405,0.703504741191864,-0.29765647649765015
1761467503364752000,5.745751953125,0.1371309608221054,0.35531291365623474,-0.28118985891342163
1761467503374734800,5.75573486328125,0.2054453045129776,0.013116425834596157,-0.23421438038349152
1761467503384717800,5.7657177734375,0.24391083419322968,-0.30391380190849304,-0.15490517020225525
1761467503394700800,5.77570068359375,0.24491403996944427,-0.52847820520401,-0.07799708098173141
1761467503404683800,5.785683837890625,0.2207183539867401,-0.6641634106636047,0.02810954675078392
1761467503414666800,5.795666748046875,0.18315792083740234,-0.7428355813026428,0.16006064414978027
1761467503424649700,5.805649658203125,0.16348084807395935,-0.7702932953834534,0.24282020330429077
1761467503434632700,5.8156328125,0.1827232539653778,-0.7596486210823059,0.2839937210083008
1761467503444616000,5.825615966796875,0.2239416539669037,-0.6783725023269653,0.3144875764846802
1761467503454598700,5.8355986328125,0.26524969935417175,-0.5424807071685791,0.3674338757991791
1761467503464581600,5.84558154296875,0.27849772572517395,-0.3926329016685486,0.40442129969596863
1761467503474564900,5.85556494140625,0.22666329145431519,-0.1805768609046936,0.40221700072288513
1761467503484547800,5.8655478515625,0.14400726556777954,0.03333565220236778,0.34846386313438416
1761467503494530600,5.875530517578125,0.06109640374779701,0.22275911271572113,0.2666614055633545
1761467503504513800,5.885513671875,-0.05068878084421158,0.27074047923088074,0.13688695430755615
1761467503514496800,5.895496826171875,-0.23048463463783264,0.3210875391960144,-0.016710327938199043
1761467503524479700,5.905479736328125,-0.3807847797870636,0.47601377964019775,-0.13153088092803955
1761467503534462700,5.915462646484375,-0.476950466632843,0.6277756094932556,-0.13141050934791565
1761467503544446700,5.92544677734375,-0.5267242789268494,0.6123906373977661,-0.05509277060627937
1761467503554429700,5.9354296875,-0.5120571851730347,0.5548352003097534,0.05270612984895706
1761467503564413000,5.945412841796875,-0.4380713701248169,0.5189713835716248,0.17345567047595978
1761467503574395600,5.955395751953125,-0.3143893778324127,0.5156993865966797,0.26524844765663147
1761467503584378600,5.965378662109375,-0.19688358902931213,0.5014463663101196,0.31740954518318176
1761467503594361900,5.97536181640625,-0.08263556659221649,0.5242520570755005,0.3156891465187073
1761467503604344800,5.9853447265625,-0.024729693308472633,0.6098387241363525,0.2764284312725067
1761467503614327600,5.99532763671875,-0.02736835367977619,0.6797149777412415,0.24245981872081757
1761467503624310800,6.005310791015625,-0.09609159827232361,0.6390308737754822,0.23725253343582153
1761467503634293800,6.015293701171875,-0.1964845210313797,0.525474488735199,0.2278081625699997
1761467503644276700,6.02527685546875,-0.2936486303806305,0.35007551312446594,0.18871812522411346
1761467503654259700,6.035259765625,-0.35223257541656494,0.09491246193647385,0.09914563596248627
1761467503664242700,6.04524267578125,-0.31121826171875,-0.19466443359851837,-0.0008939236868172884
1761467503674226000,6.055225830078125,-0.22466498613357544,-0.5629300475120544,-0.08234723657369614
1761467503684209000,6.065208984375,-0.10899104177951813,-0.9626740217208862,-0.14885735511779785
1761467503694191600,6.075191650390625,0.005299045704305172,-1.2741626501083374,-0.20876622200012207
1761467503704174800,6.0851748046875,0.10721874237060547,-1.3824775218963623,-0.28652673959732056
1761467503714157800,6.09515771484375,0.23579350113868713,-1.2934978008270264,-0.3274898827075958
1761467503724140500,6.105140625,0.36445996165275574,-1.202439785003662,-0.29623785614967346
1761467503734123800,6.115123779296875,0.4734135866165161,-1.1288594007492065,-0.3303031623363495
1761467503744106800,6.125106689453125,0.579197883605957,-1.0243990421295166,-0.4401330351829529
1761467503754089700,6.13508984375,0.6339783072471619,-1.0420498847961426,-0.5695184469223022
1761467503764072700,6.14507275390625,0.5902652740478516,-1.1732605695724487,-0.656887948513031
1761467503774055700,6.1550556640625,0.4984613358974457,-1.2038013935089111,-0.6452955007553101
1761467503784038700,6.16503857421875,0.3798605799674988,-1.0355521440505981,-0.5582538843154907
1761467503794022000,6.17502197265625,0.26637396216392517,-0.7911720871925354,-0.42549240589141846
1761467503804004600,6.185004638671875,0.2118261158466339,-0.5991102457046509,-0.25052160024642944
1761467503813987800,6.19498779296875,0.22184252738952637,-0.4023790955543518,-0.044723160564899445
1761467503823970800,6.204970703125,0.2609674036502838,-0.170363649725914,0.1552012860774994
1761467503833953800,6.214953857421875,0.3052144944667816,0.014173167757689953,0.32450005412101746
1761467503843937800,6.224937744140625,0.33470314741134644,0.08540713787078857,0.423197865486145
1761467503853920800,6.234920654296875,0.3292497992515564,0.049292270094156265,0.42235708236694336
1761467503863903700,6.24490380859375,0.27337726950645447,0.01434644777327776,0.34066301584243774
1761467503873886700,6.25488671875,0.16545931994915009,0.025917617604136467,0.19284588098526
1761467503883869700,6.26486962890625,0.011579515412449837,0.07433188706636429,0.019486183300614357
1761467503893852700,6.274852783203125,-0.13627466559410095,0.18209722638130188,-0.15695250034332275
1761467503903835600,6.284835693359375,-0.26922479271888733,0.31340503692626953,-0.25496283173561096
1761467503913819000,6.29481884765625,-0.3534126281738281,0.45234215259552,-0.28537851572036743
1761467503923801600,6.304801513671875,-0.3848985433578491,0.5403138995170593,-0.32104796171188354
1761467503933784800,6.314784912109375,-0.31592345237731934,0.593178391456604,-0.4164069592952728
1761467503943767800,6.324767822265625,-0.23034599423408508,0.6193724870681763,-0.5033896565437317
1761467503953750800,6.334750732421875,-0.1603221744298935,0.5132647156715393,-0.5489638447761536
1761467503963733800,6.344733642578125,-0.12007610499858856,0.38395437598228455,-0.531825065612793
1761467503973716700,6.354716796875,-0.08533650636672974,0.3278610110282898,-0.4737394154071808
1761467503983699700,6.36469970703125,-0.05534183606505394,0.30640843510627747,-0.41214805841445923
1761467503993683000,6.374682861328125,-0.02573946863412857,0.3119131922721863,-0.3614947497844696
1761467504003665700,6.384665771484375,-0.010665783658623695,0.2706092894077301,-0.3389799892902374
1761467504013648600,6.394648681640625,-0.03192100301384926,0.1981412172317505,-0.31234651803970337
1761467504023632000,6.4046318359375,-0.061912260949611664,0.1088547483086586,-0.31480371952056885
1761467504033614800,6.41461474609375,-0.10100506991147995,0.01126774400472641,-0.3471161425113678
1761467504043597800,6.424597900390625,-0.14560960233211517,-0.09969714283943176,-0.3782655894756317
1761467504053580800,6.434580810546875,-0.16461870074272156,-0.14031009376049042,-0.41996535658836365
1761467504063563800,6.444563720703125,-0.16252608597278595,-0.09009245038032532,-0.4580388069152832
1761467504073546800,6.454546630859375,-0.1286618709564209,0.0032497479114681482,-0.46107718348503113
1761467504083529700,6.46452978515625,-0.0597696378827095,0.04264804348349571,-0.4174688756465912
1761467504093512700,6.4745126953125,0.004075121600180864,-0.028764087706804276,-0.29414188861846924
1761467504103496000,6.484495849609375,0.048540472984313965,-0.19107992947101593,-0.0944976881146431
1761467504113478700,6.494478759765625,0.09166263788938522,-0.37123000621795654,0.09818761050701141
1761467504123461600,6.504461669921875,0.10570107400417328,-0.4970659613609314,0.2122904360294342
1761467504133444900,6.51444482421875,0.11660005897283554,-0.4568050801753998,0.34557071328163147
1761467504143427300,6.52442724609375,0.10017354786396027,-0.3861602544784546,0.5061272382736206
1761467504153410300,6.534410400390625,0.11493412405252457,-0.4027876853942871,0.5971426367759705
1761467504163393300,6.544393310546875,0.12621568143367767,-0.41887834668159485,0.5876168608665466
1761467504173376300,6.554376220703125,0.1665617674589157,-0.2564638555049896,0.44682860374450684
1761467504183360300,6.5643603515625,0.16788291931152344,-0.03615464270114899,0.2539821267127991
1761467504193343500,6.574343505859375,0.1528344601392746,0.23337137699127197,0.08878333866596222
1761467504203326200,6.584326171875,0.11799009144306183,0.4703981876373291,-0.04746934399008751
1761467504213309200,6.59430908203125,0.051431842148303986,0.5762040019035339,-0.15375876426696777
1761467504223292400,6.60429248046875,-0.0399300791323185,0.6541155576705933,-0.20467230677604675
1761467504233275400,6.614275390625,-0.1405605524778366,0.6823602318763733,-0.21416248381137848
1761467504243258000,6.624258056640625,-0.22799314558506012,0.6341027021408081,-0.18061324954032898
1761467504253241300,6.634241455078125,-0.25147637724876404,0.5277262330055237,-0.1266123354434967
1761467504263224300,6.644224365234375,-0.21264925599098206,0.3775072693824768,-0.045503512024879456
1761467504273207300,6.654207275390625,-0.17849475145339966,0.24060241878032684,0.038925085216760635
1761467504283190300,6.664190185546875,-0.15878601372241974,0.1644376516342163,0.12511873245239258
1761467504293173200,6.67417333984375,-0.16436320543289185,0.13873600959777832,0.2065560668706894
1761467504303156500,6.684156494140625,-0.18542169034481049,0.10743086785078049,0.27648648619651794
1761467504313139200,6.69413916015625,-0.24037975072860718,0.10197725147008896,0.3437270522117615
1761467504323122200,6.7041220703125,-0.3126174509525299,0.14661236107349396,0.4151698052883148
1761467504333105400,6.71410546875,-0.41316163539886475,0.18612435460090637,0.4388120174407959
1761467504343088400,6.72408837890625,-0.554780125617981,0.1835801750421524,0.39642900228500366
1761467504353071000,6.734071044921875,-0.6747409105300903,0.14833137392997742,0.30172833800315857
1761467504363054300,6.744054443359375,-0.7779711484909058,0.05453750863671303,0.187569260597229
1761467504373037300,6.754037353515625,-0.8681319355964661,-0.055232930928468704,0.12580282986164093
1761467504383020300,6.764020263671875,-0.9283535480499268,0.04944257810711861,0.1138714998960495
1761467504393003300,6.774003173828125,-0.8925995826721191,0.30515289306640625,0.1283513754606247
1761467504402986200,6.783986328125,-0.7533146142959595,0.43653860688209534,0.10628089308738708
1761467504412969500,6.793969482421875,-0.5400633215904236,0.3303365409374237,0.09234350174665451
1761467504422952400,6.803952392578125,-0.29305440187454224,0.030697474256157875,0.08886254578828812
1761467504432935200,6.81393505859375,-0.020047642290592194,-0.3559647500514984,0.08160010725259781
1761467504442918400,6.82391845703125,0.2590121626853943,-0.8135884404182434,0.0826558768749237
1761467504452901400,6.8339013671875,0.5218669176101685,-1.1721892356872559,0.09065520763397217
1761467504462884000,6.843884033203125,0.7407243251800537,-1.2027767896652222,0.06823834776878357
1761467504472867300,6.853867431640625,0.854425311088562,-0.9303522109985352,0.03827112913131714
1761467504482850300,6.863850341796875,0.8276753425598145,-0.6018938422203064,-0.01348038949072361
1761467504492833300,6.873833251953125,0.706745982170105,-0.3633723556995392,-0.09740964323282242
1761467504502816300,6.883816162109375,0.4811152517795563,-0.18777482211589813,-0.1666034609079361
1761467504512799200,6.89379931640625,0.2563804090023041,-0.08200231939554214,-0.2214384824037552
1761467504522782200,6.9037822265625,0.1340309977531433,-0.05793246999382973,-0.2335909754037857
1761467504532765400,6.913765380859375,0.12792623043060303,-0.023544933646917343,-0.16597570478916168
1761467504542748200,6.923748046875,0.21762794256210327,0.05062907189130783,-0.026690520346164703
1761467504552731400,6.9337314453125,0.34929144382476807,0.09107422828674316,0.1448167860507965
1761467504562715400,6.94371533203125,0.47326046228408813,0.041168469935655594,0.2788638770580292
1761467504572698400,6.953698486328125,0.5224242210388184,-0.09925681352615356,0.3276388645172119
1761467504582681300,6.963681396484375,0.5069242119789124,-0.23351918160915375,0.30481740832328796
1761467504592664300,6.973664306640625,0.4337889850139618,-0.2750495970249176,0.23368331789970398
1761467504602647300,6.983647216796875,0.3310413658618927,-0.2898455560207367,0.11949102580547333
1761467504612630300,6.99363037109375,0.20661847293376923,-0.24046869575977325,-0.025248583406209946
1761467504622613200,7.00361328125,0.10937421023845673,-0.15702971816062927,-0.16813357174396515
1761467504632596200,7.01359619140625,0.04613052308559418,-0.07431167364120483,-0.29992276430130005
1761467504642579200,7.0235791015625,0.01247209683060646,-0.024633586406707764,-0.4321630299091339
1761467504652562400,7.0335625,0.01564924791455269,-0.00017005507834255695,-0.5705896019935608
1761467504662545200,7.043545166015625,0.042720526456832886,-0.0026590933557599783,-0.703737199306488
1761467504672528400,7.0535283203125,0.07138360291719437,0.03496124967932701,-0.8213804364204407
1761467504682511400,7.063511474609375,0.08162695169448853,0.058246199041604996,-0.9542209506034851
1761467504692494300,7.073494384765625,0.056331176310777664,0.06893879175186157,-1.0709795951843262
1761467504702477300,7.083477294921875,0.016520684584975243,0.1413414478302002,-1.1545048952102661
1761467504712460300,7.093460205078125,-0.02410237491130829,0.2070504128932953,-1.2258230447769165
1761467504722443300,7.103443359375,-0.07886473834514618,0.16352726519107819,-1.285844087600708
1761467504732426500,7.113426513671875,-0.126939594745636,0.026566751301288605,-1.2588790655136108
1761467504742409200,7.1234091796875,-0.15336476266384125,-0.18325591087341309,-1.1477909088134766
1761467504752392200,7.13339208984375,-0.20331473648548126,-0.49651744961738586,-0.956916332244873
1761467504762375400,7.14337548828125,-0.256881445646286,-0.9268248677253723,-0.6845917105674744
1761467504772358400,7.1533583984375,-0.2812986373901367,-1.4154592752456665,-0.3811764717102051
1761467504782341000,7.163341064453125,-0.2876823842525482,-1.8781311511993408,-0.09727482497692108
1761467504792324400,7.173324462890625,-0.24648836255073547,-2.1365325450897217,0.09032116830348969
1761467504802307300,7.183307373046875,-0.15632374584674835,-2.1074376106262207,0.16518406569957733
1761467504812290300,7.193290283203125,0.022491535171866417,-1.8624235391616821,0.163189098238945
1761467504822273300,7.203273193359375,0.20937401056289673,-1.5733168125152588,0.21526266634464264
1761467504832256300,7.21325634765625,0.3093767762184143,-1.2867026329040527,0.31193116307258606
1761467504842239500,7.223239501953125,0.29993969202041626,-0.8736009001731873,0.4047487676143646
1761467504852222200,7.23322216796875,0.18650847673416138,-0.4501769542694092,0.4715573489665985
1761467504862205200,7.243205078125,0.02532109245657921,-0.0803879126906395,0.5067076086997986
1761467504872188400,7.2531884765625,-0.14531882107257843,0.19758884608745575,0.5274850726127625
1761467504882171400,7.26317138671875,-0.28827011585235596,0.38083845376968384,0.4650607705116272
1761467504892154000,7.273154052734375,-0.36449992656707764,0.5578233003616333,0.2803175449371338
1761467504902137300,7.283137451171875,-0.38606613874435425,0.7523439526557922,0.01570115052163601
1761467504912120300,7.293120361328125,-0.3718680143356323,0.8310526609420776,-0.21834756433963776
1761467504922103300,7.303103271484375,-0.3375457525253296,0.8190152049064636,-0.34768491983413696
1761467504932086300,7.313086181640625,-0.2728405296802521,0.761535108089447,-0.39363884925842285
1761467504942069200,7.3230693359375,-0.1971653699874878,0.680203914642334,-0.3961699604988098
1761467504952052500,7.333052490234375,-0.11632271856069565,0.5560569167137146,-0.37223878502845764
1761467504962035500,7.343035400390625,-0.04432230442762375,0.39725780487060547,-0.3273264169692993
1761467504972018200,7.35301806640625,0.023388564586639404,0.250404953956604,-0.2735143303871155
1761467504982002200,7.363002197265625,0.10779564827680588,0.14847266674041748,-0.1835641711950302
1761467504991985400,7.3729853515625,0.18030712008476257,0.07334809005260468,-0.03593423590064049
1761467505001968400,7.382968505859375,0.21705888211727142,0.009131870232522488,0.10615114867687225
1761467505011951000,7.392951171875,0.2147509902715683,-0.03642549365758896,0.21509096026420593
1761467505021934300,7.402934326171875,0.1792476773262024,-0.046701449900865555,0.2875710427761078
1761467505031917300,7.412917236328125,0.11789644509553909,-0.008530627936124802,0.32284170389175415
1761467505041900300,7.422900390625,0.04822663962841034,0.03780172020196915,0.37022101879119873
1761467505051883300,7.43288330078125,-0.027369849383831024,0.046983502805233,0.42950937151908875
1761467505061866200,7.4428662109375,-0.10128767043352127,0.058202631771564484,0.48942843079566956
1761467505071849500,7.452849365234375,-0.1610141098499298,0.06087031960487366,0.5456845164299011
1761467505081832400,7.46283251953125,-0.18379652500152588,0.04940615966916084,0.5992312431335449
1761467505091815200,7.472815185546875,-0.2013116031885147,-0.013560554943978786,0.6331695318222046
1761467505101798400,7.48279833984375,-0.2118464708328247,-0.14770133793354034,0.607621967792511
1761467505111781400,7.492781494140625,-0.20635902881622314,-0.3015207350254059,0.5276696085929871
1761467505121764400,7.502764404296875,-0.18027687072753906,-0.3744906187057495,0.4436708986759186
1761467505131747300,7.512747314453125,-0.15486498177051544,-0.2989575266838074,0.3338645100593567
1761467505141730600,7.52273046875,-0.15011858940124512,-0.10693774372339249,0.2225313037633896
1761467505151713300,7.53271337890625,-0.19376727938652039,0.13849544525146484,0.13878872990608215
1761467505161696500,7.542696533203125,-0.24198156595230103,0.33215293288230896,0.09578950703144073
1761467505171679500,7.552679443359375,-0.25225603580474854,0.35445743799209595,0.15352018177509308
1761467505181662200,7.562662109375,-0.197526752948761,0.3046944737434387,0.319716215133667
1761467505191645400,7.5726455078125,-0.1209435686469078,0.3894546329975128,0.4546031951904297
1761467505201628400,7.58262841796875,-0.015956487506628036,0.5694316625595093,0.47635510563850403
1761467505211611400,7.592611328125,0.10927893221378326,0.6279924511909485,0.3632804751396179
1761467505221594400,7.602594482421875,0.2081831395626068,0.19543181359767914,0.0759778842329979
1761467505231577300,7.612577392578125,0.2832203507423401,-0.3462546169757843,-0.2182510942220688
1761467505241560600,7.622560546875,0.3327494263648987,-0.6863464117050171,-0.41463562846183777
1761467505251543600,7.63254345703125,0.35127171874046326,-0.7036657929420471,-0.44069334864616394
1761467505261526300,7.6425263671875,0.357459157705307,-0.55318284034729,-0.35515451431274414
1761467505271509500,7.652509521484375,0.3942520320415497,-0.43257758021354675,-0.22100122272968292
1761467505281492500,7.662492431640625,0.4542778730392456,-0.347918301820755,-0.04265793040394783
1761467505291475500,7.672475341796875,0.5501189231872559,-0.18942663073539734,0.13342122733592987
1761467505301458400,7.68245849609375,0.6370653510093689,0.013577540405094624,0.2708350718021393
1761467505311441400,7.69244140625,0.6902849078178406,0.15306273102760315,0.3439135253429413
1761467505321424400,7.70242431640625,0.685452938079834,0.2343866378068924,0.3191151022911072
1761467505331407600,7.71240771484375,0.6233291029930115,0.27946731448173523,0.2000560760498047
1761467505341390300,7.722390380859375,0.5181365609169006,0.26895731687545776,0.03680085763335228
1761467505351373300,7.732373291015625,0.39961421489715576,0.26968833804130554,-0.12527726590633392
1761467505361356500,7.7423564453125,0.2823428809642792,0.2574492394924164,-0.24177628755569458
1761467505371339300,7.75233935546875,0.20304912328720093,0.21354302763938904,-0.32800012826919556
1761467505381322500,7.762322509765625,0.16357867419719696,0.131507009267807,-0.37357452511787415
1761467505391305500,7.772305419921875,0.1636495143175125,0.06966601312160492,-0.3799874186515808
1761467505401288400,7.782288330078125,0.19122202694416046,0.03426291048526764,-0.3728483319282532
1761467505411271400,7.792271484375,0.2229442596435547,-0.04111173748970032,-0.3759884834289551
1761467505421254400,7.80225439453125,0.22782708704471588,-0.14605829119682312,-0.40749287605285645
1761467505431238400,7.81223828125,0.20925846695899963,-0.23833923041820526,-0.46162348985671997
1761467505441220600,7.822220703125,0.17485952377319336,-0.29016488790512085,-0.5333301424980164
1761467505451204600,7.83220458984375,0.13883893191814423,-0.29724782705307007,-0.6100659370422363
1761467505461187300,7.842187255859375,0.09733892232179642,-0.2545073330402374,-0.6751098036766052
1761467505471170300,7.85217041015625,0.06432025134563446,-0.14731855690479279,-0.7192234396934509
1761467505481153500,7.862153564453125,0.05722704157233238,-0.054586317390203476,-0.7388091683387756
1761467505491136300,7.87213623046875,0.07083100080490112,-0.015302560292184353,-0.7341499924659729
1761467505501119500,7.882119384765625,0.12648029625415802,-0.06674940139055252,-0.7306391000747681
1761467505511102500,7.8921025390625,0.1898488849401474,-0.15528540313243866,-0.6640507578849792
1761467505521085400,7.90208544921875,0.25230756402015686,-0.22759561240673065,-0.5290709733963013
1761467505531068400,7.912068359375,0.3225543200969696,-0.32024937868118286,-0.3746601343154907
1761467505541051400,7.922051513671875,0.3932419419288635,-0.43050169944763184,-0.24160200357437134
1761467505551034400,7.932034423828125,0.4671478569507599,-0.49067768454551697,-0.16254286468029022
1761467505561017600,7.942017578125,0.5331367254257202,-0.4195038080215454,-0.13208383321762085
1761467505571000300,7.952000244140625,0.5784411430358887,-0.3087538778781891,-0.16178260743618011
1761467505580983300,7.9619833984375,0.603337824344635,-0.21437783539295197,-0.2514410614967346
1761467505590966500,7.971966552734375,0.6026318073272705,-0.27373650670051575,-0.4000800848007202
1761467505600949500,7.981949462890625,0.5429295301437378,-0.43599921464920044,-0.49723657965660095
1761467505610932200,7.99193212890625,0.46907395124435425,-0.6806256771087646,-0.49518513679504395
1761467505620915500,8.00191552734375,0.37827619910240173,-0.8289443254470825,-0.37315434217453003
1761467505630898400,8.0118984375,0.2728147506713867,-0.7761343717575073,-0.18711735308170319
1761467505640881700,8.021881591796875,0.15897758305072784,-0.5729864239692688,-0.009558171965181828
1761467505650864400,8.031864501953125,0.03944531828165054,-0.2827306091785431,0.09293597936630249
1761467505660847400,8.041847412109375,-0.05234594643115997,0.004504412412643433,0.07393639534711838
1761467505670830600,8.05183056640625,-0.08682988584041595,0.2372487187385559,0.011546790599822998
1761467505680813300,8.061813232421875,-0.06886593997478485,0.382736474275589,-0.040362320840358734
1761467505690796300,8.07179638671875,-0.013559538871049881,0.4324457049369812,-0.07336368411779404
1761467505700779500,8.081779541015624,0.04484688490629196,0.40164992213249207,-0.09120849519968033
1761467505710762500,8.091762451171874,0.0875147208571434,0.3528115451335907,-0.09106681495904922
1761467505720745200,8.1017451171875,0.10487152636051178,0.35231727361679077,-0.06490001082420349
1761467505730728400,8.111728515625,0.09757419675588608,0.3792428970336914,-0.02066170796751976
1761467505740711400,8.12171142578125,0.07434991747140884,0.39656248688697815,0.020367300137877464
1761467505750694400,8.1316943359375,0.04489908367395401,0.3992203176021576,0.06468629091978073
1761467505760677400,8.141677490234375,0.008155301213264465,0.3855612576007843,0.10922125726938248
1761467505770660400,8.151660400390625,-0.032699454575777054,0.3565703332424164,0.16609333455562592
1761467505780643600,8.1616435546875,-0.06598460674285889,0.2814517021179199,0.24398282170295715
1761467505790626600,8.17162646484375,-0.10696133971214294,0.17251883447170258,0.3454476594924927
1761467505800609300,8.181609375,-0.13349957764148712,0.07736294716596603,0.47501707077026367
1761467505810592500,8.191592529296875,-0.17624996602535248,0.04795099049806595,0.6182344555854797
1761467505820575500,8.201575439453125,-0.23524458706378937,0.08437526226043701,0.7354546189308167
1761467505830558500,8.211558349609374,-0.31831738352775574,0.11900568008422852,0.7986756563186646
1761467505840541400,8.22154150390625,-0.4119730293750763,0.13012616336345673,0.7802664041519165
1761467505850524400,8.2315244140625,-0.5114203095436096,0.1738552749156952,0.6859745383262634
1761467505860507400,8.24150732421875,-0.6051657199859619,0.24148787558078766,0.589101254940033
1761467505870490400,8.251490478515626,-0.679427981376648,0.32207566499710083,0.5045754909515381
1761467505880473300,8.261473388671876,-0.7080507874488831,0.44479846954345703,0.3849281668663025
1761467505890456300,8.271456298828125,-0.6794306039810181,0.4981730282306671,0.23984366655349731
1761467505900439600,8.281439453125,-0.5991737842559814,0.4215810298919678,0.14061246812343597
1761467505910422300,8.29142236328125,-0.5045683979988098,0.2675621807575226,0.1608508974313736
1761467505920405500,8.301405517578125,-0.3957538604736328,0.050011247396469116,0.3406292796134949
1761467505930389500,8.311389404296875,-0.27821072936058044,-0.2528176009654999,0.512477457523346
1761467505940372500,8.32137255859375,-0.14357897639274597,-0.4232269823551178,0.5654157996177673
1761467505950355500,8.33135546875,-0.036635469645261765,-0.42900949716567993,0.44294819235801697
1761467505960338400,8.34133837890625,0.006116239354014397,-0.3363930583000183,0.22324922680854797
1761467505970321400,8.3513212890625,0.004648305010050535,-0.14982451498508453,-0.08217087388038635
1761467505980304400,8.361304443359375,-0.021348796784877777,0.03524957597255707,-0.4264291226863861
1761467505990287600,8.37128759765625,-0.06974509358406067,0.18293116986751556,-0.6640381813049316
1761467506000270300,8.381270263671874,-0.09316391497850418,0.22536367177963257,-0.7030207514762878
1761467506010253300,8.39125341796875,-0.044260285794734955,0.09611009061336517,-0.6016278266906738
1761467506020236500,8.401236572265624,0.054838091135025024,-0.06968849897384644,-0.3903988003730774
1761467506030219300,8.41121923828125,0.16278932988643646,-0.15439540147781372,-0.12761937081813812
1761467506040202500,8.421202392578126,0.24417796730995178,-0.17296551167964935,0.09774138778448105
1761467506050185500,8.431185546875,0.27879902720451355,-0.16703812777996063,0.23726679384708405
1761467506060168400,8.44116845703125,0.28724655508995056,-0.16300435364246368,0.28347092866897583
1761467506070151400,8.4511513671875,0.26771146059036255,-0.13349679112434387,0.28241392970085144
1761467506080134400,8.461134521484375,0.2277325540781021,-0.03154676407575607,0.2477373480796814
1761467506090117400,8.471117431640625,0.1564280092716217,0.14141009747982025,0.204434335231781
1761467506100100600,8.4811005859375,0.0632641389966011,0.26630064845085144,0.10111065208911896
1761467506110083300,8.491083251953125,-0.023827357217669487,0.3000738024711609,-0.006343369837850332
1761467506120066300,8.50106640625,-0.09339263290166855,0.2757311463356018,-0.1077004075050354
1761467506130049500,8.511049560546875,-0.11720315366983414,0.25185272097587585,-0.17150680720806122
1761467506140033300,8.521033203125,-0.12094037234783173,0.20520612597465515,-0.21952760219573975
1761467506150016000,8.53101611328125,-0.10792843252420425,0.1431848257780075,-0.3026914596557617
1761467506159999200,8.540999267578124,-0.03227410465478897,0.11256276071071625,-0.36517423391342163
1761467506169982200,8.550982177734374,0.06906210631132126,0.10331147164106369,-0.35601696372032166
1761467506179965000,8.56096484375,0.1755543053150177,0.10359898954629898,-0.3243831694126129
1761467506189948200,8.5709482421875,0.2600521743297577,0.125129833817482,-0.3097493648529053
1761467506199931100,8.58093115234375,0.3080800771713257,0.13633303344249725,-0.3316571116447449
1761467506209914000,8.5909140625,0.320235013961792,0.1201774999499321,-0.3840358853340149
1761467506219897000,8.60089697265625,0.31226253509521484,0.13543710112571716,-0.41116863489151
1761467506229880000,8.610880126953125,0.2524964213371277,0.14238394796848297,-0.3762492537498474
1761467506239863000,8.620863037109375,0.18984965980052948,0.14059263467788696,-0.3488852083683014
1761467506249846300,8.63084619140625,0.20891281962394714,0.15771383047103882,-0.3159776031970978
1761467506259829000,8.6408291015625,0.3106677234172821,0.08274490386247635,-0.19843728840351105
1761467506269812200,8.650812255859375,0.4564984440803528,-0.05021500587463379,-0.02316107042133808
1761467506279795200,8.660795166015625,0.5786818861961365,-0.15515221655368805,0.11725232750177383
1761467506289778200,8.670778076171874,0.6150748133659363,-0.19296163320541382,0.17135286331176758
1761467506299761200,8.68076123046875,0.5504872798919678,-0.17968057096004486,0.14828024804592133
1761467506309744000,8.690744140625,0.4119997024536133,-0.12448069453239441,0.0650860145688057
1761467506319727000,8.70072705078125,0.25973203778266907,-0.07545161992311478,0.006720753386616707
1761467506329710300,8.71071044921875,0.13255703449249268,-0.09328654408454895,0.037208620458841324
1761467506339693000,8.720693115234376,0.054111845791339874,-0.12978248298168182,0.16396638751029968
1761467506349676000,8.730676025390625,0.012528713792562485,-0.1635202020406723,0.324444979429245
1761467506359659300,8.7406591796875,-0.0032442668452858925,-0.11740847676992416,0.45308494567871094
1761467506369642000,8.75064208984375,0.010612159967422485,-0.031123658642172813,0.508078932762146
1761467506379625000,8.760625,0.04155143350362778,0.02262319251894951,0.49100780487060547
1761467506389608200,8.770608154296875,0.06827199459075928,0.044800132513046265,0.4154224991798401
1761467506399591200,8.780591064453125,0.07349595427513123,0.09198476374149323,0.3265077471733093
1761467506409574100,8.79057421875,0.03622901439666748,0.15854273736476898,0.21523530781269073
1761467506419557000,8.80055712890625,-0.018205776810646057,0.2523414194583893,0.09688757359981537
1761467506429541000,8.810541015625,-0.07653938233852386,0.38604140281677246,0.011113014072179794
1761467506439524000,8.820524169921875,-0.11789592355489731,0.5164704918861389,-0.05128117650747299
1761467506449507300,8.83050732421875,-0.14349903166294098,0.5594038367271423,-0.0994202122092247
1761467506459490000,8.840489990234374,-0.1254870891571045,0.528605043888092,-0.11733251810073853
1761467506469473000,8.85047314453125,-0.0763363167643547,0.4315994083881378,-0.10273200273513794
1761467506479456300,8.860456298828124,-0.016173992305994034,0.3294745981693268,-0.064527727663517
1761467506489439200,8.870439208984376,0.04071272537112236,0.27763402462005615,-0.004949352703988552
1761467506499422000,8.880421875,0.0648508071899414,0.2571047246456146,0.03526287525892258
1761467506509405200,8.8904052734375,0.062436651438474655,0.24945268034934998,0.08026869595050812
1761467506519388200,8.90038818359375,0.03393298387527466,0.27836716175079346,0.13313671946525574
1761467506529371100,8.91037109375,-0.009395578876137733,0.2923543453216553,0.1838771402835846
1761467506539354000,8.92035400390625,-0.06010198965668678,0.2969593107700348,0.23888440430164337
1761467506549337000,8.930337158203125,-0.11590160429477692,0.29784080386161804,0.2957349121570587
1761467506559320300,8.9403203125,-0.17252586781978607,0.23001497983932495,0.34896567463874817
1761467506569303000,8.950302978515625,-0.23703108727931976,0.1357068568468094,0.39464235305786133
1761467506579286000,8.9602861328125,-0.32049158215522766,0.09645616263151169,0.43343937397003174
1761467506589269200,8.970269287109375,-0.41085878014564514,0.09581007808446884,0.46268168091773987
1761467506599252200,8.980252197265624,-0.48541978001594543,0.08192440867424011,0.49644964933395386
1761467506609235000,8.99023486328125,-0.5375354290008545,0.08180749416351318,0.5283160209655762
1761467506619218200,9.00021826171875,-0.5803768038749695,0.04641333594918251,0.554530680179596
1761467506629201200,9.010201171875,-0.602378249168396,-0.044777028262615204,0.554218053817749
1761467506639184100,9.02018408203125,-0.5782561302185059,-0.12442706525325775,0.5131581425666809
1761467506649167000,9.0301669921875,-0.5086384415626526,-0.15447098016738892,0.4033413827419281
1761467506659150000,9.040150146484375,-0.4034911096096039,-0.0851413905620575,0.25053200125694275
1761467506669133300,9.05013330078125,-0.26515188813209534,-0.042535603046417236,0.07890059053897858
1761467506679116300,9.0601162109375,-0.1382615864276886,-0.07198675721883774,-0.038201704621315
1761467506689099000,9.07009912109375,0.0035102074034512043,-0.12954191863536835,-0.03669169172644615
1761467506699082200,9.080082275390625,0.1677214652299881,-0.1801868975162506,0.035974517464637756
1761467506709065200,9.090065185546875,0.2975798547267914,-0.3017340898513794,0.0182381309568882
1761467506719048000,9.1000478515625,0.35570216178894043,-0.5341945886611938,-0.1460638791322708
1761467506729031200,9.11003125,0.36044952273368835,-0.6551268696784973,-0.36603274941444397
1761467506739014100,9.12001416015625,0.3310255706310272,-0.5649627447128296,-0.5209733843803406
1761467506748997000,9.1299970703125,0.29147976636886597,-0.3638834059238434,-0.5359166264533997
1761467506758980000,9.13997998046875,0.27844464778900146,-0.22506599128246307,-0.4640931189060211
1761467506768963000,9.149963134765626,0.2981504201889038,-0.22249311208724976,-0.3720785081386566
1761467506778946000,9.159946044921876,0.3342452347278595,-0.29564619064331055,-0.2589411437511444
1761467506788929300,9.16992919921875,0.370113730430603,-0.3498159348964691,-0.1616968959569931
1761467506798912000,9.179912109375,0.38048678636550903,-0.3227471709251404,-0.08903031051158905
1761467506808895200,9.189895263671875,0.3458680808544159,-0.22393245995044708,-0.048814184963703156
1761467506818878200,9.199878173828125,0.2424747794866562,-0.061041150242090225,-0.047263842076063156
1761467506828861200,9.209861083984375,0.11869584769010544,0.16010534763336182,-0.08864164352416992
1761467506838844200,9.21984423828125,-0.027961691841483116,0.3620772361755371,-0.1600291132926941
1761467506848827100,9.2298271484375,-0.15148389339447021,0.5139536261558533,-0.2330806851387024
1761467506858810000,9.23981005859375,-0.24615857005119324,0.6035220623016357,-0.284519225358963
1761467506868793300,9.24979345703125,-0.28439223766326904,0.600449800491333,-0.2984374165534973
1761467506878776000,9.259776123046874,-0.25971630215644836,0.5126388072967529,-0.29409125447273254
1761467506888759000,9.269759033203124,-0.19356179237365723,0.363612562417984,-0.24893444776535034
1761467506898742300,9.2797421875,-0.09305252134799957,0.1816757321357727,-0.19895480573177338
1761467506908725000,9.28972509765625,0.01480097882449627,0.022349191829562187,-0.17916804552078247
1761467506918708000,9.2997080078125,0.11032196879386902,-0.0580342598259449,-0.21501129865646362
1761467506928691200,9.309691162109376,0.17232462763786316,-0.11924515664577484,-0.3018508553504944
1761467506938674200,9.319674072265625,0.19473499059677124,-0.13685019314289093,-0.3763856589794159
1761467506948657200,9.3296572265625,0.19802053272724152,-0.09130854159593582,-0.414407879114151
1761467506958641200,9.33964111328125,0.18383963406085968,-0.07064830511808395,-0.40915969014167786
1761467506968624000,9.3496240234375,0.1830603927373886,-0.07205019146203995,-0.3395233452320099
1761467506978607000,9.359607177734375,0.2133936733007431,-0.09370387345552444,-0.18992842733860016
1761467506988590300,9.36959033203125,0.2714433968067169,-0.1777961254119873,-0.011510220356285572
1761467506998573000,9.379572998046875,0.38037002086639404,-0.24937139451503754,0.1370667964220047
1761467507008556000,9.38955615234375,0.5115522742271423,-0.2919188439846039,0.21627826988697052
1761467507018539300,9.399539306640625,0.604859471321106,-0.3195646405220032,0.20288799703121185
1761467507028522200,9.409522216796875,0.6394765377044678,-0.3951270580291748,0.08577974885702133
1761467507038505000,9.4195048828125,0.6045119762420654,-0.6259916424751282,-0.09748397767543793
1761467507048488200,9.42948828125,0.5384402871131897,-0.922489583492279,-0.2772825062274933
1761467507058471200,9.43947119140625,0.47406986355781555,-1.1302016973495483,-0.38294029235839844
1761467507068454100,9.4494541015625,0.40942907333374023,-1.090099573135376,-0.2852422297000885
1761467507078437000,9.45943701171875,0.3214476704597473,-0.8548122048377991,-0.015134155750274658
1761467507088420000,9.469420166015626,0.18312950432300568,-0.5046043992042542,0.29281407594680786
1761467507098403300,9.4794033203125,0.0518341138958931,-0.1815386265516281,0.4440099596977234
1761467507108386000,9.489385986328125,-0.02950868010520935,-0.00023383041843771935,0.3775627613067627
1761467507118369000,9.499369140625,-0.07251352071762085,0.0990164577960968,0.20211617648601532
1761467507128352300,9.509352294921875,-0.09715442359447479,0.17908598482608795,0.017654992640018463
1761467507138334500,9.51933447265625,-0.0843186229467392,0.21343010663986206,-0.15423552691936493
1761467507148317700,9.529317626953125,-0.054362595081329346,0.19373203814029694,-0.2933982312679291
1761467507158300400,9.539300537109375,-0.018801404163241386,0.14550219476222992,-0.37680763006210327
1761467507168283400,9.549283447265625,0.009928245097398758,0.10418697446584702,-0.3959760069847107
1761467507178266600,9.5592666015625,0.044036269187927246,0.08497150242328644,-0.3871472179889679
1761467507188249600,9.56924951171875,0.041313983500003815,0.10669677704572678,-0.4066151976585388
1761467507198232300,9.579232421875,0.040367841720581055,0.16761286556720734,-0.4168502986431122
1761467507208215600,9.589215576171876,0.04974563047289848,0.22446869313716888,-0.3983383774757385
1761467507218198500,9.599198486328126,0.06055721268057823,0.2750459313392639,-0.3374105989933014
1761467507228181500,9.609181396484376,0.07083169370889664,0.3155246376991272,-0.22558501362800598
1761467507238164500,9.61916455078125,0.0850621834397316,0.3251875638961792,-0.08151040971279144
1761467507248147500,9.6291474609375,0.10349179059267044,0.3027983605861664,0.07252735644578934
1761467507258130400,9.63913037109375,0.09777772426605225,0.2565087676048279,0.2136567384004593
1761467507268113700,9.64911376953125,0.056838277727365494,0.20134992897510529,0.28439003229141235
1761467507278096400,9.659096435546875,-0.015982791781425476,0.23525004088878632,0.3466377854347229
1761467507288079600,9.66907958984375,-0.11090957373380661,0.29917681217193604,0.4125821888446808
1761467507298062600,9.6790625,-0.19684220850467682,0.31186386942863464,0.42796429991722107
1761467507308045600,9.689045654296875,-0.27599161863327026,0.25037679076194763,0.37399959564208984
1761467507318028500,9.699028564453124,-0.3653908669948578,0.12662848830223083,0.2854388952255249
1761467507328011500,9.709011474609374,-0.45335879921913147,-0.023794567212462425,0.18941010534763336
1761467507337994500,9.718994384765624,-0.49779629707336426,-0.2054089456796646,0.06521593034267426
1761467507347977500,9.7289775390625,-0.46268704533576965,-0.4666522443294525,-0.02849644236266613
1761467507357960400,9.73896044921875,-0.39883989095687866,-0.6907597184181213,-0.02987695299088955
1761467507367943400,9.748943359375,-0.2692025601863861,-0.7020070552825928,0.0046618483029305935
1761467507377926700,9.7589267578125,-0.11664552986621857,-0.6049354672431946,-0.001649386715143919
1761467507387909400,9.768909423828125,0.04103943705558777,-0.5813284516334534,-0.16590145230293274
