time,seconds_elapsed,z,y,x
1761467509878322400,0.105322509765625,0.38219258189201355,-0.29045602679252625,-0.4202337861061096
1761467509888305400,0.115305419921875,0.39443859457969666,-0.24931687116622925,-0.4885164201259613
1761467509898288400,0.125288330078125,0.3696203827857971,-0.1874440461397171,-0.5632143616676331
1761467509908272400,0.1352724609375,0.3102603852748871,-0.11818614602088928,-0.6138663291931152
1761467509918255400,0.14525537109375,0.25224170088768005,-0.05094151571393013,-0.633558452129364
1761467509928238300,0.15523828125,0.24559816718101501,-0.050256818532943726,-0.6073998212814331
1761467509938221600,0.1652216796875,0.29018279910087585,-0.16675157845020294,-0.4667437672615051
1761467509948205600,0.17520556640625,0.38903987407684326,-0.3070160150527954,-0.2005040943622589
1761467509958188500,0.1851884765625,0.5506731867790222,-0.35988929867744446,0.11867348104715347
1761467509968171300,0.195171142578125,0.7243496179580688,-0.3326033353805542,0.4095465838909149
1761467509978154500,0.205154541015625,0.8745882511138916,-0.31756260991096497,0.5679977536201477
1761467509988137500,0.215137451171875,0.9394617676734924,-0.444619357585907,0.49533894658088684
1761467509998121500,0.22512158203125,0.945810854434967,-0.6686474084854126,0.20494328439235687
1761467510008104400,0.2351044921875,0.8584216237068176,-0.7465661764144897,-0.10860931128263474
1761467510018087400,0.24508740234375,0.7262327671051025,-0.7346104383468628,-0.22713804244995117
1761467510028070400,0.2550703125,0.5583750605583191,-0.6674103736877441,-0.10035239160060883
1761467510038053600,0.2650537109375,0.35412725806236267,-0.44634971022605896,0.14221911132335663
1761467510048037600,0.27503759765625,0.058293186128139496,-0.1592918336391449,0.3632904887199402
1761467510058020400,0.285020263671875,-0.17380230128765106,-0.06580320745706558,0.36962318420410156
1761467510068003300,0.29500341796875,-0.2834899127483368,-0.10758527368307114,0.18658757209777832
1761467510077986600,0.304986572265625,-0.32018083333969116,-0.12852750718593597,-0.045660726726055145
1761467510087969300,0.31496923828125,-0.31031835079193115,-0.06302174180746078,-0.23343808948993683
1761467510097953300,0.324953369140625,-0.2634047269821167,0.12168778479099274,-0.3580593764781952
1761467510107936300,0.334936279296875,-0.23620212078094482,0.34921762347221375,-0.41627979278564453
1761467510117919500,0.34491943359375,-0.2073661834001541,0.4330454468727112,-0.4660789966583252
1761467510127902500,0.35490234375,-0.1982794851064682,0.4055011570453644,-0.5146694779396057
1761467510137886500,0.364886474609375,-0.20954199135303497,0.3600503206253052,-0.5143070220947266
1761467510147869400,0.374869384765625,-0.24080882966518402,0.38792404532432556,-0.49100565910339355
1761467510157852200,0.38485205078125,-0.26338908076286316,0.4539779722690582,-0.40819498896598816
1761467510167835100,0.394835205078125,-0.27072423696517944,0.5199056267738342,-0.25833356380462646
1761467510177818400,0.404818359375,-0.2706720232963562,0.5576032996177673,-0.07968427985906601
1761467510187802400,0.41480224609375,-0.2586510479450226,0.5728605389595032,0.06674936413764954
1761467510197785000,0.42478515625,-0.2573210597038269,0.6032286286354065,0.18459254503250122
1761467510207768300,0.434768310546875,-0.2731812596321106,0.6195098757743835,0.2826799750328064
1761467510217751300,0.444751220703125,-0.3200048804283142,0.6559990644454956,0.3466813564300537
1761467510227735300,0.4547353515625,-0.3762796223163605,0.6652545928955078,0.4026665985584259
1761467510237718300,0.46471826171875,-0.46660271286964417,0.624115526676178,0.4375491440296173
1761467510247701200,0.474701171875,-0.5906564593315125,0.5355483293533325,0.4257492125034332
1761467510257684200,0.484684326171875,-0.7358270883560181,0.47325342893600464,0.4232593774795532
1761467510267668200,0.494668212890625,-0.8840445280075073,0.3899260461330414,0.43918803334236145
1761467510277651200,0.504651123046875,-1.0153822898864746,0.24832099676132202,0.4820772111415863
1761467510287634200,0.51463427734375,-1.0852510929107666,0.007108633406460285,0.530918538570404
1761467510297617200,0.5246171875,-1.089826226234436,-0.2851233184337616,0.5765084624290466
1761467510307601200,0.53460107421875,-1.045672059059143,-0.5455729961395264,0.6212745904922485
1761467510317584400,0.54458447265625,-0.9399016499519348,-0.6946384906768799,0.6420764327049255
1761467510327567400,0.5545673828125,-0.8034626245498657,-0.7394278049468994,0.5578691363334656
1761467510337550000,0.564550048828125,-0.706739068031311,-0.6737614274024963,0.35846593976020813
1761467510347533300,0.574533203125,-0.5943952202796936,-0.4994037449359894,0.1093679666519165
1761467510357517300,0.584517333984375,-0.47890913486480713,-0.3630311191082001,-0.05325337126851082
1761467510367500300,0.594500244140625,-0.35075995326042175,-0.35881051421165466,0.0182194821536541
1761467510377483300,0.604483154296875,-0.17040973901748657,-0.5312337875366211,0.24679552018642426
1761467510387466200,0.61446630859375,-0.058293577283620834,-0.54962158203125,0.43760940432548523
1761467510397450200,0.6244501953125,-0.06428690999746323,-0.3313846290111542,0.4892234206199646
1761467510407433200,0.63443310546875,-0.18511666357517242,0.16489088535308838,0.40881484746932983
1761467510417416400,0.64441650390625,-0.33457618951797485,0.6784456372261047,0.20982123911380768
1761467510427399200,0.654399169921875,-0.43926480412483215,1.0281261205673218,0.002438754541799426
1761467510437383200,0.664383056640625,-0.4618992209434509,0.9777843356132507,-0.2491283416748047
1761467510447366100,0.6743662109375,-0.293588787317276,0.6781062483787537,-0.48753026127815247
1761467510457349400,0.684349365234375,-0.01046103984117508,0.3574641942977905,-0.5342885255813599
1761467510467332400,0.694332275390625,0.3049238324165344,0.11560549587011337,-0.43597471714019775
1761467510477316000,0.704316162109375,0.593358039855957,-0.090268574655056,-0.330642431974411
1761467510487299300,0.71429931640625,0.7901706695556641,-0.2036401480436325,-0.27997952699661255
1761467510497282300,0.7242822265625,0.8640334010124207,-0.18305793404579163,-0.2829087972640991
1761467510507265300,0.734265380859375,0.8236028552055359,-0.053358521312475204,-0.3274349868297577
1761467510517249300,0.744249267578125,0.6762390732765198,0.17132322490215302,-0.39650988578796387
1761467510527232300,0.754232177734375,0.48170581459999084,0.4397304356098175,-0.4432313144207001
1761467510537215200,0.76421533203125,0.26218634843826294,0.7185365557670593,-0.465515673160553
1761467510547199200,0.77419921875,0.06741419434547424,0.8996075391769409,-0.4913499355316162
1761467510557182200,0.78418212890625,-0.06612860411405563,0.8548306822776794,-0.5129455327987671
1761467510567165200,0.794165283203125,-0.11047476530075073,0.6537215113639832,-0.4795028567314148
1761467510577148200,0.804148193359375,-0.07493720948696136,0.3737872242927551,-0.3409196436405182
1761467510587132200,0.814132080078125,-0.02075359970331192,0.18970845639705658,-0.2030869573354721
1761467510597115400,0.824115478515625,0.016689155250787735,0.1038980484008789,-0.1242198795080185
1761467510607098400,0.834098388671875,0.06310645490884781,0.009492450393736362,-0.06445668637752533
1761467510617081000,0.8440810546875,0.11574101448059082,-0.06964375078678131,-0.03319644182920456
1761467510627065000,0.854065185546875,0.14079657196998596,-0.1364230513572693,-0.05515633523464203
1761467510637048300,0.86404833984375,0.1758360117673874,-0.18721245229244232,-0.0872005745768547
1761467510647031300,0.87403125,0.20114189386367798,-0.18210025131702423,-0.13966484367847443
1761467510657014000,0.884013916015625,0.21206800639629364,-0.125192791223526,-0.22980144619941711
1761467510666998300,0.893998291015625,0.21543850004673004,-0.010039834305644035,-0.3398134410381317
1761467510676981200,0.903981201171875,0.2338048368692398,0.1190866231918335,-0.45848357677459717
1761467510686964200,0.913964111328125,0.2542147934436798,0.21101467311382294,-0.5498206615447998
1761467510696948200,0.9239482421875,0.2813447415828705,0.2171737402677536,-0.602904736995697
1761467510706931500,0.933931396484375,0.2749209403991699,0.17223024368286133,-0.5575979351997375
1761467510716914200,0.9439140625,0.2556849718093872,0.1462254375219345,-0.3960433900356293
1761467510726897200,0.953897216796875,0.2742842435836792,0.1554650068283081,-0.22099965810775757
1761467510736881200,0.963881103515625,0.34046971797943115,0.08046093583106995,-0.12209118902683258
1761467510746864400,0.973864501953125,0.4064476788043976,-0.07542426884174347,-0.12010820209980011
1761467510756847000,0.98384716796875,0.42893582582473755,-0.2798047661781311,-0.22469888627529144
1761467510766830000,0.993830078125,0.3903684616088867,-0.3985857367515564,-0.3208552598953247
1761467510776814300,1.003814453125,0.3200013041496277,-0.29277142882347107,-0.3366275727748871
1761467510786797300,1.01379736328125,0.26389753818511963,-0.17690978944301605,-0.25980710983276367
1761467510796780300,1.0237802734375,0.24007315933704376,-0.34892570972442627,-0.036660708487033844
1761467510806764300,1.033764404296875,0.29278242588043213,-0.6276612281799316,0.34447863698005676
1761467510816747300,1.043747314453125,0.37386026978492737,-0.7715451717376709,0.6641827821731567
1761467510826730200,1.053730224609375,0.407401978969574,-0.7248919010162354,0.8297868967056274
1761467510836713200,1.063713134765625,0.37084734439849854,-0.5524142980575562,0.7963302135467529
1761467510846697200,1.073697265625,0.29490092396736145,-0.40185561776161194,0.6193666458129883
1761467510856680200,1.08368017578125,0.14921963214874268,-0.2907653748989105,0.36269161105155945
1761467510866663200,1.0936630859375,-0.007418446242809296,-0.14014817774295807,0.060707539319992065
1761467510876647200,1.103647216796875,-0.16646426916122437,-0.01957767829298973,-0.21804074943065643
1761467510886630400,1.11363037109375,-0.3020678758621216,0.09026679396629333,-0.36698392033576965
1761467510896613400,1.12361328125,-0.43664050102233887,0.21124811470508575,-0.3761378526687622
1761467510906596000,1.13359619140625,-0.5557535886764526,0.3800842761993408,-0.28323426842689514
1761467510916580000,1.143580078125,-0.624350905418396,0.5745755434036255,-0.13255155086517334
1761467510926563300,1.153563232421875,-0.6268263459205627,0.6759738326072693,0.02557123638689518
1761467510936546300,1.16354638671875,-0.6131399273872375,0.687549889087677,0.19058236479759216
1761467510946530300,1.1735302734375,-0.5884095430374146,0.704587996006012,0.36500662565231323
1761467510956513300,1.18351318359375,-0.5665611028671265,0.730221688747406,0.5215360522270203
1761467510966496300,1.193496337890625,-0.5576664209365845,0.7333069443702698,0.6454673409461975
1761467510976479200,1.203479248046875,-0.5481361150741577,0.7658441066741943,0.7156625986099243
1761467510986463200,1.213463134765625,-0.5417306423187256,0.7688239216804504,0.717839241027832
1761467510996446200,1.2234462890625,-0.5549378991127014,0.7322642803192139,0.6752415299415588
1761467511006429200,1.23342919921875,-0.5657092928886414,0.6537710428237915,0.6297334432601929
1761467511016413200,1.2434130859375,-0.549632728099823,0.5762261152267456,0.643151581287384
1761467511026396200,1.253396240234375,-0.5406395196914673,0.5278612971305847,0.7054980397224426
1761467511036379400,1.26337939453125,-0.5410935878753662,0.47077426314353943,0.7865649461746216
1761467511046362000,1.273362060546875,-0.5329262018203735,0.38317036628723145,0.8453129529953003
1761467511056346000,1.28334619140625,-0.5090899467468262,0.23300139605998993,0.8542338013648987
1761467511066329300,1.293329345703125,-0.47578951716423035,-0.003973602317273617,0.7919320464134216
1761467511076312300,1.303312255859375,-0.4107120931148529,-0.21362285315990448,0.6247222423553467
1761467511086296300,1.31329638671875,-0.32595860958099365,-0.3353700637817383,0.34222373366355896
1761467511096279000,1.323279052734375,-0.25125402212142944,-0.38419049978256226,0.015418588183820248
1761467511106262300,1.33326220703125,-0.1660720258951187,-0.27061891555786133,-0.18219222128391266
1761467511116246300,1.343246337890625,-0.06485220044851303,-0.1430441290140152,-0.20942820608615875
1761467511126229200,1.353229248046875,0.07039617002010345,-0.20978213846683502,-0.16708767414093018
1761467511136212200,1.363212158203125,0.23834607005119324,-0.2750551998615265,-0.14842328429222107
1761467511146192000,1.37319189453125,0.36419588327407837,-0.15441560745239258,-0.1873515099287033
1761467511156174800,1.3831748046875,0.3854087293148041,-0.04442159831523895,-0.36385470628738403
1761467511166158000,1.393157958984375,0.36081576347351074,0.008703941479325294,-0.530697226524353
1761467511176140800,1.403140869140625,0.32137808203697205,-0.1998562514781952,-0.6248846054077148
1761467511186124800,1.413124755859375,0.3453065752983093,-0.49135923385620117,-0.6499236226081848
1761467511196107800,1.423107666015625,0.46786871552467346,-0.5086188912391663,-0.5196492075920105
1761467511206091000,1.433091064453125,0.606769859790802,-0.3282288908958435,-0.33986371755599976
1761467511216075000,1.443074951171875,0.731985330581665,-0.1810695230960846,-0.203126460313797
1761467511226057700,1.4530576171875,0.819414496421814,-0.0968819409608841,-0.09534405916929245
1761467511236040700,1.463040771484375,0.8499152064323425,0.006015040911734104,0.08674982935190201
1761467511246025000,1.47302490234375,0.7899282574653625,0.17002341151237488,0.287693589925766
1761467511256008000,1.483008056640625,0.6490961909294128,0.3009476959705353,0.40491345524787903
1761467511265991000,1.492990966796875,0.4657932221889496,0.33918216824531555,0.3558734655380249
1761467511275975000,1.502974853515625,0.27433890104293823,0.2944352626800537,0.19235999882221222
1761467511285958000,1.5129580078125,0.11696844547986984,0.265235036611557,0.01409280113875866
1761467511295940900,1.52294091796875,0.016437634825706482,0.22976823151111603,-0.12043291330337524
1761467511305924900,1.5329248046875,-0.03897155821323395,0.16406404972076416,-0.20817288756370544
1761467511315907800,1.542907958984375,-0.04858754202723503,0.08154413104057312,-0.2770709693431854
1761467511325890800,1.552890869140625,-0.03772397339344025,0.03399898484349251,-0.3266092538833618
1761467511335873800,1.562873779296875,-0.012218695133924484,0.037649523466825485,-0.36816442012786865
1761467511345857800,1.57285791015625,0.007565129082649946,0.07363894581794739,-0.41186022758483887
1761467511355841000,1.582841064453125,0.001045258715748787,0.17539818584918976,-0.44765791296958923
1761467511365824000,1.592823974609375,-0.041862260550260544,0.3201492428779602,-0.48136526346206665
1761467511375807700,1.602807861328125,-0.10574370622634888,0.434915691614151,-0.5626015067100525
1761467511385790700,1.612790771484375,-0.17004281282424927,0.47629615664482117,-0.6670818328857422
1761467511395774000,1.62277392578125,-0.21047042310237885,0.47798511385917664,-0.7229294180870056
1761467511405758000,1.632758056640625,-0.23183217644691467,0.44583967328071594,-0.7055794596672058
1761467511415741000,1.642740966796875,-0.2638716995716095,0.32726335525512695,-0.5907328128814697
1761467511425724000,1.652723876953125,-0.24186387658119202,0.07627427577972412,-0.42358487844467163
1761467511435708000,1.6627080078125,-0.12162808328866959,-0.3452377915382385,-0.19765180349349976
1761467511445691000,1.67269091796875,0.07680483907461166,-0.7440152764320374,0.09865842014551163
1761467511455673900,1.682673828125,0.32142090797424316,-0.8763965964317322,0.33343416452407837
1761467511465657900,1.692657958984375,0.5471616387367249,-0.7630934715270996,0.43316155672073364
1761467511475640800,1.702640869140625,0.6717240214347839,-0.6925898194313049,0.3043741285800934
1761467511485623800,1.712623779296875,0.6304509043693542,-0.7516813278198242,-0.054058585315942764
1761467511495607800,1.72260791015625,0.45711398124694824,-0.6317092180252075,-0.3964110314846039
1761467511505591000,1.732591064453125,0.20112191140651703,-0.5252562761306763,-0.40086090564727783
1761467511515574000,1.742573974609375,-0.05353986844420433,-0.6109535694122314,-0.0366026945412159
1761467511525557800,1.752557861328125,-0.22655239701271057,-0.710135281085968,0.3551459312438965
1761467511535540700,1.762540771484375,-0.3221696615219116,-0.7184045910835266,0.5355698466300964
1761467511545524000,1.77252392578125,-0.368313729763031,-0.5091994404792786,0.5162022709846497
1761467511555508000,1.782508056640625,-0.36960360407829285,-0.1602294147014618,0.377607136964798
1761467511565491000,1.792490966796875,-0.3269488215446472,0.20214052498340607,0.22688981890678406
1761467511575473700,1.8024736328125,-0.3327380418777466,0.5357081294059753,0.2670013904571533
1761467511585458000,1.8124580078125,-0.1664784848690033,0.7468137145042419,0.1652689129114151
1761467511595441000,1.82244091796875,-0.08777786791324615,0.8371632099151611,0.03984535485506058
1761467511605425000,1.8324248046875,-0.03912404552102089,0.8014448881149292,-0.025535782799124718
1761467511615407900,1.842407958984375,-0.004541981499642134,0.6627302765846252,-0.06018691509962082
1761467511625390800,1.852390869140625,-0.002076693344861269,0.5474058389663696,-0.0468444749712944
1761467511635374800,1.862374755859375,-0.005627604201436043,0.5550619959831238,-0.00960528664290905
1761467511645357800,1.87235791015625,-0.019924785941839218,0.59853595495224,0.05159362033009529
1761467511655340800,1.8823408203125,-0.035226479172706604,0.5839431285858154,0.17486004531383514
1761467511665324800,1.89232470703125,-0.05878693237900734,0.5744806528091431,0.3491586148738861
1761467511675308000,1.90230810546875,-0.10113204270601273,0.6183018088340759,0.532997190952301
1761467511685290800,1.912290771484375,-0.15627439320087433,0.6772631406784058,0.7020304203033447
1761467511695274800,1.922274658203125,-0.20342053472995758,0.7729858756065369,0.8129436373710632
1761467511705258000,1.932258056640625,-0.25325068831443787,0.8859193921089172,0.8615657687187195
1761467511715241000,1.942240966796875,-0.29367250204086304,0.9555398225784302,0.8584069609642029
1761467511725225000,1.952224853515625,-0.34244030714035034,0.969755232334137,0.8290695548057556
1761467511735207700,1.962207763671875,-0.40457430481910706,0.9216662049293518,0.8160848617553711
1761467511745191000,1.97219091796875,-0.43658363819122314,0.7923489809036255,0.8402679562568665
1761467511755175000,1.9821748046875,-0.48123636841773987,0.5892210602760315,0.8954119682312012
1761467511765158000,1.992157958984375,-0.4852800965309143,0.36901354789733887,0.943176805973053
1761467511775142000,2.002141845703125,-0.49119532108306885,0.12146381288766861,0.9540466070175171
1761467511785124900,2.012124755859375,-0.4881494641304016,-0.21085475385189056,0.9388964176177979
1761467511795107800,2.02210791015625,-0.4458988904953003,-0.5285943150520325,0.8752219676971436
1761467511805091800,2.032091796875,-0.38502752780914307,-0.7838138341903687,0.7980928421020508
1761467511815074800,2.04207470703125,-0.27724167704582214,-1.060235619544983,0.7062460780143738
1761467511825058000,2.05205810546875,-0.1579509824514389,-1.197314977645874,0.4988604187965393
1761467511835041800,2.062041748046875,-0.0720168873667717,-1.0525227785110474,0.21218754351139069
1761467511845024800,2.072024658203125,-0.013753581792116165,-0.624573290348053,-0.033707983791828156
1761467511855008000,2.082008056640625,0.010785525664687157,-0.16866935789585114,-0.21440242230892181
1761467511864992000,2.091991943359375,0.01813638210296631,-0.03195757791399956,-0.308064728975296
1761467511874975000,2.10197509765625,0.04064018279314041,-0.13390401005744934,-0.3347981572151184
1761467511884957700,2.111957763671875,0.05158204585313797,-0.28058159351348877,-0.3914947211742401
1761467511894941700,2.121941650390625,0.062257319688797,-0.2878108024597168,-0.48011958599090576
1761467511904925000,2.131925048828125,0.0816776230931282,-0.14463874697685242,-0.47691819071769714
1761467511914909000,2.141908935546875,0.10382618010044098,-0.12650305032730103,-0.4157300293445587
1761467511924892000,2.151891845703125,0.23378977179527283,-0.12551315128803253,-0.39482420682907104
1761467511934875000,2.161875,0.43454939126968384,-0.09431697428226471,-0.376689076423645
1761467511944859000,2.17185888671875,0.6175413131713867,0.005495636723935604,-0.2933371961116791
1761467511954841900,2.181841796875,0.721735954284668,0.1199764683842659,-0.17865629494190216
1761467511964824800,2.191824951171875,0.7898303270339966,0.21558527648448944,-0.08579133450984955
1761467511974808800,2.201808837890625,0.785529613494873,0.25516143441200256,-0.010548625141382217
1761467511984791800,2.211791748046875,0.7009180784225464,0.3150351345539093,0.11248914897441864
1761467511994774800,2.22177490234375,0.5538839101791382,0.4683244526386261,0.23738832771778107
1761467512004758800,2.2317587890625,0.356567919254303,0.6680032014846802,0.3211527168750763
1761467512014742000,2.241741943359375,0.13028524816036224,0.7752175331115723,0.27883413434028625
1761467512024726000,2.25172607421875,-0.05113646760582924,0.6579830050468445,0.11518900841474533
1761467512034709000,2.261708984375,-0.16247260570526123,0.44881489872932434,-0.07422847300767899
1761467512044691700,2.271691650390625,-0.21420425176620483,0.30435889959335327,-0.17076937854290009
1761467512054675700,2.28167578125,-0.17164656519889832,0.2773042917251587,-0.32035043835639954
1761467512064659000,2.291658935546875,-0.1063661053776741,0.3429802656173706,-0.4289722740650177
1761467512074643000,2.301642822265625,-0.02470981702208519,0.3789742887020111,-0.4792730212211609
1761467512084626000,2.3116259765625,0.04840140789747238,0.3341445028781891,-0.5015314817428589
1761467512094609000,2.32160888671875,0.08063413947820663,0.328567773103714,-0.5039469003677368
1761467512104593000,2.331593017578125,0.09517952799797058,0.2689587473869324,-0.49761098623275757
1761467512114576000,2.341575927734375,0.08817905187606812,0.19352881610393524,-0.4859398603439331
1761467512124558800,2.351558837890625,0.05877828598022461,0.15877190232276917,-0.4937154948711395
1761467512134542800,2.36154296875,0.02976333163678646,0.07792780548334122,-0.49892809987068176
1761467512144529400,2.371529296875,0.006690236274152994,-0.004361205734312534,-0.4703526198863983
1761467512154513400,2.381513427734375,0.0166965089738369,-0.07054414600133896,-0.34821391105651855
1761467512164496100,2.39149609375,0.04090730473399162,-0.16411137580871582,-0.17472761869430542
1761467512174479400,2.401479248046875,0.09292223304510117,-0.2411460280418396,0.0049003614112734795
1761467512184463400,2.41146337890625,0.14412736892700195,-0.3722902238368988,0.13171370327472687
1761467512194446300,2.4214462890625,0.20767788589000702,-0.47868096828460693,0.20609229803085327
1761467512204430300,2.431430419921875,0.2901189625263214,-0.5714908242225647,0.2333603948354721
1761467512214413000,2.4414130859375,0.336641401052475,-0.6843066215515137,0.17137034237384796
1761467512224396300,2.451396240234375,0.353940486907959,-0.8208247423171997,0.008099117316305637
1761467512234380300,2.46138037109375,0.3095332682132721,-0.8918372392654419,-0.1781570464372635
1761467512244363300,2.47136328125,0.2102748453617096,-0.7738195061683655,-0.3098357021808624
1761467512254346200,2.48134619140625,0.0718204453587532,-0.6423246264457703,-0.24734169244766235
1761467512264330200,2.491330322265625,-0.035477250814437866,-0.6375572681427002,0.09384813159704208
1761467512274313200,2.501313232421875,-0.07356325536966324,-0.7071837782859802,0.5163317322731018
1761467512284297200,2.511297119140625,-0.07660245895385742,-0.6859501004219055,0.693246603012085
1761467512294280200,2.5212802734375,-0.05969592183828354,-0.6055310368537903,0.5963495373725891
1761467512304263400,2.531263427734375,0.017590608447790146,-0.5015393495559692,0.298877090215683
1761467512314247200,2.5412470703125,0.11144094169139862,-0.25942522287368774,-0.07505453377962112
1761467512324230100,2.551230224609375,0.1967334747314453,0.03955480828881264,-0.38126611709594727
1761467512334214100,2.561214111328125,0.2175101786851883,0.2555440366268158,-0.5477789044380188
1761467512344197400,2.571197265625,0.2048492431640625,0.30361437797546387,-0.6625954508781433
1761467512354180400,2.581180419921875,0.16865713894367218,0.316440224647522,-0.7118396759033203
1761467512364164400,2.591164306640625,0.1403421312570572,0.3404283821582794,-0.706631064414978
1761467512374147000,2.60114697265625,0.11340484768152237,0.38468918204307556,-0.6518824100494385
1761467512384131000,2.611131103515625,0.09305989742279053,0.42889073491096497,-0.5343488454818726
1761467512394114300,2.6211142578125,0.03773646429181099,0.4710308313369751,-0.362966924905777
1761467512404098300,2.631098388671875,0.009416673332452774,0.4709165692329407,-0.1857103854417801
1761467512414081300,2.641081298828125,-0.023339780047535896,0.42089810967445374,-0.0021357492078095675
1761467512424064300,2.651064208984375,-0.06546646356582642,0.3830615282058716,0.17342355847358704
1761467512434048300,2.66104833984375,-0.11738642305135727,0.3830481767654419,0.33112284541130066
1761467512444031200,2.67103125,-0.18032222986221313,0.3740059435367584,0.477022260427475
1761467512454015200,2.68101513671875,-0.25952741503715515,0.3761216700077057,0.5964837670326233
1761467512463998200,2.690998291015625,-0.3649129569530487,0.411363810300827,0.6827462315559387
1761467512473981200,2.700981201171875,-0.46387580037117004,0.4460887014865875,0.7575394511222839
1761467512483965200,2.710965087890625,-0.5483683347702026,0.447250097990036,0.7930114269256592
1761467512493948200,2.7209482421875,-0.6201837658882141,0.367367148399353,0.786978006362915
1761467512503932200,2.73093212890625,-0.6724821329116821,0.24487797915935516,0.7595295906066895
1761467512513915400,2.740915283203125,-0.6989468932151794,0.1372506320476532,0.7198665738105774
1761467512523898400,2.7508984375,-0.7133681774139404,-0.026040025055408478,0.6534487009048462
1761467512533882000,2.760882080078125,-0.716077983379364,-0.1636047214269638,0.5447284579277039
1761467512543865000,2.770864990234375,-0.7030290365219116,-0.27796751260757446,0.4073556661605835
1761467512553849300,2.780849365234375,-0.6470550894737244,-0.4034864902496338,0.28411009907722473
1761467512563832300,2.790832275390625,-0.5324914455413818,-0.5719980597496033,0.2614990770816803
1761467512573815300,2.800815185546875,-0.3691038489341736,-0.766937255859375,0.28332966566085815
1761467512583799300,2.81079931640625,-0.1844724863767624,-0.7556438446044922,0.2750062048435211
1761467512593782300,2.8207822265625,0.013838376849889755,-0.41783013939857483,0.15595003962516785
1761467512603766300,2.830766357421875,0.1536596566438675,-0.06025603413581848,-0.06470377743244171
1761467512613749200,2.840749267578125,0.17731843888759613,-0.2381502240896225,-0.3789244294166565
1761467512623732200,2.850732177734375,0.14024509489536285,-0.5163605213165283,-0.5685145854949951
1761467512633716200,2.86071630859375,0.06156083568930626,-0.47831952571868896,-0.5068630576133728
1761467512643699200,2.87069921875,-0.01761920563876629,-0.16881811618804932,-0.33579787611961365
1761467512653683200,2.88068310546875,-0.05766003206372261,0.10782361030578613,-0.17541413009166718
1761467512663666200,2.890666259765625,-0.051756601780653,0.21594183146953583,-0.07382145524024963
1761467512673650200,2.900650146484375,0.006202795077115297,0.19197329878807068,0.05422177165746689
1761467512683633400,2.91063330078125,0.1083560660481453,0.17467527091503143,0.2538467347621918
1761467512693616000,2.9206162109375,0.19774465262889862,0.2159252166748047,0.4842712879180908
1761467512703600000,2.93060009765625,0.22795262932777405,0.34767070412635803,0.6126329898834229
1761467512713583000,2.9405830078125,0.20159149169921875,0.5263453125953674,0.6098918914794922
1761467512723567400,2.9505673828125,0.13619649410247803,0.6880050301551819,0.490912526845932
1761467512733550300,2.96055029296875,0.041848424822092056,0.7267438769340515,0.31258565187454224
1761467512743533000,2.970532958984375,-0.07661430537700653,0.6648416519165039,0.1118440181016922
1761467512753517000,2.98051708984375,-0.17342816293239594,0.5439078211784363,-0.06274797022342682
1761467512763500300,2.990500244140625,-0.20876619219779968,0.3551325500011444,-0.21017496287822723
1761467512773484300,3.000484375,-0.17306357622146606,0.13219723105430603,-0.29487788677215576
1761467512783467300,3.01046728515625,-0.10984732210636139,-0.02426587976515293,-0.3203752636909485
1761467512793450200,3.0204501953125,-0.032836686819791794,-0.06294930726289749,-0.32092875242233276
1761467512803434200,3.030434326171875,0.07584478706121445,-0.03685059770941734,-0.300771564245224
1761467512813417200,3.040417236328125,0.18265806138515472,0.008686631917953491,-0.338192880153656
1761467512823401200,3.050401123046875,0.2595137059688568,0.028205472975969315,-0.43255239725112915
1761467512833384200,3.06038427734375,0.3037048578262329,0.04748963564634323,-0.5206736326217651
1761467512843367400,3.070367431640625,0.3107720613479614,0.10239975899457932,-0.5805457830429077
1761467512853351400,3.080351318359375,0.3008984923362732,0.16610495746135712,-0.5766921043395996
1761467512863334100,3.090334228515625,0.2988550662994385,0.23445472121238708,-0.5055971145629883
1761467512873318100,3.100318115234375,0.29367390275001526,0.2755551040172577,-0.4131728708744049
1761467512883301400,3.11030126953125,0.3008047938346863,0.26756376028060913,-0.3071766793727875
1761467512893284400,3.120284423828125,0.29748088121414185,0.2043253630399704,-0.1606249362230301
1761467512903268400,3.130268310546875,0.2692734897136688,0.029010800644755363,0.01911579631268978
1761467512913251000,3.1402509765625,0.2344793677330017,-0.26908788084983826,0.1722789853811264
1761467512923235000,3.150235107421875,0.1919526755809784,-0.6653196811676025,0.22110165655612946
1761467512933218300,3.16021826171875,0.13623297214508057,-0.8572717308998108,0.18791112303733826
1761467512943202300,3.170202392578125,0.1383320689201355,-0.49575453996658325,0.13094930350780487
1761467512953185300,3.180185302734375,0.16223198175430298,-0.06047993525862694,0.07656949758529663
1761467512963168300,3.190168212890625,0.13701237738132477,-0.23827603459358215,0.1658053696155548
1761467512973152300,3.20015234375,0.13873404264450073,-0.49995189905166626,0.5939723253250122
1761467512983135200,3.21013525390625,0.05085238814353943,-0.48881563544273376,1.080409288406372
1761467512993118200,3.2201181640625,-0.12082725763320923,-0.273188978433609,1.2419871091842651
1761467513003102200,3.230102294921875,-0.32077524065971375,-0.014943063259124756,1.0432928800582886
1761467513013085400,3.24008544921875,-0.5186874866485596,0.2868686318397522,0.678257405757904
1761467513023069200,3.250069091796875,-0.6777898073196411,0.6566826701164246,0.31365570425987244
1761467513033052200,3.26005224609375,-0.7547271847724915,0.9788389205932617,0.10726062953472137
1761467513043036200,3.2700361328125,-0.7507346272468567,1.12709379196167,0.02937728352844715
1761467513053019400,3.280019287109375,-0.6932157874107361,1.1416304111480713,0.0024287146516144276
1761467513063002400,3.29000244140625,-0.6294000744819641,1.1102606058120728,0.018124055117368698
1761467513072986400,3.299986328125,-0.5843346118927002,1.0419913530349731,0.12920163571834564
1761467513082969000,3.309968994140625,-0.49804311990737915,0.9842346906661987,0.12222522497177124
1761467513092952300,3.319952392578125,-0.46053534746170044,0.9125077724456787,0.13739563524723053
1761467513102936300,3.329936279296875,-0.4340728521347046,0.8320441246032715,0.22927789390087128
1761467513112919300,3.339919189453125,-0.3891434371471405,0.7569913268089294,0.4002642333507538
1761467513122903300,3.3499033203125,-0.3566440939903259,0.693069577217102,0.6074510216712952
1761467513132886300,3.35988623046875,-0.3421577215194702,0.5903503894805908,0.8051908016204834
1761467513142869200,3.369869140625,-0.3594357967376709,0.48666954040527344,0.9930225014686584
1761467513152853800,3.379853759765625,-0.42462408542633057,0.3774680495262146,1.163043737411499
1761467513162836700,3.389836669921875,-0.5176264643669128,0.2701277434825897,1.3021327257156372
1761467513172820700,3.39982080078125,-0.5912243127822876,0.22520649433135986,1.4240045547485352
1761467513182803700,3.4098037109375,-0.6285509467124939,0.21656534075737,1.4777276515960693
1761467513192786700,3.41978662109375,-0.6460767984390259,0.14907707273960114,1.4117931127548218
1761467513202770700,3.429770751953125,-0.653851330280304,0.049555011093616486,1.1775894165039062
1761467513212753700,3.439753662109375,-0.6781419515609741,-0.0420396625995636,0.82904452085495
1761467513222737700,3.449737548828125,-0.7247341871261597,-0.10308996587991714,0.4440281391143799
1761467513232721000,3.459720947265625,-0.7608791589736938,-0.17378856241703033,0.1733231246471405
1761467513242703600,3.46970361328125,-0.7276372909545898,-0.2970881462097168,0.15713456273078918
1761467513252687600,3.4796875,-0.6761316657066345,-0.4304424226284027,0.2879854142665863
1761467513262670800,3.4896708984375,-0.576421856880188,-0.5118616819381714,0.41894423961639404
1761467513272654800,3.49965478515625,-0.4366011917591095,-0.4347814619541168,0.4972716271877289
1761467513282637800,3.509637939453125,-0.2827639579772949,-0.3574666976928711,0.46873611211776733
1761467513292620500,3.51962060546875,-0.1475071758031845,-0.48186713457107544,0.26560884714126587
1761467513302604800,3.529604736328125,-0.045954976230859756,-0.5614069700241089,-0.05271293222904205
1761467513312587800,3.539587890625,-0.004450727254152298,-0.41398170590400696,-0.35698026418685913
1761467513322570800,3.54957080078125,0.02881668135523796,-0.19403602182865143,-0.5335814356803894
1761467513332554800,3.5595546875,0.05413321405649185,0.0026431323494762182,-0.5639421343803406
1761467513342537700,3.569537841796875,0.11844615638256073,0.1272284835577011,-0.5198468565940857
1761467513352521700,3.579521728515625,0.1928635537624359,0.19578880071640015,-0.4371334910392761
1761467513362504700,3.589504638671875,0.2606540620326996,0.23327626287937164,-0.3135069012641907
1761467513372487700,3.59948779296875,0.28856438398361206,0.2885891795158386,-0.16925673186779022
1761467513382471700,3.6094716796875,0.2743273973464966,0.2909093201160431,-0.045976072549819946
1761467513392455000,3.619454833984375,0.23968610167503357,0.29963618516921997,0.05095397308468819
1761467513402437600,3.629437744140625,0.18406838178634644,0.320701003074646,0.09015144407749176
1761467513412421600,3.639421630859375,0.124288409948349,0.33779966831207275,0.06313374638557434
1761467513422404900,3.64940478515625,0.05924123525619507,0.3652978539466858,-0.009704246185719967
1761467513432388900,3.659388916015625,-0.01608121208846569,0.4063994884490967,-0.10487204045057297
1761467513442371800,3.669371826171875,-0.07603509724140167,0.39710161089897156,-0.2270299196243286
1761467513452354600,3.6793544921875,-0.114178866147995,0.3277011215686798,-0.35895800590515137
1761467513462338600,3.689338623046875,-0.11412905901670456,0.24866944551467896,-0.4515902101993561
1761467513472321800,3.69932177734375,-0.09690353274345398,0.18243367969989777,-0.5042160749435425
1761467513482305800,3.709305908203125,-0.053257789462804794,0.12164198607206345,-0.5300279855728149
1761467513492288800,3.719288818359375,-0.015107590705156326,0.06944680958986282,-0.5415951609611511
1761467513502271700,3.729271728515625,0.010025459341704845,0.043087370693683624,-0.55251145362854
1761467513512255700,3.739255859375,0.033825937658548355,-0.0003985278308391571,-0.5556142330169678
1761467513522238700,3.74923876953125,0.04281437397003174,-0.046592120081186295,-0.5435141921043396
1761467513532221700,3.7592216796875,0.04329678416252136,-0.07772811502218246,-0.5325276851654053
1761467513542205700,3.769205810546875,0.04530373960733414,-0.11163201928138733,-0.5159491896629333
1761467513552188700,3.779188720703125,0.06552847474813461,-0.16254615783691406,-0.47384345531463623
1761467513562171600,3.789171630859375,0.0808565616607666,-0.2340397834777832,-0.45498135685920715
1761467513572155600,3.79915576171875,0.10004226863384247,-0.3105255365371704,-0.46750152111053467
1761467513582139000,3.809138916015625,0.11803778260946274,-0.33646100759506226,-0.48205435276031494
1761467513592123000,3.819122802734375,0.13338910043239594,-0.34139561653137207,-0.5083884596824646
1761467513602105900,3.82910595703125,0.15209273993968964,-0.3944045305252075,-0.5712071061134338
1761467513612088600,3.839088623046875,0.2112051546573639,-0.5011212229728699,-0.6210793852806091
1761467513622072600,3.849072509765625,0.2806209623813629,-0.5697380900382996,-0.6291769742965698
1761467513632055800,3.859055908203125,0.3471989631652832,-0.5883331894874573,-0.6127297878265381
1761467513642038800,3.869038818359375,0.41104692220687866,-0.4963758587837219,-0.5654032826423645
1761467513652022800,3.879022705078125,0.4752082824707031,-0.40343570709228516,-0.5172286033630371
1761467513662005800,3.889005859375,0.5349273085594177,-0.32707861065864563,-0.4620095193386078
1761467513671989800,3.89898974609375,0.5646500587463379,-0.27124014496803284,-0.40535327792167664
1761467513681972700,3.90897265625,0.5504179000854492,-0.2292032241821289,-0.3467501699924469
1761467513691955700,3.918955810546875,0.5053350329399109,-0.23373110592365265,-0.2592220604419708
1761467513701939700,3.928939697265625,0.44032779335975647,-0.2706260085105896,-0.1955791711807251
1761467513711922700,3.938922607421875,0.38144174218177795,-0.2921278774738312,-0.13605517148971558
1761467513721905700,3.94890576171875,0.33865484595298767,-0.34997016191482544,-0.04979059472680092
1761467513731889700,3.9588896484375,0.3303910493850708,-0.42231351137161255,0.07416067272424698
1761467513741873000,3.968872802734375,0.3291233777999878,-0.47602972388267517,0.23313941061496735
1761467513751855900,3.97885595703125,0.3226834833621979,-0.4643282890319824,0.37562161684036255
1761467513761839900,3.98883984375,0.3207039535045624,-0.42397210001945496,0.4610292315483093
1761467513771822600,3.998822509765625,0.3227187991142273,-0.3724805414676666,0.505370557308197
1761467513781806600,4.008806640625,0.3081102967262268,-0.3266129195690155,0.5048022270202637
1761467513791789800,4.018789794921875,0.24798749387264252,-0.24122557044029236,0.45391085743904114
1761467513801772800,4.028772705078125,0.161152184009552,-0.0669347420334816,0.3771742582321167
1761467513811756800,4.0387568359375,0.046931684017181396,0.15187303721904755,0.2852894365787506
1761467513821739800,4.04873974609375,-0.05427056550979614,0.31277480721473694,0.20268671214580536
1761467513831722800,4.05872265625,-0.11951325833797455,0.4290764331817627,0.15067023038864136
1761467513841706800,4.068706787109375,-0.16411879658699036,0.47085848450660706,0.12917132675647736
1761467513851689700,4.078689697265625,-0.19640222191810608,0.5028603076934814,0.1335139274597168
1761467513861672700,4.088672607421875,-0.2046968936920166,0.5253203511238098,0.19549687206745148
1761467513871656700,4.09865673828125,-0.20764687657356262,0.53123939037323,0.2526550590991974
1761467513881639700,4.1086396484375,-0.18494504690170288,0.4442048966884613,0.3225180506706238
1761467513891622700,4.11862255859375,-0.15263083577156067,0.2865193486213684,0.3987346887588501
1761467513901607000,4.12860693359375,-0.11910618096590042,0.14355818927288055,0.45016831159591675
1761467513911590000,4.13858984375,-0.0929231196641922,0.05721871927380562,0.4844406843185425
1761467513921573600,4.14857373046875,-0.09516576677560806,-0.0016344757750630379,0.5135961771011353
1761467513931556600,4.158556640625,-0.0979892686009407,-0.027114445343613625,0.555532693862915
1761467513941539800,4.168539794921875,-0.1360437124967575,-0.025057684630155563,0.5976002812385559
1761467513951523800,4.17852392578125,-0.18306691944599152,-0.06932424753904343,0.6334934830665588
1761467513961506800,4.1885068359375,-0.23319639265537262,-0.17533031105995178,0.6683140397071838
1761467513971489800,4.19848974609375,-0.26190030574798584,-0.3114234507083893,0.696527361869812
1761467513981473800,4.208473876953125,-0.27209755778312683,-0.481355756521225,0.7007932066917419
1761467513991456800,4.218456787109375,-0.2626410126686096,-0.7151769399642944,0.6694391369819641
1761467514001439700,4.228439697265625,-0.21769297122955322,-1.00547194480896,0.6082676649093628
1761467514011423700,4.238423828125,-0.12066034227609634,-1.225980520248413,0.49166181683540344
1761467514021406700,4.24840673828125,0.01257760263979435,-1.2769384384155273,0.34342601895332336
1761467514031389700,4.2583896484375,0.13768921792507172,-1.1629122495651245,0.23131698369979858
1761467514041373700,4.268373779296875,0.2258012294769287,-0.8835442066192627,0.21910107135772705
1761467514051356700,4.278356689453125,0.28910037875175476,-0.545375645160675,0.24905617535114288
1761467514061340000,4.28833984375,0.30219486355781555,-0.3352833688259125,0.24178999662399292
1761467514071323600,4.29832373046875,0.26025158166885376,-0.3316448926925659,0.11207683384418488
1761467514081306600,4.308306640625,0.1978907436132431,-0.4371531903743744,-0.11663197726011276
1761467514091290600,4.31829052734375,0.12037412077188492,-0.4783106744289398,-0.3562856912612915
1761467514101273900,4.32827392578125,0.06908270716667175,-0.40946128964424133,-0.4685935974121094
1761467514111256800,4.3382568359375,0.05216274783015251,-0.3220400810241699,-0.46285244822502136
1761467514121239600,4.348239501953125,0.09212800115346909,-0.28204551339149475,-0.4052112400531769
1761467514131223600,4.3582236328125,0.18135018646717072,-0.25213539600372314,-0.3290380537509918
1761467514141206800,4.368206787109375,0.2706824541091919,-0.14891766011714935,-0.2491173893213272
1761467514151188000,4.37818798828125,0.33301812410354614,-0.019828449934720993,-0.14404506981372833
1761467514161171000,4.3881708984375,0.3597855567932129,0.07804591208696365,-0.037482939660549164
1761467514171153700,4.398153564453125,0.34647998213768005,0.14012371003627777,0.04413279891014099
1761467514181138000,4.408137939453125,0.2927139401435852,0.18513992428779602,0.09246145188808441
1761467514191121000,4.418120849609375,0.2083219587802887,0.2560272514820099,0.11213749647140503
1761467514201104000,4.428103759765625,0.09278231859207153,0.30255216360092163,0.06899828463792801
1761467514211088000,4.438087890625,-0.035690031945705414,0.3354734480381012,0.023890212178230286
1761467514221070800,4.44807080078125,-0.15480417013168335,0.36428138613700867,-0.013069403357803822
1761467514231053800,4.4580537109375,-0.24325916171073914,0.3113552927970886,-0.028401602059602737
1761467514241037800,4.468037841796875,-0.2840089797973633,0.22571787238121033,-0.01685440167784691
1761467514251020800,4.478020751953125,-0.2723195254802704,0.14133816957473755,-0.023818980902433395
1761467514261004000,4.488004150390625,-0.22566814720630646,0.13566084206104279,-0.06484577804803848
1761467514270988000,4.497988037109375,-0.16053251922130585,0.19626078009605408,-0.10922587662935257
1761467514280970800,4.507970703125,-0.08532032370567322,0.24926701188087463,-0.17594844102859497
1761467514290954000,4.5179541015625,-0.01875704899430275,0.2831125557422638,-0.26550713181495667
1761467514300938000,4.52793798828125,0.03065204620361328,0.3497594892978668,-0.3937191665172577
1761467514310921000,4.5379208984375,0.07083306461572647,0.4389704167842865,-0.5392029285430908
1761467514320903700,4.547903564453125,0.10795113444328308,0.4976377487182617,-0.6874623894691467
1761467514330887700,4.5578876953125,0.140346497297287,0.521458625793457,-0.7925335168838501
1761467514340871000,4.567870849609375,0.15690815448760986,0.5330617427825928,-0.813150942325592
1761467514350854000,4.57785400390625,0.14477838575839996,0.4677266478538513,-0.7568187713623047
1761467514360838000,4.587837890625,0.12429921329021454,0.2953479588031769,-0.6289606690406799
1761467514370820900,4.59782080078125,0.10643520951271057,0.02955581620335579,-0.46830427646636963
1761467514380803800,4.607803955078125,0.12518252432346344,-0.16934210062026978,-0.27496251463890076
1761467514390787800,4.617787841796875,0.2201160490512848,-0.36424919962882996,-0.05052797123789787
1761467514400770800,4.627770751953125,0.37319666147232056,-0.6153815984725952,0.17135515809059143
1761467514410754000,4.637754150390625,0.5227736830711365,-0.7994471192359924,0.30558112263679504
1761467514420738000,4.647738037109375,0.6235178709030151,-0.7483809590339661,0.2742207944393158
1761467514430720800,4.657720703125,0.6859726905822754,-0.5801181197166443,0.11648204922676086
1761467514440703700,4.667703857421875,0.7030557990074158,-0.34630855917930603,-0.10830791294574738
1761467514450688000,4.67768798828125,0.5823161005973816,-0.11434631049633026,-0.286252498626709
1761467514460671000,4.6876708984375,0.42164096236228943,-0.1439894139766693,-0.188547745347023
1761467514470653700,4.69765380859375,0.28694191575050354,-0.38949862122535706,0.166717529296875
1761467514480637700,4.7076376953125,0.1445286124944687,-0.5375446081161499,0.487407922744751
1761467514490621000,4.717620849609375,0.006044815294444561,-0.4642241597175598,0.6054090261459351
1761467514500604000,4.72760400390625,-0.12806957960128784,-0.3332405686378479,0.5177617073059082
1761467514510588000,4.737587890625,-0.21490393579006195,-0.15330880880355835,0.3676409423351288
1761467514520571000,4.74757080078125,-0.2650909423828125,0.04825307056307793,0.24623781442642212
1761467514530553900,4.757553955078125,-0.28254470229148865,0.23868319392204285,0.08695435523986816
1761467514540537900,4.767537841796875,-0.269443541765213,0.39703208208084106,-0.11358407139778137
1761467514550520800,4.777520751953125,-0.2374585121870041,0.5057404637336731,-0.2862902879714966
1761467514560504000,4.787504150390625,-0.19386176764965057,0.49638399481773376,-0.41573694348335266
1761467514570488000,4.797488037109375,-0.15113922953605652,0.4626687169075012,-0.4840806722640991
1761467514580470800,4.807470703125,-0.12273714691400528,0.45463743805885315,-0.5127435326576233
1761467514590453800,4.817453857421875,-0.1212017834186554,0.4596773386001587,-0.49270254373550415
1761467514600437000,4.82743701171875,-0.12287531793117523,0.4696168005466461,-0.42000383138656616
1761467514610421000,4.8374208984375,-0.1484106034040451,0.47617217898368835,-0.34306201338768005
1761467514620403700,4.84740380859375,-0.16116474568843842,0.4689326286315918,-0.22647467255592346
1761467514630387000,4.857386962890625,-0.17101217806339264,0.47722020745277405,-0.07504810392856598
1761467514640371000,4.867370849609375,-0.20617789030075073,0.5399038791656494,0.04932977259159088
1761467514650354000,4.87735400390625,-0.25440141558647156,0.6335981488227844,0.14140041172504425
1761467514660337000,4.8873369140625,-0.3014485538005829,0.6441967487335205,0.2268306165933609
1761467514670321000,4.89732080078125,-0.3591659367084503,0.6219523549079895,0.32727620005607605
1761467514680303900,4.907303955078125,-0.42107856273651123,0.5709922313690186,0.43876489996910095
1761467514690286800,4.917286865234375,-0.4828948676586151,0.4690500497817993,0.5285980701446533
1761467514700270800,4.927270751953125,-0.5561731457710266,0.35530537366867065,0.6201682090759277
1761467514710254000,4.937254150390625,-0.6313368082046509,0.17208249866962433,0.7170776128768921
1761467514720236800,4.94723681640625,-0.6487365961074829,-0.11383527517318726,0.8189696073532104
1761467514730220800,4.957220703125,-0.6035686135292053,-0.4222455322742462,0.912522554397583
1761467514740203800,4.967203857421875,-0.531648576259613,-0.7027299404144287,0.9435729384422302
1761467514750187000,4.97718701171875,-0.44447261095046997,-0.930122435092926,0.9095511436462402
1761467514760171000,4.9871708984375,-0.36640897393226624,-1.021959662437439,0.7767566442489624
1761467514770153700,4.99715380859375,-0.2962978482246399,-0.9081807136535645,0.5231432914733887
1761467514780136700,5.00713671875,-0.2614698112010956,-0.6393955945968628,0.15318256616592407
1761467514790121000,5.017120849609375,-0.270126610994339,-0.21466517448425293,-0.10191693156957626
1761467514800104000,5.02710400390625,-0.3009793162345886,0.06818623095750809,-0.15444032847881317
1761467514810087000,5.0370869140625,-0.3053254783153534,-0.0017407501582056284,-0.09928681701421738
1761467514820070000,5.04706982421875,-0.2970196008682251,-0.0994153767824173,-0.10935649275779724
1761467514830054000,5.057053955078125,-0.2892899215221405,-0.25767824053764343,-0.22783933579921722
1761467514840036900,5.067036865234375,-0.24738585948944092,-0.5092811584472656,-0.44053804874420166
1761467514850019800,5.077019775390625,-0.20315639674663544,-0.6662468314170837,-0.5358832478523254
1761467514860003800,5.08700390625,-0.19983729720115662,-0.5827953815460205,-0.5306591987609863
1761467514869986800,5.09698681640625,-0.12471451610326767,-0.27275601029396057,-0.5375685095787048
1761467514879969800,5.1069697265625,0.03582402318716049,-0.005757613107562065,-0.42254024744033813
1761467514889953800,5.116953857421875,0.22181612253189087,0.004182592500001192,-0.1921028047800064
1761467514899937000,5.12693701171875,0.3616488575935364,-0.08863256126642227,0.029820803552865982
1761467514909920000,5.136919921875,0.42460909485816956,-0.10486918687820435,0.19678768515586853
1761467514919904000,5.146904052734375,0.43493762612342834,-0.032473016530275345,0.2725948393344879
1761467514929886700,5.15688671875,0.40569043159484863,0.11477554589509964,0.3000187277793884
1761467514939870000,5.166869873046875,0.33234912157058716,0.2742493748664856,0.25780388712882996
1761467514949853000,5.17685302734375,0.23848611116409302,0.36066269874572754,0.1602126955986023
1761467514959837000,5.1868369140625,0.13442815840244293,0.38503381609916687,0.01470875646919012
1761467514969820000,5.19681982421875,0.03506416082382202,0.33844247460365295,-0.14138023555278778
1761467514979803000,5.206802978515625,-0.051996439695358276,0.23817896842956543,-0.2820444107055664
1761467514989787000,5.216786865234375,-0.10927721858024597,0.136351078748703,-0.38265979290008545
1761467514999769900,5.226769775390625,-0.11532765626907349,0.08326495438814163,-0.46402522921562195
1761467515009753000,5.236753173828125,-0.10334331542253494,0.10437378287315369,-0.5305963754653931
1761467515019736800,5.24673681640625,-0.08455072343349457,0.1305992752313614,-0.5930466651916504
1761467515029719800,5.2567197265625,-0.06318389624357224,0.12930744886398315,-0.6391914486885071
1761467515039702800,5.266702880859375,-0.048621729016304016,0.08356126397848129,-0.6344494223594666
1761467515049686000,5.27668603515625,-0.052392370998859406,0.004676861688494682,-0.5874989032745361
1761467515059670000,5.286669921875,-0.048542771488428116,-0.05886802449822426,-0.5380751490592957
1761467515069652700,5.29665283203125,-0.043220099061727524,-0.07684902846813202,-0.49870187044143677
1761467515079636000,5.306635986328125,-0.04354580119252205,-0.11527098715305328,-0.46820229291915894
1761467515089620000,5.316619873046875,-0.027854954823851585,-0.18133287131786346,-0.436718225479126
1761467515099603000,5.32660302734375,-0.004642046522349119,-0.2053292840719223,-0.40400823950767517
1761467515109585700,5.336585693359375,0.02363687939941883,-0.18975260853767395,-0.3806949853897095
1761467515119569700,5.346569580078125,0.06563066691160202,-0.2005770355463028,-0.4020253121852875
1761467515129553000,5.356552978515625,0.11656251549720764,-0.2012687474489212,-0.45546451210975647
1761467515139536000,5.366535888671875,0.20024169981479645,-0.1491387039422989,-0.5070651173591614
1761467515149518000,5.37651806640625,0.28568390011787415,-0.10428016632795334,-0.5309150218963623
1761467515159502000,5.386502197265625,0.34759068489074707,-0.08787109702825546,-0.5291157364845276
1761467515169485000,5.396485107421875,0.3927219808101654,-0.13396704196929932,-0.49095046520233154
1761467515179468000,5.406468017578125,0.43680503964424133,-0.1856113225221634,-0.44453370571136475
1761467515189452300,5.416452392578125,0.5012909173965454,-0.15434403717517853,-0.3840867877006531
1761467515199435300,5.426435302734375,0.5483508706092834,-0.09072830528020859,-0.3388311564922333
1761467515209418000,5.43641796875,0.5791149735450745,-0.09552618116140366,-0.3139868676662445
1761467515219402000,5.446402099609375,0.6115328073501587,-0.11526286602020264,-0.3082245886325836
1761467515229385200,5.45638525390625,0.6243923902511597,-0.11152458935976028,-0.3098456561565399
1761467515239368200,5.4663681640625,0.5805754065513611,-0.12734456360340118,-0.30342450737953186
1761467515249351000,5.476350830078125,0.5239402651786804,-0.14237603545188904,-0.27632349729537964
1761467515259335200,5.486335205078125,0.449998140335083,-0.15432217717170715,-0.19850113987922668
1761467515269318100,5.496318115234375,0.3715847134590149,-0.14824312925338745,-0.07308921217918396
1761467515279301000,5.506301025390625,0.2975749373435974,-0.15477347373962402,0.10381392389535904
1761467515289285000,5.51628515625,0.2097431868314743,-0.14319643378257751,0.27520751953125
1761467515299268000,5.52626806640625,0.1267644166946411,-0.10276591777801514,0.39395999908447266
1761467515309251000,5.5362509765625,0.054882537573575974,0.002240490633994341,0.48227912187576294
1761467515319234000,5.546234130859375,-0.013718360103666782,0.09574087709188461,0.5432266592979431
1761467515329218000,5.556218017578125,-0.0724726989865303,0.11963154375553131,0.5411901473999023
1761467515339201300,5.566201171875,-0.15480272471904755,0.1273331344127655,0.4897858202457428
1761467515349184000,5.57618408203125,-0.23534747958183289,0.18930813670158386,0.4070230722427368
1761467515359168000,5.58616796875,-0.32320651412010193,0.3049987852573395,0.31708255410194397
1761467515369151200,5.596151123046875,-0.4437201917171478,0.47280412912368774,0.23416396975517273
1761467515379134200,5.60613427734375,-0.5740459561347961,0.6335946321487427,0.14464233815670013
1761467515389117200,5.6161171875,-0.6766406297683716,0.7520026564598083,0.1189393475651741
1761467515399101000,5.626100830078125,-0.7254968285560608,0.807257890701294,0.16088145971298218
1761467515409084200,5.636084228515625,-0.7163994908332825,0.8216552138328552,0.25965574383735657
1761467515419067100,5.646067138671875,-0.648367166519165,0.7647983431816101,0.35096752643585205
1761467515429051100,5.656051025390625,-0.5609512329101562,0.6721628308296204,0.44748154282569885
1761467515439034000,5.6660341796875,-0.4832359254360199,0.5226020812988281,0.5279628038406372
1761467515449017000,5.67601708984375,-0.4239458441734314,0.36679041385650635,0.6410950422286987
1761467515459000000,5.686,-0.3611953854560852,0.2191346436738968,0.7382761836051941
1761467515468984000,5.695984130859375,-0.31155866384506226,0.1104445531964302,0.8190299868583679
1761467515478967300,5.70596728515625,-0.28885573148727417,-0.02115289308130741,0.8867243528366089
1761467515488950000,5.715949951171875,-0.26711106300354004,-0.2190859019756317,0.9243658185005188
1761467515498934000,5.72593408203125,-0.19187220931053162,-0.48947450518608093,0.9041439294815063
1761467515508917000,5.7359169921875,-0.15403786301612854,-0.7246866822242737,0.8624592423439026
1761467515518900200,5.745900146484375,-0.04289989545941353,-0.9346460103988647,0.564904510974884
1761467515528883200,5.75588330078125,-0.007072380743920803,-1.07879638671875,0.22251875698566437
1761467515538867200,5.7658671875,0.06595122814178467,-1.084015965461731,-0.13588254153728485
1761467515548850200,5.77585009765625,0.08755109459161758,-0.8264831900596619,-0.4180788993835449
1761467515558833200,5.785833251953125,0.07414980232715607,-0.4989285171031952,-0.44365084171295166
1761467515568817200,5.795817138671875,0.027081940323114395,-0.3694545328617096,-0.280547559261322
1761467515578800000,5.805800048828125,-0.012888645753264427,-0.4777165353298187,-0.1815168559551239
1761467515588783000,5.815783203125,0.031135380268096924,-0.5642061829566956,-0.314659982919693
1761467515598766000,5.82576611328125,0.06418680399656296,-0.594578206539154,-0.6423681378364563
1761467515608750000,5.83575,0.07702997326850891,-0.4702417850494385,-0.8773728013038635
1761467515618733000,5.845733154296875,0.1436963528394699,-0.291063517332077,-0.8022223711013794
1761467515628716300,5.85571630859375,0.27930471301078796,-0.17263317108154297,-0.538196325302124
1761467515638700000,5.865699951171875,0.43388789892196655,-0.22631476819515228,-0.2288273125886917
1761467515648683000,5.87568310546875,0.5637082457542419,-0.30128899216651917,0.08004773408174515
1761467515658666200,5.885666259765625,0.6360591650009155,-0.34143319725990295,0.30249544978141785
1761467515668649200,5.895649169921875,0.6506208777427673,-0.39159056544303894,0.4032834768295288
1761467515678633200,5.90563330078125,0.6260932087898254,-0.4459848403930664,0.4418681561946869
1761467515688616000,5.915615966796875,0.5844714045524597,-0.4875923991203308,0.4425596296787262
1761467515698599200,5.92559912109375,0.5219424962997437,-0.4828389286994934,0.38518208265304565
1761467515708583200,5.935583251953125,0.41227859258651733,-0.4280986785888672,0.2307678461074829
1761467515718566100,5.945566162109375,0.2636384963989258,-0.3204984664916992,0.017016954720020294
1761467515728549000,5.955549072265625,0.09943367540836334,-0.21672485768795013,-0.19559746980667114
1761467515738532000,5.965531982421875,-0.024706918746232986,-0.1155838593840599,-0.39146098494529724
1761467515748516000,5.97551611328125,-0.0786057561635971,-0.05104567110538483,-0.48971226811408997
1761467515758499000,5.9854990234375,-0.05119490250945091,0.005289771594107151,-0.4606049954891205
1761467515768482300,5.995482421875,0.024517545476555824,-0.0006637205369770527,-0.3235432803630829
1761467515778465000,6.005465087890625,0.08608371019363403,-0.07472995668649673,-0.1417125016450882
1761467515788449000,6.015448974609375,0.11872409284114838,-0.12940704822540283,0.02771914377808571
1761467515798432000,6.025431884765625,0.13828368484973907,-0.1253441423177719,0.11746606975793839
1761467515808415200,6.035415283203125,0.153915137052536,-0.10860427469015121,0.0923951268196106
1761467515818399200,6.045399169921875,0.14360152184963226,-0.08175668865442276,-0.01029316708445549
1761467515828382000,6.0553818359375,0.11940483748912811,-0.0389477014541626,-0.1453244835138321
1761467515838365200,6.065365234375,0.07223599404096603,0.014658800326287746,-0.26398801803588867
1761467515848348200,6.07534814453125,0.04203025996685028,0.017796730622649193,-0.3383979797363281
1761467515858332200,6.085332275390625,0.03722725063562393,0.0038609416224062443,-0.40599992871284485
1761467515868315100,6.095315185546875,0.057572588324546814,-0.022905457764863968,-0.49319425225257874
1761467515878298000,6.105298095703125,0.06761696189641953,-0.009079656563699245,-0.5376884937286377
1761467515888281000,6.115281005859375,0.06117478758096695,0.014468247070908546,-0.497156023979187
1761467515898265000,6.12526513671875,0.053206346929073334,-0.058168139308691025,-0.35731449723243713
1761467515908248000,6.135248046875,0.04226309806108475,-0.2423495054244995,-0.177821084856987
1761467515918231000,6.14523095703125,0.07642852514982224,-0.4067440330982208,0.009916859678924084
1761467515928214000,6.155214111328125,0.15810146927833557,-0.4784065783023834,0.14206041395664215
1761467515938198000,6.165197998046875,0.2676785886287689,-0.5069702863693237,0.23328299820423126
1761467515948181200,6.17518115234375,0.3675413429737091,-0.5874127149581909,0.2904564440250397
1761467515958164200,6.185164306640625,0.4067593216896057,-0.6099444031715393,0.26389116048812866
1761467515968148200,6.195148193359375,0.36605194211006165,-0.5771865844726562,0.13709624111652374
1761467515978131000,6.205130859375,0.24201680719852448,-0.5679938793182373,-0.0315399132668972
1761467515988114200,6.2151142578125,0.09743291884660721,-0.5476475358009338,-0.15852093696594238
1761467515998097200,6.22509716796875,-0.008663957007229328,-0.5386670827865601,-0.1733158528804779
1761467516008081200,6.2350810546875,-0.07996430993080139,-0.4828946888446808,-0.09740576148033142
1761467516018064100,6.245064208984375,-0.11385117471218109,-0.35928618907928467,-0.0060127247124910355
1761467516028047000,6.255047119140625,-0.11277684569358826,-0.13066822290420532,0.038626350462436676
1761467516038030000,6.265030029296875,-0.07827426493167877,0.11245867609977722,0.005452414974570274
1761467516048014000,6.27501416015625,-0.018154658377170563,0.20381379127502441,-0.05288808047771454
1761467516057997300,6.284997314453125,0.029320180416107178,0.19175605475902557,-0.12661316990852356
1761467516067980000,6.29497998046875,0.04903591051697731,0.24751140177249908,-0.1808469444513321
1761467516077963000,6.304962890625,0.06658081710338593,0.3508734703063965,-0.25953590869903564
1761467516087947000,6.314947021484375,0.056739818304777145,0.4011731743812561,-0.38429635763168335
1761467516097930200,6.32493017578125,0.036882493644952774,0.4394718408584595,-0.5312423706054688
1761467516107913000,6.334912841796875,0.030120089650154114,0.3969675898551941,-0.6034698486328125
1761467516117897000,6.34489697265625,0.024052340537309647,0.3526430130004883,-0.5791530013084412
1761467516127880200,6.354880126953125,0.00954271387308836,0.32091647386550903,-0.4968984127044678
1761467516137863200,6.36486328125,0.002505843061953783,0.30303308367729187,-0.3721964359283447
1761467516147846700,6.3748466796875,-0.005264536943286657,0.316297709941864,-0.2267480194568634
1761467516157830700,6.38483056640625,-0.004786233883351088,0.3923852741718292,-0.08876565098762512
1761467516167813600,6.394813720703125,-0.013783072121441364,0.554519534111023,0.005917673464864492
1761467516177796600,6.404796630859375,-0.033501118421554565,0.7103187441825867,0.0207794439047575
1761467516187779600,6.414779541015625,-0.06245184689760208,0.7556426525115967,0.02018970251083374
1761467516197763600,6.424763671875,-0.08774548768997192,0.6846949458122253,0.039060063660144806
1761467516207746600,6.43474658203125,-0.1231360137462616,0.5197832584381104,0.12133224308490753
1761467516217729500,6.4447294921875,-0.16021199524402618,0.33436888456344604,0.26646095514297485
1761467516227712500,6.45471240234375,-0.20475347340106964,0.08606009185314178,0.4408891201019287
1761467516237696800,6.46469677734375,-0.22253939509391785,-0.19202080368995667,0.5733600854873657
1761467516247679700,6.4746796875,-0.21293775737285614,-0.38700562715530396,0.6160398125648499
1761467516257662500,6.484662353515625,-0.23233328759670258,-0.5694795250892639,0.6240791082382202
1761467516267645700,6.494645751953125,-0.23519082367420197,-0.7958202958106995,0.6397374868392944
1761467516277629700,6.504629638671875,-0.2015196830034256,-1.000156283378601,0.6662644147872925
1761467516287612700,6.51461279296875,-0.15575098991394043,-1.070023775100708,0.6312857270240784
1761467516297595600,6.524595703125,-0.124189592897892,-0.978782594203949,0.5193250775337219
1761467516307578600,6.53457861328125,-0.11064593493938446,-0.8266489505767822,0.3540906012058258
1761467516317562600,6.544562744140625,-0.0708460584282875,-0.6519038081169128,0.23262889683246613
1761467516327545600,6.554545654296875,-0.005630831699818373,-0.5464136004447937,0.18693038821220398
1761467516337528800,6.56452880859375,0.0816180482506752,-0.5808373689651489,0.15214498341083527
1761467516347511600,6.574511474609375,0.16783036291599274,-0.6166947484016418,0.004907483700662851
1761467516357495600,6.58449560546875,0.1787668913602829,-0.5349085330963135,-0.20987538993358612
1761467516367478500,6.594478515625,0.20031976699829102,-0.4794452488422394,-0.4942401647567749
1761467516377461800,6.604461669921875,0.1683352142572403,-0.37315821647644043,-0.7316356897354126
1761467516387445800,6.61444580078125,0.11746952682733536,-0.23314276337623596,-0.8217280507087708
1761467516397428500,6.624428466796875,0.11598827689886093,-0.048027247190475464,-0.5988858938217163
1761467516407411500,6.634411376953125,0.154115691781044,0.07475609332323074,-0.08113162219524384
1761467516417394700,6.644394775390625,0.21044288575649261,0.008372273296117783,0.4638592600822449
1761467516427378700,6.654378662109375,0.2636388838291168,-0.05702819675207138,0.8377259969711304
1761467516437361700,6.664361572265625,0.28716230392456055,-0.07761789113283157,1.0460690259933472
1761467516447344600,6.6743447265625,0.27987393736839294,-0.11234123259782791,1.13331139087677
1761467516457327600,6.68432763671875,0.2588091194629669,-0.15874122083187103,1.1228598356246948
1761467516467311600,6.6943115234375,0.22349153459072113,-0.17867380380630493,0.9945507645606995
1761467516477294600,6.704294677734375,0.17678581178188324,-0.22785253822803497,0.7494754791259766
1761467516487277600,6.714277587890625,0.14001871645450592,-0.18071585893630981,0.4454243779182434
1761467516497260500,6.724260498046875,0.08246966451406479,-0.10034725069999695,0.15820832550525665
1761467516507244500,6.73424462890625,0.010597556829452515,0.03497426584362984,-0.08538534492254257
1761467516517227800,6.744227783203125,-0.04664362594485283,0.23071686923503876,-0.2796294093132019
1761467516527210800,6.754210693359375,-0.06843984127044678,0.46962231397628784,-0.42248260974884033
1761467516537193500,6.764193359375,-0.06367944180965424,0.7355669140815735,-0.5323781967163086
1761467516547177500,6.774177490234375,-0.046947259455919266,0.8904660940170288,-0.5880630612373352
1761467516557160700,6.78416064453125,-0.039360176771879196,0.9259159564971924,-0.5675823092460632
1761467516567143700,6.794143798828125,-0.04164216294884682,0.8847800493240356,-0.48476672172546387
1761467516577126700,6.804126708984375,-0.05886216461658478,0.7871424555778503,-0.40011149644851685
1761467516587110400,6.8141103515625,-0.07030519843101501,0.6786612868309021,-0.3467443585395813
1761467516597093600,6.82409375,-0.08052614331245422,0.6172999143600464,-0.3317994773387909
1761467516607076600,6.83407666015625,-0.11124467849731445,0.6280798316001892,-0.3176829516887665
1761467516617059600,6.8440595703125,-0.1336655616760254,0.6630764007568359,-0.2869708240032196
1761467516627043800,6.8540439453125,-0.1481088399887085,0.731748640537262,-0.2330598533153534
1761467516637026600,6.864026611328125,-0.1459631323814392,0.7552521228790283,-0.17875640094280243
1761467516647009500,6.874009521484375,-0.13631469011306763,0.693469762802124,-0.09025389701128006
1761467516656992800,6.88399267578125,-0.1461244374513626,0.6500120162963867,0.01878550834953785
1761467516666976800,6.893976806640625,-0.1328541338443756,0.659031867980957,0.15189331769943237
1761467516676959500,6.90395947265625,-0.10503555834293365,0.5875830054283142,0.2768823802471161
1761467516686942500,6.9139423828125,-0.05250980332493782,0.4722301959991455,0.4083983302116394
1761467516696925700,6.92392578125,0.018107110634446144,0.32429346442222595,0.574757993221283
1761467516706909700,6.93390966796875,0.05392380803823471,0.12812981009483337,0.7196427583694458
1761467516716892700,6.943892578125,0.06433863192796707,-0.062385812401771545,0.7832398414611816
1761467516726875600,6.953875732421875,0.06376152485609055,-0.0966465026140213,0.794072687625885
1761467516736858600,6.963858642578125,0.055574700236320496,-0.08311471343040466,0.7910939455032349
1761467516746842600,6.973842529296875,0.03060448169708252,-0.1608431488275528,0.792844831943512
1761467516756825600,6.98382568359375,-0.013345930725336075,-0.2656491696834564,0.8284944295883179
1761467516766808600,6.99380859375,-0.05031513050198555,-0.34050676226615906,0.9408502578735352
1761467516776791600,7.00379150390625,-0.06423787027597427,-0.39286237955093384,1.0774446725845337
1761467516786775600,7.013775634765625,-0.0626719668507576,-0.4196614921092987,1.123622179031372
1761467516796758500,7.023758544921875,-0.05624176561832428,-0.3779851794242859,1.0230364799499512
1761467516806741800,7.03374169921875,-0.03679467737674713,-0.31825923919677734,0.8396499156951904
1761467516816724500,7.043724365234375,0.00954672135412693,-0.25742092728614807,0.5990386009216309
1761467516826708500,7.05370849609375,0.06556110084056854,-0.22642415761947632,0.3240909278392792
1761467516836691700,7.063691650390625,0.11787783354520798,-0.15329748392105103,0.07514901459217072
1761467516846674700,7.0736748046875,0.15384717285633087,-0.08347524702548981,-0.12117175757884979
1761467516856657700,7.08365771484375,0.17244109511375427,-0.02919735759496689,-0.25560227036476135
1761467516866640600,7.093640625,0.16493958234786987,0.05512476712465286,-0.3050522804260254
1761467516876624600,7.103624755859375,0.15433354675769806,0.15638640522956848,-0.31746819615364075
1761467516886607600,7.113607666015625,0.131072998046875,0.26987603306770325,-0.3184908926486969
1761467516896590600,7.123590576171875,0.1119304671883583,0.3593819737434387,-0.2740214169025421
1761467516906573600,7.133573486328125,0.11881941556930542,0.41280898451805115,-0.18523216247558594
1761467516916557600,7.1435576171875,0.1326737105846405,0.4311709702014923,-0.07291761040687561
1761467516926540500,7.15354052734375,0.16321921348571777,0.40121421217918396,0.0643557533621788
1761467516936523800,7.163523681640625,0.1745738685131073,0.3371579945087433,0.17935582995414734
1761467516946506800,7.1735068359375,0.1659403145313263,0.23939122259616852,0.2705230414867401
1761467516956490500,7.183490478515625,0.1558176428079605,0.13673648238182068,0.32538604736328125
1761467516966473500,7.193473388671875,0.15818500518798828,0.04533746466040611,0.37829160690307617
1761467516976456700,7.203456787109375,0.1492929756641388,-0.012555395253002644,0.43968892097473145
1761467516986439700,7.213439697265625,0.1354827880859375,-0.0615910105407238,0.5082905292510986
1761467516996423700,7.223423583984375,0.11019100248813629,-0.07270118594169617,0.5683171153068542
1761467517006406700,7.23340673828125,0.08693026006221771,-0.0012299157679080963,0.6126630306243896
1761467517016389600,7.2433896484375,0.03214078024029732,0.1369955986738205,0.6218674778938293
1761467517026372600,7.25337255859375,-0.03767694532871246,0.25385481119155884,0.5588138699531555
1761467517036356600,7.263356689453125,-0.1268012374639511,0.25735101103782654,0.4571881592273712
1761467517046339600,7.273339599609375,-0.25220975279808044,0.2521369755268097,0.3903774917125702
1761467517056322600,7.283322509765625,-0.3378295600414276,0.29352888464927673,0.3188561797142029
1761467517066305500,7.293305419921875,-0.4175818860530853,0.33282142877578735,0.17032481729984283
1761467517076289500,7.30328955078125,-0.44905325770378113,0.27551817893981934,-0.07602132111787796
1761467517086272800,7.313272705078125,-0.3917539119720459,0.09061811119318008,-0.35432252287864685
1761467517096255500,7.32325537109375,-0.25075551867485046,-0.08229294419288635,-0.5050824284553528
1761467517106238700,7.33323876953125,-0.09028445184230804,-0.1835220754146576,-0.5027753114700317
1761467517116221700,7.3432216796875,0.0524631068110466,-0.1663587987422943,-0.3784615993499756
1761467517126205700,7.353205810546875,0.12939681112766266,0.040133409202098846,-0.239131897687912
1761467517136188400,7.3631884765625,0.11424635350704193,0.28644782304763794,-0.21164435148239136
1761467517146171600,7.373171630859375,0.0696331113576889,0.41239282488822937,-0.2837364375591278
1761467517156157700,7.38315771484375,0.06279225647449493,0.348459392786026,-0.2657608985900879
1761467517166141700,7.3931416015625,0.11846467852592468,0.16858983039855957,-0.15059232711791992
1761467517176125000,7.403125,0.22418498992919922,0.04804345220327377,-0.00896995235234499
1761467517186108000,7.41310791015625,0.34314680099487305,0.002164110541343689,0.12899884581565857
1761467517196090600,7.423090576171875,0.4916774332523346,0.07805567979812622,0.26322266459465027
1761467517206074600,7.43307470703125,0.6438694596290588,0.24048836529254913,0.3473809063434601
1761467517216057900,7.443057861328125,0.751001238822937,0.41683250665664673,0.37686529755592346
1761467517226040800,7.453040771484375,0.7673873901367188,0.4948439598083496,0.3302892744541168
1761467517236023800,7.46302392578125,0.6930024027824402,0.4863106310367584,0.2057550847530365
1761467517246007800,7.4730078125,0.5407055020332336,0.4225129783153534,0.039132967591285706
1761467517255990800,7.48299072265625,0.39188218116760254,0.40203964710235596,-0.11043255776166916
1761467517265973800,7.492973876953125,0.31280699372291565,0.3681536316871643,-0.22394147515296936
1761467517275957000,7.50295703125,0.3041067123413086,0.2642458975315094,-0.33266955614089966
1761467517285939700,7.512939697265625,0.2634005844593048,0.21093562245368958,-0.43850257992744446
1761467517295923700,7.522923828125,0.2131030410528183,0.22040635347366333,-0.5759813189506531
1761467517305906700,7.53290673828125,0.19884850084781647,0.18537211418151855,-0.7362486720085144
1761467517315890000,7.542889892578125,0.25075191259384155,0.11713793873786926,-0.8669902086257935
1761467517325873000,7.552872802734375,0.37574684619903564,0.044746123254299164,-0.9148496985435486
1761467517335856600,7.562856689453125,0.5168640613555908,-0.05752751603722572,-0.9181098937988281
1761467517345839600,7.572839599609375,0.6194792985916138,-0.1442643105983734,-0.9307533502578735
1761467517355822800,7.58282275390625,0.6655080318450928,-0.20706778764724731,-0.9469695687294006
1761467517365805800,7.592805908203125,0.6684245467185974,-0.27822935581207275,-0.9197785258293152
1761467517375789800,7.602789794921875,0.6606246829032898,-0.43716439604759216,-0.8659810423851013
1761467517385772800,7.612772705078125,0.692392885684967,-0.5896368026733398,-0.7648901343345642
1761467517395755800,7.622755859375,0.742986798286438,-0.6059308052062988,-0.5948179960250854
1761467517405738800,7.63273876953125,0.759566605091095,-0.4370613694190979,-0.4078388810157776
1761467517415722000,7.642721923828125,0.7331786751747131,-0.19355204701423645,-0.3350658714771271
1761467517425706000,7.6527060546875,0.6552952527999878,-0.031457845121622086,-0.41248294711112976
1761467517435688700,7.662688720703125,0.5095870494842529,0.06349848955869675,-0.497416228055954
1761467517445671700,7.672671630859375,0.3488878309726715,0.19230090081691742,-0.5251774191856384
1761467517455655000,7.682655029296875,0.14957553148269653,0.19289079308509827,-0.41373658180236816
1761467517465639000,7.692638916015625,-0.0404464416205883,-0.0043496559374034405,-0.14417293667793274
1761467517475621600,7.70262158203125,-0.12664364278316498,-0.19346950948238373,0.20411473512649536
1761467517485604900,7.71260498046875,-0.12523555755615234,-0.26035076379776,0.3860936760902405
1761467517495587800,7.722587890625,-0.11567613482475281,-0.2466338872909546,0.374999463558197
1761467517505570800,7.73257080078125,-0.07800667732954025,-0.19154098629951477,0.247184157371521
1761467517515554800,7.742554931640625,-0.04410942643880844,-0.118392214179039,0.049726758152246475
1761467517525537800,7.752537841796875,-0.017324838787317276,0.06139529123902321,-0.10219910740852356
1761467517535520800,7.762520751953125,-0.030620403587818146,0.28585025668144226,-0.226815328001976
1761467517545503700,7.772503662109375,-0.0740823969244957,0.4150373637676239,-0.3906967043876648
1761467517555487700,7.78248779296875,-0.0798015370965004,0.41027161478996277,-0.5514664053916931
1761467517565470700,7.792470703125,-0.04459085315465927,0.3982038199901581,-0.6293553113937378
1761467517575453700,7.80245361328125,-0.00710952328518033,0.4173511564731598,-0.6176480650901794
1761467517585437000,7.81243701171875,-0.010677970945835114,0.41977423429489136,-0.5683971643447876
1761467517595420000,7.822419921875,-0.032894063740968704,0.3858064115047455,-0.47681212425231934
1761467517605404000,7.83240380859375,-0.06774407625198364,0.3388414680957794,-0.33035388588905334
1761467517615386600,7.84238671875,-0.1185380145907402,0.2993776798248291,-0.17149338126182556
1761467517625369900,7.852369873046875,-0.15347199141979218,0.26600125432014465,-0.017404865473508835
1761467517635352800,7.862352783203125,-0.17312131822109222,0.2456507384777069,0.13641531765460968
1761467517645336800,7.8723369140625,-0.18728576600551605,0.23995031416416168,0.3026036322116852
1761467517655319800,7.88231982421875,-0.18096022307872772,0.1888817995786667,0.47674134373664856
1761467517665302800,7.892302734375,-0.17326542735099792,0.12516175210475922,0.6453656554222107
1761467517675285800,7.90228564453125,-0.19152593612670898,0.10341304540634155,0.7677443027496338
1761467517685269000,7.91226904296875,-0.26877662539482117,0.1243007630109787,0.8295911550521851
1761467517695253000,7.9222529296875,-0.40753796696662903,0.20967450737953186,0.8522165417671204
1761467517705235700,7.932235595703125,-0.5791749358177185,0.279107928276062,0.8149831891059875
1761467517715218700,7.94221875,-0.7647504210472107,0.29337021708488464,0.7494118809700012
1761467517725202000,7.952201904296875,-0.9431200623512268,0.1897963136434555,0.6576724648475647
1761467517735186000,7.96218603515625,-1.001456618309021,0.0039428286254405975,0.5430143475532532
1761467517745168600,7.972168701171875,-0.9794691205024719,-0.26976171135902405,0.4176340401172638
1761467517755152000,7.98215185546875,-0.916536808013916,-0.5261178016662598,0.34755271673202515
1761467517765134800,7.992134765625,-0.8505917191505432,-0.6223273277282715,0.3462970554828644
1761467517775117800,8.002117919921876,-0.7548002600669861,-0.4656687080860138,0.28892961144447327
1761467517785101800,8.012101806640626,-0.6446653008460999,-0.15261682868003845,0.13765296339988708
1761467517795084800,8.022084716796876,-0.566350519657135,0.09068557620048523,-0.050800032913684845
1761467517805067800,8.03206787109375,-0.516141951084137,0.15255869925022125,-0.189954936504364
1761467517815050800,8.04205078125,-0.4836044907569885,0.1155833825469017,-0.20552563667297363
1761467517825034800,8.05203466796875,-0.44826993346214294,0.09673415124416351,-0.15196922421455383
1761467517835017700,8.062017822265625,-0.4242956042289734,0.12092869728803635,-0.21338865160942078
1761467517845000700,8.072000732421875,-0.391671359539032,0.017976481467485428,-0.5015490651130676
1761467517854983700,8.081983642578125,-0.30784597992897034,-0.132475346326828,-0.7254288196563721
1761467517864967000,8.091966796875,-0.15630559623241425,-0.2335599809885025,-0.6824048161506653
1761467517874951000,8.101950927734375,0.02258452959358692,-0.22801607847213745,-0.4920516908168793
1761467517884933600,8.11193359375,0.2342461794614792,-0.18130911886692047,-0.2751826345920563
1761467517894916900,8.121916748046875,0.40859082341194153,-0.17122985422611237,-0.06059844419360161
1761467517904899800,8.13189990234375,0.5201829075813293,-0.17521026730537415,0.08469069749116898
1761467517914883800,8.1418837890625,0.5652691721916199,-0.16355681419372559,0.17149509489536285
1761467517924866600,8.151866455078125,0.5601062178611755,-0.12151238322257996,0.23622465133666992
1761467517934849800,8.161849853515625,0.4975006878376007,-0.015298600308597088,0.2438966929912567
1761467517944832800,8.171832763671874,0.3887983560562134,0.12059393525123596,0.18994200229644775
1761467517954815700,8.181815673828124,0.2588840126991272,0.26605820655822754,0.10629904270172119
1761467517964800000,8.191800048828124,0.12146830558776855,0.3513120412826538,-0.013341978192329407
1761467517974782700,8.20178271484375,0.01066909171640873,0.36744973063468933,-0.17952962219715118
1761467517984765700,8.211765625,-0.05383472144603729,0.282971054315567,-0.3795357346534729
1761467517994749000,8.2217490234375,-0.061126988381147385,0.1784246563911438,-0.5694002509117126
1761467518004732000,8.23173193359375,-0.023077765479683876,0.09475993365049362,-0.7207062840461731
1761467518014716000,8.2417158203125,0.04309513047337532,0.008427973836660385,-0.7825565934181213
1761467518024698600,8.25169873046875,0.12187840044498444,-0.06934163719415665,-0.7683501243591309
1761467518034681900,8.261681884765625,0.19195255637168884,-0.10376405715942383,-0.7163500189781189
1761467518044664800,8.271664794921875,0.2570924758911133,-0.11164722591638565,-0.6461582779884338
1761467518054648800,8.28164892578125,0.2954939305782318,-0.1433447003364563,-0.6257467865943909
1761467518064631800,8.2916318359375,0.3376241624355316,-0.24505218863487244,-0.606437623500824
1761467518074614800,8.30161474609375,0.38456183671951294,-0.35999926924705505,-0.5699582099914551
1761467518084597800,8.31159765625,0.4271036684513092,-0.4252496063709259,-0.4955506920814514
1761467518094581000,8.3215810546875,0.4601404368877411,-0.4740498960018158,-0.3710026443004608
1761467518104565000,8.33156494140625,0.48923584818840027,-0.40701884031295776,-0.2061680257320404
1761467518114547700,8.341547607421875,0.49976733326911926,-0.30989015102386475,-0.08509114384651184
1761467518124530700,8.35153076171875,0.4949664771556854,-0.304575651884079,-0.041074227541685104
1761467518134514000,8.361513916015625,0.4817172586917877,-0.32580235600471497,-0.022468583658337593
1761467518144496600,8.37149658203125,0.4382983446121216,-0.32108452916145325,-0.07738663256168365
1761467518154476500,8.3814765625,0.36358070373535156,-0.370939701795578,-0.21346163749694824
1761467518164459800,8.391459716796875,0.25266048312187195,-0.441982239484787,-0.3835943341255188
1761467518174442500,8.4014423828125,0.10884473472833633,-0.4332982003688812,-0.4950588047504425
1761467518184425500,8.411425537109375,-0.06862702965736389,-0.46821272373199463,-0.5098876953125
1761467518194409700,8.42140966796875,-0.19632694125175476,-0.545971691608429,-0.3673896789550781
1761467518204392700,8.431392822265625,-0.24861758947372437,-0.5328238606452942,-0.0195013377815485
1761467518214375700,8.441375732421875,-0.23644322156906128,-0.5302538871765137,0.3384394943714142
1761467518224358700,8.451358642578125,-0.205186128616333,-0.5544084310531616,0.5266207456588745
1761467518234341600,8.461341552734375,-0.15296368300914764,-0.5321811437606812,0.5329446792602539
1761467518244325600,8.47132568359375,-0.09599389880895615,-0.4599718153476715,0.45877647399902344
1761467518254308600,8.48130859375,-0.048258598893880844,-0.3533337712287903,0.3409654200077057
1761467518264291600,8.49129150390625,-0.0005614971742033958,-0.2640523612499237,0.18496866524219513
1761467518274274600,8.501274658203124,0.04525712504982948,-0.1826949119567871,-0.0008874917402863503
1761467518284257500,8.511257568359374,0.0833979994058609,-0.04482375457882881,-0.1733858585357666
1761467518294241800,8.52124169921875,0.09244689345359802,0.14750920236110687,-0.3085988163948059
1761467518304224800,8.531224853515624,0.06744444370269775,0.3773660957813263,-0.3469901382923126
1761467518314207500,8.54120751953125,0.030400145798921585,0.5621833205223083,-0.33025774359703064
1761467518324190700,8.551190673828126,-0.011539582163095474,0.6620182991027832,-0.28218182921409607
1761467518334173700,8.561173583984376,-0.06288612633943558,0.7005553245544434,-0.2404804825782776
1761467518344157700,8.57115771484375,-0.11078403145074844,0.7357843518257141,-0.17143051326274872
1761467518354140400,8.581140380859376,-0.14716972410678864,0.7462186217308044,-0.05197495222091675
1761467518364123600,8.59112353515625,-0.16870267689228058,0.7292242050170898,0.12443692237138748
1761467518374106600,8.601106689453125,-0.18306031823158264,0.6665975451469421,0.3154025971889496
1761467518384089600,8.611089599609375,-0.20374970138072968,0.6048211455345154,0.4830400049686432
1761467518394073600,8.621073486328125,-0.25279712677001953,0.5748142004013062,0.621081531047821
1761467518404056600,8.631056640625,-0.33858194947242737,0.585234522819519,0.737839937210083
1761467518414039600,8.64103955078125,-0.4258449673652649,0.6079736351966858,0.8226416110992432
1761467518424022800,8.651022705078125,-0.5012434720993042,0.6245465874671936,0.8503598570823669
1761467518434005800,8.661005859375,-0.5681559443473816,0.6519374251365662,0.8217002749443054
1761467518443989500,8.670989501953125,-0.6432576775550842,0.6317086815834045,0.7731518149375916
1761467518453972500,8.680972412109375,-0.6905423402786255,0.50196772813797,0.7306733131408691
1761467518463955700,8.690955810546875,-0.7383084297180176,0.3519397974014282,0.6946285367012024
1761467518473938700,8.700938720703125,-0.7784391045570374,0.21247483789920807,0.620835542678833
1761467518483922700,8.710922607421875,-0.829587996006012,0.06616786867380142,0.5308932065963745
1761467518493905700,8.72090576171875,-0.8321113586425781,-0.035444241017103195,0.4392967224121094
1761467518503888600,8.730888671875,-0.8429090976715088,0.022324206307530403,0.3276873230934143
1761467518513871600,8.74087158203125,-0.8834748864173889,0.190511092543602,0.13999277353286743
1761467518523854800,8.750854736328124,-0.8778202533721924,0.32555684447288513,-0.12345526367425919
1761467518533838600,8.760838623046874,-0.8047792911529541,0.4229523837566376,-0.26999276876449585
1761467518543821600,8.770821533203126,-0.6932365894317627,0.4764705300331116,-0.24525801837444305
1761467518553804500,8.780804443359376,-0.537871241569519,0.506329357624054,-0.1866825819015503
1761467518563787800,8.790787841796876,-0.36588895320892334,0.501192569732666,-0.19997890293598175
1761467518573770500,8.8007705078125,-0.2584993839263916,0.25611889362335205,-0.34665995836257935
1761467518583754500,8.81075439453125,-0.1679718792438507,-0.14844910800457,-0.565159022808075
1761467518593737700,8.82073779296875,-0.03313044458627701,-0.3325771391391754,-0.6029868125915527
1761467518603720700,8.830720703125,0.05545908212661743,-0.18160121142864227,-0.4288669228553772
1761467518613703700,8.84070361328125,0.12965820729732513,0.15349848568439484,-0.2630276083946228
1761467518623686700,8.850686767578125,0.22162571549415588,0.3037620782852173,-0.16042876243591309
1761467518633670700,8.860670654296875,0.31520918011665344,0.2176245152950287,-0.07143445312976837
1761467518643653600,8.870653564453125,0.41534852981567383,0.053494468331336975,0.05324659124016762
1761467518653636600,8.88063671875,0.48505330085754395,-0.04120807349681854,0.149110808968544
1761467518663619600,8.89061962890625,0.5276855230331421,-0.01887570135295391,0.19474120438098907
1761467518673602600,8.9006025390625,0.545093834400177,0.06627354770898819,0.20751479268074036
1761467518683586600,8.910586669921875,0.5333784818649292,0.13467445969581604,0.18940235674381256
1761467518693569500,8.920569580078125,0.49067816138267517,0.1600988656282425,0.1666318029165268
1761467518703552800,8.930552734375,0.43970566987991333,0.1589762568473816,0.16058844327926636
1761467518713535500,8.940535400390624,0.38686561584472656,0.125640407204628,0.15096057951450348
1761467518723518700,8.950518798828124,0.32891544699668884,0.04900997877120972,0.11948305368423462
1761467518733502700,8.960502685546874,0.2672097384929657,-0.013741550967097282,0.08493786305189133
1761467518743485700,8.970485595703124,0.20817454159259796,-0.051096830517053604,0.036727700382471085
1761467518753468400,8.980468505859376,0.1623561978340149,-0.08497516810894012,-0.03184230625629425
1761467518763451600,8.99045166015625,0.12500068545341492,-0.09284278005361557,-0.11872654408216476
1761467518773434600,9.0004345703125,0.10450286418199539,-0.10017526149749756,-0.20017772912979126
1761467518783418600,9.010418701171876,0.1078074648976326,-0.0935286208987236,-0.24903757870197296
1761467518793401600,9.020401611328126,0.11505339294672012,-0.06191129982471466,-0.2627541720867157
1761467518803384600,9.030384521484375,0.13028818368911743,-0.03093780018389225,-0.2570646405220032
1761467518813367600,9.040367431640625,0.17685596644878387,-0.05682585760951042,-0.2799491882324219
1761467518823350800,9.050350830078125,0.23111970722675323,-0.14848773181438446,-0.301332950592041
1761467518833334800,9.060334716796875,0.27685150504112244,-0.22120746970176697,-0.30167198181152344
1761467518843317500,9.0703173828125,0.28008416295051575,-0.16729941964149475,-0.2982848584651947
1761467518853300500,9.080300537109375,0.27555227279663086,-0.025965724140405655,-0.2765364348888397
1761467518863283700,9.09028369140625,0.2653588354587555,0.1407548040151596,-0.2577075958251953
1761467518873266700,9.1002666015625,0.24230600893497467,0.271425724029541,-0.25062811374664307
1761467518883250700,9.110250732421875,0.19451811909675598,0.26335984468460083,-0.31514108180999756
1761467518893233700,9.120233642578125,0.14879536628723145,0.22530218958854675,-0.4258979558944702
1761467518903216600,9.130216552734375,0.09531198441982269,0.17918294668197632,-0.5466897487640381
1761467518913199600,9.14019970703125,0.043344926089048386,0.13166949152946472,-0.6795399785041809
1761467518923182800,9.150182861328124,-0.032050807029008865,0.09396239370107651,-0.7528092265129089
1761467518933165600,9.16016552734375,-0.10062827169895172,-0.005440356209874153,-0.6828812956809998
1761467518943149600,9.170149658203124,-0.11789939552545547,-0.10039545595645905,-0.4215087294578552
1761467518953132500,9.180132568359374,-0.09346649050712585,-0.22363322973251343,-0.043796055018901825
1761467518963115800,9.19011572265625,-0.07754246145486832,-0.3970305323600769,0.29597702622413635
1761467518973098500,9.200098388671876,-0.07197245955467224,-0.5366994738578796,0.5637916922569275
1761467518983081500,9.21008154296875,-0.05132661014795303,-0.5809427499771118,0.7566950917243958
1761467518993065500,9.2200654296875,-0.041341885924339294,-0.580632209777832,0.818692684173584
1761467519003048700,9.230048583984376,-0.05312805622816086,-0.49312543869018555,0.7685742378234863
1761467519013031700,9.24003173828125,-0.06947826594114304,-0.37024587392807007,0.6702423691749573
1761467519023014700,9.2500146484375,-0.10511139780282974,-0.27480244636535645,0.5133581757545471
1761467519032997600,9.25999755859375,-0.15970167517662048,-0.21591785550117493,0.33620092272758484
1761467519042981600,9.269981689453125,-0.19364042580127716,-0.15966680645942688,0.1934824436903
1761467519052964600,9.279964599609375,-0.21456967294216156,-0.10492020100355148,0.1524103730916977
1761467519062947600,9.289947509765625,-0.23964132368564606,-0.046552836894989014,0.17299406230449677
1761467519072930600,9.2999306640625,-0.2724384367465973,0.03704033046960831,0.20460312068462372
1761467519082913500,9.30991357421875,-0.32266607880592346,0.11677780002355576,0.2491893768310547
1761467519092897500,9.3198974609375,-0.38575372099876404,0.13530594110488892,0.33514153957366943
1761467519102880800,9.329880859375,-0.39821863174438477,0.11509992927312851,0.418344646692276
1761467519112863500,9.339863525390625,-0.38492467999458313,0.09510598331689835,0.5132282972335815
1761467519122846700,9.3498466796875,-0.3517412841320038,0.14119818806648254,0.6483793258666992
1761467519132829700,9.35982958984375,-0.3219514489173889,0.2571559548377991,0.8082869648933411
1761467519142813700,9.369813720703124,-0.31536731123924255,0.43040603399276733,0.9520902037620544
1761467519152797000,9.379796875,-0.32936620712280273,0.6095983982086182,1.0217771530151367
1761467519162780200,9.3897802734375,-0.36245420575141907,0.6781191229820251,0.988160252571106
1761467519172763100,9.39976318359375,-0.3943745791912079,0.5376150012016296,0.8235630393028259
1761467519182745900,9.409745849609376,-0.3880634903907776,0.2977454364299774,0.607761561870575
1761467519192729900,9.419729736328126,-0.34557223320007324,0.08275777846574783,0.4665442407131195
1761467519202713000,9.429713134765626,-0.2843487858772278,-0.06997235864400864,0.4128432273864746
1761467519212696000,9.439696044921876,-0.25069761276245117,-0.1762561947107315,0.4097209572792053
1761467519222679000,9.449678955078125,-0.1960534304380417,-0.2593383193016052,0.4035269618034363
1761467519232662000,9.459662109375,-0.14561662077903748,-0.25547486543655396,0.3823748230934143
1761467519242645000,9.46964501953125,-0.11299221962690353,-0.18627269566059113,0.34639057517051697
1761467519252629000,9.47962890625,-0.08343087136745453,-0.07654513418674469,0.2976991832256317
1761467519262612200,9.4896123046875,-0.0613924115896225,0.03978583216667175,0.21495972573757172
1761467519272595000,9.499594970703125,-0.05411958694458008,0.13522472977638245,0.08964521437883377
1761467519282578000,9.509577880859375,-0.09459254890680313,0.2282116562128067,-0.11008809506893158
1761467519292561200,9.51956103515625,-0.18772995471954346,0.2602287232875824,-0.34618130326271057
1761467519302545200,9.529545166015625,-0.27518707513809204,0.2100958377122879,-0.5764842629432678
1761467519312528100,9.539528076171875,-0.3165228068828583,0.04739532992243767,-0.722465455532074
1761467519322510800,9.5495107421875,-0.289071261882782,-0.14018680155277252,-0.7834674715995789
1761467519332494000,9.559494140625,-0.24301855266094208,-0.24443703889846802,-0.8396170139312744
1761467519342477000,9.56947705078125,-0.20266085863113403,-0.24957068264484406,-0.9313971400260925
1761467519352461000,9.5794609375,-0.09483160823583603,-0.3225381076335907,-1.000495195388794
1761467519362444000,9.589444091796874,0.07553618401288986,-0.49308109283447266,-0.9942966103553772
1761467519372427000,9.599427001953124,0.25829002261161804,-0.6582487225532532,-0.8675436973571777
1761467519382410000,9.609409912109374,0.41458702087402344,-0.6960044503211975,-0.6888868808746338
1761467519392393200,9.619393310546876,0.5337110161781311,-0.681759238243103,-0.5835442543029785
1761467519402376000,9.6293759765625,0.5994957089424133,-0.6835104823112488,-0.5413207411766052
1761467519412360000,9.63935986328125,0.6041205525398254,-0.6761841773986816,-0.4970313310623169
1761467519422343000,9.649343017578126,0.5719588994979858,-0.6773778200149536,-0.4023665487766266
1761467519432326100,9.659326171875,0.5230576395988464,-0.6747972369194031,-0.2253076136112213
1761467519442309000,9.66930908203125,0.4540783166885376,-0.6912139654159546,-0.049690231680870056
1761467519452291800,9.679291748046875,0.3888425827026367,-0.731164276599884,0.017848599702119827
1761467519462276000,9.689276123046875,0.32421067357063293,-0.7412839531898499,-0.030874744057655334
1761467519472259000,9.699259033203125,0.2619105577468872,-0.7663338780403137,-0.12611444294452667
1761467519482242000,9.709241943359375,0.20534507930278778,-0.8198037147521973,-0.23729577660560608
1761467519492225000,9.71922509765625,0.15079128742218018,-0.8781266808509827,-0.33361539244651794
1761467519502208000,9.7292080078125,0.1021343469619751,-0.843946099281311,-0.41586801409721375
1761467519512192000,9.73919189453125,0.04419035091996193,-0.7240247130393982,-0.46898263692855835
1761467519522175000,9.749175048828125,0.01732323318719864,-0.54301518201828,-0.5169277191162109
1761467519532158200,9.759158203125,0.002976517891511321,-0.3721824884414673,-0.588413655757904
1761467519542141000,9.769140869140625,0.01284034363925457,-0.22563637793064117,-0.621735692024231
1761467519552124000,9.7791240234375,0.05203115567564964,-0.11047037690877914,-0.6117813587188721
1761467519562107100,9.789107177734374,0.08691316843032837,-0.04086577519774437,-0.6108096837997437
1761467519572091100,9.799091064453124,0.1363728642463684,0.002519249217584729,-0.657407283782959
1761467519582073900,9.809073974609374,0.16706039011478424,0.10866417735815048,-0.6891430616378784
1761467519592057000,9.81905712890625,0.17589595913887024,0.23361490666866302,-0.720113217830658
1761467519602040000,9.8290400390625,0.12409552186727524,0.31416234374046326,-0.6688935160636902
1761467519612023000,9.83902294921875,0.18091300129890442,0.6154295206069946,-0.7967100739479065
1761467519622007000,9.849007080078126,0.17963628470897675,0.7901428937911987,-0.9047418832778931
1761467519631990000,9.858989990234376,0.21630428731441498,0.8004165887832642,-0.8995593786239624
1761467519641973000,9.868972900390625,0.275614470243454,0.6648933291435242,-0.8184213638305664
1761467519651956000,9.8789560546875,0.33948826789855957,0.47027671337127686,-0.6851900815963745
1761467519661939200,9.888939208984375,0.37468865513801575,0.27051401138305664,-0.5296990275382996
1761467519671922000,9.898921875,0.4189309775829315,0.19272784888744354,-0.32289233803749084
1761467519681906000,9.908906005859375,0.4886567294597626,0.2744053602218628,-0.1299448162317276
1761467519691889200,9.91888916015625,0.5641735792160034,0.2375647872686386,-0.06895842403173447
1761467519701872000,9.9288720703125,0.6614949703216553,-0.014607805758714676,-0.13908526301383972
1761467519711854800,9.938854736328125,0.7656120657920837,-0.41169658303260803,-0.21169023215770721
1761467519721838000,9.948838134765625,0.8271725177764893,-0.8163290619850159,-0.1246192678809166
1761467519731822000,9.958822021484375,0.810595691204071,-0.9982698559761047,0.17624256014823914
1761467519741805000,9.96880517578125,0.7172597050666809,-0.8949596881866455,0.5214388966560364
1761467519751788000,9.9787880859375,0.601215124130249,-0.746382474899292,0.6884393692016602
1761467519761771000,9.98877099609375,0.48700442910194397,-0.6613292098045349,0.632583498954773
1761467519771754000,9.99875390625,0.34826067090034485,-0.5493475198745728,0.4699418544769287
1761467519781737200,10.0087373046875,0.2795427441596985,-0.4607718884944916,0.2930484116077423
1761467519791721200,10.01872119140625,0.22654451429843903,-0.5149997472763062,0.06693112850189209
1761467519801704000,10.028703857421876,0.19937586784362793,-0.5212756991386414,-0.16978059709072113
1761467519811687000,10.03868701171875,0.15988598763942719,-0.465648353099823,-0.36445021629333496
1761467519821670100,10.048670166015626,0.11042943596839905,-0.45765188336372375,-0.48504388332366943
1761467519831653000,10.058653076171876,0.09310823678970337,-0.4856265187263489,-0.5215172171592712
1761467519841637000,10.06863720703125,0.1035587415099144,-0.5165446400642395,-0.47722068428993225
1761467519851619800,10.078619873046875,0.1164172813296318,-0.5561400055885315,-0.3935372233390808
1761467519861603000,10.08860302734375,0.12529432773590088,-0.5969078540802002,-0.29928529262542725
1761467519871586000,10.0985859375,0.10340473800897598,-0.6422708034515381,-0.1908768117427826
1761467519881569000,10.108569091796875,0.0687505453824997,-0.6534335613250732,-0.06622330099344254
1761467519891552000,10.118552001953125,0.05693330243229866,-0.6808372139930725,0.03770149499177933
1761467519901536000,10.128535888671875,0.08324910700321198,-0.6718665957450867,0.18783245980739594
1761467519911519000,10.13851904296875,0.0639723464846611,-0.5765347480773926,0.3642815351486206
1761467519921502200,10.148502197265625,0.004693547263741493,-0.49409887194633484,0.47657492756843567
1761467519931485000,10.15848486328125,-0.06890237331390381,-0.49161121249198914,0.5110908150672913
1761467519941468000,10.168468017578125,-0.13610851764678955,-0.5486162900924683,0.49449071288108826
1761467519951451100,10.178451171875,-0.22104310989379883,-0.580157458782196,0.4736693203449249
1761467519961435100,10.18843505859375,-0.34901002049446106,-0.5668987035751343,0.4670066833496094
1761467519971418000,10.198418212890624,-0.5092422962188721,-0.49415072798728943,0.41630515456199646
1761467519981401000,10.208401123046874,-0.6446358561515808,-0.3325887620449066,0.2677142918109894
1761467519991384000,10.218384033203124,-0.695494532585144,-0.21065112948417664,0.10709745436906815
1761467520001367000,10.228366943359376,-0.6197715401649475,-0.22772012650966644,0.040480613708496094
1761467520011351000,10.23835107421875,-0.4906896948814392,-0.20179185271263123,0.09506981819868088
1761467520021334000,10.248333984375,-0.34398555755615234,-0.05588999390602112,0.15730449557304382
1761467520031317000,10.25831689453125,-0.20278076827526093,0.1441810578107834,0.1511123925447464
1761467520041300000,10.268300048828126,-0.0753500759601593,0.32124412059783936,0.13067921996116638
1761467520051283200,10.278283203125,-0.0059289182536304,0.4035661518573761,0.08445021510124207
1761467520061266000,10.288265869140625,0.07074383646249771,0.3575611412525177,0.014962054789066315
1761467520071250000,10.29825,0.11040656268596649,0.32029685378074646,-0.05401035398244858
1761467520081233200,10.308233154296875,0.08360303938388824,0.24782757461071014,-0.132075235247612
1761467520091216100,10.318216064453125,0.00084317522123456,0.16170334815979004,-0.1945521980524063
1761467520101199000,10.32819921875,-0.09406246244907379,0.15809647738933563,-0.18792825937271118
1761467520111182000,10.33818212890625,-0.19620828330516815,0.22935707867145538,-0.1472623199224472
1761467520121165000,10.3481650390625,-0.27709418535232544,0.3069773316383362,-0.09268961101770401
1761467520131149000,10.358149169921875,-0.30089884996414185,0.32095998525619507,-0.016605501994490623
1761467520141132000,10.368132080078125,-0.24746915698051453,0.2503456175327301,0.09425697475671768
1761467520151115500,10.378115478515625,-0.13440440595149994,0.17321886122226715,0.17901445925235748
1761467520161098500,10.388098388671875,-0.026798065751791,0.17094813287258148,0.1945112645626068
1761467520171081500,10.39808154296875,0.04883331060409546,0.2003486305475235,0.15811650454998016
1761467520181064700,10.408064697265624,0.08138251304626465,0.2367161363363266,0.0934298112988472
1761467520191048400,10.41804833984375,0.07019803673028946,0.20823761820793152,0.007176145911216736
1761467520201031400,10.428031494140624,0.008384115993976593,0.16453947126865387,-0.08307405561208725
1761467520211014400,10.438014404296876,-0.09475451707839966,0.11363474279642105,-0.19037042558193207
1761467520220997600,10.44799755859375,-0.22016195952892303,0.11240805685520172,-0.30709993839263916
1761467520230980400,10.45798046875,-0.31702670454978943,0.16969531774520874,-0.41369882225990295
1761467520240964400,10.46796435546875,-0.3526054322719574,0.20053137838840485,-0.4507109224796295
1761467520250947600,10.477947509765626,-0.31376510858535767,0.14957338571548462,-0.4223463833332062
1761467520260930600,10.4879306640625,-0.23125015199184418,0.0848584845662117,-0.37373170256614685
1761467520270913500,10.49791357421875,-0.10927923023700714,0.06994211673736572,-0.3331749439239502
1761467520280896500,10.507896484375,0.00288485293276608,0.08585876226425171,-0.3061915338039398
1761467520290879500,10.51787939453125,0.08842505514621735,0.09192890673875809,-0.2659620940685272
1761467520300863500,10.527863525390625,0.13266479969024658,0.08723399043083191,-0.2681903541088104
1761467520310846500,10.537846435546875,0.13964201509952545,0.07809428870677948,-0.3105924129486084
1761467520320829400,10.547829345703125,0.0908597856760025,0.011401192285120487,-0.3763229250907898
1761467520330812400,10.5578125,0.02314652130007744,-0.17732477188110352,-0.46142077445983887
1761467520340795400,10.56779541015625,-0.0023466283455491066,-0.39015743136405945,-0.49574124813079834
1761467520350778600,10.577778564453125,0.013108227401971817,-0.5156421661376953,-0.46658098697662354
1761467520360762600,10.5877626953125,0.020035594701766968,-0.5353169441223145,-0.385099321603775
1761467520370745300,10.597745361328125,0.018390294164419174,-0.5304497480392456,-0.2878667712211609
1761467520380728600,10.607728515625,0.030149536207318306,-0.5242655277252197,-0.17816293239593506
1761467520390711600,10.617711669921874,0.027302350848913193,-0.5905670523643494,-0.0372268483042717
1761467520400694500,10.627694580078124,0.022404687479138374,-0.7535294890403748,0.07564904540777206
1761467520410677500,10.637677490234376,-0.008486383594572544,-0.9039504528045654,0.13840165734291077
1761467520420661500,10.64766162109375,-0.007115402724593878,-1.0654393434524536,0.15725049376487732
1761467520430644500,10.65764453125,0.05157800391316414,-1.2026437520980835,0.20140090584754944
1761467520440627500,10.66762744140625,0.15748567879199982,-1.3046643733978271,0.2780812382698059
1761467520450610400,10.6776103515625,0.2771183252334595,-1.309183955192566,0.3773590922355652
1761467520460593400,10.687593505859375,0.3729497194290161,-1.2265552282333374,0.5408981442451477
1761467520470576600,10.69757666015625,0.40747973322868347,-1.024936556816101,0.7286659479141235
1761467520480560600,10.707560546875,0.3844386339187622,-0.7452874183654785,0.8502225875854492
1761467520490543600,10.717543701171875,0.2953292727470398,-0.4425152838230133,0.8531145453453064
1761467520500526300,10.7275263671875,0.17080572247505188,-0.12695904076099396,0.7605726718902588
1761467520510509600,10.737509521484375,0.030285364016890526,0.1335228830575943,0.6200672388076782
1761467520520492500,10.747492431640625,-0.093306764960289,0.3257576525211334,0.48712319135665894
1761467520530475500,10.7574755859375,-0.16730615496635437,0.42726534605026245,0.34944841265678406
1761467520540459500,10.76745947265625,-0.1859280914068222,0.4762493073940277,0.18777857720851898
1761467520550442500,10.7774423828125,-0.16658209264278412,0.5054942965507507,0.033087003976106644
1761467520560425500,10.787425537109375,-0.1217537447810173,0.4617525041103363,-0.11461516469717026
1761467520570408700,10.79740869140625,-0.05609484389424324,0.3555043339729309,-0.22368891537189484
1761467520580391400,10.807391357421874,0.021765779703855515,0.240021750330925,-0.25273463129997253
1761467520590374400,10.81737451171875,0.08025598526000977,0.132949098944664,-0.20489254593849182
1761467520600358400,10.8273583984375,0.14328768849372864,0.04341965168714523,-0.12184122204780579
1761467520610341600,10.837341552734374,0.1911287158727646,0.009169267490506172,0.0023568901233375072
1761467520620324600,10.84732470703125,0.20113006234169006,-0.01659983955323696,0.13632141053676605
1761467520630307300,10.857307373046876,0.17457889020442963,0.019383195787668228,0.2594180405139923
1761467520640290600,10.86729052734375,0.11616095900535583,0.05748670920729637,0.34895527362823486
1761467520650273500,10.8772734375,0.05739884451031685,0.013813531026244164,0.3750726282596588
1761467520660257500,10.887257568359376,0.03299720957875252,0.045779358595609665,0.5846184492111206
1761467520670240500,10.897240478515625,0.04360857605934143,0.13836655020713806,0.7746232748031616
1761467520680223500,10.907223388671875,-0.02946813777089119,0.03641967475414276,0.6928613185882568
1761467520690206500,10.91720654296875,-0.10121209174394608,-0.1905527561903,0.44523078203201294
1761467520700189700,10.927189697265625,-0.2107463777065277,-0.2871859669685364,0.26294493675231934
1761467520710172400,10.93717236328125,-0.3515245318412781,-0.2969975769519806,0.19446147978305817
1761467520720156400,10.947156494140625,-0.4951208829879761,-0.24869270622730255,0.2008458524942398
1761467520730139400,10.957139404296875,-0.6246359944343567,-0.24568653106689453,0.2288694977760315
1761467520740122600,10.96712255859375,-0.677424430847168,-0.23151253163814545,0.2547799050807953
1761467520750105300,10.977105224609375,-0.6018122434616089,-0.20976115763187408,0.26848292350769043
1761467520760088300,10.98708837890625,-0.4251219630241394,-0.23010224103927612,0.2743746042251587
1761467520770071600,10.997071533203124,-0.22538329660892487,-0.2671545147895813,0.1415633112192154
