time,seconds_elapsed,z,y,x
1761468893272265000,0.118264892578125,0.16647417227029798,-0.015693828216195107,-0.05427227293550968
1761468893282248000,0.128248046875,0.08444704644680023,-0.017219430348277092,-0.058467386537790295
1761468893292231000,0.13823095703125,0.012449731728434561,-0.0066720251098275184,-0.03961889368295669
1761468893302212900,0.148212890625,-0.0290963306248188,-0.01646481258869171,-0.07105740351974964
1761468893312196000,0.158196044921875,0.008126607832312583,-0.04142360501736402,-0.1062245784908533
1761468893322178800,0.1681787109375,0.07047638876140118,-0.051344110529124735,-0.1042290207594633
1761468893332161000,0.1781611328125,0.17886837441921233,-0.05889467203915119,-0.08884966531991959
1761468893342144000,0.18814404296875,0.2046902134180069,-0.04338058430403471,-0.0794248343706131
1761468893352126700,0.198126708984375,0.12367840211689471,0.015991057597100733,-0.03461187917590141
1761468893362109000,0.20810888671875,0.10626023432612418,0.037382805193960665,0.023881226325035095
1761468893372092000,0.218091796875,0.11116904915571212,-0.012078852589428424,0.005628945797681808
1761468893382075000,0.228074951171875,0.06979249815046787,-0.057338090246915815,-0.05262918190360069
1761468893392056800,0.238056884765625,0.03230886293053627,-0.04740384847074747,-0.05709609818458557
1761468893402040000,0.2480400390625,0.03448036175072193,-0.04271773648113012,-0.05516308429539203
1761468893412021000,0.25802099609375,0.09825696061253547,-0.04690642034262418,-0.0899812996983528
1761468893422002700,0.268002685546875,0.03364157283902168,-0.08953326366990805,-0.10855272917747497
1761468893431986000,0.27798583984375,-0.004678513205051422,-0.07041121457070112,-0.08458148648142814
1761468893441969000,0.287968994140625,-0.01927870096564293,-0.0597460281714797,-0.04495031783878803
1761468893451950800,0.297950927734375,-0.04501286168098449,-0.07341156543046236,-0.011920739418268203
1761468893461933800,0.307933837890625,0.07249474284648895,-0.07622457702457905,0.030760464444756507
1761468893471916800,0.317916748046875,0.17745090883672238,-0.08081190481483935,0.01984802528619766
1761468893481900000,0.327900146484375,0.12700550071299074,-0.11081307532489298,-0.042843116426467896
1761468893491881700,0.3378818359375,0.08112228593826293,-0.10536240870356559,-0.11007540870010853
1761468893501865000,0.347864990234375,0.05453238517642021,-0.11421002428680657,-0.14713234294056893
1761468893511848000,0.357847900390625,-0.02915828994512558,-0.08401537703126669,-0.15550561901032925
1761468893521830000,0.367829833984375,-0.03134089468121529,-0.09554244095683097,-0.14845979215204716
1761468893531812900,0.377812744140625,0.0429606053262949,-0.06080985801070928,-0.10317746587991714
1761468893541796000,0.387796142578125,0.09408522788584232,-0.07679974656403064,-0.07420388485193252
1761468893551777800,0.39777783203125,0.052042321926355356,-0.07884411187320947,-0.10130465774536132
1761468893561761000,0.407760986328125,0.018760814571380614,-0.05672258869707584,-0.10003858333230017
1761468893571744000,0.417743896484375,0.06842237884104252,-0.06640723962634801,-0.03659340838193893
1761468893581726000,0.427725830078125,0.16622341237962246,-0.0397951270326972,-0.0025917700588703155
1761468893591709000,0.437708984375,0.11947919686138629,-0.04435352098941803,-0.014603694891929626
1761468893601692000,0.44769189453125,0.07672142063081264,-0.04403524882048368,-0.030904256829619406
1761468893611673900,0.457673828125,0.017639701586961744,-0.06410714599043131,-0.04714636657834053
1761468893621656800,0.46765673828125,0.0005430208355188369,-0.09833762463331222,-0.08090835092663765
1761468893631640000,0.47764013671875,0.00392915614247322,-0.096418931530416,-0.10740239009857178
1761468893641621800,0.487621826171875,0.014482698860764502,-0.07916822926104068,-0.07662205190956592
1761468893651605000,0.49760498046875,0.09700140759348869,-0.03457096264362335,-0.007707505637407302
1761468893661588000,0.507587890625,0.10149287379384041,-0.02788900066167116,-0.008615268132090568
1761468893671571000,0.517571044921875,0.06142857443094253,-0.12105419109314679,-0.08035773130655288
1761468893681553000,0.527552978515625,0.07904489514231682,-0.11206804382205009,-0.0908142433911562
1761468893691536000,0.537535888671875,0.06958148574829101,-0.0840498638227582,-0.06480535738766192
1761468893701519000,0.54751904296875,0.07355681912004947,-0.05764058032482862,-0.05878653548955917
1761468893711500800,0.557500732421875,0.0753898797661066,-0.05721387934535741,-0.06277648190855979
1761468893721484000,0.567484130859375,0.05392214432358741,-0.07821896571218967,-0.06282265913784503
1761468893731467000,0.577467041015625,0.052552609536051745,-0.06243687469065189,-0.0750543642014265
1761468893741449000,0.587448974609375,0.03740472476482391,-0.07321195120513439,-0.10004033689796923
1761468893751432000,0.597431884765625,0.021323358535766602,-0.10112725535184144,-0.10154606528580189
1761468893761415000,0.607414794921875,0.07317045015096664,-0.06466682569980621,-0.09110065911710262
1761468893771396900,0.61739697265625,0.08111994785070419,-0.05967208615243434,-0.07516659240424632
1761468893781379800,0.6273798828125,0.08047697377204895,-0.045621056707203386,-0.06279635565280914
1761468893791363000,0.637363037109375,0.05772621278166771,-0.021890637029707432,-0.0592775338768959
1761468893801345800,0.647345703125,0.05309446132779121,-0.015842881298065183,-0.08040215497016906
1761468893811328000,0.657327880859375,0.06645546268224715,-0.010440729993581772,-0.08450783672332764
1761468893821311000,0.66731103515625,0.06110591834783554,-0.008615560393035411,-0.0890887347728014
1761468893831293700,0.677293701171875,0.050292263388633726,-0.047210956247150895,-0.052833764564991
1761468893841276000,0.68727587890625,0.10725859771370887,-0.023174831621348858,-0.036971009522676464
1761468893851259000,0.6972587890625,0.11996376550793647,-0.03777560390383005,-0.04654898520708084
1761468893861241900,0.707241943359375,0.11613514713048934,-0.05049421570152044,-0.11676526172757148
1761468893871223800,0.717223876953125,0.09690320791602135,-0.07791647563427687,-0.14196692300140856
1761468893881207000,0.72720703125,0.04806172785758972,-0.07142389874458313,-0.10272446141541003
1761468893891189800,0.737189697265625,0.0747410604685545,-0.051803252473473546,-0.0817903944581747
1761468893901173000,0.747173095703125,0.12125263627469539,-0.03995996220558882,-0.054742228534817694
1761468893911155000,0.757155029296875,0.07051087555289268,-0.0422828521952033,-0.033873043507337566
1761468893921138000,0.767137939453125,0.03155599873661995,-0.008949906913936137,-0.03733750474750996
1761468893931121000,0.777120849609375,0.06297989552617073,-0.015786767196655272,-0.07535188584327697
1761468893941103000,0.78710302734375,0.06954524539113044,-0.01814531302154064,-0.07853928370773791
1761468893951085800,0.7970859375,0.035326164925098415,-0.022214754417538642,-0.0505722493737936
1761468893961068800,0.80706884765625,0.04044716120064258,-0.031219898650050162,-0.04622749816775322
1761468893971051000,0.817051025390625,0.05427110389173031,-0.05983370645493269,-0.06867956847250462
1761468893981033700,0.82703369140625,0.06443535503149032,-0.07988602214157581,-0.06026946752369403
1761468893991017000,0.837016845703125,0.0971884545981884,-0.09719576112180947,-0.06180266844034195
1761468894000999000,0.8469990234375,0.13273089262247084,-0.10394581990391015,-0.08663140474855899
1761468894010982000,0.85698193359375,0.08198854737877845,-0.08412877427786589,-0.10119067597687244
1761468894020964900,0.86696484375,0.03447510105371475,-0.05430091450810432,-0.06785480808615683
1761468894030947800,0.87694775390625,0.060659343624114986,-0.02889233248531818,-0.09106091162860393
1761468894040929800,0.8869296875,0.05959025308787822,-0.029825813943147657,-0.08969956014752388
1761468894050912800,0.896912841796875,0.039570962888002395,-0.027720073835551737,-0.09444412432610988
1761468894060896000,0.90689599609375,0.05739888052344322,-0.03266746710985899,-0.10044774865508078
1761468894070877700,0.916877685546875,0.042806876069307324,-0.02377542786300182,-0.07383914319276809
1761468894080861000,0.92686083984375,0.013994038560986518,-0.0007356207981705665,-0.04065642003715038
1761468894090844000,0.936843994140625,0.08203998530507087,-0.01837619916796684,-0.05302782583236694
1761468894100825900,0.946825927734375,0.08384148176908493,-0.04425444452911615,-0.03246083862185478
1761468894110808800,0.956808837890625,0.09954758494496345,-0.049342415317893025,-0.044674423506855965
1761468894120791800,0.966791748046875,0.10181903700828551,-0.0810085964307189,-0.06731938603520393
1761468894130775000,0.976775146484375,0.07911562229096888,-0.08299246372431517,-0.09379764311611652
1761468894140756700,0.9867568359375,0.02281213578879833,-0.0823851454809308,-0.10111235004365443
1761468894150740000,0.996739990234375,0.0070125091105699535,-0.08386632394939661,-0.138105571398139
1761468894160723000,1.006722900390625,-0.016577040791511535,-0.09052928896993398,-0.13490472953021526
1761468894170705000,1.016704833984375,0.04891396077275276,-0.07891571580469608,-0.072779989528656
1761468894180688000,1.02668798828125,0.0774988347440958,-0.061138651573657984,-0.045295770275592805
1761468894190670800,1.0366708984375,0.05626198544800281,-0.06442629494220017,-0.0652817427277565
1761468894200653800,1.04665380859375,0.0586240384042263,-0.06048047992587089,-0.07087503269016743
1761468894210635800,1.0566357421875,0.025965046861767767,-0.06032265901565551,-0.1010223336726427
1761468894220619000,1.066618896484375,0.044023266121745105,-0.03318564576506614,-0.13038637532293795
1761468894230601700,1.076601806640625,0.09662731358408927,-0.031079905657470226,-0.0817728588014841
1761468894240584000,1.086583984375,0.10411270090341568,-0.030167174726724623,-0.06950491338074206
1761468894250567000,1.09656689453125,0.06285130071043968,-0.03891191445738077,-0.07485270414948463
1761468894260550100,1.106550048828125,0.0784703101247549,-0.012757482503354548,-0.041724926051497455
1761468894270531800,1.11653173828125,0.06166004509925842,-0.02551525726765394,-0.04280395345985889
1761468894280515000,1.12651513671875,0.06185293732285499,-0.022167115883529185,-0.04809563012719154
1761468894290498000,1.136498046875,0.06402618970870971,0.0002726794615387916,-0.060520811936259265
1761468894300480800,1.146480712890625,0.08572422677576541,-0.03559299916774034,-0.10164017331004142
1761468894310463000,1.156462890625,0.09617547816336154,-0.038593642288446424,-0.11234276911020279
1761468894320446000,1.166446044921875,0.1063689553976059,-0.058252282482385634,-0.06918459538519382
1761468894330429000,1.176428955078125,0.051287704166769976,-0.02793254754245281,-0.04962532391250133
1761468894340411000,1.186410888671875,0.09048340400159359,-0.0344207405179739,-0.07787702040672302
1761468894350394000,1.19639404296875,0.0899514890819788,-0.0012689970225095747,-0.051881578406691546
1761468894360376800,1.206376953125,0.03921382001340389,-0.010291092389822006,-0.05388181231319904
1761468894370359800,1.21635986328125,0.06702244891524314,-0.0031871056035161016,-0.07201835750639438
1761468894380342000,1.226342041015625,0.09695581488609313,-0.021297931833565233,-0.07309972300231456
1761468894390324700,1.23632470703125,0.08418634968400002,0.01664396854788065,-0.045781507965922355
1761468894400308000,1.246307861328125,0.060986675882339476,-0.013455986161530016,-0.04339139795899391
1761468894410289400,1.256289306640625,0.08286708377897739,-0.0481648959711194,-0.04289338530898094
1761468894420272400,1.2662724609375,0.12019582069814204,-0.06093932960927486,-0.03505027059316635
1761468894430255400,1.27625537109375,0.08992635464072227,-0.06430237630158663,-0.06359247446656227
1761468894440238600,1.286238525390625,0.05480827950835228,-0.07856997110694647,-0.09653145199418067
1761468894450220300,1.29622021484375,0.016531448084115982,-0.11220686777085065,-0.07316109780073166
1761468894460203500,1.30620361328125,0.0011368950754404067,-0.09264262786209583,-0.05810849009752273
1761468894470186500,1.3161865234375,0.03441840243041515,-0.08626227917522192,-0.06900748525261878
1761468894480168400,1.32616845703125,0.0772328772842884,-0.09821282920986413,-0.07682838813662529
1761468894490151400,1.3361513671875,0.04751636893451214,-0.07456190450936555,-0.0378320102661848
1761468894500134400,1.346134521484375,0.07837152592539787,-0.060064592601358886,-0.029181670820713042
1761468894510117400,1.356117431640625,0.11381985592544078,-0.05530307728797197,-0.03952478565871715
1761468894520099300,1.366099365234375,0.05896715275347233,-0.06025719256401062,-0.04244856415092945
1761468894530082600,1.37608251953125,0.05111760829687118,-0.06637655222713947,-0.08270634025931357
1761468894540065300,1.386065185546875,0.09993044678270817,-0.07918401135206223,-0.1260574062079191
1761468894550047500,1.396047607421875,0.07479600552618502,-0.06919102512598037,-0.14972878917455673
1761468894560030500,1.406030517578125,0.050018122622370716,-0.059141048015654084,-0.146352590739727
1761468894570013400,1.416013427734375,0.08075988236665725,-0.030225042393803594,-0.10925357092320918
1761468894579995400,1.425995361328125,0.05451017334461212,-0.0465899017393589,-0.06829203045964241
1761468894589978400,1.435978271484375,0.07720774284303188,-0.03755143975913525,-0.03582417757511139
1761468894599961600,1.445961669921875,0.10247487056851387,-0.019310265147686002,-0.028340543821454046
1761468894609944300,1.4559443359375,0.07089198382496834,-0.02595627903342247,-0.010391630154848099
1761468894619926500,1.465926513671875,0.07183072597980499,-0.028991993467509743,-0.05279518612027168
1761468894629909500,1.475909423828125,0.08328150979876518,-0.048073126034438605,-0.0866746593683958
1761468894639892200,1.485892333984375,0.04933014035820961,-0.04766016131937503,-0.08969137684106826
1761468894649875500,1.49587548828125,0.036650691527128215,-0.05072977802306413,-0.1249164194792509
1761468894659857400,1.505857421875,0.08716974940896034,-0.06613602146953344,-0.14501228204667568
1761468894669840400,1.51584033203125,0.09329378524720668,-0.03464256657510996,-0.09655483286976814
1761468894679823400,1.5258232421875,0.06340951911509037,-0.04232961394637823,-0.06871347074210643
1761468894689805600,1.5358056640625,0.08612813140153884,-0.06345803443193436,-0.05875438678562641
1761468894699788300,1.545788330078125,0.12528992896676064,-0.02397591887116432,-0.05267886626422405
1761468894709771500,1.555771484375,0.08534487206935883,-0.030624855366349218,-0.023918635725975034
1761468894719753500,1.56575341796875,0.06378828929960727,-0.0402528076723218,-0.04394610923230648
1761468894729736400,1.575736328125,0.07416764449477195,-0.0552647911041975,-0.07570026088953018
1761468894739719400,1.585719482421875,0.0928793592274189,0.006669979283213615,-0.059574470996856685
1761468894749702400,1.595702392578125,0.0345645329028368,-0.003490472464263439,-0.05672726487219333
1761468894759684400,1.605684326171875,0.05460369684696197,-0.023301672871410845,-0.07242752282917499
1761468894769667300,1.615667236328125,0.04434007698595523,-0.05426175154149532,-0.08401040859520435
1761468894779650600,1.625650634765625,0.06231997031271457,-0.05799070893675089,-0.10349603030979633
1761468894789632300,1.63563232421875,0.09128186090290547,-0.05492372258156537,-0.11050620133280753
1761468894799615500,1.645615478515625,0.09522679913640021,-0.05257014519274234,-0.10453764831721782
1761468894809598500,1.655598388671875,0.10728665476441383,-0.03305734321027994,-0.0740957483023405
1761468894819581400,1.66558154296875,0.10987900934517383,-0.03338935164362192,-0.044396191087365144
1761468894829563400,1.6755634765625,0.10725976675748825,-0.04882628248929977,-0.06255494811236859
1761468894839546400,1.68554638671875,0.03234159615635872,-0.07433978619128465,-0.07616320222616195
1761468894849529600,1.695529541015625,0.07580722839534282,-0.053937049631774425,-0.10888006143569946
1761468894859512300,1.70551220703125,0.09238777631819248,0.00878770208954811,-0.07542144394814967
1761468894869494500,1.71549462890625,0.061275429695844645,0.006029051031172275,-0.019715923339128492
1761468894879477500,1.7254775390625,0.12005962709784507,0.016342062991857528,-0.040407998234033585
1761468894889460200,1.735460205078125,0.12374328404664993,0.015243161839246748,-0.060655836492776866
1761468894899442400,1.7454423828125,0.10847089611291885,0.020943711568415162,-0.051123453515768046
1761468894909425400,1.75542529296875,0.10173486585617064,0.012445347814261912,-0.0718389092862606
1761468894919408400,1.765408447265625,0.07166121463179588,0.027683541217446327,-0.050610243296623225
1761468894929391400,1.775391357421875,0.10476794994175434,0.04327595488578081,-0.04148118042349815
1761468894939373600,1.78537353515625,0.13013444638848304,0.02552402509599924,-0.03555822011530399
1761468894949356300,1.795356201171875,0.1316045189410448,-0.006771393831074238,-0.03722586106657982
1761468894959339300,1.80533935546875,0.14084230288565158,-0.016425357361137868,-0.05073065480589866
1761468894969321500,1.815321533203125,0.09746902510523796,-0.03524579316526651,-0.05367138443291187
1761468894979304200,1.82530419921875,0.09970715942084789,-0.033869536375999446,-0.09485328964889049
1761468894989287400,1.835287353515625,0.09549801729321479,0.004257657444477081,-0.1414642341762781
1761468894999270400,1.8452705078125,0.07757774519920349,-0.012278759075701235,-0.11165127971470355
1761468895009252400,1.85525244140625,0.06564473082125187,0.024551672932505608,-0.046729602470993996
1761468895019235300,1.8652353515625,0.08382219254672527,0.026404899583756924,0.020907178950309753
1761468895029218600,1.875218505859375,0.09427461297810077,-0.03837035492658615,0.018424129962921143
1761468895039200300,1.8852001953125,0.11501929484307766,-0.05034925427287817,-0.0023638065218925474
1761468895049183500,1.89518359375,0.12523556843101977,-0.04757949729859828,-0.04455751912891864
1761468895059166500,1.90516650390625,0.0969920552432537,-0.05723462987244129,-0.065512044352293
1761468895069149400,1.9151494140625,0.0915805515885353,-0.035405952163040634,-0.09381927042603493
1761468895079131400,1.92513134765625,0.09667992055416107,-0.04969780462682247,-0.13669921173155308
1761468895089114400,1.9351142578125,0.06561316663920878,-0.05538081869930028,-0.147124744156003
1761468895099097600,1.94509765625,0.03200198893845081,-0.04941021985709667,-0.10479892960190772
1761468895109080300,1.955080322265625,-0.012598784810304641,-0.005080079743266105,-0.037383681976795195
1761468895119062500,1.9650625,0.03200549606978893,-0.026378303837776184,-0.035353052932024
1761468895129045500,1.97504541015625,0.07418050397634506,-0.05656242969930172,-0.0037041152149438856
1761468895139028200,1.9850283203125,0.13362754920125006,-0.07203004794418812,-0.043503041639924044
1761468895149010400,1.995010498046875,0.1250035132408142,-0.08691782047450541,-0.08187398108839988
1761468895158993400,2.004993408203125,0.09005904110968112,-0.05385609335005283,-0.08831248970329761
1761468895168976400,2.014976318359375,0.09316402138769626,-0.06104717389792204,-0.09393500576019287
1761468895178959400,2.02495947265625,0.09144260442256927,-0.05877952122688293,-0.07248012979924678
1761468895188941600,2.034941650390625,0.05972118599116802,-0.08305266947895287,-0.07760580224990844
1761468895198924300,2.04492431640625,0.016968670457601545,-0.08716624227762222,-0.06755962453186512
1761468895208907300,2.0549072265625,0.0659352382004261,-0.01970072576999664,-0.02768646382689476
1761468895218890500,2.064890380859375,0.07633388261795043,-0.02702683087438345,-0.052450318205356596
1761468895228872200,2.0748720703125,0.05902560494244098,-0.02937865469753742,-0.05519757108688354
1761468895238855400,2.08485546875,0.06259820273220539,-0.00409866749048233,-0.02158697790801525
1761468895248838400,2.09483837890625,0.10159516512453555,-0.02714782690554857,-0.042675358644127845
1761468895258820400,2.1048203125,0.11900982578396796,-0.021298808616399763,-0.04660626835227012
1761468895268803300,2.11480322265625,0.10539455740749835,-0.04106266275048256,-0.04608604387044906
1761468895278786300,2.124786376953125,0.10462649564445019,-0.09693389531522989,-0.08778700452446937
1761468895288769500,2.13476953125,0.07556698989868163,-0.0922407690629363,-0.09528057515025139
1761468895298751200,2.144751220703125,0.01835749446749687,-0.09159691820144653,-0.06817804869115353
1761468895308734500,2.154734375,0.06015314766764641,-0.07210866613835096,-0.06367606109678745
1761468895318717400,2.164717529296875,0.029624153891205787,-0.058246437263488764,-0.07221709494888782
1761468895328699400,2.174699462890625,0.10631167225241661,-0.05703004721105098,-0.06631693099439144
1761468895338682400,2.184682373046875,0.06080898122787475,-0.04042173449844122,-0.05675707548856735
1761468895348665600,2.19466552734375,0.05187573318779468,-0.05445756637454033,-0.03942424789369106
1761468895358648300,2.2046484375,0.09114566730260848,-0.024024434188008308,-0.031165538114309308
1761468895368630500,2.214630615234375,0.05167641122341156,-0.054746904709935186,-0.06202127962708473
1761468895378613500,2.224613525390625,0.012324059522151947,-0.04882248309701681,-0.06672258918583393
1761468895388596200,2.23459619140625,0.07163608019053935,-0.04873889646679163,-0.11724281611144542
1761468895398579500,2.244579345703125,0.06204816763401031,-0.03312427096664906,-0.11661387055814265
1761468895408561400,2.2545615234375,0.00997194343805313,-0.027037352268397808,-0.056906713092327116
1761468895418545000,2.264544921875,0.06968319255709647,-0.0571753009006381,-0.03669569971263408
1761468895428527900,2.27452783203125,0.1140372980684042,-0.04939093063473701,-0.04089665853381157
1761468895438509800,2.284509765625,0.12067980482280254,-0.03639963937550783,-0.0322159239500761
1761468895448493000,2.2944931640625,0.11222703377604484,-0.035763387298583985,-0.057557285955548286
1761468895458475800,2.304475830078125,0.05224222841262817,-0.045725393864512444,-0.08400222528874873
1761468895468459000,2.314458984375,0.06855623435378075,-0.03446107252836227,-0.11127835474908351
1761468895478441000,2.32444091796875,0.10484276874363421,-0.033174832110106946,-0.08392214578986168
1761468895488424000,2.334423828125,0.07371347098648548,-0.00896422770023346,-0.04536591290235519
1761468895498407000,2.344406982421875,0.06740881788432598,-0.025387246973812578,-0.06093874508738517
1761468895508390000,2.354389892578125,0.04808627777695656,-0.020884382596611975,-0.09145721746981143
1761468895518371800,2.364371826171875,0.027603461718559263,-0.014013327783346175,-0.08509995739758014
1761468895528354800,2.374354736328125,0.06317454131543636,-0.0224082311630249,-0.11448796444535254
1761468895538338000,2.384338134765625,0.05477554628252983,-0.021821663446724412,-0.1330558867931366
1761468895548319700,2.39431982421875,0.04475684109330177,0.0010226210460066794,-0.032605215528607366
1761468895558303000,2.404302978515625,0.09902151524424552,-0.015781506499648094,-0.04630816218852996
1761468895568286000,2.414285888671875,0.1517255159497261,-0.049619186432659626,-0.044316111588478084
1761468895578269000,2.42426904296875,0.0721872843325138,0.004226093262434005,0.013406009539961815
1761468895588251000,2.4342509765625,0.07638298245668411,-0.021429156997799872,-0.05976034895777702
1761468895598233900,2.44423388671875,0.05851765542030334,-0.008578735513985157,-0.10434124896228313
1761468895608217000,2.454217041015625,0.012618658554553986,0.014755670583248138,-0.07622808415591717
1761468895618199800,2.46419970703125,0.07955752083957195,-0.01803805325478315,-0.10068331097662449
1761468895628182000,2.47418212890625,0.10140519551038742,-0.028939678758382794,-0.09128127638101577
1761468895638165000,2.4841650390625,0.08738602250814437,-0.011504267571866511,-0.042081484404206275
1761468895648147700,2.494147705078125,0.08830898257195949,-0.019629998621344565,-0.06503390544652939
1761468895658131000,2.504130859375,0.04385433929562568,-0.04563040905743837,-0.07960252902507782
1761468895668113000,2.51411279296875,0.020669863063097,-0.009186053757369517,-0.07996317903101444
1761468895678096000,2.524095947265625,0.09554477904438972,-0.00829495013654232,-0.09411796111166476
1761468895688078800,2.534078857421875,0.1071048684567213,-0.006694529202580452,-0.10279401952028273
1761468895698061000,2.54406103515625,0.08575169930458068,0.011223697064816952,-0.09011340164542198
1761468895708043800,2.554043701171875,0.07841244245767592,0.011571779850125313,-0.09527414540946483
1761468895718026800,2.56402685546875,0.06696808837950229,-0.03590717968344688,-0.12436112368404864
1761468895728010000,2.574010009765625,0.03863923499584198,-0.04770604628771543,-0.09647475337088107
1761468895737992000,2.583991943359375,0.06037409694194793,-0.01785042172819376,-0.07518354353904724
1761468895747975000,2.593974853515625,0.0821872848212719,-0.0454199811771512,-0.08578092539906501
1761468895757958000,2.6039580078125,0.08125321884155273,-0.0374815893933177,-0.08076631210744381
1761468895767941000,2.613941162109375,0.08838964659273624,0.003804945240914821,-0.04057809410393238
1761468895777922800,2.6239228515625,0.10491057328283786,0.018622282883524893,-0.013530512702465056
1761468895787906000,2.633906005859375,0.06898001272380351,0.01462707576751709,-0.030062545308470724
1761468895797889000,2.643888916015625,0.06180149939656257,-0.025884967362880706,-0.04255260904729366
1761468895807871000,2.65387109375,0.08523381291031837,-0.029112112715840337,-0.06870704100131989
1761468895817854000,2.66385400390625,0.08415537002384663,-0.039571839670836925,-0.06598433803915978
1761468895827837000,2.6738369140625,0.02200432653725147,-0.028183015172183513,-0.09186053757369518
1761468895837820000,2.68381982421875,0.004309095370769501,-0.06558657089322804,-0.12504618333876133
1761468895847801900,2.6938017578125,0.024767946031689643,-0.07111497892588377,-0.1599777959883213
1761468895857785000,2.70378515625,0.05022738145887851,-0.08726502647697926,-0.17861878357231617
1761468895867767800,2.713767822265625,0.10637596966028214,-0.05260170937478542,-0.159058927577734
1761468895877750800,2.723750732421875,0.06113631348609924,-0.01223199732452631,-0.10384498987793922
1761468895887733000,2.73373291015625,0.02948445315957069,-0.019621230792999267,-0.03402326563298702
1761468895897715700,2.7437158203125,0.05588496882915497,0.0021750059515237806,-0.0018447510838508604
1761468895907699000,2.753698974609375,0.05471007983088493,-0.0021916648253798485,-0.014424246671795845
1761468895917682000,2.763681884765625,0.0671896221756935,-0.017584172007441518,-0.05411971272230148
1761468895927663900,2.773663818359375,0.06409750137925148,-0.004046060520410537,-0.08633972832560538
1761468895937646800,2.783646728515625,0.07069792255759239,-0.02558539989441633,-0.08046411429047584
1761468895947629800,2.7936298828125,0.03383329601883888,-0.03715834878832101,-0.06521569175422191
1761468895957611800,2.80361181640625,0.040727147185802455,-0.06212269417494535,-0.08069558495879173
1761468895967594800,2.8135947265625,0.014191606959700584,0.0034603695869445798,-0.09733926124572753
1761468895977578000,2.823577880859375,0.05186930344700813,-0.024132862998545168,-0.07519231136739253
1761468895987561000,2.83356103515625,0.05268237339556217,-0.02452536944746971,-0.09706804308891295
1761468895997543000,2.84354296875,0.0513303742647171,-0.07383680510520935,-0.07616904744505881
1761468896007526000,2.85352587890625,0.06724573627710342,-0.07499883462190628,-0.054418987929821014
1761468896017508900,2.8635087890625,0.07914718647301197,-0.08270867834687233,-0.040082419541478155
1761468896027491800,2.873491943359375,0.058741527304053305,-0.07710428246855736,-0.037782325905561444
1761468896037473800,2.883473876953125,0.01996317609846592,-0.06210837338864803,-0.04414893832802772
1761468896047457000,2.89345703125,0.0292968216329813,-0.05338116931468248,-0.09593231705725193
1761468896057439700,2.903439697265625,0.07160743861794472,-0.04255786974430084,-0.12738543994128704
1761468896067422000,2.913421875,0.043429391881823536,-0.0012508768439292908,-0.12335866864323615
1761468896077405000,2.923405029296875,0.029652795463800428,-0.027655191905796527,-0.11154314316511153
1761468896087388000,2.933387939453125,0.029886019697785374,-0.06482113947868347,-0.07159457913637161
1761468896097371000,2.943370849609375,0.0347691155642271,-0.056601300404965874,-0.04878887308835983
1761468896107353000,2.95335302734375,0.07271978377401829,-0.07029284888803959,-0.038113165295124055
1761468896117335800,2.963335693359375,0.1157581305116415,-0.10642769984751939,-0.07150865441858768
1761468896127318800,2.97331884765625,0.02551964118182659,-0.11068068111687898,-0.12272387787103652
1761468896137302000,2.983302001953125,0.010993103179335594,-0.0947615197122097,-0.09679214875698089
1761468896147283700,2.99328369140625,-0.0047679450541734695,-0.08754238211363553,-0.09037526745200157
1761468896157267000,3.003266845703125,0.004199789777398109,-0.04685381337255239,-0.07775427080988884
1761468896167250000,3.01325,0.019638766449689864,-0.026635201208293435,-0.09075696024596691
1761468896177233000,3.02323291015625,0.06482640017569065,-0.031082536005973813,-0.10585574517846107
1761468896187214800,3.03321484375,0.0869926392763853,-0.034135201574862,-0.10327858816683291
1761468896197197800,3.04319775390625,0.10491992563307284,-0.026781331680715083,-0.09893383696079254
1761468896207181000,3.05318115234375,0.10126140312552452,-0.019908523301780223,-0.0411216994613409
1761468896217162800,3.063162841796875,0.10846797350347041,0.004233399786055088,-0.018979425758123395
1761468896227146000,3.07314599609375,0.061382981723546975,-0.028721652093529698,-0.05189268432259559
1761468896237129000,3.08312890625,0.016169629034399984,-0.05828676927387714,-0.04649930084645748
1761468896247111700,3.093111572265625,0.010643559089303017,-0.062058104506134984,-0.06568389378786087
1761468896257094000,3.103093994140625,0.0387514631986618,-0.06225304255634546,-0.10202654227912425
1761468896267076900,3.113076904296875,0.0752636230379343,-0.04436901081949472,-0.1064379289805889
1761468896277059800,3.123059814453125,0.05297112720906734,-0.017880524605512618,-0.09030980100035667
1761468896287042800,3.133042724609375,0.00964344213604927,-0.009731704941391944,-0.08583762402236461
1761468896297025000,3.14302490234375,0.05567804808020591,-0.037004619531333445,-0.10158522825241088
1761468896307007700,3.1530078125,0.09006313276290893,-0.016088965013623238,-0.0862263310790062
1761468896316991000,3.162990966796875,0.05210837289988994,-0.024292437474429607,-0.0746446143567562
1761468896326974000,3.172973876953125,0.07903729635775089,-0.020142332057654855,-0.06472235527932643
1761468896336956000,3.182955810546875,0.10851765786409377,-0.04563917688578367,-0.07401040810644627
1761468896346939000,3.19293896484375,0.06104278998374939,-0.05610708714723587,-0.08063362563848495
1761468896356921900,3.202921875,0.05406184505522251,-0.028652970771491527,-0.0986170260965824
1761468896366904000,3.212904052734375,0.040481063470244404,0.0005102876096963882,-0.08752689228355884
1761468896376886800,3.22288671875,0.009352350234985351,-0.0029106267496943473,-0.08347440202236175
1761468896386870000,3.2328701171875,0.06447042634487152,-0.004325169722735882,-0.07873042236566544
1761468896396853000,3.24285302734375,0.10970482182204723,0.012506138090789317,-0.04406593621969223
1761468896406835000,3.2528349609375,0.11214286262392997,0.005438391661643982,-0.022970541220903397
1761468896416818200,3.262818115234375,0.09615385085344313,0.03075111209452152,-0.04117489095330238
1761468896426801000,3.27280078125,0.08235796521306038,0.038266310030221934,-0.05040741420090198
1761468896436784000,3.2827841796875,0.07277180622220039,0.014662439341843128,-0.07405892342329025
1761468896446766000,3.29276611328125,0.047726796814799306,-0.039272856724262235,-0.10728723928630352
1761468896456749000,3.3027490234375,0.08170037808716296,-0.02502075174897909,-0.0990004724562168
1761468896466732000,3.31273193359375,0.10435177035629749,-0.03718494453430175,-0.11208557947874069
1761468896476714200,3.32271435546875,0.04657938034534454,-0.06626140141487122,-0.11825345445871352
1761468896486697000,3.332697021484375,0.046209962511062616,-0.04377367527484893,-0.11146832436323165
1761468896496680000,3.342679931640625,0.05923661734461784,-0.051427404898405076,-0.061041620939970016
1761468896506663200,3.3526630859375,0.055958034065365786,-0.06241933903396129,-0.06268295840620994
1761468896516644900,3.362644775390625,0.10062953496277331,-0.0406619729951024,-0.06031330666542053
1761468896526628000,3.372628173828125,0.11167875224351882,-0.041403731273114676,-0.06614157442748546
1761468896536611000,3.382611083984375,0.040215106010437006,-0.05402034400105476,-0.07485153510570526
1761468896546594000,3.392593994140625,0.04125847758352756,-0.059309974841773506,-0.05636135416924953
1761468896556576000,3.402575927734375,0.05378185907006264,-0.060709904767572875,-0.06479892764687538
1761468896566559000,3.41255908203125,0.04867430679798126,-0.05383505056202411,-0.10785714812874793
1761468896576542200,3.422542236328125,0.019811784929037093,-0.06121668524593114,-0.11005670399963854
1761468896586525000,3.43252490234375,0.053635728597640986,-0.06463613830059767,-0.10937222886681557
1761468896596507100,3.442507080078125,0.07810206133425235,-0.05240677132457494,-0.09308744902014732
1761468896606490000,3.452489990234375,0.04167290360331535,-0.06698065560013056,-0.059580316215753555
1761468896616472800,3.462472900390625,0.059739306169748305,-0.07375263395309448,-0.03177928609848022
1761468896626455000,3.472455078125,0.07889525753855704,-0.08423778761029244,-0.017315291938185692
1761468896636438000,3.48243798828125,0.06467383996248245,-0.08207827148884535,-0.03658288698792457
1761468896646421000,3.4924208984375,0.058088616353273385,-0.0773375067025423,-0.08333528581261634
1761468896656404000,3.502404052734375,0.05214636682271957,-0.05493716658502817,-0.1307552086353302
1761468896666386200,3.51238623046875,0.02282616431415081,-0.034086686258018015,-0.13110475272536276
1761468896676369000,3.522368896484375,0.03699029874503612,0.005533668729662895,-0.13622633352279662
1761468896686352100,3.53235205078125,0.04997019182741642,-0.03766103761345148,-0.13161036415994168
1761468896696335000,3.542335205078125,0.07249006667137145,-0.04652765015810728,-0.08658288943171501
1761468896706317000,3.552317138671875,0.022444471520185468,-0.058304012669622894,-0.04498246654272079
1761468896716300000,3.562300048828125,-0.013778349983692168,-0.050697044797241686,-0.031309915021061896
1761468896726283000,3.572282958984375,0.041463644766807556,-0.06014876375347376,-0.05480769498646259
1761468896736266200,3.582266357421875,0.07943243315517902,-0.07666822913885116,-0.055962125718593596
1761468896746248000,3.592248046875,0.06345452730059624,-0.08252396942973136,-0.06277122121155261
1761468896756231200,3.602231201171875,0.0564279896646738,-0.09090250619649887,-0.0737473732560873
1761468896766214100,3.612214111328125,0.07792670476734638,-0.07545476169586181,-0.09246434868574142
1761468896776196000,3.622196044921875,0.03208382200300693,-0.015552958440780638,-0.09968962376415728
1761468896786179000,3.632178955078125,-0.021034604722261426,0.01896919662505388,-0.09685235451161861
1761468896796162000,3.642162109375,0.00970832406580448,0.01823649843633175,-0.1134486845254898
1761468896806145000,3.65214501953125,0.07727788546979426,0.020569033037126063,-0.09100947370231151
1761468896816127000,3.662126953125,0.10588555579483508,-0.031126959669589994,-0.07198387071490288
1761468896826110200,3.672110107421875,0.08104279096126556,-0.07356207981705665,-0.03877484407424926
1761468896836093000,3.682093017578125,0.058571431434154504,-0.07031126132756471,0.006990297278761863
1761468896846076000,3.692075927734375,0.06667699647843837,-0.06316986514031887,0.00035538930892944334
1761468896856058000,3.70205810546875,0.08914426435232162,-0.04160802167356014,-0.0509732313901186
1761468896866040800,3.712040771484375,0.07259411156773567,-0.017767711880803106,-0.09166238465309143
1761468896876024000,3.722024169921875,0.04299041594266891,-0.010559387937188148,-0.11436053867340087
1761468896886007000,3.732007080078125,0.04171089752614498,-0.02994856353998184,-0.10971592773795127
1761468896895989000,3.741989013671875,0.07241232526004314,-0.050263037294149396,-0.07999708130061627
1761468896905972000,3.751971923828125,0.10251111092567443,-0.03758504976779222,-0.08729834422469139
1761468896915955000,3.761954833984375,0.025364742881059645,-0.021891806073486803,-0.060310968577861786
1761468896925938200,3.771938232421875,-0.0016664719074964522,-0.019074410565197465,-0.07877075437605381
1761468896935920000,3.781920166015625,0.03580313478708267,-0.05888590421080589,-0.07138005960285664
1761468896945903000,3.791903076171875,0.06427636507749557,-0.0553714663490653,-0.06649170303940773
1761468896955886000,3.801885986328125,0.04206687135696411,-0.042047874395549294,-0.054584407624602316
1761468896965868000,3.811867919921875,0.09926584539413452,-0.06306874285340308,-0.060683309021592136
1761468896975851000,3.82185107421875,0.10606675758063792,-0.03493599656373262,-0.06417232018113136
1761468896985834200,3.831834228515625,0.060391048076748846,-0.03264262492954731,-0.0637257454574108
1761468896995817000,3.84181689453125,0.06134557232260704,-0.03764642456620931,-0.10272329237163066
1761468897005799200,3.851799072265625,0.07020575512647628,-0.028924773450195788,-0.1543517728000879
1761468897015782100,3.8617822265625,0.038403672674298284,-0.04101180934607982,-0.1411339793086052
1761468897025764900,3.871764892578125,0.038275077858567236,-0.04210252719223499,-0.08122516179084778
1761468897035748000,3.881748046875,0.09578794015049934,-0.05032616565823555,-0.04138999500870704
1761468897045730000,3.89172998046875,0.08727905500233173,-0.05412906507253647,0.016984452548623085
1761468897055713000,3.901713134765625,0.0698433515548706,-0.055689738517999646,0.013368015617132186
1761468897065696000,3.911696044921875,0.06370587171316147,-0.07309446230530739,-0.0598006809681654
1761468897075678200,3.92167822265625,0.07320610598623752,-0.10030921696722507,-0.10832242755293846
1761468897085661000,3.931660888671875,0.040327334213256835,-0.08389438100010156,-0.1400391698092222
1761468897095644000,3.941643798828125,0.01009703112244606,-0.062379591545462604,-0.10959785431623459
1761468897105627100,3.951627197265625,0.055169514036178584,-0.0628089228734374,-0.0804220287144184
1761468897115608800,3.96160888671875,0.03657528820335865,-0.0324292744398117,-0.04482289206683635
1761468897125592000,3.971592041015625,0.034579145950078966,-0.02814911290258169,-0.022428689429163932
1761468897135575000,3.981574951171875,0.06551321339607238,-0.05398059651255607,-0.06300502996742725
1761468897145558000,3.99155810546875,0.08328969310522079,-0.028963644155859947,-0.09659224227070808
1761468897155540000,4.0015400390625,0.11312369035482406,-0.0657893999889493,-0.1262327627748251
1761468897165521200,4.011521240234375,0.07414601718485354,-0.027575112406909463,-0.07540916898846625
1761468897175504000,4.02150390625,0.05823708491325378,-0.05972936929762363,-0.10751578734517096
1761468897185487000,4.031487060546875,0.07107026300132274,-0.06446750373542308,-0.08741758669018745
1761468897195470000,4.041469970703125,0.08641454712748527,-0.06271949102431536,-0.08959259264171122
1761468897205452000,4.0514521484375,0.046343818023800845,-0.04599778106510639,-0.053980011990666384
1761468897215435000,4.06143505859375,0.04405599934756756,-0.01950520319789648,-0.018546879559755324
1761468897225418000,4.07141796875,0.0840904880940914,0.011034019711613654,-0.02640110019147396
1761468897235401000,4.08140087890625,0.054230187359452245,-0.004336275638639927,-0.05248188238739967
1761468897245383000,4.0913828125,0.012490063738822936,-0.03334755832850933,-0.0718733960777521
1761468897255366100,4.1013662109375,0.06458148550391196,-0.027515783435106276,-0.09837211142480373
1761468897265348900,4.111348876953125,0.1162982287377119,-0.03755027071535587,-0.07218202363550663
1761468897275331000,4.1213310546875,0.1192348667114973,-0.057573360307514664,-0.06666530604064465
1761468897285314000,4.13131396484375,0.09694587801396846,-0.05059621477127075,-0.06982464685440062
1761468897295297000,4.141297119140625,0.0839560480594635,-0.05019143336266279,-0.08676409121751785
1761468897305280000,4.151280029296875,0.04181552694439888,-0.060331426844000814,-0.11133739145994186
1761468897315262000,4.161261962890625,-0.00360240840613842,-0.05254062683731317,-0.08659165726006031
1761468897325245200,4.1712451171875,-0.0019236615389585494,-0.05051671979427337,-0.07091828731000423
1761468897335228000,4.181227783203125,0.05827507883608341,-0.0497641478613019,-0.03873685015141964
1761468897345211100,4.191211181640625,0.06105331137776374,-0.05997136135995388,-0.020263620349764824
1761468897355193000,4.201193115234375,0.059036126336455344,-0.06435264518409967,-0.017765958315134046
1761468897365176000,4.211176025390625,0.10120704258978366,-0.062356502930819985,-0.04681318910121918
1761468897375159000,4.221158935546875,0.10465455269515514,-0.041133389899134634,-0.09898936654031276
1761468897385141200,4.231141357421875,0.05249532639086246,-0.03242489052563906,-0.13583353481292723
1761468897395124000,4.2411240234375,-0.016147417202591895,-0.028607670325040815,-0.09816226806640624
1761468897405107000,4.25110693359375,0.03666939622759819,-0.03653846332430839,-0.08988602263033389
1761468897415090200,4.261090087890625,0.06445113712251185,-0.06528261951059103,-0.09498013089895248
1761468897425071400,4.2710712890625,0.06066694240868091,-0.06821896522343159,-0.09421440722346305
1761468897435054300,4.281054443359375,0.07424246329665184,-0.033735388602316375,-0.04854045128524303
1761468897445037300,4.291037353515625,0.09434417108297348,-0.05682955620288849,-0.06790566149055957
1761468897455020500,4.3010205078125,0.12449497919678687,-0.03949614408612251,-0.05389584083855152
1761468897465002200,4.311002197265625,0.09880641118884086,-0.04668868593871593,-0.021825462839007378
1761468897474985500,4.3209853515625,0.06421499027907848,-0.0412283747062087,-0.016149170768260956
1761468897484968400,4.330968505859375,0.06154138715565204,-0.026325112345814704,-0.025602643290162087
1761468897494950400,4.340950439453125,0.08211012793183327,-0.03664017013311386,-0.047694063588976855
1761468897504933400,4.350933349609375,0.06920388460755347,-0.008289104917645455,-0.0349216757774353
1761468897514916400,4.360916259765625,0.044378070908784865,-0.027464930030703542,-0.05476327132284641
1761468897524899600,4.370899658203125,0.06856792479157447,-0.04303863899856806,-0.06475099685192108
1761468897534881300,4.38088134765625,0.08686229089498519,-0.0518576130092144,-0.07333703888952732
1761468897544864500,4.390864501953125,0.06562368803322315,-0.05482113898992538,-0.06663140377104282
1761468897554847500,4.400847412109375,0.06711304980814456,-0.04298310941904783,-0.07776946837902068
1761468897564830200,4.410830322265625,0.05494856476187706,-0.0720832394361496,-0.10754267535209655
1761468897574812400,4.4208125,0.06207739372849464,-0.042568683399260045,-0.10375029733180999
1761468897584795400,4.43079541015625,0.08189736196398735,-0.02542202602624893,-0.04467500802874565
1761468897594778400,4.4407783203125,0.10041618447303771,-0.017816227197647094,-0.04389817843735218
1761468897604760300,4.45076025390625,0.05731587841510773,-0.024565116935968398,-0.01820727234184742
1761468897614743600,4.46074365234375,0.0909796630859375,-0.04412205032110214,-0.05614098941683769
1761468897624726300,4.470726318359375,0.06315466757118701,-0.06138239720165729,-0.09526830019056796
1761468897634709200,4.480709228515625,0.03559153786301612,-0.04410071527212858,-0.13466156842410565
1761468897644691500,4.49069140625,0.04169628447890281,-0.052120063337683674,-0.1272732117384672
1761468897654674200,4.500674072265625,0.044134909802675246,-0.062004913014173504,-0.09029811056256294
1761468897664657400,4.510657470703125,0.03787760297358036,-0.0937590646713972,-0.055498015338182445
1761468897674640400,4.520640380859375,0.07567337288260459,-0.0701572398096323,-0.04523088834583759
1761468897684622300,4.530622314453125,0.11093348683416843,-0.04291062870472669,-0.017545009040832518
1761468897694605300,4.540605224609375,0.11396189474463463,-0.04816372692734003,-0.048483752661943436
1761468897704588300,4.55058837890625,0.09095452864468097,-0.021749182732403276,-0.08847615583240985
1761468897714571500,4.560571533203125,0.053480830296874046,-0.006374211207032203,-0.11754092227518557
1761468897724553500,4.570553466796875,0.05044248551428318,-0.03389467081725597,-0.12771978646218776
1761468897734536400,4.580536376953125,0.05625730927288532,-0.04322510148137808,-0.06939560778737068
1761468897744519400,4.59051953125,0.06884206555783748,-0.03506459137946367,-0.04532674993574619
1761468897754502400,4.60050244140625,0.061170800277590746,-0.044893034693598746,-0.0397755455493927
1761468897764485400,4.6104853515625,0.07563362539410591,-0.021069968296587464,-0.010337269619107246
1761468897774468400,4.62046826171875,0.0822217716127634,-0.01133183361440897,-0.022797522741556168
1761468897784450300,4.6304501953125,0.122786421713233,0.007581248909235,-0.06255611715614795
1761468897794433300,4.640433349609375,0.08148702759742736,-0.003465630283951759,-0.08806289885640144
1761468897804416500,4.65041650390625,0.021329203754663465,-0.00003974748849868774,-0.04506663769483566
1761468897814399500,4.6603994140625,0.1760895573556423,-0.04881166944205761,-0.06642156041264534
1761468897824381400,4.67038134765625,0.12633505410552023,-0.05569266112744808,-0.08074702288508415
1761468897834364400,4.680364501953125,0.019271686702966688,-0.062034139108657835,-0.06722644705474376
1761468897844347400,4.690347412109375,0.0692208357423544,-0.043216041392087935,-0.10161620791256427
1761468897854330400,4.700330322265625,0.06417991896569729,-0.017262100446224213,-0.09081015173792839
1761468897864312300,4.710312255859375,0.05732055459022522,0.0016638415589928625,-0.05135550870597362
1761468897874295600,4.720295654296875,0.09622048634886742,-0.03639642450511455,-0.05539630852937698
1761468897884278300,4.7302783203125,0.0945347252190113,-0.037411154505610465,-0.010939911687374114
1761468897894260500,4.740260498046875,0.09335165291428565,-0.012830840000510215,-0.014509586867690086
1761468897904243500,4.750243408203125,0.07885960170328617,0.0003878302738070488,-0.07310849083065986
1761468897914226200,4.76022607421875,0.08507891460955143,0.00068710548132658,-0.0802875886797905
1761468897924209400,4.77020947265625,0.08200199138224125,-0.03895166194587946,-0.056765843316912645
1761468897934191400,4.78019140625,0.10524375075995922,-0.03571633328646421,-0.06720248165726661
1761468897944174300,4.79017431640625,0.07079612223505974,-0.051448155425488945,-0.0500666379392147
1761468897954157300,4.8001572265625,0.05662146641016006,-0.03532061196714639,-0.02694704363644123
1761468897964140300,4.810140380859375,0.0705272421658039,-0.05834492920190096,-0.05635258634090423
1761468897974122500,4.82012255859375,0.082513448035717,-0.0762201931104064,-0.12457739678323268
1761468897984105500,4.83010546875,0.07749766570031642,-0.047022740198671815,-0.13285364221930504
1761468897994088400,4.84008837890625,0.0903472104012966,-0.02354541849941015,-0.05588730691671371
1761468898004070400,4.8500703125,0.12686930711269379,-0.01736848343014717,-0.0051303486257791514
1761468898014053400,4.860053466796875,0.08715572088360786,-0.02530658295303583,-0.04735562541484833
1761468898024036400,4.870036376953125,0.035896658289432525,-0.03450432714819908,-0.0463853190779686
1761468898034019600,4.88001953125,0.07664367921948433,-0.01670183621495962,-0.06739654292464256
1761468898044001300,4.890001220703125,0.1026478890478611,-0.054310559119284146,-0.0948223099887371
1761468898053984500,4.899984619140625,0.09053542644977569,-0.052040568360686296,-0.09781740015149117
1761468898063967500,4.909967529296875,0.05496960754990577,-0.0543561518266797,-0.0842524006575346
1761468898073950200,4.9199501953125,0.060737085035443304,-0.04711801726669073,-0.04466039498150348
1761468898083932400,4.929932373046875,0.07970715844333172,-0.08847411000579596,-0.05545359167456627
1761468898093915400,4.939915283203125,0.07666589105129241,-0.07407470551431179,-0.059524786636233326
1761468898103898400,4.9498984375,0.05032616565823555,-0.04449497528672218,-0.05705342808663845
1761468898113880300,4.95988037109375,0.006458382359147072,-0.030395430524647233,-0.056115854975581164
1761468898123863600,4.969863525390625,0.07294891635477542,0.011693068142235278,-0.09716974989771843
1761468898133846500,4.979846435546875,0.11912906824946402,0.045054654996097086,-0.058463879406452174
1761468898143829200,4.989829345703125,0.11601473562121391,-0.00029752164185047145,-0.06908230405449867
1761468898153811500,4.9998115234375,0.08967617927193641,-0.045330841588974,-0.09889993469119071
1761468898163794400,5.00979443359375,0.08731704892516136,-0.04959872816652059,-0.08514379653930663
1761468898173777400,5.01977734375,0.08351765664219855,-0.032031507293879984,-0.0803045398145914
1761468898183760400,5.029760498046875,0.015086509972810745,-0.023694763842225075,-0.0969265887916088
1761468898193742600,5.03974267578125,0.047583004429936404,-0.022358839063346386,-0.09904314255416392
1761468898203725300,5.049725341796875,0.013318915778398513,-0.03342237713038921,-0.08334054650962353
1761468898213708300,5.059708251953125,0.02673135505914688,-0.058923605872690674,-0.05434592269361019
1761468898223690500,5.0696904296875,0.08863046961128711,-0.03554389932900667,-0.02589782684445381
1761468898233673200,5.079673095703125,0.06892506766617297,-0.0463110847979784,-0.04538870925605297
1761468898243656400,5.089656494140625,0.06868073751628398,-0.0016591653838753698,-0.04196925620138645
1761468898253639400,5.099639404296875,0.07740121958851814,0.01605389370024204,-0.05110533333718777
1761468898263621400,5.109621337890625,0.046156186497211454,-0.025683891832828522,-0.14174188207387922
1761468898273604400,5.119604248046875,0.029145430463552474,-0.049749534814059734,-0.11786357835829257
1761468898283587300,5.12958740234375,0.0350567003339529,-0.0636000732511282,-0.11015782628655434
1761468898293569300,5.1395693359375,0.042591187492012975,-0.0528115527331829,-0.1253477966338396
1761468898303552500,5.149552490234375,0.06180500652790069,-0.020935528261959553,-0.10136778610944747
1761468898313535500,5.159535400390625,0.07185761398673057,0.013266016547381878,-0.07589139954745769
1761468898323518500,5.1695185546875,0.041425650843977924,0.0200075997620821,-0.07708674681186675
1761468898333500400,5.17950048828125,0.13127894024848938,-0.1158648057565093,-0.11276654748022556
1761468898343483400,5.1894833984375,0.1308382107436657,0.008055003900825976,-0.021121113961935042
1761468898353466600,5.199466552734375,-0.0575695609152317,0.07933832513093948,0.025036826100945472
1761468898363449300,5.209449462890625,-0.002809212201833725,-0.007917348995804787,-0.061460138612985604
1761468898373431600,5.219431640625,-0.07509352716803551,-0.07610942621231079,-0.12346972780227661
1761468898383414500,5.22941455078125,0.12652093206644058,-0.1382338739529252,-0.15602233636081217
1761468898393397200,5.239397216796875,0.13287410048544407,-0.05113835882395506,-0.09459902262687682
1761468898403379500,5.24937939453125,0.10484101517796515,-0.0947305400520563,-0.034403789383172984
1761468898413362400,5.259362548828125,0.025015783312916755,-0.012473697125911712,-0.039733459973335265
1761468898423345700,5.269345703125,0.024394436544179915,-0.049908524768054484,-0.059146600973606106
1761468898433328400,5.279328369140625,0.027235797449946402,-0.04005027083754539,-0.07204699907898902
1761468898443310600,5.289310546875,0.048535190588235855,-0.03497223692089319,-0.04622340651452541
1761468898453293600,5.29929345703125,0.06530863073468209,-0.0018339374288916586,-0.05608779792487621
1761468898463276300,5.3092763671875,0.04380523945689201,0.007640285620093345,-0.07385550980567931
1761468898473258500,5.319258544921875,0.050043841585516925,-0.02230506304949522,-0.07594225295186043
1761468898483241500,5.329241455078125,0.07644494177699089,-0.04748889640569687,-0.09093523942232132
1761468898493224400,5.339224365234375,0.06096914022564888,-0.06547755756080151,-0.11058102013468742
1761468898503207400,5.34920751953125,0.062606386038661,-0.07470072845816612,-0.09015373365581035
1761468898513189600,5.359189697265625,0.07058627887666225,-0.04136895222067833,-0.06779810946285725
1761468898523172400,5.36917236328125,0.053332946258783334,-0.04576280326545238,-0.06852876182496548
1761468898533155300,5.3791552734375,0.03657937985658646,-0.03836567875146866,-0.0784007520198822
1761468898543138600,5.389138671875,0.04898410339951515,-0.04192717062532902,-0.1038806457132101
1761468898553120300,5.399120361328125,0.05179390012323856,-0.08238485321998595,-0.13977028973996639
1761468898563103500,5.409103515625,0.060765726608037945,-0.035626024654507635,-0.10335925218760966
1761468898573086500,5.41908642578125,0.0719131435662508,-0.03647942661345005,-0.07613163804411888
1761468898583068400,5.429068359375,0.054584992146492,-0.03565846561938524,-0.09556406826674937
1761468898593051400,5.439051513671875,0.006389408776164054,-0.004082885399460792,-0.09096037386357783
1761468898603034600,5.44903466796875,0.031007132682204244,-0.03456774777323007,-0.05915186167061329
1761468898613017600,5.459017578125,0.07048515658974647,-0.03677256434112787,-0.05121814606189728
1761468898622999600,5.46899951171875,0.1136883385002613,-0.029653087724745272,-0.06866086377203465
1761468898632982500,5.478982421875,0.13681260897815226,-0.06698328594863415,-0.07338730777204036
1761468898642965500,5.488965576171875,0.08432429684996605,-0.05544862323850393,-0.019979542711377144
1761468898652947500,5.498947509765625,0.09800561619997024,-0.02193476843237877,-0.10002689289450645
1761468898662930400,5.508930419921875,0.06768412769436837,0.003805237501859665,-0.12051730773746967
1761468898672913700,5.51891357421875,0.03267594267725944,-0.0012026537880301476,-0.09479425293803215
1761468898682896400,5.528896484375,0.03955927245020866,-0.06396627621501684,-0.08569500068128108
1761468898692878600,5.538878662109375,0.07731061869561671,-0.07282470545321702,-0.06625088002085686
1761468898702861600,5.548861572265625,0.07647767500281333,-0.03460866430550814,-0.04007248266935348
1761468898712844300,5.55884423828125,0.05998655892908573,-0.03469575806707144,-0.08188800961375237
1761468898722826500,5.568826416015625,0.029008067819476124,-0.02551175013631582,-0.09553133504092692
1761468898732809500,5.5788095703125,-0.007135258707404136,-0.014038754485547542,-0.08399404198229313
1761468898742792400,5.58879248046875,0.01269815353155136,-0.013598901763558387,-0.053313072514533995
1761468898752775400,5.598775390625,0.0317582433104515,-0.059663026063144206,-0.02871463783085346
1761468898762757600,5.608757568359375,0.0781827253550291,-0.07523673503100872,-0.019186346507072446
1761468898772740400,5.618740234375,0.11027940683960914,-0.09203414057493209,-0.09667992055416107
1761468898782723300,5.628723388671875,0.07302782680988311,-0.13487696474045513,-0.14651508782505987
1761468898792706600,5.63870654296875,0.017624504017829893,-0.09651508538126945,-0.11927695228755474
1761468898802688300,5.648688232421875,0.06639350336194039,-0.052663084173202514,-0.10239712915718555
1761468898812671500,5.65867138671875,0.02079085909426212,-0.031519466118514534,-0.09358663071393966
1761468898822654500,5.668654541015625,0.012925532546639442,-0.02928542345613241,-0.10099895279705524
1761468898832636400,5.678636474609375,-0.027884616747498512,-0.048668169318139554,-0.10092354947328568
1761468898842619400,5.688619384765625,0.022224691289663312,-0.03650923722982406,-0.08234569025337696
1761468898852602400,5.698602294921875,0.0467640892624855,-0.06973842987567186,-0.08838146328628063
1761468898862585600,5.708585693359375,0.04285363782048225,-0.08317191194444894,-0.05742518400847912
1761468898872567300,5.7185673828125,0.022934885385632514,-0.10893880588561296,-0.05403437252640724
1761468898882550500,5.728550537109375,0.04042319580316543,-0.1352946056306362,-0.051149757000803944
1761468898892533500,5.738533447265625,0.06916062998771667,-0.11205196947008371,-0.04504091873168945
1761468898902515500,5.748515380859375,0.06089432142376899,-0.09443184936642646,-0.09104396049380302
1761468898912498400,5.75849853515625,0.03795651342868805,-0.06841068840324878,-0.09676759883761406
1761468898922481700,5.768481689453125,0.05263970329761505,-0.038272739771008486,-0.09348317033946514
1761468898932464400,5.77846435546875,0.04241290831565857,0.0020046178206801412,-0.06356558645963668
1761468898942446600,5.788446533203125,0.03762918117046356,-0.023468553870916366,-0.03324175986647606
1761468898952429600,5.7984296875,0.0970879168331623,-0.018260756094753743,-0.03211012548804283
1761468898962412300,5.808412353515625,0.10382511613368987,-0.07522299876660109,-0.04452712399065494
1761468898972394500,5.81839453125,0.05604863495826721,-0.0639767976090312,-0.051909635457396505
1761468898982377500,5.82837744140625,0.05676175166368484,-0.04328530723601579,-0.05623159030973911
1761468898992360400,5.8383603515625,0.06910217779874801,-0.00871580589711666,-0.10432722043693066
1761468899002343400,5.848343505859375,0.07515314840078353,0.013608254113793372,-0.11702829657793044
1761468899012325600,5.85832568359375,0.0697252781331539,0.02567746209204197,-0.08835048362612724
1761468899022308400,5.868308349609375,0.10565993034541606,0.011654489697515964,-0.07323883921205997
1761468899032291300,5.878291259765625,0.1181061549425125,-0.007686170588433742,-0.04876783030033111
1761468899042273500,5.8882734375,0.09146130912303924,-0.0215346631988883,-0.03781564365327358
1761468899052256300,5.89825634765625,0.09380874903202056,-0.014742226579785345,-0.04096621663868427
1761468899062239500,5.908239501953125,0.06774900962412357,-0.00890489872843027,-0.03498772675096989
1761468899072222500,5.918222412109375,0.038648002824187275,0.005318564674258232,-0.048104982477426526
1761468899082204400,5.928204345703125,0.048565585726499556,0.03677724051624536,-0.018851999986171722
1761468899092187400,5.9381875,0.05813362453877925,0.030931729358434676,-0.03936988735795021
1761468899102170400,5.94817041015625,0.09948328753709793,-0.01656505809277296,-0.10926058518588543
1761468899112152300,5.95815234375,0.018275076881051063,-0.010467033478617667,-0.08973463146090507
1761468899122135300,5.96813525390625,0.02414016952216625,0.03646101417392492,-0.072466685795784
1761468899132118500,5.978118408203125,0.10622516301274298,0.018258418007194993,-0.06901449951529502
1761468899142101500,5.9881015625,0.1623603072106838,-0.11841156762987375,-0.13353519474267958
1761468899152083500,5.99808349609375,0.016941197928786275,-0.034873744982481,-0.10447510447502135
1761468899162066400,6.00806640625,0.06477846938073635,-0.06594459055066108,-0.051073184633255005
1761468899172049400,6.01804931640625,0.12018237669467925,-0.0803895877495408,-0.1002642087817192
1761468899182031400,6.02803125,0.031443186011910436,-0.04315115946233272,-0.05154138666689396
1761468899192014300,6.038014404296875,0.011603344032168388,-0.05328355415910482,-0.031067338436841962
1761468899201997600,6.04799755859375,0.07662497451901436,-0.0682858929798007,-0.04417115015983581
1761468899211980300,6.057980224609375,0.07249298928081989,-0.08954699993431568,-0.07783727291822433
1761468899221962500,6.06796240234375,0.044534722775220865,-0.07275105569511651,-0.09775602535307407
1761468899231945500,6.077945556640625,0.015854571735858917,-0.07583996162116527,-0.12700140905976295
1761468899241928400,6.087928466796875,-0.01059329020678997,-0.06644727937579155,-0.13209843993782996
1761468899251910400,6.097910400390625,0.08457154960930346,-0.0412654918462038,-0.09294365663528442
1761468899261893600,6.1078935546875,0.009118541479110717,0.027440087850391863,-0.05226970094144344
1761468899271876400,6.11787646484375,0.03647884209156036,-0.06080985801070928,-0.016975684720277787
1761468899281859300,6.127859375,0.06056406655609607,-0.07458908477723598,-0.06358195307254791
1761468899291841500,6.137841552734375,0.10966799694299698,-0.09565759176909923,-0.05973462999463081
1761468899301824300,6.14782421875,0.10544424176812171,-0.05802373442351818,-0.022305939832329747
1761468899311807500,6.157807373046875,0.05778524949252605,-0.05939648408144712,-0.0480102899312973
1761468899321789400,6.16778955078125,0.059554012730717656,-0.05767682068198919,-0.10580781438350677
1761468899331772700,6.177772705078125,0.10431026930212974,-0.0476227519184351,-0.17728958079516888
1761468899341755400,6.18775537109375,0.013664952737092971,-0.055928807970881456,-0.13360592189133166
1761468899351738400,6.19773828125,0.017529226949810982,-0.06883329772949218,-0.14684768078029156
1761468899361720600,6.207720458984375,0.038302550387382506,-0.045887598688900466,-0.12495850505530834
1761468899371703300,6.217703369140625,0.008052373552322387,-0.058091246701776976,-0.04099485821127891
1761468899381686500,6.2276865234375,0.054144847163558,-0.0362961790010333,0.020615502527356146
1761468899391668500,6.23766845703125,0.11128186188042163,-0.020821254232525826,0.010948679515719413
1761468899401651500,6.2476513671875,0.08255436456799507,-0.01025426751077175,-0.026101240462064742
1761468899411634400,6.257634521484375,0.07063011801838874,-0.014167933823168277,-0.06972410908937454
1761468899421621200,6.267621337890625,0.0850929431349039,-0.009349135364592075,-0.11533902831673622
1761468899431603500,6.277603515625,0.07170037759840488,-0.004308510848879814,-0.09960720617771147
1761468899441586400,6.28758642578125,0.05593991388678551,0.018793840058147906,-0.0696522128969431
1761468899451569400,6.2975693359375,0.07474749020934104,0.038754385808110234,-0.033605332481861115
1761468899461551400,6.30755126953125,0.0889578018695116,0.04053220913559198,-0.023232407027482985
1761468899471534600,6.31753466796875,0.09245558085739612,0.0170817754432559,-0.035953356912732125
1761468899481517300,6.327517333984375,0.1041115318596363,-0.018546002776920794,-0.09038871145546436
1761468899491500300,6.337500244140625,0.11171966877579688,-0.0540732432320714,-0.10617898578345775
1761468899501482500,6.347482421875,0.08839490728974342,-0.034089901128411294,-0.11089140125811099
1761468899511465200,6.35746533203125,0.09474749118685721,-0.03294540726840496,-0.08035013252198696
1761468899521448400,6.367448486328125,0.07967793234884739,-0.030478724893927573,-0.07524550285935401
1761468899531430400,6.377430419921875,0.06904723274111747,-0.025494506740570067,-0.09374737423360348
1761468899541413400,6.387413330078125,0.07580313674211502,-0.035627778220176695,-0.09636077160239219
1761468899551396400,6.397396240234375,0.0881429783552885,0.00024286884516477584,-0.059385670426487916
1761468899561379300,6.40737939453125,0.06779869398474693,0.010019581972062586,-0.0491693968385458
1761468899571361300,6.417361328125,0.0720434919476509,-0.03394581648260355,-0.06119067402184009
1761468899581344300,6.42734423828125,0.10100538253784179,-0.06576397328674793,-0.08638006033599376
1761468899591327500,6.437327392578125,0.07160860766172408,-0.07335749715566635,-0.05432897155880928
1761468899601309200,6.44730908203125,0.08238076156675815,-0.016519465385377408,-0.03480710948705673
1761468899611292400,6.45729248046875,0.054334232255816454,-0.01476122354120016,-0.08192600353658198
1761468899621275400,6.467275390625,0.046323944279551506,-0.017922317920625208,-0.09871873290538788
1761468899631258400,6.47725830078125,0.0794289260238409,-0.014631167420744894,-0.05002864401638508
1761468899641240300,6.487240234375,0.05856500169336795,-0.03510492338985204,-0.03074117522239685
1761468899651223300,6.497223388671875,0.06428688647150993,-0.015498597905039786,-0.0024579145461320877
1761468899661206500,6.50720654296875,0.09743278474807739,-0.013919512020051478,-0.048966567742824554
1761468899671188500,6.5171884765625,0.11399813510179518,-0.02005728412270546,-0.07894377285540104
1761468899681171500,6.52717138671875,0.07898293582201003,-0.038165187743306156,-0.1229600247144699
1761468899691154400,6.537154541015625,0.059280456486344335,-0.03993775037378072,-0.138144734364748
1761468899701137400,6.547137451171875,0.0631686960965395,-0.019905308431386947,-0.1389507900506258
1761468899711119400,6.557119384765625,0.019070611172914503,-0.03116729167997837,-0.09239362153708934
1761468899721102600,6.5671025390625,0.06709609867334365,-0.04313771545886993,-0.06206745685636997
1761468899731085300,6.577085205078125,0.142322312310338,-0.04387421303987503,-0.04633329662978649
1761468899741067500,6.587067626953125,0.11765958021879196,-0.05313128620684147,-0.03415712114572525
1761468899751050500,6.597050537109375,0.10267828418612479,-0.05412818828970194,-0.04209259032011032
1761468899761033200,6.607033203125,0.014313187512755393,-0.039055706842243666,-0.06570084492266177
1761468899771016400,6.617016357421875,-0.00476268435716629,-0.013209317924082278,-0.10754384439587593
1761468899780998400,6.626998291015625,-0.0015127426505088806,-0.017448562929034232,-0.13783435324132443
1761468899790981400,6.6369814453125,0.00030278233885765074,-0.04449292946010828,-0.1161591125279665
1761468899800964400,6.64696435546875,0.013457447466254234,-0.061735156162083145,-0.04980711022019386
1761468899810946600,6.656946533203125,0.09311316798329353,-0.09974866047501564,-0.027558453533053397
1761468899820929300,6.66692919921875,0.17402327247560023,-0.10432137521803378,-0.026578210324048994
1761468899830912300,6.676912353515625,0.093489015558362,-0.10178630378246306,-0.07158814939558505
1761468899840894500,6.68689453125,0.015149638336896896,-0.05499971042722463,-0.10238894585072994
1761468899850877400,6.69687744140625,0.01856149260699749,-0.045047640733420845,-0.09914835649430752
1761468899860860400,6.7068603515625,0.07400631645321845,-0.0339326647400856,-0.11916180147528647
1761468899870843400,6.716843505859375,0.05478372958898544,-0.013138883036375046,-0.06637012248635292
1761468899880825600,6.72682568359375,0.04736147063374519,-0.009559563244879245,-0.05680675984919071
1761468899890808300,6.736808349609375,0.030305706414580344,-0.026709143227338788,-0.06315291400551795
1761468899900791300,6.746791259765625,0.028332360514998434,-0.036737200766801835,-0.046128129446506495
1761468899910773500,6.7567734375,0.0394704251229763,-0.06182312670648098,-0.0857815099209547
1761468899920756200,6.766756103515625,0.016720833176374433,-0.07662935843318701,-0.10172551350593566
1761468899930739500,6.776739501953125,0.05840659626126289,-0.06998363680839538,-0.0847796394020319
1761468899940722400,6.786722412109375,0.08056932823061942,-0.07259820322096347,-0.047186114066839216
1761468899950704400,6.796704345703125,0.07252922963798046,-0.0690527856990695,-0.029598434928059577
1761468899960687400,6.806687255859375,0.10394435859918594,-0.052586804066598415,-0.06867430777549743
1761468899970670300,6.81667041015625,0.13162439268529413,-0.06361439403742551,-0.07400865454077721
1761468899980652300,6.82665234375,0.04543488648533821,-0.06224339794516563,-0.10092939469218254
1761468899990635500,6.836635498046875,-0.013922142368555069,-0.04115063329488039,-0.09792729026675223
1761468900000618500,6.846618408203125,0.013010872742533684,-0.02078442935347557,-0.11019465116560459
1761468900010601500,6.8566015625,0.03531272092163563,-0.02462678399533033,-0.06131634622812271
1761468900020583400,6.86658349609375,0.06294540873467921,-0.03536912728399038,-0.02746726811826229
1761468900030566400,6.87656640625,0.07598433852791786,-0.051826925610005854,-0.03514788574874401
1761468900040549600,6.886549560546875,0.07023498122096061,-0.07100625785440207,-0.05162964947223663
1761468900050531300,6.89653125,0.06842062527537346,-0.047339843323826784,-0.07250643328428268
1761468900060514600,6.9065146484375,0.08383446750640869,-0.025776830813288687,-0.06309329277276993
1761468900070497500,6.91649755859375,0.07160042435526848,-0.031657997806370256,-0.09441197562217712
1761468900080479500,6.9264794921875,0.009020926323533058,-0.043759354488551616,-0.10493804581165313
1761468900090462500,6.93646240234375,0.00061608607172966,-0.06848726077079773,-0.10447042829990387
1761468900100445400,6.946445556640625,0.07399930219054221,-0.08262918336987495,-0.12211129893064498
1761468900110428400,6.956428466796875,0.09560615384280681,-0.07246902388334274,-0.08553484168350696
1761468900120410400,6.966410400390625,0.050038580888509744,-0.07463292391896248,-0.045668110719323154
1761468900130393600,6.9763935546875,0.05062134921252727,-0.04349690416008234,-0.017840192595124243
1761468900140376300,6.986376220703125,0.06821078191697597,-0.025498598393797874,-0.03271452112197876
1761468900150358500,6.996358642578125,0.04768646480441093,-0.02431114217489958,-0.07916998282670974
1761468900160341500,7.006341552734375,0.04870119480490684,-0.03277238878905773,-0.10349076961278915
1761468900170324200,7.01632421875,0.062083238947391504,-0.04903495680391788,-0.09962123470306396
1761468900180307500,7.026307373046875,0.06344108329713344,-0.0226674666211009,-0.12836159149706364
1761468900190289400,7.036289306640625,0.024052491238713263,-0.05029372469335794,-0.10933949564099311
1761468900200272400,7.0462724609375,0.06897709011435509,-0.06960398984104395,-0.038600656551122665
1761468900210255400,7.05625537109375,0.08380699497759342,-0.027843407954275607,-0.006595745003223419
1761468900220237600,7.066237548828125,0.10697919625043868,-0.054910278578102586,-0.06360591847002506
1761468900230220300,7.07622021484375,0.07016016241908073,-0.04928045599758625,-0.051746553850173946
1761468900240203300,7.086203369140625,0.02778407898247242,-0.016756489011645316,-0.051340311136841774
1761468900250185500,7.096185546875,0.016380056914687156,-0.04245411710888147,-0.09492167870998382
1761468900260168200,7.106168212890625,0.0913280381321907,-0.05053922388702631,-0.10717676464915275
1761468900270151400,7.1161513671875,0.09665478611290454,-0.07886573918312788,-0.0802875886797905
1761468900280134400,7.126134521484375,0.0822872380644083,-0.0665495707064867,-0.064915247502923
1761468900290116400,7.136116455078125,0.07936988931298256,-0.044753626222908495,-0.07551496745049953
1761468900300099300,7.146099365234375,0.052011926788091654,-0.03412994087785482,-0.08606208042800426
1761468900310082600,7.15608251953125,0.02692833893597126,-0.027415245670080184,-0.10410627116262912
1761468900320064300,7.166064208984375,0.007291910573840141,-0.009673252752423285,-0.07555588398277759
1761468900330047500,7.176047607421875,0.038061142846941946,0.006116729314625263,-0.05836743329465389
1761468900340030500,7.186030517578125,0.04907470429241657,-0.02966799303293228,-0.061220484638214105
1761468900350013400,7.196013427734375,0.07963117059767245,-0.0317170345172286,-0.025049101060628888
1761468900359995400,7.205995361328125,0.13379881411492825,-0.044264381401240824,-0.03542670269012451
1761468900369978400,7.215978271484375,0.1157405948549509,-0.059473933231830596,-0.060520811936259265
1761468900379961600,7.225961669921875,0.10472527984380721,-0.054013329738378524,-0.10594926868081092
1761468900389943300,7.235943359375,0.04346738580465317,-0.05187748675346374,-0.15744915429353712
1761468900399926500,7.245926513671875,0.04184241495132446,-0.03704290571510792,-0.15347791257500648
1761468900409909500,7.255909423828125,0.07943418672084808,-0.020501813019812107,-0.15697393799722192
1761468900419888000,7.26588818359375,0.025519056659936902,-0.04543634779006243,-0.11195289300978183
1761468900429870800,7.275870849609375,0.03237549842596054,-0.027733810099959372,-0.049130818393826485
1761468900439853800,7.285853759765625,0.059036126336455344,-0.012137889300286768,-0.0327519305229187
1761468900449837000,7.295837158203125,0.036080782684683795,-0.04618979650586843,-0.04365677089691162
1761468900459818800,7.30581884765625,0.08046060715913772,-0.03998100499361753,-0.06668751787245274
1761468900469802000,7.315802001953125,0.06768003604114055,-0.026806466121971604,-0.09302432065606117
1761468900479785000,7.325784912109375,0.06303425606191158,-0.06923486426770686,-0.10076280595362186
1761468900489767000,7.335766845703125,0.11711597486138343,-0.07999298964738845,-0.09650573303103446
1761468900499750000,7.34575,0.08119242856502533,-0.07134966446459293,-0.07474281403422355
1761468900509732900,7.35573291015625,0.01386193661391735,-0.0474634697034955,-0.07740940289497375
1761468900519715800,7.3657158203125,0.003296703457832336,-0.032658407020568846,-0.09830898306071757
1761468900529697800,7.37569775390625,-0.007862988460063934,-0.006242401520907878,-0.10769231295585632
1761468900539681000,7.385680908203125,-0.008731587988138199,0.011026713187992572,-0.0996370167940855
1761468900549664000,7.3956640625,0.06881926920413971,-0.02800444373488426,-0.0688023180693388
1761468900559646000,7.40564599609375,0.11846037520766257,-0.046376258988678455,-0.04582125545442104
1761468900569629000,7.41562890625,0.09805354699492454,-0.07676789012104272,-0.05936521216034889
1761468900579612000,7.42561181640625,0.051480011868476866,-0.07872223905920982,-0.0666542001247406
1761468900589593900,7.43559375,0.0018739771783351897,-0.06473141536861658,-0.05901683711409569
1761468900599576800,7.445576904296875,0.020713702204823492,-0.05452127926051616,-0.08158639631867408
1761468900609560000,7.45556005859375,0.07222118660211563,-0.04870820906758308,-0.07860007398426533
1761468900619542800,7.465542724609375,0.04185702799856662,-0.029907354746758937,-0.061950552478432654
1761468900629525000,7.47552490234375,0.019850363373756407,-0.05696721110790968,-0.09690963765680789
1761468900639508000,7.485508056640625,0.026651860082149505,-0.0526940638333559,-0.11506488755047321
1761468900649491000,7.495490966796875,0.06825111392736434,-0.04377221397012472,-0.10854162326157092
1761468900659473000,7.505472900390625,0.044219080954790116,-0.05985854863524437,-0.11694529446959495
1761468900669456100,7.5154560546875,0.012304185777902602,-0.08132482277303933,-0.12136778708696365
1761468900679438800,7.52543896484375,0.0141167881578207,-0.08015899386405945,-0.10515139630138873
1761468900689421000,7.535421142578125,0.04137538196146488,-0.10235855071246623,-0.09207973328232764
1761468900699404000,7.545404052734375,0.02207330012023449,-0.10027122304439544,-0.083912208917737
1761468900709386800,7.55538671875,0.0019558102428913113,-0.07717471735626459,-0.06614332799315452
1761468900719370000,7.565369873046875,0.010693243449926376,-0.05175941333174705,-0.07468260827958584
1761468900729352000,7.57535205078125,0.039572131931781766,-0.02079436622560024,-0.05129764103889465
1761468900739335000,7.5853349609375,0.03677577921152115,-0.007195172201097011,-0.08951368218660354
1761468900749318000,7.59531787109375,0.049535892063379286,-0.06374971085488795,-0.11816343808770179
1761468900759300000,7.605300048828125,0.06757716018855571,-0.0603536386758089,-0.13216975160837172
1761468900769282800,7.61528271484375,0.0865220991551876,-0.047400633600354194,-0.047135260662436486
1761468900779265800,7.625265869140625,0.058903439867496486,-0.09829115514308213,-0.04039572327435016
1761468900789248000,7.635248046875,0.0381722020059824,-0.07145370936095714,-0.03207446965277195
1761468900799230700,7.645230712890625,0.045668110719323154,-0.08117664647400379,-0.04865677114129066
1761468900809214000,7.6552138671875,0.043775428840517994,-0.08052402778416871,-0.05700491276979446
1761468900819197000,7.665197021484375,0.0775292298823595,-0.05045768308341503,-0.0652425797611475
1761468900829179000,7.675178955078125,0.08091302710175513,-0.037382220672070976,-0.10644845037460327
1761468900839161900,7.685161865234375,0.0315583368241787,-0.0413701212644577,-0.113836222538352
1761468900849144800,7.695144775390625,0.04206687135696411,-0.014401742579042911,-0.08620119663774967
1761468900859126800,7.705126708984375,0.013107903376221657,0.003678396251797676,-0.073542790594697
1761468900869109800,7.71510986328125,0.020023966374993322,-0.03302694807201624,-0.09310673824250698
1761468900879093000,7.725093017578125,0.03223229056298733,-0.032490649238228794,-0.052882864403724666
1761468900889076000,7.735075927734375,0.1069219131052494,0.0035635377004742622,-0.015453005197644233
1761468900899058000,7.745057861328125,0.1196487082093954,-0.016005378383398054,0.00820785637497902
1761468900909041000,7.755041015625,0.044644028368592256,-0.025522856052219867,-0.004673252508044242
1761468900919023900,7.76502392578125,0.06155424663722515,-0.042540334087610245,-0.061546063330769535
1761468900929005800,7.775005859375,0.544667433682084,-0.021401684468984602,-0.21839374459981917
1761468900938988800,7.78498876953125,-0.15405951185524464,-0.03623100481033325,-0.022732640811800955
1761468900948972000,7.794971923828125,-0.4211602964788675,-0.11027940683960914,-0.1511333952754736
1761468900958954000,7.8049541015625,0.15469371810555457,-0.12292466114014386,-0.2845984473913908
1761468900968937000,7.81493701171875,0.16270868225693702,-0.09933832610845565,-0.021388824987411497
1761468900978920000,7.824919921875,-0.07168108837604523,-0.043969490107893944,0.027943653458356855
1761468900988903000,7.83490283203125,0.01414075355529785,-0.10587035822570323,-0.02783668595254421
1761468900998884900,7.844884765625,0.10824059448838233,-0.15393997712880372,-0.11950550034642218
1761468901008868000,7.8548681640625,0.08232289389967917,-0.02329232052117586,-0.08999883535504341
1761468901018850800,7.864850830078125,0.019642273581027984,-0.021611527827382085,-0.11064765563011168
1761468901028833000,7.8748330078125,0.16096972963511944,-0.07003478247374295,-0.168469730001688
1761468901038816000,7.88481591796875,0.060353054153919214,0.007687924154102802,-0.08057751153707504
1761468901048798700,7.894798828125,-0.006969254490733146,-0.05914777001738548,-0.03748305069804191
1761468901058781000,7.904781005859375,0.0053881227791309355,-0.04409370100945234,-0.015423194581270217
