time,seconds_elapsed,z,y,x
1761468933021980700,0.119980712890625,0.024243629896640775,0.011113222427666186,-0.01773673222064972
1761468933031964000,0.1299638671875,0.033518823242187495,-0.015268588541448115,-0.05571662652492523
1761468933041946600,0.139946533203125,0.0712286684334278,-0.054877545352280135,-0.11523147628903388
1761468933051928800,0.1499287109375,0.05074000715613365,-0.11877660154998301,-0.12724866181910038
1761468933061911800,0.159911865234375,0.06519990966320037,-0.11319266393780708,-0.12511632596552372
1761468933071893800,0.169893798828125,0.10679916350841522,-0.07410685421824455,-0.07754910362660884
1761468933081876700,0.179876708984375,0.0547895748078823,-0.06961831062734126,-0.006026420682668686
1761468933091859700,0.189859619140625,0.03223696673810482,-0.007334288410842418,0.036140988439321516
1761468933101841700,0.199841552734375,0.045187049204111096,-0.03082563863545656,0.017222352957725524
1761468933111824600,0.20982470703125,0.08581833480000495,-0.08262509171664714,-0.043977673414349557
1761468933121808000,0.219807861328125,0.1368716456890106,-0.0809539436340332,-0.10025134930014609
1761468933131789600,0.22978955078125,0.08118249169290065,-0.04098287551254034,-0.13279168289899826
1761468933141772800,0.239772705078125,0.04935761288702488,-0.019358195942640304,-0.11597966430783271
1761468933151755800,0.249755859375,0.018690087422728537,-0.039166473740339276,-0.13659516683518885
1761468933161737700,0.25973779296875,0.0156897365629673,-0.055982876245677465,-0.09694470897018909
1761468933171720700,0.269720703125,0.03657937985658646,-0.05948182427734136,-0.08311784366965293
1761468933181703000,0.279702880859375,0.03196516405940056,-0.06449205365478992,-0.021574118426442145
1761468933191685600,0.289685546875,0.07085106729269028,-0.0623991730287671,-0.015250760623812674
1761468933201668900,0.2996689453125,0.11191431456506251,-0.06155483115911484,-0.03018821751475334
1761468933211650800,0.30965087890625,0.07578910821676253,-0.0846054518789053,-0.04903729489147663
1761468933221633800,0.3196337890625,0.09404898752868175,-0.06251198575347662,-0.07320785955190658
1761468933231616800,0.32961669921875,0.07547814257144927,-0.049853871971368785,-0.09852116450667381
1761468933241598700,0.3395986328125,0.04371873021721839,-0.06250234114229679,-0.08690905264616013
1761468933251581700,0.349581787109375,0.021705635851621625,-0.06223433785587549,-0.07668050409853458
1761468933261564700,0.359564697265625,0.00824877290725708,-0.0619374007359147,-0.05697451763153076
1761468933271547000,0.369546875,0.03588847498297691,-0.04767126723527908,-0.025424948635697362
1761468933281529600,0.379529541015625,0.08063479468226432,-0.04223550592213869,-0.011339140138030052
1761468933291512800,0.389512939453125,0.10294482616782188,-0.03865910874009132,-0.034606033957004546
1761468933301494800,0.399494873046875,0.10695581537485122,-0.05041179811507463,-0.05154781640768051
1761468933311477800,0.409477783203125,0.09943827935159205,-0.06380436365157366,-0.07475450447201729
1761468933321459700,0.419459716796875,0.09931962140798568,-0.046399639864265915,-0.0929962636053562
1761468933331443000,0.42944287109375,0.03590717968344688,-0.056605976580083366,-0.06193593943119049
1761468933341425700,0.43942578125,0.08945406095385551,-0.04606178621202707,-0.03261047622561455
1761468933351407900,0.449407958984375,0.10752981587052345,-0.032007541896402834,-0.009490881922841072
1761468933361390800,0.459390869140625,0.06968611516654491,-0.029113866281509398,-0.02126023017168045
1761468933371373600,0.46937353515625,0.04568623089790344,-0.062408817639946934,-0.08527239135503768
1761468933381355800,0.479355712890625,0.06934416986107826,-0.07093377714008092,-0.12203355751931666
1761468933391338800,0.4893388671875,0.07308627899885177,-0.06256868437677622,-0.13791677082777024
1761468933401321700,0.49932177734375,0.04216624007821083,-0.074531217110157,-0.0848532891601324
1761468933411303700,0.5093037109375,0.08301379877328872,-0.0654559302508831,-0.03200724963545799
1761468933421287000,0.519286865234375,0.13515665846467018,-0.06250204888135194,-0.0039472763210535045
1761468933431268600,0.5292685546875,0.11645663416981697,-0.07203209377080201,-0.0220335526317358
1761468933441251800,0.539251953125,0.06491700106859206,-0.06982055520117282,-0.04702946220040321
1761468933451230500,0.54923046875,0.042701077607274054,-0.05436199704557657,-0.06908171953260898
1761468933461212700,0.559212646484375,0.05664835441708564,-0.05480477237701416,-0.09701426707506179
1761468933471195600,0.569195556640625,0.03630933074355125,-0.06982113972306252,-0.08791735290586948
1761468933481178600,0.5791787109375,0.05586100343167782,-0.10223433981090783,-0.050910687547922134
1761468933491160600,0.58916064453125,0.11911153259277343,-0.05427724137157201,0.012781740161776542
1761468933501143800,0.599143798828125,0.15671148766875267,-0.07374211255908011,0.018111995273828504
1761468933511126800,0.609126708984375,0.07707856350541115,-0.0701551939830184,-0.021686346629261968
1761468933521108700,0.619108642578125,0.041326866644620895,-0.031759120093286033,-0.047124739268422124
1761468933531091700,0.629091796875,0.04154606235325336,-0.04255728522241115,-0.09143032946288585
1761468933541073700,0.63907373046875,0.08715162923038006,-0.01952215433269739,-0.0907744959026575
1761468933551056600,0.649056640625,0.11070669234097004,-0.03619885610640049,-0.07569733828008174
1761468933561039600,0.65903955078125,0.1050830072402954,-0.057769759662449356,-0.04879296474158763
1761468933571021600,0.669021484375,0.10969079329669475,-0.05689151552319526,-0.02713701325058937
1761468933581004500,0.679004638671875,0.07448737796843051,-0.04468845203220844,-0.02974456540048122
1761468933590987800,0.68898779296875,0.03704641284644603,-0.0639525399506092,-0.058222471866011614
1761468933600969500,0.698969482421875,0.031799744364619256,-0.07917027508765459,-0.09932254401743411
1761468933610952700,0.70895263671875,0.042187867388129234,-0.08096300372332334,-0.06976444109976292
1761468933620935700,0.718935791015625,0.07868482965826988,-0.05863806692957878,-0.022830255967378615
1761468933630917600,0.728917724609375,0.09784078102707862,-0.03531856614053249,0.027698738786578178
1761468933640900600,0.738900634765625,0.10436696792542934,-0.028863983173668385,0.00012684125006198882
1761468933650882800,0.7488828125,0.14461539168357848,-0.008507423843443393,-0.03339373555779457
1761468933660865500,0.758865478515625,0.09387480000555515,0.016597206796705722,-0.031275428229570384
1761468933670848500,0.7688486328125,0.0911275471240282,0.01786035860031843,-0.07292495095729827
1761468933680830700,0.778830810546875,0.06885492503941058,-0.020167174237966535,-0.09603402386605739
1761468933690813400,0.7888134765625,0.05783844098448753,-0.0317217106923461,-0.09009177433550357
1761468933700796700,0.798796630859375,0.0876852977156639,-0.04780073883384466,-0.06551029078662395
1761468933710778600,0.808778564453125,0.1011398225724697,-0.06332680926769972,-0.08130874842107295
1761468933720761600,0.81876171875,0.052443303942680354,-0.06762538324445486,-0.08932955779135227
1761468933730744600,0.82874462890625,0.05797638815045356,-0.05497077659368515,-0.07449906840622425
1761468933740726800,0.838726806640625,0.06890811653137206,-0.05439765288084745,-0.06808569423258304
1761468933750709500,0.84870947265625,0.07086041964292526,-0.06701777274012566,-0.071547232863307
1761468933760691700,0.858691650390625,0.12468787142038344,-0.0869034996882081,-0.07849836717545985
1761468933770674700,0.8686748046875,0.13877894061505794,-0.047426060302555556,-0.030128011760115623
1761468933780657400,0.878657470703125,0.09717208798527717,-0.04727992983013391,-0.03822539349794388
1761468933790639600,0.8886396484375,0.0735030431061983,-0.06319967575669289,-0.09619242929816245
1761468933800622600,0.89862255859375,0.044913492959737775,-0.0609071809053421,-0.10889175187349319
1761468933810605600,0.90860546875,0.03485679384768009,-0.041052433617413044,-0.0926654242157936
1761468933820587500,0.91858740234375,0.021643676531314847,-0.0481757096260786,-0.08415537002384663
1761468933830570800,0.92857080078125,0.09823065712749958,-0.06367401527017355,-0.07906126175522804
1761468933840553500,0.938553466796875,0.10082418075203894,-0.06306318989545107,-0.012062193715572357
1761468933850535700,0.94853564453125,0.1261105976998806,-0.03262275118529796,0.021606851652264593
1761468933860518700,0.9585185546875,0.1282020170211792,-0.035917408816516394,0.0024088147073984146
1761468933870500600,0.96850048828125,0.09272036927342414,-0.00897854848653078,0.02809153749644756
1761468933880483600,0.978483642578125,0.10327625007927417,-0.009439151735603809,-0.02579845812320709
1761468933890466800,0.988466796875,0.10038812742233276,0.01077536877542734,-0.0455529599070549
1761468933900448500,0.998448486328125,0.07650280944406986,0.02396539747714996,-0.06589490619003772
1761468933910431700,1.008431640625,0.06758592801690101,-0.03551905714869499,-0.10827157414853572
1761468933920414700,1.018414794921875,0.05783376480937004,-0.06590133593082427,-0.1256482408851385
1761468933930396700,1.028396728515625,0.09277531433105468,-0.08835019136518239,-0.10177870499789714
1761468933940379600,1.038379638671875,0.10940379304885864,-0.08948211800456046,-0.04880056352615356
1761468933950362600,1.048362548828125,0.14703005160987376,-0.059087272001802915,-0.039166473740339276
1761468933960344600,1.058344482421875,0.12971592871546744,-0.026865795093774795,-0.041622050198912616
1761468933970327600,1.06832763671875,0.08680851488113403,0.003657353463768959,-0.022886370068788527
1761468933980309800,1.078309814453125,0.06893675810396671,0.0011117606341838836,-0.02429974399805069
1761468933990292500,1.08829248046875,0.07844576020538807,-0.0023109072908759115,-0.056101241928339
1761468934000275700,1.098275634765625,0.06121347037553787,-0.020594167478382587,-0.07988426857590675
1761468934010257700,1.108257568359375,0.05696048910617828,-0.05327741667926311,-0.07590192094147205
1761468934020240600,1.11824072265625,0.07563362539410591,-0.05877192244231701,-0.07580021413266658
1761468934030223600,1.1282236328125,0.12471066777408123,-0.056196518996357914,-0.07053016477525234
1761468934040205800,1.138205810546875,0.08537877433896064,-0.04954553667455911,-0.034010406151413916
1761468934050188500,1.1481884765625,0.09675941553115844,-0.03237432938218117,-0.019711831685900686
1761468934060171500,1.158171630859375,0.11119944429397582,-0.020862170764803886,-0.04913724813461304
1761468934070153700,1.16815380859375,0.07969839061498642,-0.03364975614547729,-0.06793605662882328
1761468934080136400,1.178136474609375,0.12576514526307583,-0.03451338723748922,-0.05329495233595371
1761468934090118700,1.18811865234375,0.0665840574979782,-0.017609598709642887,-0.047749593168497084
1761468934100101600,1.1981015625,0.0420107572555542,-0.039328678564727305,-0.04279869276285171
1761468934110084600,1.208084716796875,0.11195347753167152,-0.05299450808465481,-0.018507716593146324
1761468934120066600,1.218066650390625,0.09012626112699508,-0.03698357674330473,-0.004819967502355575
1761468934130049800,1.2280498046875,0.07162497427463531,-0.04189385287761688,-0.04428220931887626
1761468934140032500,1.238032470703125,0.13979250157177447,-0.024345921227335927,-0.08206804235577583
1761468934150014700,1.2480146484375,0.1058674356162548,-0.012092296592891216,-0.10438742619156836
1761468934159997700,1.257997802734375,0.056389995741844175,-0.025424364113807676,-0.10673135896921157
1761468934169980400,1.26798046875,0.09321955096721649,-0.037676819704473015,-0.06912555867433548
1761468934179962600,1.277962646484375,0.09150514826476573,-0.04842237786352634,-0.026224574580788612
1761468934189945600,1.287945556640625,0.06662205142080783,-0.07106850943565368,0.0028945523977279663
1761468934199927600,1.297927490234375,0.04900339262187481,-0.044811201629042625,-0.012995090651512145
1761468934209910500,1.30791064453125,0.038732758498191834,-0.05843377652913331,-0.06239888076782226
1761468934219893800,1.317893798828125,0.049717093849182124,-0.05481003307402134,-0.10266133305132388
1761468934229875500,1.32787548828125,0.06316226635575294,-0.044018005424737924,-0.10109773699641227
1761468934239858700,1.337858642578125,0.07401683784723281,-0.04285100747197866,-0.11489245359301567
1761468934249841700,1.347841552734375,0.07504910350441932,-0.039596681851148605,-0.11040624808967113
1761468934259823600,1.35782373046875,0.06388648897707462,-0.012760697373747824,-0.12693243547677993
1761468934269806600,1.367806640625,0.050987259915471074,-0.02259644721150398,-0.11260054326355456
1761468934279789600,1.37778955078125,0.053767830544710155,0.012121230426430702,-0.0631073212981224
1761468934289771500,1.387771484375,0.02792202614843845,-0.02239654072523117,-0.038806992778182024
1761468934299754500,1.39775439453125,0.053202013355493544,-0.04501783011704683,-0.01555938818156719
1761468934309736700,1.40773681640625,0.10036825367808341,-0.05915887593328952,-0.02045592805147171
1761468934319719700,1.4177197265625,0.07570084541141986,-0.0854655758395791,-0.0376274276047945
1761468934329702700,1.42770263671875,0.06541442919671535,-0.08956658141762018,-0.05030979904532432
1761468934339684600,1.4376845703125,0.10169161123633384,-0.0932452699303627,-0.0890530789375305
1761468934349667600,1.44766748046875,0.08657470612525939,-0.06440934380739927,-0.057141106370091434
1761468934359650600,1.457650634765625,0.10477145707309246,-0.002335457210242748,-0.05400865356326103
1761468934369632800,1.4676328125,0.05540507635772228,-0.016764380057156084,-0.07602233245074748
1761468934379615500,1.477615478515625,0.04266133011877536,-0.008342296409606932,-0.04806581951081752
1761468934389598700,1.4875986328125,0.06837327900230884,-0.003726619307696819,-0.037244565767049785
1761468934399580700,1.49758056640625,0.09152677557468414,-0.007792845833301544,-0.0356143342167139
1761468934409563600,1.507563720703125,0.10891688631474972,-0.033792671747505665,-0.03074059070050716
1761468934419545600,1.517545654296875,0.05718669907748699,-0.06641951458603143,-0.07041559848487376
1761468934429528800,1.52752880859375,0.07144318796694278,-0.051994683392345906,-0.029488544812798497
1761468934439511600,1.537511474609375,0.12519640546441077,-0.03993044385015964,-0.07361877844035625
1761468934449493000,1.547492919921875,0.12640402768850326,-0.13582944315969944,-0.14278642269074915
1761468934459476000,1.55747607421875,0.05627192232012748,0.03836918588280678,-0.050822424742579454
1761468934469459000,1.567458984375,0.04292611853480339,-0.02168020914942026,-0.07114800441265105
1761468934479441000,1.57744091796875,0.1385889710009098,-0.010415595552325248,-0.06772095257341862
1761468934489424000,1.587423828125,0.06395780064761639,-0.041155017209053034,-0.058733928519487374
1761468934499407000,1.597406982421875,0.036436756515502926,-0.07242138534933328,-0.06257832898795604
1761468934509388800,1.607388916015625,0.10308394237756728,-0.05296703555583954,-0.07807283523976802
1761468934519372000,1.6173720703125,0.08482815471887588,0.011328034222126006,-0.03300327493548393
1761468934529354000,1.62735400390625,0.08273731991946696,-0.03881955999881029,-0.09686287590563297
1761468934539337000,1.6373369140625,0.07320084528923035,-0.0224932790979743,-0.13797346945106984
1761468934549320000,1.64731982421875,0.059338908675312996,-0.027940146327018738,-0.10970365277826785
1761468934559302100,1.65730224609375,0.05295183798670768,-0.04231207828968763,-0.048805239701271055
1761468934569284900,1.667284912109375,0.10093874704241752,-0.014859130957722663,-0.022768296647071837
1761468934579268000,1.67726806640625,0.12142507023215293,-0.02801408834606409,-0.016775778234004973
1761468934589250000,1.68725,0.1187947217285633,-0.03231090875715017,-0.048913376250863075
1761468934599233000,1.69723291015625,0.08643675895929336,-0.04507189839184284,-0.08708148660361767
1761468934609216000,1.707216064453125,0.0788537564843893,-0.03569090658426285,-0.07634206592440605
1761468934619198200,1.7171982421875,0.0799386291116476,-0.02265606844425201,-0.055686231386661525
1761468934629181000,1.727180908203125,0.06912146702110766,-0.02686725639849901,-0.06069207684993744
1761468934639163100,1.7371630859375,0.06617898382842541,-0.023645956264436243,-0.06812193458974361
1761468934649146000,1.74714599609375,0.08196282841563224,-0.043889118348062035,-0.0932230580985546
1761468934659128800,1.75712890625,0.06929507002234458,-0.0488163456171751,-0.08013385942280292
1761468934669111000,1.767111083984375,0.07414426361918448,-0.053769584110379215,-0.07094342175126075
1761468934679094000,1.777093994140625,0.05622106891572475,-0.0682616353213787,-0.08508826695978641
1761468934689077000,1.787076904296875,0.09746902510523796,-0.049888066501915455,-0.09920037894248962
1761468934699059000,1.797058837890625,0.08119418213069439,-0.01443184545636177,-0.09032850570082664
1761468934709042200,1.807042236328125,0.02548749247789383,-0.023225685025751588,-0.10446341403722763
1761468934719023900,1.81702392578125,0.02634790869951248,-0.039627953772246836,-0.06338555371761322
1761468934729007000,1.827007080078125,0.11558452751040459,-0.011713818669319151,-0.024134908825159073
1761468934738990000,1.836989990234375,0.08952537262439728,-0.01801291881352663,-0.0133586632668972
1761468934748972000,1.846971923828125,0.06242927590608596,-0.022388065157830712,-0.014102759632468223
1761468934758955000,1.856955078125,0.07470248202383518,-0.05002893627732992,-0.06434124700725079
1761468934768938000,1.86693798828125,0.04454173703789711,-0.06375204894244671,-0.08002747643887996
1761468934778920000,1.876919921875,0.036626726129651066,-0.025678046613931655,-0.07411503752470017
1761468934788903000,1.88690283203125,0.06267243701219559,-0.06501432396322489,-0.08603928407430649
1761468934798886100,1.89688623046875,0.10171265402436255,-0.0751595781415701,-0.08799450979530811
1761468934808867800,1.906867919921875,0.10548282021284103,-0.052070378977060315,-0.07068214046657086
1761468934818851000,1.91685107421875,0.0563888266980648,-0.034142508098483085,-0.05691840353012085
1761468934828833000,1.9268330078125,0.03925122941434383,-0.04877309099733829,-0.07123860530555248
1761468934838816000,1.93681591796875,0.08364858954548836,-0.03494008821696043,-0.09031389265358447
1761468934848799000,1.946799072265625,0.046236265996098515,-0.019193360769748688,-0.08206628879010677
1761468934858781200,1.95678125,0.048021395847201345,-0.015150515119731426,-0.0677343965768814
1761468934868764000,1.966763916015625,0.1006517467945814,-0.016829261986911297,-0.045942251485586165
1761468934878747000,1.976746826171875,0.06928747123777866,-0.007935176913440227,-0.03778174138367176
1761468934888729000,1.98672900390625,0.07167173602581024,-0.03426233508586883,-0.06984744320809841
1761468934898711800,1.9967119140625,0.08398702771961689,-0.048562078595161436,-0.08720482072234154
1761468934908695000,2.006695068359375,0.04389642487168312,-0.04709171378165483,-0.08732581675350666
1761468934918677000,2.016677001953125,0.019152444237470624,-0.07623802102804184,-0.10136369445621966
1761468934928660000,2.026659912109375,0.06458499263525008,-0.06177957982569932,-0.09749474406838417
1761468934938642000,2.036641845703125,0.05471884765923023,-0.03739537241458893,-0.09361644133031367
1761468934948625200,2.046625244140625,0.02914893759489059,-0.044727614998817444,-0.09081775052249431
1761468934958608000,2.05660791015625,0.01890051530301571,-0.0749085259899497,-0.07413900292217732
1761468934968590000,2.066590087890625,0.04916881231665611,-0.07365735688507556,-0.08650748610794544
1761468934978573000,2.076572998046875,0.02120879224538803,-0.07782295213192701,-0.08254793482720851
1761468934988556000,2.08655615234375,0.02068038445711136,-0.06551029078662395,-0.0811065038472414
1761468934998538000,2.0965380859375,0.11395780309140681,-0.03996609968543052,-0.05503507400155067
1761468935008521000,2.10652099609375,0.09126900142133236,-0.03437544007152319,-0.04627016826570034
1761468935018504000,2.11650390625,0.06195815126299858,-0.02860913162976503,-0.034141923576593396
1761468935028486000,2.12648583984375,0.018024316990375516,-0.06587474018484353,-0.06252981367111206
1761468935038469000,2.13646923828125,-0.016382395002245902,-0.2083189253091812,-0.1987427031904459
1761468935048451000,2.146451171875,-0.027416999235749244,-0.018941139574348925,-0.09664134210944175
1761468935058434000,2.15643408203125,0.18611001611053943,-0.023330022183060645,-0.007715104421973228
1761468935068417000,2.1664169921875,0.09896130948960781,0.01601560751646757,-0.054228433793783185
1761468935078399000,2.17639892578125,0.03648118017911911,-0.06158639534115791,-0.09143149850666522
1761468935088382000,2.1863818359375,0.021144494837522506,-0.055063131052255625,-0.0899555807352066
1761468935098365200,2.196365234375,0.03328618353009224,-0.013963643422722816,-0.05599427442252636
1761468935108347000,2.206346923828125,0.012738485541939735,-0.017774433882534503,-0.05210194315910339
1761468935118330000,2.216330078125,0.03437631685435772,-0.07632102313637733,-0.09283668912947177
1761468935128313000,2.22631298828125,0.04892682025432586,-0.04990501763671636,-0.0818032539397478
1761468935138295000,2.236294921875,0.04150689938664436,-0.05265022469162941,-0.05075754281282425
1761468935148278000,2.246278076171875,0.05199906730651855,-0.06452683270722627,-0.06833996125459671
1761468935158260200,2.25626025390625,0.06231587865948677,-0.052748716630041596,-0.096834818854928
1761468935168243000,2.266242919921875,0.03714753513336182,-0.03963087638169527,-0.07885258744060993
1761468935178226000,2.276225830078125,0.043294951847195624,-0.02713438290208578,-0.09177811998724937
1761468935188208000,2.2862080078125,0.06422492715120315,-0.023321838876605033,-0.08267185346782208
1761468935198190800,2.29619091796875,0.06252747558355332,-0.03251139976531267,-0.08323533256947993
1761468935208174000,2.306174072265625,0.05789280152022838,-0.0366425082206726,-0.08209668392837047
1761468935218156000,2.316156005859375,0.04907470429241657,-0.06403846466839314,-0.07429448574483394
1761468935228139000,2.326138916015625,0.08018997352421284,-0.05229746573120355,-0.07576280473172664
1761468935238121000,2.336120849609375,0.0837204857379198,-0.06503010605424642,-0.10335399149060248
1761468935248104200,2.346104248046875,0.03340659503936767,-0.05861000987887382,-0.1221668285101652
1761468935258087000,2.3560869140625,-0.017593524357676506,-0.049315819571912285,-0.09205752145051956
1761468935268069000,2.366069091796875,0.007001987716555595,-0.0466790413275361,-0.08427052083611487
1761468935278052000,2.376052001953125,0.049448213779926295,-0.05089782806634903,-0.08054244022369385
1761468935288034800,2.386034912109375,0.06382160704731941,-0.06824994488358498,-0.05308452445566654
1761468935298017000,2.39601708984375,0.06295125395357608,-0.05815788219720125,-0.03193359987735748
1761468935308000000,2.406,0.07326864982843398,-0.06300006153136492,-0.07655249380469321
1761468935317983000,2.41598291015625,0.07450783623456954,-0.06443330920487642,-0.10882044020295142
1761468935327965000,2.42596484375,0.018935002094507217,-0.05505465548485517,-0.09125497289597988
1761468935337948200,2.4359482421875,0.02138297976851463,-0.03704407475888729,-0.09227028741836547
1761468935347931000,2.445930908203125,0.041108255457878114,-0.059734922255575654,-0.10075053099393844
1761468935357913000,2.4559130859375,0.013912205496430395,-0.07925590754449367,-0.09471417343914508
1761468935367896000,2.46589599609375,0.02465337974131107,-0.05082213248163461,-0.07257482234537602
1761468935377878000,2.4758779296875,0.038466801038384436,-0.06263853474259376,-0.10763912146389484
1761468935387861000,2.485861083984375,0.04070610439777374,-0.06241290929317474,-0.12074176414310932
1761468935397844000,2.495843994140625,0.058148822107911106,-0.07042611987888812,-0.11259820517599582
1761468935407826000,2.505825927734375,0.06473229215145111,-0.06594751316010952,-0.07096446453928947
1761468935417809000,2.515808837890625,0.06202186414897441,-0.05807634139358997,-0.06701952630579472
1761468935427792100,2.525792236328125,0.052854222831130025,-0.04493219766020774,-0.03679740652143955
1761468935437773800,2.53577392578125,0.055984337550401685,-0.03533610179722309,-0.02200783366858959
1761468935447757000,2.545757080078125,0.08677344356775284,-0.03152940299063921,0.0004664484679698944
1761468935457739500,2.555739501953125,0.035299276918172834,-0.04788929390013218,-0.02417640987932682
1761468935467722500,2.565722412109375,0.0054500820994377135,-0.08281564585268497,-0.04357844496369362
1761468935477705500,2.57570556640625,0.04466974733173847,-0.08641630069315433,-0.10867898590564727
1761468935487687700,2.585687744140625,0.06113397539854049,-0.07459025382101535,-0.07545359265208244
1761468935497670400,2.59567041015625,0.03010638445019722,-0.07895049485713243,-0.048507133537530896
1761468935507653400,2.6056533203125,0.05371580809652805,-0.08161065397709608,-0.0759340696454048
1761468935517635600,2.615635498046875,0.07711246577501296,-0.0720832394361496,-0.09355331296622753
1761468935527618300,2.625618408203125,0.04726794713139534,-0.05616758516281843,-0.09605857378542422
1761468935537601500,2.6356015625,0.066157356518507,-0.034758009648323054,-0.08694353943765162
1761468935547583500,2.64558349609375,0.04714519753456115,-0.051992053043842315,-0.08491641752421855
1761468935557566500,2.65556640625,0.05400631547570228,-0.05810673653185367,-0.06454816775619983
1761468935567548400,2.66554833984375,0.05140753115415573,-0.07058364852815865,-0.07744973490536212
1761468935577531600,2.67553173828125,0.04873042089939117,-0.06864829655140638,-0.06285246975421906
1761468935587514400,2.685514404296875,0.08155249404907226,-0.043398412221670145,-0.062220017069578165
1761468935597496600,2.69549658203125,0.06412146677672863,-0.04168254821449518,-0.0746715023636818
1761468935607479600,2.7054794921875,0.07728723782002925,-0.031579087351262566,-0.0866051012635231
1761468935617462300,2.715462158203125,0.0935848771482706,-0.023698563234508037,-0.09317278921604157
1761468935627444500,2.725444580078125,0.07563128730654715,-0.0007601707175374031,-0.05789397056400775
1761468935637427500,2.735427490234375,0.07763502834439277,-0.010614040733873844,-0.06161269882619381
1761468935647410400,2.745410400390625,0.06315583661496639,-0.02524257780611515,-0.05888064351379871
1761468935657392400,2.755392333984375,0.04301555038392543,-0.03459522030204534,-0.0438362191170454
1761468935667375600,2.765375732421875,0.07407236742675304,-0.036625557085871695,-0.007930208477377892
1761468935677357300,2.775357421875,0.15270692820250986,-0.03914864582270384,-0.005562894824147224
1761468935687340500,2.785340576171875,0.13436813843548298,0.0002209492743015289,-0.060794952702522276
1761468935697323500,2.795323486328125,0.06039397068619728,-0.009581482815742491,-0.09180793060362338
1761468935707305500,2.805305419921875,0.07429448574483394,-0.01142068094164133,-0.12269991247355937
1761468935717288400,2.815288330078125,0.06504208875298499,-0.011895020455121993,-0.11847031207978724
1761468935727271700,2.825271728515625,0.04793079495429992,-0.024644027391076087,-0.09177285929024219
1761468935737253400,2.83525341796875,0.08117781551778316,-0.060438978871703145,-0.057334583115577695
1761468935747236600,2.845236572265625,0.10317571231424807,-0.06650134765058756,-0.06613748277425766
1761468935757219600,2.855219482421875,0.11052841316461562,-0.08478519235998391,-0.05510638567209243
1761468935767201500,2.865201416015625,0.0951537339001894,-0.07303396428972482,-0.0694903003334999
1761468935777184500,2.8751845703125,0.037706338059902186,-0.07637509141117334,-0.06647825903594494
1761468935787166500,2.88516650390625,-0.0009866729497909545,-0.06988280678242445,-0.08632102362513541
1761468935797149400,2.8951494140625,0.04214052111506462,-0.05473375296741724,-0.09478840771913528
1761468935807132400,2.90513232421875,0.06898994959592819,-0.03949351373761892,-0.0597439823448658
1761468935817114600,2.915114501953125,0.07207973230481148,-0.018341712376475333,0.01023380924463272
1761468935827097300,2.925097412109375,0.10752981587052345,-0.0018821604847908018,0.015875614523887634
1761468935837080600,2.93508056640625,0.10784896482229232,-0.005876198557019234,0.031301147192716594
1761468935847062500,2.9450625,0.0787444508910179,-0.03874240310937166,-0.01687748504281044
1761468935857045500,2.95504541015625,0.06318214010000228,-0.038837095655500885,-0.06413666434586048
1761468935867028500,2.965028564453125,0.06023381168842315,-0.028443127413094044,-0.10338263306319713
1761468935877010700,2.9750107421875,0.08799567883908749,-0.044373686994612214,-0.12818798849582672
1761468935886993400,2.984993408203125,0.09247370103597641,-0.044377486386895176,-0.12887012554109095
1761468935896975600,2.9949755859375,0.057056935217976563,-0.043674306553602216,-0.07837795566618443
1761468935906958600,3.00495849609375,0.07254501172900199,-0.04054769896566868,-0.05622808317840099
1761468935916941300,3.01494140625,0.06476268728971481,-0.05645692349821329,-0.03960077350437641
1761468935926923500,3.024923583984375,0.05760404770672321,-0.05754150386452674,-0.061707975894212716
1761468935936906500,3.034906494140625,0.0899164177685976,-0.04466624020040035,-0.054690790608525275
1761468935946889500,3.044889404296875,0.0954629459798336,-0.06505173336416482,-0.041754152145981785
1761468935956871400,3.054871337890625,0.11698796456754207,-0.06890081000775099,-0.0480319172412157
1761468935966854700,3.064854736328125,0.08182663481533527,-0.07233107671737671,-0.06546937425434589
1761468935976837400,3.07483740234375,0.05065758956968784,-0.050152854917943475,-0.044700142470002174
1761468935986819600,3.084819580078125,0.06956161200404166,-0.03659340838193893,-0.0535696776241064
1761468935996802600,3.094802490234375,0.017487725895643232,-0.02721533918380737,-0.08679390183389186
1761468936006784500,3.104784423828125,0.045163668328523636,-0.07010843223184347,-0.12335340794622897
1761468936016767500,3.114767578125,0.1044990698724985,-0.06488660593032837,-0.10500409678518771
1761468936026750500,3.12475048828125,0.08258534422814845,-0.06325491307526826,-0.062079731816053384
1761468936036732400,3.134732421875,0.03553191663026809,-0.0752285517245531,-0.029601942059397694
1761468936046715400,3.14471533203125,0.09172083684206009,-0.04250350920855999,-0.03587503097951412
1761468936056698600,3.15469873046875,0.049853871971368785,-0.05289718519002199,-0.04759820199906826
1761468936066680300,3.164680419921875,0.06166004509925842,-0.0362812736928463,-0.050313890698552126
1761468936076663600,3.17466357421875,0.0877203690290451,-0.06314005452394485,-0.08712824835479259
1761468936086646500,3.184646484375,0.08768938936889172,-0.07492050868868827,-0.08635434137284755
1761468936096628500,3.19462841796875,0.09334288508594035,-0.05602466956079006,-0.05145195481777191
1761468936106611500,3.204611572265625,0.047931963998079294,-0.08231178798377513,-0.05925707561075687
1761468936116593400,3.214593505859375,0.047424014475941655,-0.07161065348833799,-0.09028583560287952
1761468936126576400,3.224576416015625,0.039808278775215145,-0.04931026661396026,-0.12385668129324913
1761468936136559400,3.234559326171875,0.042782910671830175,-0.03857610663175583,-0.08932838874757289
1761468936146541300,3.244541259765625,0.1039940429598093,-0.04730126487910747,-0.06034194823801517
1761468936156524500,3.254524658203125,0.110089437225461,-0.07889934919178486,-0.07718319292366504
1761468936166507500,3.264507568359375,0.06462941629886627,-0.07454641467928887,-0.05053600901663303
1761468936176489500,3.274489501953125,0.0360632470279932,-0.057117140972614285,-0.041029345002770425
1761468936186472400,3.284472412109375,0.04819149171710014,-0.053288814856112,-0.038359249010682106
1761468936196455400,3.294455322265625,0.06423077237010001,-0.07535393166989088,-0.07838964610397815
1761468936206437600,3.304437744140625,0.05343932924270629,-0.07253215224742889,-0.11289572681784629
1761468936216420400,3.31442041015625,0.05664776989519596,-0.0762006116271019,-0.11698913361132145
1761468936226402600,3.324402587890625,0.02805588166117668,-0.08202098834365606,-0.12535422637462615
1761468936236385500,3.334385498046875,0.018024901512265205,-0.048640696789324284,-0.08628536778986454
1761468936246368500,3.344368408203125,0.027044658792018887,-0.03761310681849718,-0.08109422888755798
1761468936256350500,3.3543505859375,0.03341068669259548,-0.054527709001302715,-0.07217559389472007
1761468936266333700,3.364333740234375,0.039088147807121276,-0.06875877118855714,-0.07834580696225166
1761468936276316400,3.37431640625,0.057250411963462824,-0.10401011731177567,-0.07477846986949443
1761468936286298600,3.384298583984375,0.10741641862392425,-0.09743804544508457,-0.05446399611532688
1761468936296281600,3.394281494140625,0.10311901369094847,-0.09467238012403249,-0.08559037126302718
1761468936306264300,3.404264404296875,0.0511649545699358,-0.06605506518781185,-0.05588672239482403
1761468936316246500,3.41424658203125,0.05761398457884788,-0.013374737618863581,-0.05489303518235683
1761468936326229500,3.4242294921875,0.014978373423218725,0.0028866613522171972,-0.06619067426621913
1761468936336211500,3.43421142578125,0.024147768306732178,0.007692892590165138,-0.08090367475152015
1761468936346194400,3.4441943359375,0.0541232198536396,-0.011994389176368712,-0.08652502176463603
1761468936356177700,3.454177734375,0.06721300305128097,-0.007244564300775528,-0.0627414105951786
1761468936366159400,3.464159423828125,0.07997428494691848,-0.03206657860726118,-0.08661737622320652
1761468936376142600,3.474142578125,0.07684826188087462,-0.030858664122223853,-0.0698825145214796
1761468936386125600,3.48412548828125,0.0806137518942356,-0.030660218940675256,-0.08165361633598804
1761468936396107500,3.494107421875,0.02791851901710033,-0.0165916538387537,-0.053441082808375354
1761468936406090500,3.504090576171875,0.07525368616580963,-0.017257424271106717,-0.051716158711910244
1761468936416073500,3.514073486328125,0.0924000512778759,-0.011029635797441005,-0.06223404559493065
1761468936426055400,3.524055419921875,0.06750643303990364,-0.012789631207287312,-0.08701777371764183
1761468936436038400,3.534038330078125,0.004874328038096428,-0.06337035614848137,-0.10668868887126445
1761468936446020400,3.544020263671875,0.003751461488008499,-0.059627662488818164,-0.13139292201697825
1761468936456003600,3.554003662109375,0.006633738926053047,-0.07753010666519403,-0.1349684424161911
1761468936465986600,3.563986572265625,0.010306289958953857,-0.10365677382946013,-0.11143149948418139
1761468936475968500,3.573968505859375,0.04654781616330147,-0.09259089767485856,-0.07338789229393004
1761468936485951700,3.58395166015625,0.04283025694489479,-0.10375000507086515,-0.06335632762312889
1761468936495934500,3.5939345703125,0.02889408605098724,-0.10767682312577963,-0.06292202785909176
1761468936505916700,3.603916748046875,0.06799392429590224,-0.07098579958826302,-0.06326163507699967
1761468936515899600,3.613899658203125,0.062055766418576234,-0.04853577511012554,-0.06020750820338726
1761468936525882400,3.62388232421875,0.029482699593901634,-0.05360153406709432,-0.06347907721996307
1761468936535864600,3.633864501953125,0.04054886800944805,-0.042540626348555086,-0.047587096083164214
1761468936545847600,3.64384765625,0.06719196026325225,-0.049044016893208024,-0.039247137761116026
1761468936555829500,3.65382958984375,0.07464753696620464,-0.0430956298828125,-0.04484393485486507
1761468936565812500,3.6638125,0.035738837379217146,-0.056306701372563835,-0.0468383235424757
1761468936575795700,3.673795654296875,0.0828010328054428,-0.07125526417940854,-0.07283493458628654
1761468936585777400,3.68377734375,0.10500760391652583,-0.03999327995330095,-0.1076888058245182
1761468936595760600,3.6937607421875,0.0476268435716629,-0.015521686519682406,-0.0738818132907152
1761468936605743600,3.70374365234375,0.05767243676781654,0.0014256488889455795,-0.06904372560977935
1761468936615725600,3.7137255859375,0.10576105263233185,-0.029957039107382295,-0.10035831680595875
1761468936625708500,3.72370849609375,0.07655424737036227,-0.01835807898938656,-0.08863222317695617
1761468936635691500,3.73369140625,0.057473114803433416,-0.01943593735396862,-0.0990922423928976
1761468936645673500,3.743673583984375,0.048612347477674483,-0.034059798251092434,-0.11351882715225219
1761468936655656700,3.75365673828125,0.05789513960778713,-0.028683950431644914,-0.08691840499639511
1761468936665638700,3.763638671875,0.05845569609999656,-0.05447919368445873,-0.0965519102603197
1761468936675621600,3.77362158203125,0.03388239585757255,-0.08664338744729756,-0.09515665650963782
1761468936685604600,3.7836044921875,0.08442308104932307,-0.05661445214748382,-0.04636135368049144
1761468936695586600,3.793586669921875,0.11045184079706669,-0.055363283042609686,-0.05783785646259784
1761468936705569500,3.803569580078125,0.06676584380567073,-0.07125847904980183,-0.0880862797319889
1761468936715552500,3.813552490234375,0.05464695146679878,-0.08379092062562704,-0.08515081080198288
1761468936725534700,3.82353466796875,0.08228548449873924,-0.09122896167188882,-0.08520984751284122
1761468936735517400,3.833517333984375,0.04334288264214992,-0.032255086916685105,-0.05150806891918182
1761468936745500700,3.843500732421875,0.04331365654766559,-0.02237199080586433,-0.05075812733471393
1761468936755482600,3.853482666015625,-0.01662964776158333,-0.05739800374060869,-0.05330255112051963
1761468936765465600,3.863465576171875,0.05065232887268066,-0.05940700547546148,-0.07061141331791877
1761468936775447600,3.873447509765625,0.10705986027121543,-0.06660889967828988,-0.05797171197533607
1761468936785430800,3.8834306640625,0.06641746875941754,-0.03780687582492828,-0.03316051132380962
1761468936795413500,3.89341357421875,0.057736149653792375,-0.049415188293159,-0.029891280394792556
1761468936805395700,3.903395751953125,0.11329378622472286,-0.04667816454470158,-0.044161213287711144
1761468936815378700,3.913378662109375,0.09678221188485622,-0.05647971985191107,-0.08365209667682648
1761468936825361400,3.923361328125,0.04905249246060848,-0.07035159333795309,-0.10166063157618045
1761468936835343600,3.933343505859375,0.07285597737431526,-0.0680725424900651,-0.0685363606095314
1761468936845326600,3.94332666015625,0.12614683805704116,-0.05239917254000902,-0.04750117136538028
1761468936855309600,3.9533095703125,0.11963935585916041,-0.06200988145023584,-0.019332476979494095
1761468936865291500,3.96329150390625,0.1154044947683811,-0.061111763566732404,-0.033981180056929586
1761468936875274800,3.973274658203125,0.0895896700322628,-0.06034837797880172,-0.04890694651007652
1761468936885256400,3.98325634765625,0.047838440495729447,-0.040599136891961096,-0.08184943116903305
1761468936895239700,3.99323974609375,0.02660626737475395,-0.04700462002009153,-0.1095534306526184
1761468936905222700,4.00322265625,0.020327917757630348,-0.04513561127781868,-0.0843435860723257
1761468936915204600,4.01320458984375,0.057415247136354444,-0.08093085501939058,-0.06081073479354381
1761468936925185800,4.023185791015625,0.05466740973293781,-0.08123422188013792,-0.06289104819893837
1761468936935167500,4.03316748046875,0.06590776567161083,-0.08543401165753603,-0.050938160076737404
1761468936945150700,4.043150634765625,0.08078735489547252,-0.08239040617793798,-0.03610767069160938
1761468936955132400,4.05313232421875,0.08500760293900966,-0.08555033151358366,-0.028964813199639318
1761468936965115600,4.06311572265625,0.09981588049232959,-0.04462824627757072,-0.036594577425718304
1761468936975098600,4.0730986328125,0.04262859689295292,-0.008418284255266188,-0.04122106818258762
1761468936985080600,4.08308056640625,0.0463502477645874,-0.018190613467991352,-0.07927753485441208
1761468936995063600,4.0930634765625,0.07020341703891754,-0.00239244809448719,-0.0914455270320177
1761468937005046500,4.103046630859375,0.046104164049029346,0.014218787227571009,-0.05446165802776813
1761468937015028700,4.11302880859375,0.06257891350984573,-0.04337093969285488,-0.08436638242602348
1761468937025011500,4.123011474609375,0.041428573453426355,-0.054718263137340545,-0.11989420740306377
1761468937034994700,4.13299462890625,0.01600654742717743,-0.08346563419401645,-0.0919113909780979
1761468937044976600,4.1429765625,0.07838087827563285,-0.08857406324893236,-0.09645897127985954
1761468937054959600,4.152959716796875,0.07979542124867439,-0.08061696676462889,-0.0882172126352787
1761468937064941600,4.162941650390625,0.08172434348464011,-0.07635229505747557,-0.06169336284697056
1761468937074924800,4.1729248046875,0.08235445808172226,-0.057088791660964484,-0.04584989702701568
1761468937084907500,4.182907470703125,0.07298457219004631,-0.024688451054692268,-0.03537351119816303
1761468937094889700,4.1928896484375,0.06689034696817397,-0.019619184966385362,-0.07412088274359703
1761468937104872700,4.202872802734375,0.041732524836063385,-0.032090544004738326,-0.0722007283359766
1761468937114855400,4.21285546875,0.025896657800674436,-0.014949731850624084,-0.039895957058668136
1761468937124837600,4.222837646484375,0.03507598955631256,-0.03457973047196865,-0.026104163071513174
1761468937134820600,4.232820556640625,0.043024902734160424,-0.031121698972582816,-0.037273791861534115
1761468937144803600,4.242803466796875,0.061651861792802805,-0.04849047466367483,-0.054658057382702824
1761468937154785500,4.25278564453125,0.07426467512845993,-0.06162994222193956,-0.03627192134261131
1761468937164768800,4.262768798828125,0.11170914738178253,-0.05955810438394546,-0.06799918499290943
1761468937174750500,4.27275048828125,0.0804571000277996,-0.07052958025336264,-0.08780687826871872
1761468937184733700,4.282733642578125,0.05296469746828079,-0.07400280932188033,-0.08149754899144172
1761468937194716700,4.292716552734375,0.05351648613214492,-0.05205956532210111,-0.07030044767260551
1761468937204698600,4.30269873046875,0.058014382073283195,-0.03421002037674188,-0.051906128326058384
1761468937214681600,4.312681640625,0.041407530665397645,-0.017234043395519257,-0.06405658484697342
1761468937224664600,4.32266455078125,0.05702654007971286,-0.009569207856059074,-0.09239479058086872
1761468937234646500,4.332646484375,0.052560208320617675,-0.03647328913360834,-0.09085340635776519
1761468937244629500,4.34262939453125,0.0643272184818983,-0.05491787736266851,-0.06838730752766133
1761468937254612700,4.35261279296875,0.11175357104539871,-0.06690525227636099,-0.05343816019892692
1761468937264594400,4.362594482421875,0.09648001406788825,-0.07011018579751253,-0.03380582349002361
1761468937274577700,4.37257763671875,0.05802431894540786,-0.07311375152766704,-0.045941082441806794
1761468937284559600,4.3825595703125,0.05403904870152473,-0.06216185714155435,-0.07279927875101566
1761468937294542600,4.39254248046875,0.024932196682691574,-0.07850450465530157,-0.08835925145447254
1761468937304525600,4.402525634765625,0.025345453658699987,-0.08110971871763467,-0.11202245111465453
1761468937314507500,4.412507568359375,0.04460369635820389,-0.02769903104752302,-0.08146189315617083
1761468937324490500,4.422490478515625,0.08316635898649692,-0.03296498875170946,-0.07331424253582954
1761468937334473700,4.4324736328125,0.08593465465605259,-0.05801876598745584,-0.08693710969686508
1761468937344455400,4.442455322265625,0.06303834771513939,-0.06478869851380586,-0.06032675066888332
1761468937354438700,4.452438720703125,0.05923661734461784,-0.08769640363156794,-0.08448445584774017
1761468937364421600,4.462421630859375,0.04805763620436191,-0.06753127522021532,-0.07286766781210899
1761468937374403800,4.47240380859375,-0.04124854071140289,-0.1707213083207607,-0.1405149706274271
1761468937384386600,4.482386474609375,0.009419570252299309,-0.02656710440814495,-0.07817571109235286
1761468937394369500,4.49236962890625,0.058761401048302644,-0.022893384331464765,0.04405892195701599
1761468937404351700,4.502351806640625,0.16427461639940738,-0.05102700740396976,-0.012681786918640137
1761468937414334500,4.51233447265625,0.1194482172012329,-0.042216801221668716,0.0031190088033676146
1761468937424316700,4.522316650390625,0.07412322083115577,-0.08140840940326452,-0.03827975403368473
1761468937434299600,4.532299560546875,0.04060848924219608,-0.08802022875845432,-0.07379647309482097
1761468937444282600,4.54228271484375,0.014836334604024887,-0.05759440309554338,-0.08141630044877529
1761468937454265300,4.552265380859375,0.08655424785912036,0.004212649258971214,-0.06417115113735199
1761468937464248300,4.562248291015625,0.10145780248045921,-0.014500526778399943,-0.04869827219545841
1761468937474231600,4.5722314453125,0.06178045660853385,-0.02440554246008396,-0.014182839131355285
1761468937484213200,4.582213134765625,0.05588964500427246,-0.022444763781130313,-0.008285013264417648
1761468937494196500,4.592196533203125,0.08924597116112709,-0.05784107133299112,-0.04541033656597137
1761468937504179500,4.602179443359375,0.07494038243293762,-0.06988280678242445,-0.03315992680191993
1761468937514164500,4.61216455078125,0.13303718209266663,-0.08762626100480556,-0.08604396024942397
1761468937524146400,4.622146484375,0.13516951794624327,-0.0986108886167407,-0.10977730253636836
1761468937534129400,4.63212939453125,0.1046300027757883,-0.04554653016626835,-0.09918225876390933
1761468937544112400,4.6421123046875,0.07193535539805888,-0.04387918147593736,-0.13548515976667402
1761468937554094300,4.65209423828125,0.03766132987439632,-0.004004851727187633,-0.10016074840724468
1761468937564077300,4.662077392578125,0.0646539662182331,0.012823533476889132,-0.035737668335437775
1761468937574060500,4.672060546875,0.08058978649675845,0.026207038924098012,-0.006490531063079834
1761468937584042200,4.682042236328125,0.10496434929668903,0.007130290271341801,-0.009255904123187065
1761468937594025500,4.692025390625,0.13213117316365242,-0.047187867632508276,-0.025484569868445394
1761468937604007400,4.70200732421875,0.12114859137833117,-0.06713526163995266,-0.04557575626075268
1761468937613990400,4.711990478515625,0.11010989549160002,-0.07102963872998952,-0.07489537424743176
1761468937623973400,4.721973388671875,0.11074994696080684,-0.07072247247695923,-0.08142740636467934
1761468937633955600,4.73195556640625,0.08371522504091262,-0.0532429298877716,-0.05448328533768654
1761468937643938300,4.741938232421875,0.029807693764567374,-0.03655892159044742,-0.023795301607251167
1761468937653921300,4.75192138671875,-0.007930208477377892,-0.04324935913980007,-0.00971533832848072
1761468937663903500,4.761903564453125,0.022848376145958898,-0.05862257709950208,-0.05185936657488346
1761468937673886200,4.77188623046875,0.10187222850024699,-0.0435790294855833,-0.07528408130407332
1761468937683868400,4.781868408203125,0.09040273998081684,-0.03277969531267881,-0.061736032944917675
1761468937693851400,4.791851318359375,0.09134498926699161,-0.02758388023525476,-0.06831891846656798
1761468937703834400,4.80183447265625,0.08217442533969879,-0.056636079457402226,-0.09871990194916724
1761468937713816300,4.81181640625,0.07225625791549682,-0.06155278533250093,-0.05783376480937004
1761468937723799600,4.821799560546875,0.0766191293001175,-0.04474515065550804,-0.053771337676048275
1761468937733782300,4.8317822265625,0.07961246589720249,-0.05102788418680429,-0.07649053448438643
1761468937743764500,4.841764404296875,0.0629419016033411,-0.04141922110319137,-0.09306348362267017
1761468937753747500,4.85174755859375,0.061712652069330215,-0.03597089256942272,-0.08792144455909728
1761468937763730200,4.861730224609375,0.07445522926449775,-0.006679916155338287,-0.07883855891525746
1761468937773712400,4.87171240234375,0.07454232302606105,-0.02756839040517807,-0.07416939806044101
1761468937783695400,4.8816953125,0.03585691080093384,-0.07665683096200228,-0.08191080596745014
1761468937793678300,4.89167822265625,0.06852174756228924,-0.06626929246038198,-0.06474222902357578
1761468937803660300,4.901660400390625,0.10120353545844554,-0.06847001737505197,-0.026047464448213577
1761468937813643500,4.9116435546875,0.08425064709186554,-0.0416577060341835,-0.03152852620780468
1761468937823625200,4.921625244140625,0.06673603318929672,-0.01393470958918333,-0.044696635338664054
1761468937833608400,4.9316083984375,0.07972294053435325,-0.010365034408867359,-0.0774374599456787
1761468937843591400,4.94159130859375,0.08030337077081202,-0.022429566211998462,-0.09609539866447449
1761468937853573400,4.951573486328125,0.04543605552911758,-0.025362989315390584,-0.0757119513273239
1761468937863556400,4.961556396484375,0.02535188339948654,-0.029643735374510285,-0.07995324215888977
1761468937873539300,4.971539306640625,0.05992810674011707,-0.03404723103046417,-0.05336158783137798
1761468937883521300,4.981521240234375,0.12253566182255744,-0.008353694586455821,-0.007381342422962189
1761468937893504300,4.991504150390625,0.09156243140995501,-0.018924188439548014,-0.05481354020535945
1761468937903487500,5.001487548828125,0.04873275898694992,0.004407002787292003,-0.098116090837121
1761468937913469400,5.011469482421875,0.08731704892516136,0.018375906907021997,-0.07225801148116588
1761468937923452400,5.021452392578125,0.1274000529885292,-0.0029281624063849446,-0.06799333977401256
1761468937933434400,5.031434326171875,0.0939636473327875,-0.05740706382989883,-0.07292904261052609
1761468937943417300,5.041417236328125,0.0746925451517105,-0.09041472267955541,-0.08895897091329097
1761468937953400300,5.051400390625,0.10335632957816124,-0.09620119712650775,-0.11624036107063293
1761468937963382500,5.061382568359375,0.02922960161566734,-0.041155893991887564,-0.1020031614035368
1761468937973365200,5.071365234375,-0.0139250649780035,-0.05226327120065689,-0.11119535264074802
1761468937983348500,5.081348388671875,-0.015508534777164459,-0.060436640784144395,-0.13023673771917818
1761468937993330400,5.091330322265625,0.03618599662482738,-0.04098784394860267,-0.08438625617027282
1761468938003313400,5.1013134765625,0.05972060146927833,-0.051964872775971886,-0.045969724014401435
1761468938013296400,5.11129638671875,0.09339958370923995,-0.05181669647693634,-0.021419804647564888
1761468938023278600,5.121278564453125,0.1189776770800352,-0.05852963811904192,-0.044559272694587704
1761468938033261300,5.13126123046875,0.07070844395160675,-0.07217471711188554,-0.04867079966664314
1761468938043244300,5.141244384765625,0.051258478072285646,-0.06468962205350398,-0.026419220370054244
1761468938053226500,5.1512265625,0.05374678775668144,-0.07601940984129905,-0.06552431931197643
1761468938063209200,5.161209228515625,0.07728197712302208,-0.07464753696620464,-0.10103870028555392
1761468938073191400,5.17119140625,0.08680266966223717,-0.0658548664405942,-0.13446984524428843
1761468938083174400,5.18117431640625,0.06202946293354034,-0.04463496827930212,-0.11670973214805125
1761468938093157400,5.191157470703125,0.06927870340943336,-0.03385316976308823,-0.08953940114974974
1761468938103139300,5.201139404296875,0.04844283612966537,-0.03941548006534576,-0.04490121800005436
1761468938113122600,5.21112255859375,0.06169745450019836,-0.07321370477080345,-0.025782676032185554
1761468938123105300,5.221105224609375,0.08388473638892173,-0.034762685823440546,-0.00514262358546257
1761468938133087500,5.23108740234375,0.08841887268722057,-0.05174333897978067,-0.04244797962903976
1761468938143070500,5.241070556640625,0.07627016973197459,-0.07678367221206427,-0.04244388797581196
1761468938153052400,5.251052490234375,0.07693009494543075,-0.050884968584775925,-0.0368126040905714
1761468938163035400,5.261035400390625,0.04827741643488407,-0.01771101325750351,0.0043850832164287566
1761468938173018400,5.271018310546875,0.08493979839980602,-0.0334817061021924,-0.04595744905471801
1761468938183000300,5.281000244140625,0.05359013589024544,-0.048806116484105586,-0.10748130055367947
1761468938192983300,5.2909833984375,0.011712649625539778,-0.05912029748857021,-0.11722761854231357
1761468938202966500,5.300966552734375,-0.015925298884510993,-0.06574672989100218,-0.11060849266350269
1761468938212948200,5.3109482421875,0.03935936596393585,-0.06556026740819215,-0.11075053148269652
1761468938222931500,5.320931396484375,0.08307634261548519,-0.04722732286006212,-0.10471885010302066
1761468938232914400,5.33091455078125,0.07319207746088505,-0.05732873789668083,-0.08654723359644413
1761468938242896400,5.340896484375,0.058413610523939126,-0.01008475616276264,-0.055847559428215024
1761468938252879400,5.35087939453125,0.09869067585468291,-0.031309622760117055,-0.03188625360429287
1761468938262862300,5.3608623046875,0.07711597290635108,-0.032061317910254,0.010495090529322624
1761468938272844300,5.37084423828125,0.10904606565237045,-0.01870908438414335,-0.0037748423635959624
1761468938282827300,5.3808271484375,0.06793430306315422,-0.08856237281113863,-0.058058221215009684
1761468938292809500,5.3908095703125,0.0046831893801689145,-0.09626666357815265,-0.10397709182500839
1761468938302792200,5.400792236328125,0.01708615935742855,-0.09048223495781421,-0.0771370156943798
1761468938312775400,5.410775390625,-0.05451835665106773,-0.08216682655513285,-0.1083767880886793
1761468938322757400,5.42075732421875,0.004913491004705429,-0.11208587173968552,-0.12567162176072597
1761468938332740400,5.430740234375,0.06315116043984889,-0.12794278156310318,-0.1516810922861099
1761468938342723300,5.440723388671875,0.07311608961522578,-0.08295914597660303,-0.07561258260607719
1761468938352705500,5.45070556640625,0.09121814801692962,0.02007628108412027,-0.01652443382143974
1761468938362688300,5.460688232421875,0.018988778108358383,-0.11279431226998567,-0.05154138666689396
1761468938372671500,5.47067138671875,0.044349429336190224,-0.07617752301245927,-0.05577975488901138
1761468938382653400,5.4806533203125,-0.014842179822921752,-0.060792614614963526,-0.03624094168245792
1761468938392636400,5.490636474609375,0.07747370030283927,-0.04437953221350908,-0.07646540004312992
1761468938402618400,5.500618408203125,0.09236264187693595,-0.036384441806375976,-0.09513795180916786
1761468938412601300,5.510601318359375,0.016148586246371267,0.010809855566918849,-0.0926484730809927
1761468938422584300,5.520584228515625,-0.023942016601562498,-0.03918810105025768,-0.1352332308322191
1761468938432566500,5.53056640625,0.06341185720264911,-0.09203677092343568,-0.11839257066845893
1761468938442549500,5.540549560546875,0.06163841778934002,-0.06467734709382057,-0.14103577963113784
1761468938452535600,5.55053564453125,0.014696633872389793,-0.08620119663774967,-0.16519933002889156
1761468938462517500,5.560517578125,0.12919687327742577,-0.06010872400403022,-0.12733634010255335
1761468938472500500,5.57050048828125,-0.012305354821681975,0.0032902737170457837,-0.07118307572603225
1761468938482483700,5.580483642578125,0.02590834823846817,-0.043111119712889195,-0.08565817580223083
1761468938492465400,5.59046533203125,0.16713818913698195,-0.07376987734884023,-0.08657295255959034
1761468938502448600,5.60044873046875,0.02653612474799156,-0.0430672805711627,-0.025427871245145797
1761468938512430600,5.6104306640625,0.024231939458847045,-0.06004851824939251,-0.011242694026231764
1761468938522413600,5.62041357421875,0.0781347945600748,-0.02639320914596319,-0.014274024546146392
1761468938532396500,5.630396484375,0.0036801498174667355,-0.01772182691246271,-0.0373182155251503
1761468938542378800,5.640378662109375,0.04962357034683227,-0.05679623845517635,-0.060927054649591444
1761468938552361500,5.650361572265625,0.13331424546837806,-0.05785626890212297,-0.07662848165035248
1761468938562344400,5.660344482421875,0.028255203625559805,-0.03513181139677763,-0.03967208517491817
1761468938572326700,5.67032666015625,0.07987550074756145,-0.07397884392440318,-0.049402621072530746
1761468938582309400,5.680309326171875,0.05702537103593349,-0.06561579698771237,-0.08330956684947013
1761468938592292600,5.690292724609375,0.04424713800549507,-0.08995938012748957,-0.09584814590513706
1761468938602274600,5.700274658203125,0.07225859600305556,-0.08013678203225136,-0.11094459275007247
1761468938612257500,5.710257568359375,0.05583236185908317,-0.055442193497717375,-0.10067337410449981
1761468938622240500,5.720240478515625,0.08086392726302147,-0.0582885228395462,-0.13119827622771263
1761468938632222700,5.73022265625,0.03052490212321281,-0.0442392469599843,-0.1071919622182846
1761468938642205700,5.740205810546875,0.022491233271360395,-0.024078502462804317,-0.10289864893853663
1761468938652187600,5.750187744140625,0.002618658065795898,-0.026815233950316906,-0.06029518648684024
1761468938662170600,5.760170654296875,0.04765606966614723,-0.07177928805351257,-0.036916064465045924
1761468938672153600,5.770153564453125,0.06596738690435885,-0.006515373243391513,-0.014954408025741576
1761468938682135600,5.780135498046875,0.1258709437251091,-0.05690028335154056,0.013085691544413566
1761468938692118500,5.790118408203125,0.09791969148218631,-0.08788228159248829,-0.0784574506431818
1761468938702101800,5.800101806640625,0.03499006483852863,-0.0634165333777666,-0.09318564869761467
1761468938712083500,5.81008349609375,0.001678162345290184,-0.05885667811632156,-0.08865385048687457
1761468938722066700,5.820066650390625,0.035574002206325527,-0.03953063087761402,-0.11903729831278323
1761468938732049700,5.830049560546875,0.021202362504601478,-0.06466741022169589,-0.15725567754805087
1761468938742031600,5.840031494140625,0.01634673916697502,-0.06474135224074125,-0.12627017217576503
1761468938752014600,5.8500146484375,0.032602877441048624,-0.06653145052790642,-0.11826456037461756
1761468938761996500,5.85999658203125,0.034597850650548934,-0.065780632160604,-0.06864741976857185
1761468938771979500,5.8699794921875,0.05245908603370189,-0.07621493241339922,-0.02996902180612087
1761468938781962800,5.879962646484375,0.06487666905820369,-0.09732494045943021,-0.03790449098050594
1761468938791944400,5.8899443359375,0.09760989488065243,-0.07087386364638805,-0.03488835802972316
1761468938801927700,5.899927734375,0.09123217654228209,-0.05754647230058908,-0.05373626636266708
1761468938811910700,5.90991064453125,0.05360065728425979,-0.09120207366496325,-0.06705810475051403
1761468938821892600,5.919892578125,0.07126023261547088,-0.0461935958981514,-0.05125321737527847
1761468938831875600,5.92987548828125,0.13035247305333614,-0.016316051767766473,-0.04385609286129474
1761468938841858600,5.939858642578125,0.044997664111852645,-0.03771656719297171,-0.07904723322987556
1761468938851840500,5.949840576171875,0.022207155632972715,-0.03941723363101482,-0.10895488023757934
1761468938861823500,5.959823486328125,0.04810264438986778,-0.025620471207797525,-0.11184241837263106
1761468938871805700,5.9698056640625,0.021889175724983213,-0.05248509725779295,-0.07693769372999668
1761468938881788400,5.979788330078125,0.07906827601790428,-0.04761778348237276,-0.04427519505620003
1761468938891771600,5.989771728515625,0.12994506129622457,-0.04443710761964321,-0.04975508777201176
1761468938901753600,5.999753662109375,0.11261048013567924,-0.0465899017393589,-0.04230477176606655
1761468938911736600,6.009736572265625,0.08837152641415595,-0.04900076227337122,-0.049347676014900206
1761468938921719600,6.019719482421875,0.08292202883660793,-0.05748655880689621,-0.10098375522792338
1761468938931701800,6.02970166015625,0.04061141185164451,-0.06255757846087218,-0.09001754005551338
1761468938941684500,6.0396845703125,0.05848316862881183,-0.014588789583742618,-0.046161447194218636
1761468938951667500,6.04966748046875,0.08245967202186584,-0.008633680571615695,-0.053075172105431556
1761468938961649700,6.059649658203125,0.07833060939311981,0.0017319383591413496,-0.051204702058434484
1761468938971632400,6.06963232421875,0.07862111677229404,-0.02151683528125286,-0.04266308368444442
1761468938981615600,6.07961572265625,0.09428922602534294,-0.0392874697715044,-0.07340835056006909
1761468938991597600,6.08959765625,0.055819502377510065,-0.07257043843120337,-0.0646849458783865
1761468939001580800,6.099580810546875,0.06814940711855888,-0.08534750241786242,-0.08335340599119663
1761468939011562500,6.1095625,0.06715455086231231,-0.07433423323333263,-0.07986205674409866
1761468939021545700,6.119545654296875,0.05134381826817989,-0.07963292416334151,-0.07676409072875977
1761468939031528700,6.12952880859375,0.047044075247645374,-0.1067848427221179,-0.10353110162317752
1761468939041510700,6.1395107421875,0.032978725016117094,-0.08479483697116375,-0.09486264199912547
1761468939051493600,6.14949365234375,0.06749766521155834,-0.08830138378739356,-0.06951426573097705
1761468939061476600,6.1594765625,0.0735386989414692,-0.10194470921456814,-0.07235679568052292
1761468939071458600,6.16945849609375,0.026208792489767072,-0.0823608878225088,-0.04592822296023369
1761468939081441500,6.179441650390625,0.03261865953207016,-0.07456658068448305,-0.08833820866644382
1761468939091424800,6.1894248046875,0.02898351790010929,-0.03741787650734186,-0.12846914352476596
1761468939101406500,6.199406494140625,0.03057634004950523,-0.048021980369091034,-0.1361620361149311
1761468939111389700,6.2093896484375,0.0072486559540033335,-0.06486673218607902,-0.08857903168499469
1761468939121371400,6.219371337890625,0.022290742263197896,-0.05658288796544075,-0.010631868651509285
1761468939131354600,6.229354736328125,0.09536942247748374,-0.11116817237287759,-0.03021101386845112
1761468939141337600,6.239337646484375,0.07910393185317516,-0.12112404145896434,-0.0093763156324625
1761468939151319600,6.249319580078125,0.06823357827067375,-0.12707973499298095,-0.04741407760381698
1761468939161302500,6.259302490234375,0.10116028083860873,-0.08406389234811067,-0.03390343864560127
1761468939171285500,6.269285400390625,0.09453530974090099,-0.05440817427486181,-0.04087444670200348
1761468939181267500,6.279267333984375,0.07585340562462806,-0.016287410195171832,-0.034677930149435994
1761468939191250700,6.289250732421875,0.041131636333465574,-0.016288871499896048,-0.07391454651653766
1761468939201233700,6.299233642578125,0.037545010018348694,-0.026096272026002405,-0.1042769515544176
1761468939211215600,6.309215576171875,0.022513445103168488,-0.012443301987648009,-0.11710779155492781
1761468939221198600,6.319198486328125,0.019694880551099775,-0.02539981419444084,-0.07568272523283957
1761468939231180500,6.3291806640625,0.06054360828995704,-0.044539106689393516,-0.07124912669956683
1761468939241163500,6.33916357421875,0.07237783846855163,-0.058598903962969774,-0.05783668741881847
1761468939251146500,6.349146484375,0.10155132598280905,-0.058815469323098654,-0.038519992530345916
1761468939261128700,6.359128662109375,0.13668693677186966,-0.04709609769582748,-0.031492870372533795
1761468939271111400,6.369111328125,0.10355740510821342,-0.06279255626052618,-0.09480360528826713
1761468939281094700,6.3790947265625,0.05122399128079414,-0.09517302312254905,-0.09231821821331977
1761468939291076600,6.38907666015625,0.07596563382744789,0.022335458187758922,0.018418869265913962
1761468939301059600,6.3990595703125,0.05318798483014107,-0.015497428861260413,-0.03700783440172672
1761468939311042600,6.40904248046875,0.0392915614247322,-0.02275865203589201,-0.05520692343711853
1761468939321024800,6.419024658203125,0.08988368454277515,0.0041594577670097345,-0.05664192467629909
1761468939331007500,6.429007568359375,0.0928396117389202,0.0015682722300291061,-0.05854045177400112
1761468939340990500,6.438990478515625,0.0583148263245821,-0.013317454473674297,-0.07114391275942325
1761468939350972700,6.44897265625,0.0638654461890459,-0.05978139174580574,-0.09028115942776202
1761468939360955600,6.45895556640625,0.07845628159940242,-0.09403145187199115,-0.06906710648536682
1761468939370937600,6.4689375,0.08355272795557975,-0.08564005562365054,-0.04476327083408832
1761468939380920600,6.478920654296875,0.0922737945497036,-0.10075082325488328,-0.05183715474307537
1761468939390903800,6.48890380859375,0.10707798044979572,-0.08539981712698937,-0.08275544009804725
1761468939400885500,6.498885498046875,0.06962240228056907,-0.08539835582226514,-0.09530746315717696
1761468939410868700,6.50886865234375,0.0719043757379055,-0.05297346529662609,-0.10478782368600367
1761468939420851700,6.518851806640625,0.0614823504447937,-0.033573476038873194,-0.10273965898454189
1761468939430833700,6.528833740234375,0.04269055621325969,-0.01779080049544573,-0.0810585730522871
1761468939440816600,6.538816650390625,0.059550505599379536,-0.012087035895884037,-0.05281330629885196
1761468939450799600,6.548799560546875,0.09469546873867511,-0.012256547243893147,-0.052611646246910095
1761468939460777700,6.55877783203125,0.0801215844631195,-0.041191257566213606,-0.04325637340247631
1761468939470760700,6.5687607421875,0.08582534906268119,-0.06236994693428278,-0.0682183807015419
1761468939480742700,6.57874267578125,0.075489833009243,-0.04802607202231884,-0.07994330528676509
1761468939490725600,6.5887255859375,0.04537292716503143,-0.08204056982696056,-0.10912731419503688
1761468939500708900,6.598708984375,0.0719178197413683,-0.05839432130157947,-0.08317921846807003
1761468939510690800,6.60869091796875,0.07966565738916397,-0.09938830273002386,-0.06837269448041916
1761468939520673800,6.618673828125,0.09102817840278148,-0.04084522060751915,-0.013739771538972854
1761468939530656800,6.62865673828125,0.08592004160881042,-0.06731207951158284,-0.029220249265432357
1761468939540638700,6.638638671875,0.08369768938422202,-0.04766103810220956,-0.04624094217121601
1761468939550621700,6.64862158203125,-0.0016916063487529753,-0.030170974119007585,-0.01315524964928627
1761468939560605000,6.65860498046875,0.06326046603322029,-0.0774009273275733,-0.05163315660357475
1761468939570586600,6.668586669921875,0.06576280424296856,-0.0667372022330761,-0.07707797898352145
1761468939580569900,6.67856982421875,0.06612403877079487,-0.043645957241952416,-0.06740005005598068
1761468939590552800,6.688552734375,0.06913608006834983,-0.054229895098507404,-0.08334405364096165
1761468939600534800,6.69853466796875,0.09252280087471008,-0.04995557878017425,-0.06268763458132744
1761468939610517800,6.708517822265625,0.132637369120121,-0.0539510781571269,-0.06027005204558372
1761468939620499700,6.718499755859375,0.11629530612826347,-0.04259849401563406,-0.039055414581298825
1761468939630482700,6.728482666015625,0.06828092454373837,-0.029747195748984812,-0.0567547374010086
1761468939640465700,6.738465576171875,0.07336918759346008,-0.004559563000500202,-0.08473696930408477
1761468939650447600,6.748447509765625,0.020268296524882316,-0.023387597589194772,-0.09919920989871024
1761468939660430600,6.7584306640625,0.010527823755145072,-0.06830898159444332,-0.09895838688015937
1761468939670413800,6.768413818359375,0.07470540463328361,-0.04773673368692398,-0.04637070603072643
1761468939680395800,6.778395751953125,0.0690069007307291,-0.0474134930819273,0.012841361394524574
1761468939690378800,6.788378662109375,0.08749766618907451,-0.07360884156823158,0.007824994537234306
1761468939700361700,6.79836181640625,0.11088204890787601,-0.0816053932800889,-0.009945055431127548
1761468939710344000,6.808343994140625,0.11790741750001907,-0.06680266868472098,-0.031740707653760906
1761468939720326700,6.81832666015625,0.08999299013614653,-0.0734314391747117,-0.09381751686036587
1761468939730308900,6.828308837890625,0.09011573973298072,-0.03569879762977361,-0.11813479651510715
1761468939740291800,6.838291748046875,0.0524152468919754,-0.01596943028718233,-0.10554536405503749
1761468939750274600,6.848274658203125,0.019393851777911184,0.007050503033399581,-0.06346329512894153
1761468939760256800,6.8582568359375,0.05666121389865875,-0.011155600264668464,-0.06114508131444454
1761468939770239700,6.86823974609375,0.056386488610506054,-0.05606207896173,-0.07873743662834166
1761468939780222700,6.87822265625,0.020676292803883552,-0.08992810820639133,-0.07681611317694187
1761468939790204700,6.88820458984375,0.0657090282291174,-0.0913672010987997,-0.10167115297019481
1761468939800188000,6.89818798828125,0.053257542935013766,-0.08954553862959146,-0.10851765786409377
1761468939810170600,6.908170654296875,0.05905307747125625,-0.09328618646264075,-0.09959785382747649
1761468939820152800,6.91815283203125,0.07339081490337848,-0.08975772007554769,-0.09452303478121757
1761468939830135800,6.9281357421875,0.04708148464858532,-0.062137599483132355,-0.03172317199707031
1761468939840117800,6.93811767578125,0.06524725593626499,-0.058415656350553034,-0.014737550404667853
1761468939850100700,6.948100830078125,0.06874035874903202,-0.06052987202554941,-0.041971009767055506
1761468939860083700,6.958083740234375,0.03176993374824524,-0.07851853318065405,-0.06815174520611762
1761468939870065700,6.968065673828125,0.018871873730421065,-0.10491495719701051,-0.07996259450912475
1761468939880048600,6.978048583984375,0.02323474511504173,-0.08119652021825313,-0.05100245748460293
1761468939890031900,6.988031982421875,0.08828852430582046,-0.05679799202084541,-0.04642389752268791
1761468939900013600,6.998013671875,0.07898293582201003,-0.05761135423034429,-0.0385556483656168
1761468939909996800,7.007996826171875,0.07801964374780654,-0.06223989081382751,-0.029458149674534796
1761468939919979800,7.017979736328125,0.06024433308243751,-0.035324411359429354,-0.05876257009208202
1761468939929961700,7.027961669921875,0.0499883120059967,-0.055202247262001035,-0.0808802938759327
1761468939939944700,7.03794482421875,0.04177694849967956,-0.06805149970203637,-0.09210954389870166
1761468939949926700,7.0479267578125,0.02951251021027565,-0.06837123317569493,-0.12076163788735866
1761468939959909600,7.05790966796875,0.04198854542374611,-0.14422288523465393,-0.164596103438735
1761468939969892900,7.067892822265625,0.016458382847905156,0.028373277047276494,-0.016895020699501037
1761468939979874600,7.07787451171875,0.08052958074212074,-0.020782675787806508,-0.0463110847979784
1761468939989857800,7.08785791015625,0.07829261547029018,-0.0066685179784893986,-0.06449965243935585
1761468939999840800,7.0978408203125,0.04413549432456493,-0.02490530867576599,-0.08543196583092212
1761468940009822700,7.10782275390625,0.057550271692872045,-0.061736032944917675,-0.12711597535014152
1761468940019805700,7.1178056640625,0.04193593845367431,-0.008582827167212963,-0.04744681082963943
1761468940029788700,7.12778857421875,0.09396598542034626,-0.03726823890358209,-0.06778349641561508
1761468940039771000,7.13777099609375,0.057176762205362316,-0.05656389100402593,-0.05243512063622474
1761468940049753600,7.147753662109375,0.12509177604615687,-0.06823971575051546,-0.07744739681780338
1761468940059736800,7.15773681640625,0.13505845878720282,0.01724164218008518,-0.027298341292142866
1761468940069718800,7.16771875,0.03249707897901535,0.036625849346816536,-0.026197686573863028
1761468940079701800,7.17770166015625,0.0618961919426918,0.014921382538974284,-0.07652560579776764
1761468940089683700,7.18768359375,0.04020809174776077,0.025632746167480944,-0.07092822418212891
1761468940099667000,7.1976669921875,0.045773909181356424,0.024072364982962606,-0.08131342459619045
1761468940109649700,7.207649658203125,0.030377018085122106,0.004881342300772667,-0.06350070452988148
1761468940119632000,7.2176318359375,0.06728489924371242,-0.03340425695180893,-0.09450549912452698
1761468940129614800,7.22761474609375,0.11827274368107318,-0.09019961862415075,-0.13133388530611992
1761468940139597600,7.23759765625,0.10922609839439391,-0.0781678200468421,-0.133282681286335
1761468940149579800,7.247579833984375,0.08872165502607822,-0.0539706596404314,-0.11213467931747435
1761468940159562800,7.257562744140625,0.08570493755340576,-0.039140462516248226,-0.05083762231171131
1761468940169545700,7.267545654296875,0.07432604992687701,-0.06729249802827834,-0.031176644030213353
1761468940179527700,7.277527587890625,0.04216624007821083,-0.04032704195231199,-0.05376023176014423
1761468940189511000,7.287510986328125,0.010599719947576523,-0.04616992276161909,-0.11137596990466117
1761468940199492600,7.29749267578125,0.012449147206544876,-0.0748889445066452,-0.1354652860224247
1761468940209475800,7.307475830078125,0.006292962664365768,-0.048371232198178765,-0.0914630626887083
1761468940219458800,7.317458740234375,0.07080430554151534,-0.01668926899433136,-0.02270750637054443
1761468940229440800,7.327440673828125,0.10931436119973659,-0.009798632697761059,-0.020324410626292227
1761468940239423700,7.337423828125,0.07186638181507587,-0.008187690369784832,-0.007604045262932777
1761468940249406700,7.34740673828125,0.07086392677426338,-0.034594635780155654,-0.026781623941659925
1761468940259388700,7.357388671875,0.09080781365036963,-0.03207534643560648,-0.0774988347440958
1761468940269371600,7.36737158203125,0.07587211032509804,-0.046104456309974194,-0.10095336008965969
1761468940279355000,7.37735498046875,0.0340676892966032,-0.06936696621477603,-0.08945464547574519
1761468940289336600,7.387336669921875,0.021130466312170026,-0.05558803170919418,-0.081485858553648
1761468940299319800,7.39731982421875,0.07723463084995746,-0.0520797313272953,-0.05742284592092037
1761468940309301500,7.407301513671875,0.09460194523632526,-0.05981207914501428,-0.06694879915714264
1761468940319284700,7.41728466796875,0.10798808103203773,-0.026966917380690573,-0.07844225307404995
1761468940329267700,7.427267822265625,0.07572714889645576,-0.0054822308033704754,-0.07231120297312736
1761468940339249700,7.437249755859375,0.04207213205397129,0.0019578560695052145,-0.0682137045264244
1761468940349232600,7.447232666015625,0.030906010395288466,-0.009022679889202117,-0.0601578238427639
1761468940359215600,7.457215576171875,0.05400865356326103,-0.046178690589964384,-0.05961129587590694
1761468940369197600,7.467197509765625,0.06207154850959778,-0.08542319800257682,-0.06429740786552429
1761468940379180500,7.4771806640625,0.09355857366323471,-0.10052928945869206,-0.03686404201686382
1761468940389163800,7.487163818359375,0.1325146195232868,-0.1018242977052927,-0.06828150906562805
1761468940399145700,7.497145751953125,0.09773615160882472,-0.09857318695485591,-0.0845353092521429
1761468940409128700,7.507128662109375,0.06714461399018765,-0.06177022747546434,-0.0643792409300804
1761468940419111700,7.517111572265625,0.032816227930784224,-0.049615094779431816,-0.03655775254666805
1761468940429094000,7.527093994140625,0.035677462580800054,-0.042514907385408876,-0.03297229527533054
1761468940439076600,7.53707666015625,0.046990883755683895,-0.005675123026967048,-0.02933423103392124
1761468940449058800,7.547058837890625,0.040404491102695464,-0.047942485392093656,-0.04379354901909828
1761468940459041000,7.557041015625,0.052172670307755464,-0.08921323793530464,-0.058714054775238035
1761468940469024000,7.56702392578125,0.08718202436864375,-0.10518705213665962,-0.027152795341610907
1761468940479006000,7.577005859375,0.09242577024102211,-0.0841740747243166,-0.0446335069745779
1761468940488989200,7.5869892578125,0.05541150609850883,-0.08421586803942918,-0.037138182783126826
1761468940498972000,7.596971923828125,0.06822013426721095,-0.06847440128922462,-0.06734335143268108
1761468940508954000,7.6069541015625,0.07058686339855194,-0.0621095424324274,-0.0933276875168085
1761468940518937000,7.61693701171875,0.0981815572887659,-0.051396717499196526,-0.10904665017426013
1761468940528919800,7.626919921875,0.09170096309781074,-0.045694121943414205,-0.11146364818811416
1761468940538902000,7.636902099609375,0.056764674273133274,-0.02550298230797052,-0.10030746340155601
1761468940548885000,7.646885009765625,0.03655599898099899,-0.044699265687167644,-0.0799257696300745
1761468940558868000,7.656867919921875,0.04099368916749954,-0.05869973398894071,-0.09494038341045379
1761468940568850000,7.666849853515625,0.0654296267658472,-0.0515220974445343,-0.0916331585586071
1761468940578833200,7.676833251953125,0.05816168158948421,-0.024637597650289535,-0.058527592292428016
1761468940588814800,7.68681494140625,0.018489011892676353,-0.07213409284055232,-0.08541793730556964
1761468940598798000,7.696798095703125,0.11213818644881247,-0.023581951117515564,-0.04527180487811565
1761468940608781000,7.706781005859375,0.020287585747241973,0.03224251969605684,-0.019565116691589356
1761468940618763000,7.716762939453125,0.007141103926301002,0.002867079868912697,-0.06885960121452808
1761468940628746000,7.72674609375,-0.0324859730631113,0.06507686780542135,-0.06402735875248909
1761468940638729200,7.736729248046875,0.38498599029183384,-0.12892653190344572,-0.054338323909044264
1761468940648711000,7.7467109375,0.22650573938488958,-0.0963783072590828,-0.02202127767205238
1761468940658694100,7.756694091796875,-0.006428571742773056,-0.0958139513745904,0.050664603832364076
1761468940668677000,7.766677001953125,0.017056348741054533,-0.04335720342844725,-0.030357144340872763
1761468940678659000,7.7766591796875,0.0702969405412674,-0.050769817772507664,-0.12459317887425422
1761468940688642000,7.78664208984375,0.0767231741964817,-0.0140209265679121,-0.12601707419753075
1761468940698624300,7.796624267578125,0.036276597517728805,-0.04444295283854007,-0.09976911874115467
1761468940708607000,7.80660693359375,0.09229717542529106,-0.06905395474284887,-0.07375906369388104
1761468940718590000,7.81658984375,0.13873042529821394,-0.05494330406486988,-0.06959142262041568
1761468940728572200,7.826572265625,0.06250117209851741,-0.057770344184339045,-0.08169687095582484
1761468940738555000,7.836554931640625,0.026381226447224616,-0.021889175724983213,-0.06533025804460048
1761468940748538000,7.8465380859375,0.061602177432179446,0.007929039433598517,-0.08291852170526981
1761468940758520000,7.85652001953125,0.04776479073762893,0.00881605140119791,-0.08916355357468128
1761468940768503000,7.8665029296875,0.049774376994371414,-0.0010045008674263954,-0.02247720474600792
1761468940778486000,7.876486083984375,0.07171206803619862,-0.04113397442102432,-0.036510406273603434
1761468940788468200,7.88646826171875,0.04987549928128719,-0.06562661064267158,-0.048207273808121676
1761468940798451000,7.896450927734375,0.08946575139164924,-0.044802433800697324,-0.03323006942868233
1761468940808434000,7.906433837890625,0.1486181975841522,-0.052172670307755464,-0.050554713717103
1761468940818416000,7.916416015625,0.08319558508098125,-0.03191431065499782,-0.02846855411529541
1761468940828398800,7.92639892578125,0.09486556460857391,0.005052607214450836,-0.10885434247255325
1761468940838381000,7.936381103515625,0.07872925332188606,-0.005441898792982101,-0.13443477393090725
1761468940848364000,7.946364013671875,0.028669045123457908,-0.006560965950787067,-0.13513853828608988
1761468940858347000,7.956346923828125,0.035382279026508326,-0.0036903789505362506,-0.1357218911319971
1761468940868329000,7.966328857421875,0.08079787628948688,-0.01750613833516836,-0.09072130441069602
1761468940878312200,7.976312255859375,0.10764262859523295,-0.04925532155632972,-0.08332944059371948
1761468940888295000,7.986294921875,0.09934475584924221,-0.05446195028871297,-0.06405892293453216
1761468940898277000,7.996277099609375,0.04166822742819786,-0.06396101551800966,-0.019210896426439285
1761468940908260000,8.006260009765626,0.0229354699075222,-0.07013999641388655,-0.004932195705175399
1761468940918242800,8.016242919921876,0.07918576491773129,-0.04876023151576519,-0.04543722457289696
1761468940928223200,8.02622314453125,0.08035363965332508,-0.0485462965041399,-0.04460252731442451
1761468940938205000,8.036204833984375,0.08260814058184623,-0.04153174156695604,-0.042110125976800916
1761468940948188200,8.046188232421875,0.1017243444621563,-0.03252718185633421,-0.06337912397682667
1761468940958171100,8.056171142578124,0.10868249303698539,-0.03871814545094967,-0.09751578685641288
1761468940968153000,8.066153076171876,0.057897477695345874,-0.05521510674357414,-0.09753273799121379
1761468940978136000,8.076135986328126,0.053254035803675645,-0.03746960669457912,-0.059525371158123015
1761468940988119000,8.086119140625,0.07898527390956878,-0.02462123103737831,-0.040028059005737304
1761468940998101000,8.09610107421875,0.05445581280887127,-0.04608692065328359,-0.04301671942770481
1761468941008084000,8.106083984375,0.04970423436760902,-0.07161386835873126,-0.06742343093156815
1761468941018067200,8.116067138671875,0.0713251145452261,-0.07484013692885637,-0.08965396744012832
1761468941028049000,8.126048828125,0.08115735725164414,-0.06311521234363317,-0.0852455033481121
1761468941038032100,8.1360322265625,0.056793315845727915,-0.08281476906985044,-0.04508768048286438
1761468941048013800,8.146013916015624,0.07937865714132786,-0.061087213647365565,-0.05744681131839752
1761468941057997000,8.1559970703125,0.08419804012179374,-0.057280807101726526,-0.040730654317140576
1761468941067980000,8.16597998046875,0.09667641342282295,-0.052722705405950546,-0.04273673344254494
1761468941077962000,8.1759619140625,0.0503062919139862,-0.06709434510767459,-0.06220949567556381
1761468941087945000,8.185945068359375,-0.17203239091932773,-0.0241904384046793,-0.15112871910035608
1761468941097928000,8.195927978515625,-0.10026303973793983,0.13970482328832148,-0.10537526818513869
1761468941107910000,8.205909912109375,0.21737141581475733,-0.06547989564836025,-0.05388941109776497
1761468941117892900,8.215892822265625,0.19877952806949614,-0.10016922397464513,-0.14687866044044492
1761468941127876000,8.2258759765625,0.10860884327888488,-0.06880991685390472,-0.03752396723031998
1761468941137857800,8.23585791015625,0.15845336290001868,-0.08845949695855379,0.004724690434336662
1761468941147841000,8.245841064453124,0.05840425817370414,-0.06472381658405064,0.03207505417466163
1761468941157824000,8.255823974609376,0.013573767322301864,-0.06508592789471149,-0.050281741994619364
1761468941167806000,8.265805908203125,0.05702595555782318,-0.04025105410665274,-0.07359305947721004
1761468941177789000,8.275788818359375,0.09693009592294692,-0.06750994017124176,-0.09036883771121501
1761468941187771100,8.285771240234375,0.06004091946482658,-0.07566986575126647,-0.08252981464862823
1761468941197753900,8.29575390625,0.06361994699537754,-0.07408435012549161,-0.07361176417768
1761468941207737000,8.305737060546875,0.04464578193426132,-0.050204292844235894,-0.06299743118286133
1761468941217719000,8.315718994140624,0.017974048107862472,-0.03338058381527662,-0.06303425606191158
1761468941227702000,8.325701904296874,0.03917348800301552,-0.02786065135002136,-0.09562895019650458
1761468941237685000,8.33568505859375,0.056745969572663306,-0.04100508734434843,-0.09838497090637684
1761468941247667200,8.345667236328126,0.05658756414055824,-0.054531216132640836,-0.07877893768250942
1761468941257650000,8.35564990234375,0.08536708390116692,-0.09012859921455382,-0.08904138849973678
1761468941267633000,8.3656328125,0.07920739222764968,-0.10285568657964467,-0.06906886005103588
1761468941277615000,8.375614990234375,0.09088263245224952,-0.08111264132708311,-0.017463760498166083
1761468941287598000,8.38559814453125,0.06134674136638641,-0.04427285696864128,-0.018149404674768447
1761468941297581000,8.3955810546875,0.027044658792018887,-0.03318038506805897,-0.04892798929810524
1761468941307563000,8.40556298828125,-0.007242810735106468,-0.028434359584748742,-0.09996902522742748
1761468941317546200,8.415546142578124,0.04082183973193168,-0.005645604671537876,-0.0857031839877367
1761468941327528000,8.42552783203125,0.06599895108640194,-0.036871348540484905,-0.058738020172715184
1761468941337511200,8.43551123046875,0.08371697860658169,-0.04451923294514418,-0.04524959304630756
1761468941347494100,8.445494140625,0.0833680190384388,-0.02188420728892088,-0.041159108862280844
1761468941357476000,8.45547607421875,0.06715630442798137,-0.06569850683510303,-0.07707330280840397
1761468941367459000,8.465458984375,0.030058453655242918,-0.05746083984375,-0.09310615372061729
1761468941377442000,8.475442138671875,0.06297989552617073,-0.04103197535127401,-0.0862216549038887
1761468941387424000,8.485424072265625,0.12583353432416916,-0.027697862003743648,-0.09655717095732688
1761468941397407000,8.495406982421875,0.08419161038100718,-0.024785189427435395,-0.0975111106812954
1761468941407390200,8.50539013671875,0.07305646838247776,-0.025164251872897146,-0.11199147145450114
1761468941417372000,8.515371826171876,0.03872165258228778,-0.034678806932270524,-0.09766191732883453
1761468941427355100,8.525355224609376,0.03270224616229534,-0.055306292158365244,-0.08907529076933861
1761468941437338000,8.535338134765626,0.051319268348813056,-0.06201251179873943,-0.06857610809803008
1761468941447320000,8.545320068359375,0.0540577534019947,-0.0704421942308545,-0.02863280476629734
1761468941457303000,8.555302978515625,0.06904372560977935,-0.06545417668521404,-0.03345160322487354
1761468941467285200,8.56528515625,0.10605974331796168,-0.07919687083363533,-0.04738894316256046
1761468941477268200,8.575268310546875,0.12905717254579066,-0.0472697006970644,-0.056093643143773075
1761468941487251200,8.585251220703125,0.06762158385217189,0.00870060832798481,-0.01573240666091442
1761468941497233200,8.595233154296874,0.06408464189767837,-0.013088906414806842,-0.07119125903248787
1761468941507216100,8.605216064453124,0.051637832778692244,-0.02320873389095068,-0.08337444877922534
1761468941517199400,8.615199462890626,0.03884849383234978,-0.034037001897394656,-0.09932838923633099
1761468941527181000,8.62518115234375,0.05981470949351787,-0.032500293849408626,-0.09306231457889079
1761468941537164300,8.635164306640625,0.04245324032604694,-0.05340279662460089,-0.08944587764739989
1761468941547147300,8.645147216796875,0.032900399082899094,-0.04488485138714313,-0.07440262229442596
1761468941557129200,8.655129150390625,0.06733224551677704,-0.020116613094508646,-0.03927753289937973
1761468941567112200,8.6651123046875,0.10804887130856514,-0.02225976260304451,-0.015811901637911796
1761468941577095200,8.67509521484375,0.11886486435532569,-0.015927052450180054,-0.015728315007686615
1761468941587077000,8.6850771484375,0.1188560965269804,-0.09949293214827776,-0.11941957562863827
1761468941597060000,8.69506005859375,0.09625555766224861,-0.021844752061367035,-0.03037467999756336
1761468941607043300,8.705043212890626,0.04714402849078178,-0.0018248773396015165,-0.05671031373739242
1761468941617025000,8.71502490234375,0.08678045783042908,-0.012662789957225322,-0.07156710660755634
1761468941627008300,8.72500830078125,0.0605669891655445,-0.03089665804505348,-0.09477788632512092
1761468941636990200,8.734990234375,0.05700841990113258,-0.05346329464018344,-0.10302022949159145
1761468941646973200,8.74497314453125,0.08613339209854602,-0.037529520188272,-0.10998013163208961
1761468941656956200,8.7549560546875,0.05745733271241188,-0.10227788669168948,-0.14554244340062142
1761468941666938400,8.7649384765625,0.10072364298701286,-0.04093728280514478,-0.016648936983942986
1761468941676921000,8.774921142578124,0.10841828914284705,-0.068954878282547,-0.038082770156860346
1761468941686904000,8.784904052734374,0.08564999249577522,-0.0714791360631585,-0.0349433030873537
1761468941696886300,8.79488623046875,0.06858546044826506,-0.017690554991364477,-0.052877603706717485
1761468941706869200,8.804869140625,0.08703297128677367,0.0033773674786090847,-0.04583703754544258
1761468941716852200,8.814852294921875,0.061470660006999966,0.014538812962174415,-0.04665478366911411
1761468941726834200,8.824834228515625,0.05885200194120407,-0.0062432783037424085,-0.05556757344305515
1761468941736817200,8.834817138671875,0.16009411584436892,-0.06655804627388716,-0.10970014564692973
1761468941746799000,8.844799072265625,0.1202548574090004,-0.02637012053132057,-0.022412907338142395
1761468941756782300,8.8547822265625,0.0739127929508686,-0.045722471255064005,-0.02916296612024307
1761468941766765000,8.86476513671875,0.09557458966076374,-0.05700169789940118,-0.054065352186560625
1761468941776747300,8.874747314453124,0.07443944717347621,-0.0216392926171422,-0.07697393408715725
1761468941786730200,8.884730224609376,0.06629764177203178,-0.013865736006200313,-0.08767126919031143
1761468941796713200,8.894713134765626,0.08606208042800426,-0.01754676260650158,-0.06788754131197929
1761468941806695200,8.904695068359375,0.05412672698497772,-0.06128098265379667,-0.09861059635579586
1761468941816678400,8.914678466796875,0.06671206779181957,-0.07060089192390441,-0.09486731817424297
1761468941826661000,8.9246611328125,0.08103110052347183,-0.09246171833723783,-0.048885319200158116
1761468941836643300,8.934643310546875,0.08012041541934013,-0.09632160863578319,-0.07129939558207989
1761468941846626300,8.944626220703125,0.05793313353061676,-0.0844894242838025,-0.1006347956597805
1761468941856609000,8.954609130859374,0.031159692895412445,-0.06340864233225584,-0.10425415520071983
1761468941866591200,8.96459130859375,0.013669628912210463,-0.005669277808070182,-0.06493278315961361
1761468941876574200,8.97457421875,0.04495850114524364,-0.00682137045264244,-0.04390402365624904
1761468941886557400,8.984557373046876,0.0570469983458519,-0.026619126856327054,-0.022330489751696585
1761468941896539100,8.9945390625,0.10395721808075904,-0.03432195631861686,-0.02863748094141483
1761468941906522400,9.0045224609375,0.09069149379432201,-0.06137158354669809,-0.04805296002924442
1761468941916504000,9.014504150390625,0.0992097312927246,-0.07002016942650079,-0.08470306703448295
1761468941926487300,9.0244873046875,0.06686813513636589,-0.08791559934020042,-0.08907178363800049
1761468941936470300,9.03447021484375,0.056634325891733166,-0.04679419213980436,-0.09301146117448807
1761468941946452200,9.0444521484375,0.06349310574531555,-0.023758768989145754,-0.10281272422075272
1761468941956435200,9.054435302734374,0.05754150386452674,-0.04117050703912973,-0.09747837745547294
1761468941966418200,9.064418212890626,0.061984454748034476,-0.02741319984346628,-0.10406418558657168
1761468941976400100,9.074400146484376,0.013206687575578689,-0.02082008518874645,-0.1090349597364664
1761468941986383000,9.084383056640625,0.04974515089988708,-0.10636457148343324,-0.17349778729677198
1761468941996366300,9.094366455078125,0.07243745970129967,0.009227554811537265,-0.0035696751803159714
1761468942006348000,9.10434814453125,0.0416577060341835,-0.026329496259987352,-0.027412907582521438
1761468942016331300,9.114331298828125,0.03934533743858337,-0.05094575886130333,-0.010691489884257315
1761468942026314200,9.124314208984375,0.022866496324539184,-0.00846972218155861,-0.027749007669091223
1761468942036296200,9.134296142578124,0.07074819144010544,-0.04308627753257751,-0.04919803841114044
1761468942046279200,9.144279052734374,-0.04884732527732849,0.02096270852982998,-0.11159750370085239
1761468942056262100,9.15426220703125,0.24656653063893316,-0.09908844300061463,-0.16327800657749175
1761468942066244000,9.164244140625,0.10984919872879981,-0.10027619148045777,-0.09880348857939243
1761468942076227000,9.17422705078125,0.04624795643389225,-0.06021130759567022,-0.035869185760617255
1761468942086209300,9.184209228515625,-0.006196516552567481,0.004836918637156486,-0.005253098222613334
1761468942096192000,9.19419189453125,0.016443185278773306,-0.028157296209037303,-0.011287117689847945
1761468942106175200,9.20417529296875,0.06071662676930427,-0.03597206161320209,-0.018996961414813995
1761468942116157200,9.2141572265625,0.08457213413119316,-0.02771218279004097,-0.03808627728819847
1761468942126140200,9.22414013671875,0.08718085532486439,-0.03831277952045202,-0.08060615310966968
1761468942136123100,9.234123046875,0.09014613487124443,-0.03561082708537578,-0.1297960082143545
1761468942146105300,9.244105224609376,0.044999417677521705,-0.03974222780168056,-0.13557283805012701
1761468942156088000,9.254088134765626,0.03280219940543175,-0.03699263683259487,-0.08821253646016121
1761468942166071300,9.2640712890625,0.03957388549745083,-0.03431728014349937,-0.07576397377550602
1761468942176053200,9.27405322265625,0.058739189216494556,-0.03149228585064411,-0.0856985078126192
1761468942186036200,9.2840361328125,0.030839959421753882,-0.03673164780884981,-0.04324585200846195
1761468942196018200,9.29401806640625,0.03771744397580623,-0.04142155919075012,-0.03351063993573188
1761468942206001400,9.30400146484375,0.09762100079655647,-0.06907675109654665,-0.08616437175869941
1761468942215984000,9.313984130859374,0.04236731560826301,-0.0699742844581604,-0.07803133418560028
1761468942225966300,9.32396630859375,0.08157470588088035,-0.061893269333243364,-0.10643968254625796
1761468942235949300,9.33394921875,0.051560091367363926,-0.08789689463973045,-0.10820026247799396
1761468942245932300,9.343932373046876,0.006750643303990364,-0.06982289328873158,-0.0854980168044567
1761468942255914200,9.353914306640625,0.031578210568428036,-0.01965717888921499,-0.10002806193828583
1761468942265897200,9.363897216796875,0.09590192191898822,-0.05214549003988504,-0.10844809975922107
1761468942275880400,9.37388037109375,-0.08662789761722087,0.04446165753901005,-0.08360591944754123
1761468942285862100,9.383862060546875,0.1377957747966051,-0.016855565471947193,0.008795300874114035
1761468942295845400,9.393845458984375,0.028562077617645263,0.0013458616510033607,-0.020392799687385558
1761468942305828400,9.403828369140625,0.07940028445124625,-0.0869292186513543,-0.06529109507799148
1761468942315810300,9.413810302734374,0.07115735676288604,-0.06290332315862178,-0.09475392092764377
1761468942325793300,9.423793212890626,0.06093640699982643,-0.062165656533837314,-0.10497077903747558
1761468942335776300,9.4337763671875,0.10436112270653247,-0.03629237960875034,-0.07225918052494526
1761468942345758200,9.44375830078125,0.1605517964839935,-0.07153291207700968,-0.07320201433300971
1761468942355741200,9.4537412109375,0.13859832335114478,-0.040111645635962485,-0.03285948255062103
1761468942365723100,9.46372314453125,0.12076748310625553,-0.05714256767481565,-0.04098550586104393
1761468942375706000,9.4737060546875,0.07499415844678878,-0.07679039421379566,-0.046370121508836744
1761468942385689300,9.483689453125,-0.017620996886491776,-0.06171791276633739,-0.10397592278122901
1761468942395671000,9.493671142578124,-0.017951251754164694,-0.0696685795098543,-0.1445703834980726
1761468942405654300,9.503654296875,-0.017441548666357994,-0.01880377693027258,-0.08076748115122317
1761468942415637200,9.51363720703125,0.0163911628305912,0.006812018102407455,-0.05457154814302921
1761468942425619200,9.523619140625,0.009490297400951385,-0.013216332186758517,-0.03687923958599567
1761468942435602200,9.533602294921875,0.03503858015537262,-0.04258914166539907,-0.03048106298148632
1761468942445585200,9.543585205078125,0.1155313360184431,-0.08800853832066059,-0.058037762948870655
1761468942455567000,9.553567138671875,0.12352701094746589,-0.09846095875203609,-0.07189736147522927
1761468942465550800,9.56355078125,0.08268588199317455,-0.10785159517079591,-0.11890987254083156
1761468942475534000,9.5735341796875,0.06888707374334335,-0.1286456691354513,-0.11502338649630546
1761468942485516000,9.58351611328125,0.0476835421949625,-0.09205459884107112,-0.07090016713142394
1761468942495499000,9.5934990234375,0.04711304883062839,-0.06948182476609945,-0.07770166383981704
1761468942505481000,9.60348095703125,0.050454760473966596,-0.060306000141799446,-0.08916180000901222
1761468942515464200,9.613464111328126,0.03416530445218086,-0.049480947005748746,-0.09882862302064895
1761468942525447000,9.623447021484376,0.12426993826925754,-0.015649404552578926,-0.09526479305922984
1761468942535429000,9.63342919921875,0.003468552893400192,0.008822773402929305,-0.07067687976956367
1761468942545412000,9.643412109375,-0.05663374136984348,-0.022354162888228894,-0.10188450345993041
1761468942555394800,9.653394775390625,0.0699175858348608,-0.05907032086700201,-0.09694821610152721
1761468942565377000,9.663376953125,0.11967734978199004,-0.05221329457908869,-0.038217210191488264
1761468942575360000,9.673360107421875,0.060092941913008686,-0.06777852797955274,-0.03221650847196579
1761468942585343000,9.683343017578125,0.053952539461851114,-0.044938627400994295,-0.01575812562406063
1761468942595325000,9.693324951171874,0.06914660146236419,-0.023566169026494024,0.0020247838258743286
1761468942605308200,9.70330810546875,0.005616086316108704,-0.02708294497579336,0.0013695347875356673
1761468942615291000,9.713290771484376,0.0337801045268774,-0.05894260283410549,-0.04342003953158855
1761468942625273000,9.723273193359375,0.07172668108344078,-0.08951835836172103,-0.1302747316420078
1761468942635256000,9.733256103515625,0.1448106219947338,-0.05315554386526346,-0.13102759583592413
1761468942645238000,9.743238037109375,0.11111527314186095,-0.06299012465924024,-0.10360065972805023
1761468942655221000,9.753220947265625,0.08664017257690429,-0.04916413614153862,-0.06434241605103015
1761468942665204000,9.763203857421875,0.05748889689445495,-0.04632452880144119,-0.05534954677820205
