time,seconds_elapsed,z,y,x
1761469024915390000,0.121389892578125,-0.011692775881290435,-0.052501463870704174,-0.11338263355195521
1761469024925373200,0.131373291015625,0.007419920867681503,-0.04705927281677723,-0.115675128403306
1761469024935356200,0.141356201171875,0.04866144731640815,-0.04311258101761341,-0.11902268526554106
1761469024945339000,0.1513388671875,0.06436871953606606,-0.049455228042602536,-0.11306056199073791
1761469024955321000,0.161321044921875,0.04517418972253799,-0.04569441420435905,-0.08464344580173493
1761469024965304000,0.171303955078125,0.04036766622364521,-0.03855886323601007,-0.039324294650554655
1761469024975287000,0.181287109375,0.0441717346817255,-0.05475187314599752,-0.02656359727680683
1761469024985270000,0.19127001953125,0.050399815416336056,-0.036948797690868375,-0.04146832094192505
1761469024995253000,0.2012529296875,0.07628419825732707,-0.0156330379396677,-0.08138298270106314
1761469025005236200,0.211236328125,0.08481587975919246,-0.009542027588188647,-0.08069441591501235
1761469025015219000,0.221218994140625,0.048611762955784794,-0.01743248857706785,-0.06398235056698322
1761469025025202000,0.231201904296875,0.020869185027480124,-0.025481647258996962,-0.08081132029294967
1761469025035185200,0.24118505859375,0.003557400220632553,-0.036786008344590664,-0.106743633928895
1761469025045168000,0.251168212890625,0.04492869052886963,-0.07193915479034185,-0.127355629324913
1761469025055150000,0.261150146484375,0.07809212446212768,-0.07805968349725008,-0.1354559336721897
1761469025065133000,0.271133056640625,0.02368015079498291,-0.06611088702827692,-0.11552549079954623
1761469025075116000,0.281115966796875,0.010775076514482498,-0.055682724255323404,-0.09045125529766082
1761469025085099000,0.29109912109375,0.04819967502355575,-0.026564766320586203,-0.07590192094147205
1761469025095082000,0.30108203125,0.03112754419147968,-0.02907148844450712,-0.07027122157812118
1761469025105065200,0.311065185546875,0.042649639680981635,-0.06309475407749414,-0.08280161732733249
1761469025115048200,0.321048095703125,0.06016600714921951,-0.08223813822567462,-0.05664250919818878
1761469025125031000,0.331031005859375,0.05718436098992824,-0.08911503825783729,-0.008982347878813744
1761469025135014100,0.34101416015625,0.05432254181802273,-0.07475245864540338,-0.018950784185528754
1761469025144997000,0.3509970703125,0.01205985562801361,-0.07503507497906685,-0.03904313962161541
1761469025154979000,0.36097900390625,0.014946224719285963,-0.028870997436344623,-0.03634147944748401
1761469025164962000,0.370962158203125,0.05624678787887096,-0.018085107266902923,-0.0568289716809988
1761469025174945000,0.380945068359375,0.07351824067533015,-0.05656359874308109,-0.0986129344433546
1761469025184928300,0.39092822265625,0.05850128880739212,-0.07137976734191179,-0.13309095810651778
1761469025194911000,0.400910888671875,0.046024084550142286,-0.017419336834549902,-0.10445347716510295
1761469025204894000,0.41089404296875,0.06493745933473109,-0.028399872793257234,-0.1147387243360281
1761469025214877200,0.420877197265625,0.03973462901711464,-0.05919482402950525,-0.11205518434047698
1761469025224860000,0.43085986328125,0.012498247045278549,-0.06733224551677704,-0.10520166518390178
1761469025234843100,0.440843017578125,0.006647767451405525,-0.05968582241684198,-0.09587737199962139
1761469025244826000,0.450826171875,0.007988660666346549,-0.07458850025534629,-0.05335106643736362
1761469025254808000,0.46080810546875,0.03220247994661331,-0.04776800560802221,-0.06136427702307701
1761469025264791000,0.470791015625,0.07459025382101535,-0.014001052823662758,-0.09633505263924598
1761469025274774000,0.48077392578125,0.11174597226083278,0.021553367899358272,-0.09742050978839396
1761469025284757200,0.49075732421875,0.09127776924967765,0.024619769732654093,-0.11108955417871474
1761469025294740000,0.500739990234375,0.03320727307498455,0.009624152913689612,-0.09884089798033237
1761469025304723000,0.510722900390625,0.025741174978017804,0.0022439795345067974,-0.08397241467237472
1761469025314706200,0.5207060546875,0.051662382698059076,-0.006850304286181926,-0.09079436964690685
1761469025324689200,0.530689208984375,0.06342354764044285,-0.03302344094067812,-0.07136252394616603
1761469025334672000,0.540671875,0.03289396934211254,-0.04778846387416124,-0.052449149161577224
1761469025344655000,0.550655029296875,-0.0023199673801660536,-0.03707534667998552,-0.09138999745249747
1761469025354638000,0.56063818359375,-0.00229834007024765,-0.016153262421488762,-0.09699439333081245
1761469025364620000,0.5706201171875,0.04126023114919662,-0.03289309255927801,-0.10726853458583355
1761469025374603000,0.58060302734375,0.05283259552121162,-0.03450345036536455,-0.09434592464864254
1761469025384586000,0.5905859375,0.03395721465945244,-0.04931348148435354,-0.08900339457690715
1761469025394569200,0.6005693359375,0.04292728757858276,-0.04359393479377031,-0.057337505725026126
1761469025404552000,0.610552001953125,0.051558922323584555,-0.033789164616167544,-0.03423018638193607
1761469025414535200,0.62053515625,0.06013678105473518,-0.029492928726971148,-0.04665770627856254
1761469025424518100,0.63051806640625,0.020011691415309906,-0.023237667724490166,-0.0788368053495884
1761469025434501000,0.640501220703125,0.03200374250411987,-0.049797173348069185,-0.12551847702562807
1761469025444484000,0.650484130859375,0.07011515423357487,-0.08102262495607138,-0.17156360436379908
1761469025454466000,0.660466064453125,0.049742812812328334,-0.07485474997609853,-0.11537526867389679
1761469025464449300,0.67044921875,0.010721885022521018,-0.03972060049176216,-0.06771218474507332
1761469025474432000,0.680431884765625,0.007446808874607086,-0.04333002316057682,-0.0808235952526331
1761469025484415000,0.6904150390625,0.008124269744753837,-0.051991176261007785,-0.07856091101765632
1761469025494398200,0.700398193359375,0.011187164446711539,-0.05038520236909389,-0.0987000282049179
1761469025504381200,0.710381103515625,0.1040069024413824,-0.054611880153417586,-0.15614508595764637
1761469025514364000,0.720364013671875,0.10034837993383407,-0.06563917786329984,-0.11622457897961139
1761469025524347100,0.73034716796875,0.022843699970841406,-0.03461129465401173,-0.027945407024025915
1761469025534330000,0.740330078125,0.017082067704200742,-0.0028609423890709877,-0.0035918870121240615
1761469025544312600,0.7503125,0.01170914249420166,0.010020751015841961,-0.04777005143463611
1761469025554294300,0.760294189453125,0.007201309680938721,0.0008656769186258316,-0.08821896620094775
1761469025564277500,0.770277587890625,0.028511808735132215,-0.0350283510223031,-0.09703472534120082
1761469025574260500,0.780260498046875,0.030085341662168502,-0.05284224013239145,-0.05008242003023624
1761469025584243500,0.790243408203125,0.01692541583776474,-0.04929302321821451,-0.07313654788136482
1761469025594226400,0.800226318359375,0.03026654344797134,-0.034977789878845214,-0.12483633998036384
1761469025604209400,0.81020947265625,0.044405543437600135,-0.027700200091302394,-0.10806816053092479
1761469025614192400,0.8201923828125,0.04071837935745716,-0.02246200717687607,-0.08508768243789672
1761469025624175600,0.830175537109375,0.07768471270501613,-0.04367869046777487,-0.07661269955933094
1761469025634158300,0.840158447265625,0.07955693631768226,-0.05533171886056661,-0.09193652541935443
1761469025644141300,0.850141357421875,0.09688391869366168,-0.055201370479166505,-0.06239069746136665
1761469025654123500,0.86012353515625,0.08653028246164321,-0.0543824553117156,-0.027653146079182622
1761469025664106500,0.8701064453125,0.059569210299849504,-0.053123395161330696,-0.014397358664870262
1761469025674089500,0.88008935546875,0.03068973729610443,-0.05027618903666734,-0.04696808740198612
1761469025684072400,0.890072509765625,0.05659750101268291,-0.02373158872127533,-0.08507423843443393
1761469025694055700,0.9000556640625,0.0680833561450243,-0.023086861076951026,-0.1135708496004343
1761469025704038400,0.910038330078125,0.03765957630872726,-0.044259412965178484,-0.13418050690889358
1761469025714021400,0.920021484375,0.0342073900282383,-0.07747399256378412,-0.12958031963706015
1761469025724004600,0.930004638671875,0.05010463186204433,-0.09616729485690594,-0.09562602758705616
1761469025733987300,0.9399873046875,0.07141922256946563,-0.06901683760285376,-0.023445172995328903
1761469025743969500,0.949969482421875,0.05045709856152534,-0.014448504330217837,0.007080898171663284
1761469025753952500,0.959952392578125,0.049366380715370174,0.02392155833542347,0.024664485657215116
1761469025763935200,0.969935302734375,0.04730769461989402,0.02897562685459852,0.003918050226569175
1761469025773918500,0.97991845703125,0.001011222869157791,0.024572131198644636,-0.0711766459852457
1761469025783901400,0.9899013671875,0.014108020329475402,-0.015661971773207186,-0.11697042891085146
1761469025793884400,0.999884521484375,0.03809329155087471,-0.03783376383185386,-0.10228899260759353
1761469025803867400,1.009867431640625,0.09122516227960586,-0.06201923380047083,-0.118384971883893
1761469025813850400,1.019850341796875,0.10541092402040958,-0.09728490070998667,-0.07234218263328075
1761469025823833300,1.029833251953125,0.10574702410697936,-0.10007570047229528,-0.041814357900619506
1761469025833816600,1.039816650390625,0.06736030256748199,-0.0794572753354907,-0.08983926087915897
1761469025843798300,1.04979833984375,0.07288286538124084,-0.043263387665152545,-0.11142097809016704
1761469025853781500,1.059781494140625,0.09883855989277363,-0.03669540745168924,-0.10660977841615676
1761469025863764500,1.069764404296875,0.060113984701037404,-0.037733226066827774,-0.11158990491628647
1761469025873747500,1.07974755859375,-0.01599953316450119,-0.054014791043102736,-0.10953940212726593
1761469025883730400,1.08973046875,-0.03955401175320148,-0.02832417720854282,-0.12792612268924713
1761469025893713400,1.09971337890625,0.003932078751921654,-0.032033553120493885,-0.08497779232263565
1761469025903696600,1.109696533203125,0.0629986002266407,-0.06579436842501163,-0.059200376987457275
1761469025913679400,1.119679443359375,0.12704641724526883,-0.10274696550816297,-0.07606792515814303
1761469025923662300,1.129662353515625,0.09722177234590053,-0.12430559410452842,-0.0421761769503355
1761469025933645600,1.1396455078125,0.07926642893850804,-0.12069558691382408,0.004231938481330871
1761469025943627300,1.149627197265625,0.08001461695730686,-0.1030111694023013,0.05080547360777855
1761469025953610500,1.159610595703125,0.03938976110219955,-0.10052870493680238,0.03016951281428337
1761469025963593500,1.169593505859375,0.02577098559439182,-0.06460486637949943,-0.03155775230228901
1761469025973576400,1.179576416015625,0.01978840405344963,-0.03955430401414633,-0.09791501530706882
1761469025983559400,1.189559326171875,0.026789807248115537,-0.017935469663143157,-0.12644377517700195
1761469025993542400,1.19954248046875,0.03359364204406738,-0.04594634313881397,-0.16640286059975623
1761469026003525400,1.209525390625,0.0815337893486023,-0.02539718384593725,-0.17565759567916392
1761469026013508600,1.219508544921875,0.07205284429788589,-0.04646218370646238,-0.12710486943423746
1761469026023491300,1.2294912109375,0.0411176078081131,-0.04915712187886238,-0.093293200725317
1761469026033474600,1.239474609375,0.019405542215704917,-0.06175678347200155,-0.07457388720810412
1761469026043456500,1.24945654296875,0.030264789882302284,-0.0979357658341527,-0.04372106830477714
1761469026053439500,1.259439453125,0.01593406671285629,-0.11425094081908464,-0.0006979191362857818
1761469026063422500,1.26942236328125,0.022176760494709014,-0.1087520511418581,-0.008766659301519394
1761469026073405400,1.279405517578125,0.03984744174182415,-0.08171849826574325,-0.029557518395781517
1761469026083388400,1.289388427734375,0.04139057953059673,-0.06607815380245446,-0.051284781557321545
1761469026093371400,1.299371337890625,0.0473567944586277,-0.05043664029538631,-0.0684627108514309
1761469026103354400,1.309354248046875,0.03207037799954414,-0.03272884190827608,-0.110607908141613
1761469026113337600,1.319337646484375,0.03678513156175613,-0.02096650792211294,-0.1256611003667116
1761469026123320300,1.3293203125,0.027365561309456825,0.009926350730657577,-0.0733814625531435
1761469026133302500,1.339302490234375,0.04864858783483505,0.0058741527304053305,-0.0706447310656309
1761469026143285500,1.349285400390625,0.043857846426963804,-0.03366173884421587,-0.10753624561131
1761469026153268200,1.359268310546875,0.06828267810940743,-0.09057985011339187,-0.08681962079703807
1761469026163251500,1.36925146484375,0.0827314747005701,-0.12731646635830401,-0.06194353821575641
1761469026173234400,1.379234375,0.07857143241167068,-0.14651158069372175,-0.057341597378253936
1761469026183217400,1.389217529296875,0.04696984096765518,-0.13379267663508654,-0.05208440750241279
1761469026193200400,1.399200439453125,0.0346036958694458,-0.08205459835231303,-0.07963643129467964
1761469026203183400,1.409183349609375,0.032408231651782984,-0.02450578796416521,-0.10865209789872168
1761469026213166600,1.41916650390625,0.043994040027260775,0.003552431784570217,-0.09232932412922382
1761469026223149600,1.429149658203125,0.060766311129927635,-0.025574878500401972,-0.11009937409758568
1761469026233131500,1.439131591796875,0.051372459840774536,-0.02639671627730131,-0.15080314040780066
1761469026243114500,1.449114501953125,0.024776129338145256,-0.032408816173672673,-0.10776128653883933
1761469026253097500,1.459097412109375,0.05554828422069549,-0.02998334259241819,-0.11856442010402679
1761469026263080400,1.46908056640625,0.04612169970571994,-0.036927462641894816,-0.10261340225636958
1761469026273063400,1.4790634765625,0.05898351936638355,-0.06953793886750936,-0.11078443375229835
1761469026283046400,1.48904638671875,0.03502279806435108,-0.05629062702059746,-0.06915478476881981
1761469026293029600,1.499029541015625,0.040116906332969667,-0.043838557204604146,-0.022788754913210866
1761469026303012400,1.509012451171875,0.08092121040821075,-0.018728081345558166,-0.048853170496225354
1761469026312995300,1.518995361328125,0.04779343231022358,0.016546061131358147,-0.07427928817570209
1761469026322978600,1.528978515625,0.02543371646404266,0.019419278480112552,-0.08562661162018775
1761469026332960300,1.538960205078125,0.040457682594656943,-0.0005056114345788955,-0.08037175983190536
1761469026342943500,1.548943603515625,0.027582418930530546,-0.0224757434412837,-0.10800795477628707
1761469026352926500,1.558926513671875,0.041275428718328476,-0.04150368451625108,-0.09412322180867194
1761469026362909400,1.568909423828125,0.07596329573988914,-0.04176496580094099,-0.10629939729273319
1761469026372892400,1.578892333984375,0.08603343885540962,-0.04030570690333843,-0.07284837858974934
1761469026382875400,1.58887548828125,0.059007484763860696,-0.02783551690876484,-0.05721592517197132
1761469026392858600,1.598858642578125,0.02759060223698616,-0.04766191488504409,-0.07843699237704277
1761469026402841300,1.60884130859375,-0.006608604484796524,-0.06530716942995786,-0.09954992303252219
1761469026412824300,1.61882421875,-0.017288988453149794,-0.05229746573120355,-0.11455635350644588
1761469026422807600,1.6288076171875,-0.014973697248101233,-0.0401718513906002,-0.08484569037556648
1761469026432789200,1.638789306640625,-0.008052958074212075,-0.04417962572723627,-0.0636000732511282
1761469026442772500,1.6487724609375,0.06160919169485569,-0.05030249252170324,-0.08751403280198573
1761469026452755500,1.65875537109375,0.08940788372457027,-0.0490296961069107,-0.09875497326254844
1761469026462738400,1.668738525390625,0.03679857556521892,-0.016950550279021263,-0.06459668307304382
1761469026472721400,1.678721435546875,0.05253682744503021,-0.004633212758600711,-0.09589256956875324
1761469026482704400,1.688704345703125,0.05913023436069488,-0.0025210429102182387,-0.10758066927492618
1761469026492687400,1.698687255859375,0.04263619567751884,-0.004664484679698944,-0.09368190778195858
1761469026502670600,1.708670654296875,0.01860065557360649,-0.020442484048008917,-0.046045127338171
1761469026512653300,1.7186533203125,0.007293079617619514,-0.04060527437180281,-0.06642039136886596
1761469026522635500,1.728635498046875,0.03634323301315307,-0.09022650663107633,-0.12582885814905165
1761469026532618500,1.738618408203125,0.04212415450215339,-0.07162789688408375,-0.12153905200064181
1761469026542602000,1.74860205078125,0.023090368208289146,-0.07721475710570812,-0.12419278137981891
1761469026552585200,1.758585205078125,0.023873043018579482,-0.06923954044282436,-0.13870938251018525
1761469026562568200,1.768568115234375,0.05052139596939086,-0.06406447589248418,-0.10741583410203456
1761469026572551200,1.77855126953125,0.036971009522676464,-0.07054711591005325,-0.0563888266980648
1761469026582534100,1.7885341796875,0.018611176967620848,-0.06777443632632493,-0.045023383074998855
1761469026592517000,1.79851708984375,-0.009245382729172706,-0.0634907676577568,-0.06613163755536079
1761469026602500000,1.8085,0.0070353054642677305,-0.057713645561039445,-0.07571779654622078
1761469026612483300,1.8184833984375,0.05043254864215851,-0.06575374415367842,-0.07693418659865855
1761469026622465000,1.828465087890625,0.061190089499950404,-0.0749544109582901,-0.07587211032509804
1761469026632448300,1.8384482421875,0.07903262018263339,-0.05541501322984695,-0.06333294674754142
1761469026642431200,1.84843115234375,0.06143325060606002,-0.030279110668599604,-0.07442308056056499
1761469026652414200,1.858414306640625,0.019227263039350507,0.010501228009164332,-0.03501987545490265
1761469026662397200,1.868397216796875,-0.014901801055669784,0.0029667408511042594,-0.038702947881817815
1761469026672380200,1.878380126953125,-0.00604103372991085,-0.03448065401166677,-0.062032970064878463
1761469026682363100,1.888363037109375,0.047230537730455394,-0.09582184242010117,-0.06644435676634311
1761469026692346000,1.89834619140625,0.058926236221194264,-0.13253653909415006,-0.09923077408075331
1761469026702329000,1.9083291015625,0.09251227948069572,-0.14085837723761796,-0.10023673625290393
1761469026712312300,1.918312255859375,0.09702128133773803,-0.11920564061701297,-0.07125438739657401
1761469026722294000,1.9282939453125,0.10473287862837315,-0.05060235225111246,-0.056633156847953794
1761469026732277200,1.93827734375,0.07554302450120448,-0.024681144531071186,-0.03104571112692356
1761469026742260200,1.94826025390625,0.03139467069506645,-0.009608663083612919,-0.030924715095758438
1761469026752243000,1.958242919921875,0.028682489126920698,0.01751139903217554,-0.05090016615390777
1761469026762226200,1.96822607421875,0.04442074100673198,-0.008658522751927375,-0.07837211044728755
1761469026772209200,1.978209228515625,0.06628887394368649,-0.023498072226345538,-0.0847796394020319
1761469026782192000,1.988192138671875,0.06846154180765152,-0.04981178639531135,-0.10627952354848384
1761469026792175000,1.998175048828125,0.07570669063031674,-0.06852613147646189,-0.09540157118141651
1761469026802158000,2.008157958984375,0.11383563801646232,-0.01948211458325386,-0.08321896595656872
1761469026812140300,2.018140380859375,0.09553776478171348,-0.009577975684404372,-0.043430560925602914
1761469026822123000,2.028123046875,0.04612754492461681,-0.0248939104989171,-0.02366144609451294
1761469026832106200,2.038106201171875,0.056014732688665386,-0.019676468111574648,-0.05217033222019672
1761469026842089200,2.048089111328125,0.0452741429656744,-0.0129272861123085,-0.08846388087272644
1761469026852072200,2.058072265625,0.019154197803139685,-0.00982815105319023,-0.0903518865764141
1761469026862055200,2.06805517578125,0.029679683470726012,-0.029911738660931584,-0.08545826931595801
1761469026872038100,2.0780380859375,0.028431729236245155,-0.018110826230049133,-0.10209376229643821
1761469026882021000,2.088021240234375,0.09139701171517371,-0.02805500487834215,-0.10470248349010944
1761469026892004400,2.09800439453125,0.13418050690889358,-0.02873071218281984,-0.12364976054430007
1761469026901987000,2.107987060546875,0.1117366199105978,-0.02639320914596319,-0.08143851228058338
1761469026911969300,2.11796923828125,0.051176645007729525,-0.0026648352950811383,-0.03610007190704345
1761469026921952300,2.1279521484375,0.03828793734014034,0.00950578723102808,-0.023412439769506452
1761469026931935000,2.13793505859375,0.04765782323181629,0.010811316871643066,-0.008905190989375113
1761469026941918200,2.147918212890625,0.05197685547471046,0.02044891378879547,-0.058636897885799406
1761469026951901200,2.157901123046875,0.07819967648983,0.027579496321082114,-0.08779343426525592
1761469026961884200,2.16788427734375,0.08487725455760955,0.016405775877833366,-0.07033025828897953
1761469026971867100,2.1778671875,0.0771112967312336,-0.01577770710736513,-0.09008709816038608
1761469026981850000,2.18785009765625,0.07414075648784638,-0.03457183942645788,-0.04588146120905876
1761469026991833000,2.1978330078125,0.06697568716406822,-0.028333237297832964,-0.015465864679217338
1761469027001816000,2.207816162109375,0.06632102264761924,-0.003198211519420147,-0.021174889975786208
1761469027011798000,2.217798095703125,0.06937339595556259,-0.0007645546317100524,-0.04491992270052433
1761469027021781200,2.22778125,0.07406710672974585,-0.01657645626962185,-0.0742483085155487
1761469027031764000,2.237763916015625,0.10649287403821944,-0.022367022369802,-0.1350116970360279
1761469027041747200,2.247747314453125,0.11279285096526145,-0.01126432133615017,-0.13042553828954695
1761469027051730200,2.257730224609375,0.10683306577801704,0.025790859338641167,-0.11946049216091632
1761469027061713200,2.267713134765625,0.06704056909382343,0.030762802532315253,-0.08070026113390923
1761469027071696100,2.277696044921875,0.016220482438802718,0.024768238292634484,-0.0670896689325571
1761469027081679000,2.28767919921875,-0.008323591709136963,-0.006210252816975116,-0.09208557850122451
1761469027091662000,2.297662109375,-0.0016238018095493317,-0.026845629088580607,-0.11971300561726092
1761469027101645300,2.307645263671875,0.08309446279406547,-0.05459434449672699,-0.11680150208473204
1761469027111627000,2.317626953125,0.1406283678740263,-0.09574906944483517,-0.1207598843216896
1761469027121610200,2.3276103515625,0.1316261462509632,-0.10150690231919288,-0.05193243181109428
1761469027131593200,2.33759326171875,0.09699848498404025,-0.06838876883238554,0.023268647384643553
1761469027141576000,2.347575927734375,0.06031681379675865,-0.03231500041037798,0.034381577551364895
1761469027151559200,2.35755908203125,0.0593430003285408,0.023971242696046828,0.029801848545670508
1761469027161542100,2.367542236328125,0.03982172277867794,0.05865004962831735,-0.011056231543421745
1761469027171525000,2.377525146484375,0.06569909135699271,0.05213935256004333,-0.0928179844290018
1761469027181508000,2.387508056640625,0.06816226660013198,0.014035831876099109,-0.09168635005056858
1761469027191491000,2.397490966796875,0.030462358281016347,-0.01782382598221302,-0.114843353754282
1761469027201474300,2.407474365234375,0.042837855729460715,-0.026128420729935167,-0.09546411502361297
1761469027211456000,2.4174560546875,0.08835983597636222,-0.03185352037847042,-0.07214344519078732
1761469027221439200,2.427439208984375,0.10834288581907749,-0.021497838319838047,-0.07573299411535263
1761469027231422200,2.437422119140625,0.09086158966422081,-0.010066635984182358,-0.08185702995359898
1761469027241405200,2.4474052734375,0.06625672523975372,-0.017715981693565846,-0.07829086190462112
1761469027251388200,2.45738818359375,0.07142740587592125,-0.026959903118014335,-0.08861468752026558
1761469027261371100,2.46737109375,0.051313423129916186,-0.06445405973196029,-0.097754271787405
1761469027271354000,2.47735400390625,0.05010346281826496,-0.05656155291646719,-0.09969956063628196
1761469027281337300,2.48733740234375,0.0536439119040966,-0.03599222761839628,-0.09228022429049014
1761469027291320000,2.497320068359375,0.07227320905029773,-0.05885550907254219,-0.11533844379484653
1761469027301303000,2.507302978515625,0.08722001829147338,-0.05647767402529716,-0.10211889673769474
1761469027311285200,2.51728515625,0.0827794054955244,-0.00582622193545103,-0.05081891761124134
1761469027321268000,2.52726806640625,0.01591536201238632,0.017232874351739882,-0.024161796832084654
1761469027331251200,2.537251220703125,-0.011854103922843933,0.015394845269620417,-0.05858429091572761
1761469027341234200,2.547234130859375,-0.018068740653991697,-0.02181961762011051,-0.09517711477577685
1761469027351217200,2.557217041015625,0.012909750455617904,-0.027838147257268426,-0.10355214441120623
1761469027361200000,2.5672001953125,0.04594634313881397,-0.05426730449944734,-0.13392448632121084
1761469027371183000,2.57718310546875,0.010225625938177108,-0.07033902611732483,-0.10968611712157726
1761469027381166300,2.587166259765625,0.04241816901266575,-0.041407530665397645,-0.12016074938476085
1761469027391149000,2.597149169921875,0.0915022256553173,-0.046475043188035484,-0.032224691778421403
1761469027401132000,2.607132080078125,0.08982289426624775,-0.08080722863972187,-0.011934183421730995
1761469027411114200,2.6171142578125,0.0776993257522583,-0.10423457371741533,-0.013075754672288893
1761469027421097000,2.627096923828125,0.06417699635624885,-0.0750996646478772,-0.031468904975056645
1761469027431080200,2.637080078125,0.05331774868965149,-0.015763094060122967,-0.08049684751629829
1761469027441063200,2.647063232421875,0.034795419049263,0.007024491809308528,-0.06722644705474376
1761469027451046100,2.657046142578125,0.008511223235726355,-0.0038771336942911147,-0.11458733316659926
1761469027461029000,2.667029052734375,-0.012375497448444366,-0.04189969809651375,-0.15490356146395207
1761469027471012000,2.67701220703125,0.026083120283484456,-0.0634954438328743,-0.11604863789081572
1761469027480995000,2.6869951171875,0.06330021352171898,-0.07351619484871626,-0.12706103029251098
1761469027490978300,2.696978271484375,0.03226093213558197,-0.08325111466050147,-0.13293547528386115
1761469027500961000,2.7069609375,-0.005761047744750976,-0.07411416074186564,-0.12721125241816042
1761469027510943200,2.716943115234375,-0.006693944680690765,-0.05614011263400316,-0.12914075917601583
1761469027520926200,2.72692626953125,0.03266775937080383,-0.061113517132401464,-0.0788975956261158
1761469027530909200,2.7369091796875,0.046645431318879126,-0.0638330052241683,-0.06503507449030876
1761469027540892200,2.74689208984375,0.04141337588429451,-0.07158084287196398,-0.04350187259614467
1761469027550875000,2.756875,0.04487959069013595,-0.06083206984251737,0.024345336705446242
1761469027560858000,2.766858154296875,0.0782043526649475,-0.07195698270797729,-0.03129296388626098
1761469027570840800,2.7768408203125,0.0475526092916727,-0.06635901657044888,-0.07599310635626316
1761469027580823800,2.78682373046875,0.011898527586460112,-0.04813362405002117,-0.05540566087961197
1761469027590807000,2.79680712890625,0.010884966629743576,-0.04320727356374263,-0.04131283811926841
1761469027600789800,2.806789794921875,0.011128127735853194,-0.02629734755605459,-0.09387538452744483
1761469027610772000,2.81677197265625,0.00002221183180809021,-0.022536241456866262,-0.14787877739369867
1761469027620755000,2.8267548828125,-0.01032967083454132,-0.001626139897108078,-0.1499386325329542
1761469027630737700,2.836737548828125,0.012761866417527199,0.01371989779472351,-0.13253916944265365
1761469027640721000,2.846720947265625,0.010267711514234543,-0.01319879653006792,-0.11571604493558406
1761469027650704000,2.856703857421875,0.03798398595750332,-0.050257776597142215,-0.09742050978839396
1761469027660686800,2.866686767578125,0.06615969460606574,-0.07238397594839334,-0.0882347482919693
1761469027670669800,2.876669921875,0.07433832488656043,-0.09266162482351065,-0.05508534288406372
1761469027680652800,2.88665283203125,0.035954525956511496,-0.08188917865753173,-0.034141923576593396
1761469027690636000,2.896635986328125,0.010887889239192008,-0.04800239888578653,-0.07700783635675906
1761469027700619000,2.906618896484375,0.014846855998039244,-0.029015082082152366,-0.11819324870407581
1761469027710601700,2.916601806640625,0.04016016095280647,-0.036140111656486985,-0.160077164709568
1761469027720584000,2.926583984375,-0.003543371695280075,-0.03507394372969866,-0.13568389720916746
1761469027730567000,2.93656689453125,-0.02130640740096569,-0.010127133999764918,-0.12076982119381427
1761469027740550000,2.9465498046875,-0.013804653468728065,-0.023901976852118968,-0.10634148286879062
1761469027750532900,2.956532958984375,0.05569909086823463,-0.04417553407400846,-0.07261164722442627
1761469027760515800,2.966515869140625,0.08335048338174819,-0.05874298860877752,-0.07012801371514797
1761469027770499000,2.9764990234375,0.036060908940434455,-0.0307084419965744,-0.06545826833844184
1761469027780481800,2.986481689453125,0.0071317515760660165,-0.006091302612423896,-0.08955518324077129
1761469027790464800,2.99646484375,0.033848493587970735,-0.02081803936213255,-0.06528349629342556
1761469027800448000,3.006447998046875,0.05640870044231414,-0.03825315828770399,-0.11291209343075752
1761469027810431000,3.016430908203125,0.051985038781166074,-0.06899374898821115,-0.16242109748721123
1761469027820413000,3.026412841796875,0.05397299772799015,-0.06034311728179455,-0.10635960304737091
1761469027830396000,3.03639599609375,0.029592005187273025,-0.05858136830627918,-0.04223521366119384
1761469027840379000,3.04637890625,0.04026362132728099,-0.05498275929242372,-0.07525777781903743
1761469027850361900,3.05636181640625,0.04833353053629398,-0.02145195335149765,-0.09420037869811057
1761469027860344800,3.0663447265625,0.008283259698748588,-0.006616495530307293,-0.06223404559493065
1761469027870328000,3.076328125,0.03805179049670696,-0.005030103121697903,-0.08141337783932685
1761469027880311000,3.08631103515625,0.10077566543519496,-0.03602291501760482,-0.12327917366623878
1761469027890293800,3.096293701171875,0.07816343613266945,-0.03899900821894407,-0.09331599707901478
1761469027900277000,3.106277099609375,0.06024608664810657,-0.0342202495098114,-0.07253390581309795
1761469027910260000,3.116260009765625,0.0846831932902336,-0.017030922038853168,-0.06151040749549865
1761469027920242700,3.12624267578125,0.06655132427215575,-0.004913198743760586,-0.06963701532781123
1761469027930225000,3.136224853515625,-0.03417056514918804,0.028779812021553514,-0.07786708353459834
1761469027940207900,3.146207763671875,-0.022517536756396294,0.010041793803870677,-0.11271978572905063
1761469027950190800,3.15619091796875,0.053069911408424375,-0.014886018964648246,-0.11451076079905033
1761469027960173800,3.166173828125,0.08774959512352942,-0.04959902042746544,-0.12860007642805577
1761469027970156800,3.17615673828125,0.07751461683511733,-0.06264934839755297,-0.07385843241512775
1761469027980140000,3.18614013671875,0.08744038304388523,-0.039757425370812415,-0.03789981480538845
1761469027990122800,3.196122802734375,0.05516542238295078,-0.03845277251303196,0.010604396122694015
1761469028000106000,3.20610595703125,0.003296703457832336,-0.007365268070995807,-0.03420329837501049
1761469028010089000,3.2160888671875,0.0022048165678977966,0.010908932027220725,-0.08578735513985157
1761469028020072000,3.226072021484375,0.036465982609987256,0.008416822950541972,-0.13103577914237977
1761469028030055000,3.236054931640625,0.06207739372849464,-0.017958266016840935,-0.15684183605015278
1761469028040036900,3.246036865234375,0.09904664968550204,-0.06631634647250174,-0.14166414066255092
1761469028050020000,3.25602001953125,0.09573357961475848,-0.07073883908987044,-0.11479893009066582
1761469028060002800,3.2660029296875,0.09399345794916153,-0.06391980672478675,-0.07470189750194549
1761469028069985800,3.27598583984375,0.05232113886773586,-0.05927665709406137,-0.04512801249325275
1761469028079969000,3.285968994140625,0.0518488451808691,-0.02620674666315317,-0.046298225316405296
1761469028089952000,3.295951904296875,0.05578501558601856,-0.012183774268627165,-0.04311784171462059
1761469028099934700,3.305934814453125,0.001575286492705345,0.0007815057665109634,-0.0010036240845918655
1761469028109918000,3.31591796875,0.02833528312444687,0.012100479899346827,-0.03714987322092056
1761469028119901000,3.32590087890625,0.042754853621125216,0.01443009189069271,-0.035624271088838574
1761469028129884000,3.3358837890625,0.05438859279155731,0.004497895941138267,-0.08253390630185603
1761469028139865900,3.345865966796875,0.07350421214997768,-0.06256780759394169,-0.1362748488396406
1761469028149848800,3.355848876953125,0.02825286553800106,-0.07126344748586416,-0.15316460884213445
1761469028159832000,3.36583203125,0.10332476539611815,-0.07621902406662702,-0.1568663859695196
1761469028169814800,3.375814697265625,0.13231646660268306,-0.10077595769613981,-0.10932137546241283
1761469028179797800,3.3857978515625,0.13739362373650074,-0.08677373582869767,-0.08218786934316158
1761469028189781000,3.395781005859375,0.08597615571022033,-0.04848258361816406,-0.04604571186006069
1761469028199764000,3.405763916015625,0.031111762100458143,-0.029478607940673827,-0.0450911876142025
1761469028209747000,3.415746826171875,0.02480243282318115,-0.005308335541188716,-0.05156184493303299
1761469028219730000,3.42572998046875,0.06292553499042987,-0.009412555989623069,-0.05869593459665775
1761469028229713000,3.435712890625,0.10433657278716564,0.0014864391654729843,-0.03950198930501938
1761469028239696000,3.44569580078125,0.09890461086630821,0.02571311792731285,-0.002995674684643745
1761469028249677800,3.455677734375,0.10527589946389197,0.07846358812302351,0.021473580661416053
1761469028259661000,3.4656611328125,0.09031389265358447,0.09419774834960698,0.008213117071986197
1761469028269643800,3.475643798828125,0.04951835640668869,0.11587269680202007,-0.009920505511760712
1761469028279626800,3.485626708984375,0.05897065988481044,0.09433511099368333,-0.06075520521402358
1761469028289610000,3.49560986328125,0.07214286066889762,0.06637684448808431,-0.07601064201295375
1761469028299593000,3.505593017578125,0.09017886809706688,0.038574060805141926,-0.08085925108790397
1761469028309575700,3.51557568359375,0.10610650506913662,0.016369535520672798,-0.10131517913937568
1761469028319559000,3.525558837890625,0.08679039470255374,-0.008337035712599753,-0.07864508216977119
1761469028329542000,3.5355419921875,0.06586626461744308,-0.02376461420804262,-0.09659808748960494
1761469028339524900,3.54552490234375,0.061631988048553465,-0.04209346710294485,-0.10364917504489421
1761469028349507800,3.5555078125,0.08652326819896697,-0.033734511819481845,-0.11968202595710754
1761469028359489800,3.56548974609375,0.0788888277977705,-0.011617957079410553,-0.11071487564742565
1761469028369473000,3.57547314453125,0.04396013775765895,-0.009445873737335204,-0.0793371560871601
1761469028379455700,3.585455810546875,0.056903205960988995,-0.005363280598819255,-0.07130056462585925
1761469028389439000,3.59543896484375,0.035383448070287704,0.004821428807079792,-0.050907180416584014
1761469028399422000,3.605421875,0.04230827889740467,-0.00784223793298006,-0.06960954279899596
1761469028409405000,3.615405029296875,0.06723696844875812,-0.012018354573845863,-0.1187251636236906
1761469028419388000,3.625387939453125,0.057034723386168475,0.000623100334405899,-0.1420616155475378
1761469028429371000,3.635370849609375,0.054445875936746595,0.008629296657443046,-0.10826046823263168
1761469028439353900,3.645353759765625,0.06236205588877201,0.010477554872632026,-0.11114975993335247
1761469028449337000,3.655337158203125,0.024350012880563734,0.009908230552077292,-0.08944587764739989
1761469028459318800,3.66531884765625,0.04190554331541061,0.01780541354268789,-0.08772972137928009
1761469028469302000,3.675302001953125,0.02805588166117668,0.024862054055929183,-0.043019057515263553
1761469028479285000,3.685284912109375,0.03957563906311989,-0.0029307927548885343,-0.03033668607473373
1761469028489267700,3.695267822265625,0.028759646016359327,-0.017110417015850542,-0.0613689531981945
1761469028499251000,3.7052509765625,0.09284078078269958,-0.05245148724913597,-0.08188099535107612
1761469028509234000,3.71523388671875,0.0405249026119709,-0.043945232449471947,-0.05997136135995388
1761469028519217000,3.725216796875,0.01113748008608818,-0.05092676189988851,-0.06798983264267444
1761469028529199900,3.735199951171875,0.03645429217219352,-0.07330693601220846,-0.0834936912447214
1761469028539182800,3.745182861328125,0.04933072488009929,-0.06185439862757921,-0.11554711810946464
1761469028549165600,3.75516552734375,0.04900105453431606,-0.04204612082988023,-0.13587211325764656
1761469028559148300,3.765148193359375,0.03989829514622688,-0.024280162514746188,-0.1117407115638256
1761469028569131300,3.77513134765625,0.030796704801917076,-0.039570086105167865,-0.07938274879455566
1761469028579113500,3.785113525390625,0.018406594306230543,-0.04416998111605644,-0.09174772484898566
1761469028589096200,3.79509619140625,0.02366495322585106,-0.07317395728230476,-0.06196750361323356
1761469028599079400,3.805079345703125,0.02937690113186836,-0.060901627947390076,-0.06350187357366084
1761469028609062400,3.8150625,0.02448094578385353,-0.061445525565743446,-0.08854922106862068
1761469028619045400,3.82504541015625,0.04068564613163471,-0.05386632248312235,-0.09212474146783352
1761469028629028400,3.8350283203125,0.06016366906166076,-0.03477233043462038,-0.09412263728678226
1761469028639011300,3.84501123046875,0.03677461016774177,-0.0342702261313796,-0.09232698604166507
1761469028648994600,3.85499462890625,0.06607844606339931,0.021439970652759075,-0.05244213489890098
1761469028658977500,3.8649775390625,0.07013502797782421,0.032787294097244735,-0.014853285738825796
1761469028668960300,3.874960205078125,0.045910687303543085,-0.022736440204083917,-0.02155775181353092
1761469028678942500,3.8849423828125,0.048343467408418654,-0.028633389288187025,-0.00286649534702301
1761469028688925400,3.894925537109375,0.0484112719476223,-0.040835283735394474,-0.03320551950931549
1761469028698908400,3.904908447265625,0.0495481670230627,-0.0699587946280837,-0.1011053357809782
1761469028708891400,3.914891357421875,0.05279343255460262,-0.07613748326301574,-0.13303542852699757
1761469028718874400,3.924874267578125,0.05292728806734085,-0.06175473764538764,-0.14635960500240325
1761469028728857300,3.934857421875,0.023730419677495954,-0.05575432818681001,-0.12503624646663666
1761469028738840300,3.94484033203125,0.031284780579805375,-0.05351794743686914,-0.09818681798577308
1761469028748823300,3.9548232421875,0.019976035580039023,-0.04774667055904865,-0.11325286969244479
1761469028758806500,3.964806640625,0.010355974319577216,-0.03979658833742142,-0.08874152877032757
1761469028768789200,3.974789306640625,0.007117723050713539,-0.024794249516725538,-0.07134907994270324
1761469028778772500,3.9847724609375,0.03548047870397567,-0.03270049259662628,-0.05329729042351246
1761469028788754400,3.99475439453125,0.08161737597882747,-0.04314239163398743,-0.0379629431694746
1761469028798737400,4.0047373046875,0.06365560283064842,-0.04371668439060449,-0.05424246231913566
1761469028808719400,4.01471923828125,0.04297931002676487,-0.036516251492500304,-0.043322424376010894
1761469028818701600,4.02470166015625,0.05796352866888046,-0.03366787632405758,-0.05989361994862556
1761469028828684300,4.034684326171875,0.036088381469249725,-0.028451602980494498,-0.1168733982771635
1761469028838667500,4.04466748046875,0.00016366612911224363,-0.019733751256763934,-0.12155951026678084
1761469028848650500,4.054650390625,0.015811901637911796,-0.0202080907702446,-0.10997136380374431
1761469028858633200,4.06463330078125,0.04036708170175552,-0.02086100172102451,-0.10926701492667197
1761469028868616400,4.074616455078125,0.06596738690435885,-0.04471826264858245,-0.04370879334509373
1761469028878599400,4.084599365234375,0.08414601767361164,-0.042833764076232905,-0.024144261175394057
1761469028888582400,4.09458251953125,0.06711538789570332,-0.03245177853256464,-0.03336450946331024
1761469028898565400,4.1045654296875,0.02554477562308311,-0.023110826474428175,-0.019106267008185386
1761469028908548400,4.11454833984375,0.017442717710137366,-0.029369886869192122,-0.023189736929535864
1761469028918531300,4.12453125,0.034893034204840655,-0.034654257012903686,-0.09082184217572212
1761469028928513300,4.13451318359375,0.003834463596343994,-0.04438713099807501,-0.12890987302958964
1761469028938496300,4.144496337890625,-0.004606617012619972,-0.06391922220289707,-0.1420785666823387
1761469028948479500,4.1544794921875,0.01316343295574188,-0.0692114833921194,-0.16216799950897692
1761469028958462500,4.16446240234375,0.026412790629267692,-0.0952294294849038,-0.1565185954451561
1761469028968445200,4.174445068359375,0.041434418672323226,-0.08882540766149759,-0.120947515848279
1761469028978428400,4.184428466796875,0.059547582989931104,-0.06823036340028048,-0.0744143127322197
1761469028988411400,4.194411376953125,0.0795376470953226,-0.08114186742156744,-0.0517921465575695
1761469028998394400,4.204394287109375,0.04755319381356239,-0.0711921358153224,-0.05245499438047409
1761469029008377300,4.21437744140625,0.01271861179769039,-0.04368862733989954,-0.06719196026325225
1761469029018360300,4.2243603515625,-0.02776829689145088,-0.03106646165400743,-0.06923194165825844
1761469029028342500,4.234342529296875,-0.006642506754398345,-0.03305763547122478,-0.12435177133381366
1761469029038325200,4.2443251953125,0.025513795962929724,-0.023297288957238194,-0.16383271785080433
1761469029048308500,4.25430859375,0.04260638506114483,-0.004967851540446281,-0.12942249872684478
1761469029058291500,4.26429150390625,0.06745616415739059,-0.014559271228313445,-0.10047463666200637
1761469029068274400,4.2742744140625,0.06183657070994377,-0.0330962139159441,-0.0645493367999792
1761469029078257400,4.28425732421875,0.04706336447000503,-0.0498249381378293,-0.03789981480538845
1761469029088240400,4.294240478515625,0.028758476972579956,-0.03136719816625118,-0.07176818213760852
1761469029098223400,4.304223388671875,0.024549919366836547,-0.01262713412195444,-0.07984042943418025
1761469029108206600,4.31420654296875,0.05348141481876373,-0.0177832017108798,-0.05890636247694492
1761469029118189300,4.324189208984375,0.06155716924667358,-0.042162440685927866,-0.06446341208219528
1761469029128172300,4.33417236328125,0.061709729459881776,-0.034224048902094364,-0.07791033815443515
1761469029138154500,4.344154541015625,0.03540565990209579,-0.03471972346454859,-0.06835106717050075
1761469029148137200,4.35413720703125,-0.006723170775175094,-0.011525894881784916,-0.07103577620983123
1761469029158120400,4.364120361328125,0.00824877290725708,0.000192015440762043,-0.07471826411485671
1761469029168103400,4.374103515625,0.05306172810196876,-0.008743570686876773,-0.08640519477725028
1761469029178086400,4.38408642578125,0.09383096086382865,-0.008505085755884647,-0.056254971185326574
1761469029188069400,4.3940693359375,0.06659516341388225,-0.03456365612000227,-0.03612929800152778
1761469029198052400,4.40405224609375,0.0062765960514545435,-0.05046031343191862,-0.06519289540052414
1761469029208035600,4.41403564453125,0.02010112326443195,-0.03958528367429971,-0.095602062189579
1761469029218018300,4.424018310546875,0.05194353772699833,-0.05035100783854723,-0.12024784314632415
1761469029228001300,4.434001220703125,0.08296820606589317,-0.03593523673415184,-0.1476911458671093
1761469029237984500,4.443984619140625,0.07175766074359416,-0.015357435868680476,-0.13767010259032247
1761469029247967500,4.453967529296875,0.04919803841114044,-0.014618015678226947,-0.09439268639981746
1761469029257949400,4.463949462890625,0.036327450922131535,0.005008475811779499,-0.06651566843688488
1761469029267932400,4.473932373046875,0.042727381092309946,-0.026279227377474308,-0.045810734060406685
1761469029277915400,4.483915283203125,0.045565819388628005,-0.05567366416603326,-0.05617664525210857
1761469029287898400,4.4938984375,0.05056231250166893,-0.09350596669316291,-0.09704232412576674
1761469029297881300,4.50388134765625,0.0524023874104023,-0.0821671188160777,-0.09593699323236941
1761469029307864300,4.5138642578125,0.033389643904566765,-0.060496846538782116,-0.07178045709729194
1761469029317847600,4.52384765625,0.0314314955741167,-0.043535482604801654,-0.05584054516553878
1761469029327830300,4.533830322265625,0.02305354332923889,-0.03007365122437477,-0.05095043503642082
1761469029337813500,4.5438134765625,0.03434884432554245,-0.020296061314642427,-0.0901776990532875
1761469029347796500,4.55379638671875,0.0605061988890171,-0.044325756199657916,-0.11195464657545089
1761469029357778400,4.5637783203125,0.03966331734657287,-0.05813625488728284,-0.12476795091927051
1761469029367761400,4.573761474609375,-0.01412029528915882,-0.07997837660014628,-0.13088380345106124
1761469029377744400,4.583744384765625,0.036413375639915466,-0.07554799293726683,-0.105022216963768
1761469029387730400,4.59373046875,0.05536883600056171,-0.09517302312254905,-0.08470598964393139
1761469029397713400,4.60371337890625,0.06656476827561855,-0.05853957499116659,-0.06029051031172275
1761469029407696400,4.6136962890625,0.09795651636123656,-0.0022658991053700448,-0.054493222209811204
1761469029417679400,4.623679443359375,0.09583470190167427,-0.01933013889193535,-0.03655775254666805
1761469029427661300,4.633661376953125,0.06369008962213993,-0.025310674606263635,-0.037491234004497526
1761469029437644500,4.64364453125,0.056086628881096834,-0.020286708964407443,-0.06343991425335407
1761469029447627300,4.653627197265625,0.048374447068572045,-0.010097615644335747,-0.02599719556570053
1761469029457610500,4.663610595703125,0.045927638438344,-0.022585341295599935,-0.022184943801164626
1761469029467593500,4.673593505859375,0.05412731150686741,-0.029387714786827564,-0.05697919380664825
1761469029477576400,4.683576416015625,0.0540577534019947,-0.0363704132810235,-0.08755611837804317
1761469029487559400,4.693559326171875,0.04500701646208763,-0.047289866702258584,-0.1179231995910406
1761469029497542400,4.70354248046875,0.05581482620239257,-0.035360651716589926,-0.15727379772663116
1761469029507525400,4.713525390625,0.06757832923233509,-0.022174714668095112,-0.10711071367561817
1761469029517508600,4.723508544921875,0.08905600154697894,-0.030117782627046105,-0.06088146194219589
1761469029527491300,4.7334912109375,0.08252864560484886,-0.020657880364358425,-0.07742810759544372
1761469029537473500,4.7434736328125,0.11500351275205611,-0.0016638415589928625,-0.05871463929712772
1761469029547456300,4.753456298828125,0.12864274652600288,0.0051072600111365316,-0.011762333986163139
1761469029557439200,4.763439208984375,0.05047463421821594,0.007760404868423938,-0.04595101931393146
1761469029567422500,4.77342236328125,0.0325602073431015,0.018532558773458004,-0.055606151887774465
1761469029577405200,4.7834052734375,0.047371992027759546,0.0024427169770002365,-0.06701192752122878
1761469029587388200,4.79338818359375,0.058468555581569666,0.020754034215211867,-0.11760054350793361
1761469029597371400,4.803371337890625,0.02929623711109161,0.014814999555051327,-0.12644845135211943
1761469029607354000,4.81335400390625,0.035838206100463864,0.02169452993571758,-0.11550853966474532
1761469029617337300,4.82333740234375,0.07171557516753674,0.02480038699656725,-0.12919687327742577
1761469029627320300,4.8333203125,0.08873626807332038,0.0075111062824726104,-0.11320376985371113
1761469029637303300,4.84330322265625,0.06668576430678368,-0.0030392215654253957,-0.031584055787324906
1761469029647285200,4.85328515625,0.06288403393626213,0.02993161240518093,0.0030050270348787305
1761469029657268200,4.863268310546875,0.03202186268270016,0.06148351948857307,0.013697101441025733
1761469029667251500,4.87325146484375,0.06700140612721443,0.016598960362374782,-0.04244856415092945
1761469029677234200,4.883234130859375,0.06511983016431332,-0.01018938558101654,-0.07488134572207927
1761469029687217200,4.893217041015625,0.07169336333572864,-0.04175093727558851,-0.11783727487325668
1761469029697200400,4.903200439453125,0.0925046806961298,-0.05436112026274204,-0.1504354761391878
1761469029707183400,4.913183349609375,0.0773813458442688,-0.04842150108069181,-0.12769056036770343
1761469029717166000,4.923166015625,0.03813186999559402,-0.02003448776900768,-0.08557809630334377
1761469029727149300,4.9331494140625,0.023059388548135756,-0.03855740193128586,-0.0464373415261507
1761469029737132300,4.94313232421875,0.020761048477888105,-0.04941372698843479,-0.06982698494195938
1761469029747114200,4.9531142578125,0.03354220411777496,-0.0547246928781271,-0.061519175323843954
1761469029757097200,4.96309716796875,0.06928045697510242,-0.041652737598121166,-0.04656768990755081
1761469029767080200,4.973080078125,0.08881693209409713,-0.033709669639170166,-0.05186988796889782
1761469029777063400,4.9830634765625,0.09211948077082634,-0.039108021551370616,-0.03864098856151104
1761469029787046100,4.993046142578125,0.08671732946634292,-0.016034019955992698,-0.058040101036429405
1761469029797029400,5.003029296875,0.04767886601984501,-0.04236263943314552,-0.06333937648832798
1761469029807012400,5.013012451171875,0.03323825273513794,-0.05474924279749393,-0.08467968615889548
1761469029816995300,5.022995361328125,0.05370996287763118,-0.05619008925557136,-0.08551321437358855
1761469029826978300,5.032978271484375,0.08904314206540584,-0.029962592065334318,-0.07579144630432129
1761469029836961300,5.042961181640625,0.08762216935157775,-0.018760522310435773,-0.048099721780419345
1761469029846944300,5.0529443359375,0.06750117234289646,-0.03351268576234579,-0.026762919241189956
1761469029856927200,5.06292724609375,0.011581132200360297,-0.04285714495182037,-0.0587806902706623
1761469029866909200,5.0729091796875,-0.002963525980710983,-0.05427168841361999,-0.0819254190146923
1761469029876892400,5.082892333984375,0.04272387396097183,-0.07415273918658495,-0.08643032921850681
1761469029886875400,5.09287548828125,0.046097734308242794,-0.08191752796918153,-0.12124153035879134
1761469029896858000,5.102858154296875,0.053258127456903455,-0.10119272180348635,-0.11966273673474788
1761469029906841300,5.11284130859375,0.11085691446661948,-0.0716147451415658,-0.10711948150396347
1761469029916824300,5.12282421875,0.09253039965927601,-0.05394757102578878,-0.07931435973346233
1761469029926807000,5.13280712890625,0.025577508848905563,-0.03980038772970438,-0.04265899203121662
1761469029936790300,5.142790283203125,0.04487140738368034,-0.014339198736846446,-0.07987959240078926
1761469029946773200,5.152773193359375,0.0680921239733696,-0.005102876096963882,-0.07889584206044674
1761469029956756500,5.162756591796875,0.07630114939212798,0.008139467313885687,-0.06756079357564448
1761469029966738200,5.17273828125,0.04911737439036369,0.011793898168206213,-0.04406418265402317
1761469029976721400,5.182721435546875,0.044593174964189526,-0.026008301481604573,-0.02766191390752792
1761469029986704400,5.192704345703125,0.054520694738626474,-0.04961947869360447,-0.03114683341383934
1761469029996687000,5.20268701171875,0.08653437411487103,-0.05700169789940118,-0.07633622070550918
1761469030006670300,5.21267041015625,0.0677776511967182,-0.04809329203963279,-0.08437339668869971
1761469030016653300,5.2226533203125,0.10457564224004745,-0.05691635770350694,-0.12397358567118644
1761469030026636300,5.23263623046875,0.05876432365775108,-0.01853402007818222,-0.11422259150743484
1761469030036619300,5.242619384765625,0.03550093697011471,0.03182984724193811,-0.10442015941739081
1761469030046602200,5.252602294921875,0.08627484639585017,0.033283260920643806,-0.0787923816859722
1761469030056585200,5.262585205078125,0.03412906409502029,-0.0003343465209007263,-0.02031739636361599
1761469030066568400,5.272568359375,0.024509002834558487,-0.03915741365104913,-0.061790978002548215
1761469030076550100,5.282550048828125,0.05042494985759258,-0.013541910879313945,-0.08593290109038353
1761469030086533400,5.292533447265625,0.0599397971779108,-0.008216624203324318,-0.12406418656408787
1761469030096516400,5.302516357421875,0.07863689886331558,-0.0313902867808938,-0.07709551464021205
1761469030106499000,5.3124990234375,0.04423077139258384,-0.04749298805892467,-0.0403594829171896
1761469030116482300,5.322482421875,0.009653963530063628,-0.015507950255274771,-0.08490531160831451
1761469030126465300,5.33246533203125,0.015759294667840002,-0.0037418168768286702,-0.06580021364390849
1761469030136448300,5.3424482421875,0.05348492195010185,-0.005267126747965812,-0.07614449752569198
1761469030146431200,5.35243115234375,0.05937397998869419,-0.02445435003787279,-0.1055751746714115
1761469030156414200,5.362414306640625,0.06947977893948555,-0.05713496889024972,-0.10834814651608467
1761469030166397400,5.3723974609375,0.0630722499847412,-0.08160042484402656,-0.0929968481272459
1761469030176379100,5.382379150390625,0.04863806644082069,-0.0522431051954627,-0.1405932965606451
1761469030186362400,5.3923623046875,0.03148702515363693,-0.02178659213334322,-0.14313187512755393
1761469030196345300,5.402345458984375,0.033172201761603355,-0.007082651737332343,-0.09330547568500042
1761469030206328300,5.412328369140625,0.07699906852841377,-0.014997078123688697,-0.09203764770627021
1761469030216311300,5.422311279296875,0.10501695626676082,-0.04222030835300684,-0.05416472090780735
1761469030226294300,5.432294189453125,0.062468438872694966,-0.05544423932433128,0.0032750761479139324
1761469030236277200,5.44227734375,-0.008063479468226432,-0.08033230460435152,0.019757424393296242
1761469030246260200,5.45226025390625,-0.02162964800596237,-0.05863368301540613,-0.019878420424461363
1761469030256243200,5.4622431640625,0.03306874138712883,-0.021449907524883745,-0.059524786636233326
1761469030266226200,5.47222607421875,0.08309154018461704,-0.01470978561490774,-0.08999182109236717
1761469030276209400,5.48220947265625,0.10478782368600367,-0.02015402249544859,-0.07347849318683147
1761469030286192000,5.492192138671875,0.10075053099393844,-0.045886137384176254,-0.02964870381057262
1761469030296174300,5.50217431640625,0.05456687196791172,-0.04938566993772983,0.009994739791750907
1761469030306157300,5.5121572265625,0.017181436425447463,-0.04929126965254545,-0.04490706321895122
1761469030316140300,5.522140380859375,-0.014578560450673102,-0.04979249717295169,-0.09776070152819157
1761469030326123300,5.532123291015625,0.02155950537919998,-0.026980069123208522,-0.10319909318983554
1761469030336106200,5.542106201171875,0.06916530616283416,-0.026934184154868125,-0.12896247999966143
1761469030346089500,5.55208935546875,0.09119476714134216,-0.05365004938393831,-0.14788403809070585
1761469030356072200,5.562072265625,0.09969488446116447,-0.09248539147377013,-0.09710428344607352
1761469030366055200,5.57205517578125,0.059956163790822026,-0.11741495780795812,-0.04849135144650936
1761469030376038400,5.582038330078125,0.04041735058426857,-0.11007482417821883,-0.04360299488306045
1761469030386021400,5.592021484375,0.019655717584490775,-0.10695669215768575,-0.04541150560975075
1761469030396003300,5.60200341796875,0.027371406528353688,-0.06272095232903957,-0.08993103081583977
1761469030405986300,5.611986328125,0.07065349889397621,-0.04795037643760443,-0.1122895776182413
1761469030415969300,5.62196923828125,0.06710545102357864,-0.03712006260454655,-0.11701485257446766
1761469030425952300,5.6319521484375,0.04860007251799106,-0.01887304277420044,-0.08509469670057296
1761469030435935200,5.641935302734375,0.09085808253288269,-0.023648586612939834,-0.06932429611682892
1761469030445918200,5.651918212890625,0.012339257091283798,-0.03768851014226675,0.0007464344531297683
1761469030455901400,5.6619013671875,0.011601590466499327,-0.028636019636690616,-0.013570260190963744
1761469030465884200,5.67188427734375,0.02782499551475048,-0.0060737669557332985,-0.06707797849476337
1761469030475867400,5.681867431640625,0.04079670529067516,-0.006264028830826282,-0.08460019118189811
1761469030485850400,5.691850341796875,0.0753419489711523,-0.006857903070747852,-0.08127543067336082
1761469030495833000,5.7018330078125,0.06493161411583423,-0.014807693031430244,-0.05823533134758472
1761469030505815300,5.711815185546875,0.07760112607479094,-0.02322919215708971,-0.044292146191000935
1761469030515798300,5.72179833984375,0.06188333246111869,-0.0655146747007966,-0.03599076631367206
1761469030525781200,5.73178125,0.05056698867678642,-0.06507949815392494,-0.03241816852390766
1761469030535764200,5.74176416015625,0.0762310067653656,-0.05811053592413663,-0.038544542449712754
1761469030545751800,5.751751708984375,0.09441314466595649,-0.0256608032181859,-0.08298165006935596
1761469030555734800,5.76173486328125,0.08649404210448265,-0.0011637830823659895,-0.08555120829641819
1761469030565717800,5.7717177734375,0.04364274237155914,0.012772095550596713,-0.09367255543172359
1761469030575700700,5.78170068359375,0.01848608928322792,-0.004179039250314235,-0.10848317107260226
1761469030585683700,5.79168359375,0.023638065218925475,-0.024265549467504022,-0.08792202908098697
1761469030595667000,5.8016669921875,0.039297406643629074,-0.05140606984943151,-0.13860533761382102
1761469030605649700,5.811649658203125,0.016419804403185842,-0.045725978386402126,-0.14716273807883262
1761469030615632000,5.8216318359375,0.0640314504057169,-0.04055938940346241,-0.1342360364884138
1761469030625614800,5.83161474609375,0.06361117916703224,-0.033683073893189426,-0.12676643126010895
1761469030635597800,5.841597900390625,0.04635550846159458,-0.02788637031316757,-0.0736906746327877
1761469030645580800,5.851580810546875,0.051961073383688924,0.011540800189971924,-0.08471008129715919
1761469030655563800,5.861563720703125,0.062055766418576234,-0.013210486967861652,-0.07716507274508476
1761469030665546800,5.871546630859375,0.02903495582640171,-0.010594166989624499,-0.016953472888469694
1761469030675529700,5.88152978515625,0.004873743516206741,-0.006238602128624916,-0.06084931323826313
1761469030685512700,5.8915126953125,0.049558103895187375,-0.02482464465498924,-0.09319850817918778
1761469030695496000,5.901495849609375,0.05683423237800598,-0.032055764952301974,-0.06528115820586682
1761469030705478700,5.911478759765625,0.03685761227607727,-0.04355097243487835,-0.07765724017620086
1761469030715460900,5.9214609375,0.022155717706680296,-0.03987228392213583,-0.11631693343818188
1761469030725443800,5.93144384765625,0.03139467069506645,-0.04913403326421976,-0.10792203005850315
1761469030735426600,5.941426513671875,-0.0032779987573623654,-0.05489946492314338,-0.11470716015398502
1761469030745409800,5.951409912109375,0.043941433057188985,-0.0643339404836297,-0.16394260796606538
1761469030755392800,5.961392822265625,0.07163374210298061,-0.10434329478889703,-0.15953940457105636
1761469030765375700,5.971375732421875,0.10905892513394355,-0.04436813403666019,-0.0674339523255825
1761469030775358700,5.981358642578125,0.08784487219154834,-0.0709133188739419,-0.004959668233990669
1761469030785341700,5.991341796875,0.06563479394912719,-0.06967676281630993,-0.03619125732183456
1761469030795325000,6.001324951171875,0.02047638631761074,-0.017596739228069782,-0.07492401582002639
1761469030805308000,6.011307861328125,-0.0008013795107603073,-0.00426554848998785,-0.08378536766767501
1761469030815290600,6.02129052734375,0.01159632976949215,-0.0060255438998341555,-0.10918927351534366
1761469030825272800,6.03127294921875,-0.011780454164743423,-0.030424948880076408,-0.11181962201893329
1761469030835255800,6.041255859375,-0.006176058286428451,-0.08478402331620455,-0.08994856647253036
1761469030845238800,6.05123876953125,0.02701075652241707,-0.08962854073792695,-0.09022387628257274
1761469030855221800,6.0612216796875,0.11477262660562991,-0.026179858656227586,-0.020934651479125023
1761469030865204700,6.071204833984375,0.1425064367055893,-0.034676176583766934,-0.006512158372998237
1761469030875188000,6.08118798828125,0.0798603031784296,-0.048288814611732955,-0.05227963781356811
1761469030885170700,6.091170654296875,-0.018142974933981895,-0.06409662459641695,-0.06943067910075187
1761469030895153700,6.101153564453125,-0.027687048348784445,-0.04923953946530819,-0.06692892541289329
1761469030905137000,6.111136962890625,0.012023615270853041,-0.031181904727220534,-0.10512859994769096
1761469030915119900,6.121119873046875,0.022438626301288605,-0.06560264524519444,-0.15826456232964992
1761469030925101800,6.131101806640625,0.00625146161019802,-0.06420826827734709,-0.15367548097372055
1761469030935084800,6.141084716796875,0.010343699359893798,-0.053765200196206564,-0.07822831806242465
1761469030945067800,6.15106787109375,0.07726853311955928,-0.06051672028303146,-0.09586392799615859
1761469030955050800,6.16105078125,0.10265782591998576,-0.08700286840945481,-0.112202483856678
1761469030965033700,6.17103369140625,0.05696750336885452,-0.07544628612846135,-0.057310033196210856
1761469030975017000,6.181016845703125,0.005723638343811035,-0.06896189254522324,-0.030415012007951735
1761469030984999700,6.190999755859375,-0.012050503277778625,-0.039249768109619616,-0.03353694342076778
1761469030994982700,6.200982666015625,0.01714578059017658,-0.013741817365586757,-0.03283376358747482
1761469031004966000,6.2109658203125,0.07431143687963486,-0.029239830748736855,-0.061768766170740126
1761469031014948900,6.220948974609375,0.06425064611434936,-0.01968465141803026,-0.0508031355202198
1761469031024930800,6.230930908203125,0.0437140540421009,-0.014983341859281062,-0.03413198670446872
1761469031034913800,6.240913818359375,-0.02520633744895458,-0.040537177571654315,-0.005016951379179954
1761469031044896800,6.250896728515625,0.010694412493705749,-0.030003800858557222,-0.03007715835571289
1761469031054879700,6.260879638671875,0.047051089510321616,-0.03440583520978689,-0.09288052827119826
1761469031064862700,6.27086279296875,0.031239772394299505,-0.05494856476187706,-0.07945289142131805
1761469031074845700,6.280845703125,0.05638064339160919,-0.06392243707329034,-0.0911012436389923
1761469031084829000,6.290828857421875,0.08637187702953815,-0.09492577036321162,-0.09999299062490463
1761469031094811600,6.300811767578125,0.07143325109481811,-0.09768851307481527,-0.10010112717449665
1761469031104794600,6.310794677734375,0.08248889811635017,-0.11272972260117531,-0.0966916109919548
1761469031114777900,6.32077783203125,0.04111936137378216,-0.06638853492587804,-0.06450374409258365
1761469031124760800,6.3307607421875,0.05467267042994499,-0.054064183142781254,-0.09448094920516013
1761469031134742800,6.34074267578125,0.057063364958763116,-0.04310293640643358,-0.09526479305922984
1761469031144725800,6.350725830078125,0.04597206210196018,-0.02639233236312866,-0.10870236678123474
1761469031154708700,6.360708740234375,0.03149170132875442,-0.020708441507816314,-0.09938099620640277
1761469031164691700,6.370691650390625,0.008249941951036453,-0.006866963160037994,-0.09313888694643974
1761469031174674700,6.3806748046875,0.010009937360882758,-0.006170505328476429,-0.07627016973197459
1761469031184658000,6.390657958984375,0.0009065934509038925,-0.027815935425460337,-0.09422843574881554
1761469031194641000,6.400640869140625,0.01355389357805252,-0.017587094616889953,-0.12747253370285033
1761469031204623600,6.41062353515625,0.06101473293304443,-0.009134031309187413,-0.1189607259452343
1761469031214606800,6.42060693359375,0.07600771940350533,0.0014946224719285964,-0.0894154825091362
1761469031224589800,6.43058984375,0.05697510215342044,0.013454232595860958,-0.07675181576907635
1761469031234571800,6.44057177734375,0.02624853997826576,0.018172201028466225,-0.05400222382247448
1761469031244554800,6.4505546875,0.02765022346973419,-0.0021758827343583108,-0.04474631969928741
1761469031254537700,6.460537841796875,0.05483750560283661,-0.02252192067056894,-0.06873977422714234
1761469031264521000,6.47052099609375,0.08323357900381088,-0.0364446475610137,-0.08748188409805298
1761469031274503700,6.480503662109375,0.04580021266639232,-0.012793430599570273,-0.08115735725164414
1761469031284486700,6.490486572265625,0.056495794203877445,-0.010152268441021442,-0.10439677854180335
1761469031294470000,6.500469970703125,0.05854220533967018,0.011221358977258204,-0.1157797578215599
1761469031304452600,6.51045263671875,0.08122457726895808,-0.0001692190870642662,-0.11855915940701961
1761469031314435800,6.520435791015625,0.04908347212076187,-0.03825900350660085,-0.11512333973944186
1761469031324418800,6.530418701171875,0.03416296636462211,-0.03636807519346475,-0.12293430575132369
1761469031334400800,6.54040087890625,0.043999300724267956,-0.014641104292869567,-0.08764321213960648
1761469031344383700,6.5503837890625,0.0787444508910179,-0.007870002722740172,-0.10112579404711723
1761469031354366700,6.56036669921875,0.0275496857047081,0.04625526295751333,-0.06620820992290974
1761469031364350000,6.570349853515625,0.015659341424703595,0.05854249760061502,-0.09467676403820514
1761469031374332700,6.580332763671875,0.010509703576564788,0.05128098216503858,-0.08795183969736099
1761469031384315600,6.590315673828125,0.034301498052477834,0.020687983241677282,-0.08301555233895778
1761469031394299000,6.600298828125,0.08548165019154548,-0.04514700945466756,-0.14404197570979593
1761469031404281900,6.61028173828125,0.12057985157966614,-0.07641951507478952,-0.13088204988539218
1761469031414264600,6.6202646484375,0.1493845057815313,-0.03561491873860359,-0.08582885619401931
1761469031424247800,6.630247802734375,0.16263386345505715,0.01255611471235752,-0.0455745872169733
1761469031434230800,6.640230712890625,0.10260463442802428,0.012046119363605976,-0.025590952852368353
1761469031444212700,6.650212646484375,0.08577917183339595,0.033406010517477984,-0.016055062744021416
1761469031454195700,6.66019580078125,0.05160509955286979,0.031948212924599644,-0.030380525216460227
1761469031464178700,6.6701787109375,0.06634557256698607,0.041591655060648915,-0.03296703457832336
1761469031474162000,6.680161865234375,0.08146949194073677,0.027789631940424442,-0.061682256931066506
1761469031484144600,6.69014453125,0.12546820814311505,0.03101999216377735,-0.052063364714384074
1761469031494127900,6.7001279296875,0.15607318976521492,0.040244039843976495,-0.03832067056596279
1761469031504110800,6.71011083984375,0.07637947532534599,0.061031976328790184,0.016548399218916893
1761469031514093800,6.72009375,0.06665653821229935,0.05499766460061073,0.00024608371555805207
1761469031524076800,6.730076904296875,0.04425298322439193,0.0036462475478649136,-0.05224924267530441
1761469031534059800,6.740059814453125,0.0012403554499149322,-0.032168285416066644,-0.09055997636914252
1761469031544042000,6.7500419921875,0.004326046505570411,-0.06401800640225411,-0.09435001630187034
1761469031554020900,6.760020751953125,0.05592296275198459,-0.11252397089600562,-0.05403320348262786
1761469031564003600,6.770003662109375,0.05284545500278472,-0.12582476649582386,-0.049773207950592036
1761469031573986800,6.77998681640625,0.020486323189735412,-0.13731529780328272,-0.015952186891436577
1761469031583969800,6.7899697265625,0.027534488135576247,-0.13204028000980614,-0.06917173590362072
1761469031593952800,6.799952880859375,0.033328853628039355,-0.13522738561332226,-0.07875204967558383
1761469031603935700,6.809935791015625,0.07102817742526531,-0.11151157898306846,-0.08486907125115394
1761469031613918700,6.819918701171875,0.07564648487567902,-0.11450023940503597,-0.09407470649182796
1761469031623902000,6.82990185546875,0.05505787035524845,-0.13148673778027295,-0.09581599720120429
1761469031633884700,6.839884765625,0.03250993846058845,-0.10737404078692198,-0.05485387221574783
1761469031643867000,6.849866943359375,0.01830488749742508,-0.10162877513319253,-0.03159165457189083
1761469031653849900,6.859849853515625,0.04406476717591285,-0.0997416462123394,-0.07710077533721924
1761469031663832600,6.86983251953125,0.07048164945840835,-0.0847352157384157,-0.09913023631572723
1761469031673815800,6.87981591796875,0.049102761343121526,-0.05834054528772831,-0.11322948881685733
1761469031683798800,6.889798828125,0.015410335099697112,-0.027663082951307295,-0.06888824278712272
1761469031693781800,6.89978173828125,0.002218260571360588,-0.009328677098453045,-0.02566168000102043
1761469031703764700,6.9097646484375,0.005624854144454002,-0.0003773088797926903,-0.0554781415939331
1761469031713747700,6.919747802734375,0.011302315258979796,-0.011756488767266272,-0.042539749565720555
1761469031723730700,6.929730712890625,0.015346622213721274,-0.024355273577570915,-0.0493868389815092
1761469031733714000,6.9397138671875,0.0431172571927309,-0.05011281516849994,-0.10935118607878684
1761469031743695600,6.949695556640625,0.052207157099246976,-0.053226271013915534,-0.12445230909883975
1761469031753678800,6.959678955078125,0.02246200717687607,-0.039326632738113404,-0.12352350381612777
1761469031763661800,6.969661865234375,-0.004158873245120048,-0.0292030058696866,-0.09469546873867511
1761469031773644800,6.979644775390625,0.008408931905031204,-0.06750994017124176,-0.09096388099491595
1761469031783627800,6.989627685546875,0.03546937278807163,-0.06423603306710719,-0.0998456911087036
1761469031793610800,6.99961083984375,0.04745031796097755,-0.06302753406018019,-0.0890489872843027
1761469031803594000,7.009593994140625,0.038733343020081516,-0.028100305324792862,-0.09189385532140731
1761469031813576700,7.01957666015625,0.04056932627558708,-0.03461071013212204,-0.07343933022022246
1761469031823559700,7.0295595703125,0.025516718572378156,-0.020262743566930294,-0.022680033841729164
1761469031833543000,7.03954296875,0.030445991668105122,-0.011190963838994502,-0.035282325783371926
1761469031843526000,7.04952587890625,0.06922668096125126,-0.028432021497189996,-0.07437807237505913
1761469031853507800,7.0595078125,0.07939619279801845,-0.025605858160555363,-0.11749942122101784
1761469031863490800,7.06949072265625,0.022533903369307516,0.0009399111986160278,-0.09209902250468731
1761469031873473800,7.079473876953125,0.028630466678738593,-0.01197363864928484,-0.09667875151038169
1761469031883456800,7.089456787109375,0.00978723452091217,-0.006334171457588672,-0.10055003998577594
1761469031893439700,7.099439697265625,0.004655132329463958,-0.00014466916769742964,-0.05247837525606155
1761469031903422700,7.109422607421875,0.035173020190000535,-0.02783639369159937,-0.03601999240815639
1761469031913405700,7.11940576171875,0.014205050963163376,-0.060733577904105183,-0.06931202115714549
1761469031923388700,7.129388671875,0.017451485538482664,-0.05416150603741407,-0.10048281996846198
1761469031933372000,7.139371826171875,0.05519757108688354,-0.058389352865517136,-0.12775310420989988
1761469031943353900,7.149353759765625,0.06399462552666664,-0.04741203177720308,-0.1463531752616167
1761469031953336800,7.1593369140625,0.0548117866396904,-0.03509761686623096,-0.12955752328336237
1761469031963319800,7.16931982421875,0.028212533527612684,-0.018277122707664965,-0.08051613673865794
1761469031973302800,7.179302734375,0.034056583380699154,-0.015111644414067267,-0.062165656533837314
1761469031983285800,7.18928564453125,0.0615606763780117,-0.026568565712869165,-0.10086334371864795
1761469031993268700,7.199268798828125,0.06458499263525008,-0.05350538021624088,-0.12831132261455058
1761469032003251700,7.209251708984375,0.04218436025679111,-0.05654109465032816,-0.08525660926401615
1761469032013235000,7.21923486328125,0.02676876446008682,-0.04671206681430339,-0.09210720581114291
1761469032023217700,7.2292177734375,0.009867898541688918,-0.06378185955882072,-0.06084346801936626
1761469032033200600,7.23920068359375,0.04288403295874595,-0.07107493917644024,-0.03670505206286907
1761469032043183900,7.249183837890625,0.0947697030186653,-0.07915186264812946,-0.03467559206187725
1761469032053165600,7.25916552734375,0.08513444418907165,-0.03750935418307781,-0.006571195083856582
1761469032063148800,7.269148681640625,0.07244681205153465,0.005089432093501091,-0.016387071177363394
1761469032073131800,7.2791318359375,0.028141221857070922,0.021644261053204536,-0.04139525570571422
1761469032083114800,7.28911474609375,0.0014361702829599379,0.04305968178659677,-0.09813011936247348
1761469032093097700,7.29909765625,-0.0005517886638641358,0.026670272521674632,-0.11416063218712806
1761469032103080700,7.309080810546875,0.040922377496957776,0.0035620763957500455,-0.10302022949159145
1761469032113064000,7.31906396484375,0.07485036606192588,-0.037870880971848965,-0.10851473525464535
1761469032123047000,7.329046875,0.061492287316918366,-0.09739157595485448,-0.09705226099789142
1761469032133029600,7.339029541015625,0.06613163755536079,-0.11219371602833271,-0.08704875337779522
1761469032143011800,7.34901171875,0.08570786016285419,-0.08767536084353923,-0.07425649182200432
1761469032152994800,7.358994873046875,0.09449848486185074,-0.046611821310222144,-0.11964169394671917
1761469032162977800,7.368977783203125,0.06857435453236102,-0.004318739981949329,-0.11130874988734721
1761469032172960800,7.378960693359375,0.035844635841250416,-0.0018465046495199202,-0.06592413228452206
1761469032182943700,7.38894384765625,0.029234862312674522,-0.011923077505826949,-0.07268120532929898
1761469032192927000,7.398927001953125,0.0571077886223793,-0.02376461420804262,-0.060893736901879304
1761469032202909700,7.40890966796875,0.07253215224742889,-0.03234218067824841,-0.05678805514872074
1761469032212892700,7.418892578125,0.10355448249876499,-0.04723199903517961,-0.118785953900218
1761469032222876000,7.4288759765625,0.03210661835670471,-0.03544160799831152,-0.09420154774188995
1761469032232858600,7.438858642578125,-0.008107903131842613,-0.05677694923281669,-0.06350771879255772
1761469032242840800,7.4488408203125,0.016842413729429243,-0.005651157629489898,-0.10324351685345172
1761469032252823800,7.45882373046875,0.05675006122589111,0.0028960137024521826,-0.12643851447999477
1761469032262806500,7.468806640625,0.058842065069079394,-0.012354454660415648,-0.1026689318358898
1761469032272789800,7.478789794921875,0.0369347691655159,-0.035084465123713014,-0.06553367166221141
1761469032282772700,7.488772705078125,0.028209610918164253,-0.03874649476259947,-0.010021043276786804
1761469032292756000,7.498755859375,0.08451192837655544,-0.0324859730631113,0.01655015278458595
1761469032302738700,7.50873876953125,0.08661270004808902,-0.028708500351011752,0.009580313771963118
1761469032312721700,7.5187216796875,0.04508826500475406,-0.04916735101193189,-0.030550036564469335
1761469032322705000,7.528704833984375,0.0528986464947462,-0.0478510077163577,-0.06614391251504421
1761469032332688000,7.53868798828125,0.07867138565480708,-0.039543198098242284,-0.08580547531843184
1761469032342669800,7.548669921875,0.06765022542476654,-0.030969723281264305,-0.13568798886239528
1761469032352652800,7.55865283203125,0.07675123124718666,-0.03609802608042955,-0.11751754139959812
1761469032362635800,7.5686357421875,0.04582183997631073,-0.0033721067816019057,-0.061460138612985604
1761469032372618800,7.57861865234375,0.04394903184175491,-0.024063889415562152,-0.032875849163532256
1761469032382601700,7.588601806640625,0.07076689614057541,-0.031683424508571624,-0.07415303144752979
1761469032392584700,7.598584716796875,0.080762220454216,-0.06624006636589765,-0.08547112879753112
1761469032402568000,7.60856787109375,0.0657780018121004,-0.06287585062980651,-0.09892097747921944
1761469032412550700,7.618550537109375,0.03363455857634544,-0.06319529184252023,-0.09264964212477207
1761469032422533600,7.62853369140625,-0.0010772738426923752,-0.07371990072727203,-0.056523851254582404
1761469032432516900,7.638516845703125,0.01288636958003044,-0.05314268438369035,-0.06068447806537151
1761469032442499800,7.648499755859375,0.03138005764782428,-0.04197948533445597,-0.10005611898899078
1761469032452481800,7.658481689453125,0.06521043105721473,-0.029581483793258666,-0.08054711639881133
1761469032462464800,7.66846484375,0.09610416649281978,-0.03666910396665334,-0.0664712447732687
1761469032472448000,7.678447998046875,0.10352233379483222,-0.04063771533668041,-0.05246434673070907
1761469032482430700,7.6884306640625,0.0908662658393383,-0.035702597022056574,-0.024567455023527144
1761469032492413700,7.69841357421875,0.06228957517445087,-0.004161795854568481,-0.027270868763327596
1761469032502397000,7.70839697265625,0.04346797032654285,0.007267945176362991,-0.013924480456113815
1761469032512380000,7.7183798828125,0.0464765044927597,0.0019648703321814534,-0.060256023520231246
1761469032522362600,7.728362548828125,0.0732727414816618,0.0029562194570899006,-0.10698796407878398
1761469032532345900,7.738345947265625,0.06625497167408466,-0.025044132624566555,-0.13820494011938572
1761469032542327800,7.748327880859375,0.07441255916655064,-0.033571722473204134,-0.15246902779340743
1761469032552310300,7.758310302734375,0.04445405875444412,-0.03450491167008877,-0.11832301256358622
1761469032562293000,7.76829296875,0.026417466804385184,-0.018355448640882968,-0.0923170491695404
1761469032572276200,7.778276123046875,0.05903963346779346,-0.03406388990432024,-0.048151159706711764
1761469032582259200,7.78825927734375,0.08410217853188515,-0.02829845824539661,-0.018258125746250152
1761469032592242200,7.7982421875,0.05457037909924984,-0.030440730971097944,-0.01469546482861042
1761469032602225200,7.80822509765625,0.04513561127781868,-0.02975333322882652,-0.012498247045278549
1761469032612208000,7.8182080078125,0.07339607560038566,-0.03535217614918947,-0.044378070908784865
1761469032622191000,7.828191162109375,0.055226212659478184,-0.014822306078672408,-0.06585574322342873
1761469032632174300,7.83817431640625,0.03992401410937309,-0.024200959798693654,-0.10903262164890766
1761469032642156000,7.848156005859375,0.05953589255213737,-0.020450375093519685,-0.13231003686189652
1761469032652139300,7.85813916015625,0.052688218614459034,-0.016308160722255705,-0.10566168391108512
1761469032662122200,7.868122314453125,0.06922551191747188,-0.0193082193210721,-0.06352700801491737
1761469032672105000,7.87810498046875,0.05608078366219997,-0.04070610439777374,-0.0382896909058094
1761469032682088200,7.888088134765625,0.06096212596297264,-0.0433069345459342,-0.05832827032804489
1761469032692071200,7.8980712890625,0.04862696052491665,-0.05133768078833818,-0.06174830790460109
1761469032702054100,7.90805419921875,0.10081482840180396,-0.05244388846457004,-0.10021978511810302
1761469032712037000,7.918037109375,0.07427987269759177,-0.051179859878122805,-0.10019991137385367
1761469032722020000,7.92802001953125,0.019798925447463988,-0.05220832614302635,-0.04703180028796196
1761469032732003300,7.93800341796875,0.06993336792588234,-0.03720540280044079,-0.04228255993425846
1761469032741985000,7.947985107421875,0.09270750979185104,0.03601151684075594,-0.04262684332728386
1761469032751968300,7.95796826171875,0.12149345929324626,0.055551791352033614,-0.06973229239583015
1761469032761951200,7.967951171875,0.07174187865257263,-0.010251344901323317,-0.11936872222423553
1761469032771934000,7.977933837890625,-0.012248071676492691,0.026960195378959176,-0.08383972820341587
1761469032781917200,7.987917236328125,-0.008467968615889549,0.036489071224629875,-0.11212415792346
1761469032791900200,7.997900146484375,0.046513913893699646,0.022446809607744214,-0.1420569393724203
1761469032801880000,8.007880126953125,0.06832476368546485,-0.012687047615647316,-0.1587275036662817
1761469032811863300,8.01786328125,0.05713467662930488,-0.03185731977075338,-0.14070435571968554
1761469032821846300,8.02784619140625,0.046746553605794904,-0.017515782946348188,-0.0840215145111084
1761469032831829000,8.0378291015625,0.03490355559885502,-0.01521481252759695,-0.050479310393333435
1761469032841812200,8.047812255859375,0.0218722245901823,-0.0017418752312660217,-0.0454658661454916
1761469032851795200,8.057795166015625,0.03366729180216789,0.0025648820519447325,-0.049990065571665764
1761469032861778200,8.067778076171875,0.06448503939211368,0.025089725331962107,-0.03523673307597637
1761469032871761200,8.07776123046875,0.0799041423201561,0.005630991624295712,-0.07551087579727173
1761469032881743000,8.0877431640625,0.08064648512005805,-0.00661094257235527,-0.09161094672679901
1761469032891726300,8.097726318359374,0.05993804361224174,-0.008088906170427798,-0.0732721569597721
1761469032901709000,8.107708984375,0.05713000045418739,-0.01682341676801443,-0.10792144553661345
1761469032911692000,8.117692138671876,0.04633972637057304,-0.031067338436841962,-0.07617956883907318
1761469032921675300,8.12767529296875,0.07371347098648548,-0.04371873021721839,-0.07743278377056122
1761469032931658000,8.137657958984375,0.08671148424744606,-0.060893736901879304,-0.07373685186207295
1761469032941641200,8.14764111328125,0.07692366520464419,-0.08738806833475828,-0.05129530295133591
1761469032951624200,8.157624267578125,0.017497662767767905,-0.08248246837556361,-0.04842763856053352
1761469032961607200,8.167607177734375,0.009461071306467056,-0.09626374096870421,-0.06827741741240025
1761469032971590100,8.177590087890625,0.041808512681722636,0.006315174496173858,-0.08184300142824649
1761469032981572000,8.187572021484375,0.05995557926893234,0.009309972397983073,-0.06724339818954467
1761469032991555300,8.197555419921875,0.048643911659717556,-0.025623101556301115,-0.10143091447353363
1761469033001538000,8.2075380859375,0.08016717717051505,-0.051479135085642336,-0.0984562825769186
1761469033011521000,8.21752099609375,0.04795651391744613,-0.06852817730307578,-0.07455459798574447
1761469033021504300,8.227504150390626,0.027512276303768155,-0.0797922063782811,-0.06422960332632065
1761469033031487200,8.2374873046875,0.036976270219683645,-0.06842179431915282,-0.06844225258529185
1761469033041470000,8.247469970703126,0.08003332165777682,-0.04030892177373171,-0.08796353013515472
1761469033051453200,8.257453125,0.06481880139112473,-0.045993689411878584,-0.11506839468181132
1761469033061436200,8.267436279296875,0.0715992553114891,-0.03197802354097366,-0.10534545756876468
1761469033071419100,8.277419189453125,0.06397358273863792,-0.012570727759599686,-0.09166530726253985
1761469033081401000,8.287401123046875,0.00918634601831436,0.002119184111058712,-0.05214812038838863
1761469033091384000,8.297384033203125,0.01307458562850952,0.009721183547377586,-0.0385381127089262
1761469033101367300,8.3073671875,0.05545008454322815,-0.0009381576329469681,-0.03851940800845623
1761469033111350000,8.31735009765625,0.04703706098496914,-0.019970774883031842,-0.05759527987837791
1761469033121333200,8.327333251953124,0.05148994874060154,-0.049611587648093695,-0.09447685755193233
1761469033131316200,8.337316162109374,0.07222878538668155,-0.08893325195014476,-0.0909878463923931
1761469033141299200,8.34729931640625,0.024312603479623794,-0.09402356082648038,-0.10262509269416331
1761469033151282200,8.3572822265625,0.032466683840751645,-0.05111322438269853,-0.12219839269220828
1761469033161265200,8.36726513671875,0.04166939647197723,-0.007287818920612334,-0.09363222342133522
1761469033171247400,8.377247314453125,0.042811552244424816,-0.013780395810306071,-0.11610767460167408
1761469033181230000,8.38722998046875,0.015441314759850501,0.004439736013114452,-0.10302724375426768
1761469033191213000,8.397213134765625,0.01784954494535923,-0.023468261609971522,-0.08515782506465912
1761469033201196300,8.4071962890625,0.031335049462318416,-0.037381636150181294,-0.052260933113098144
1761469033211179300,8.41717919921875,0.02715571795105934,-0.045860418421030044,-0.04278583328127861
1761469033221162000,8.427161865234375,0.03097206136882305,-0.03721826228201389,-0.05508008218705654
1761469033231145200,8.437145263671875,0.03269230929017067,-0.042403263704478736,-0.043057051438093186
1761469033241128200,8.447128173828125,0.033088615131378174,-0.027503216214478016,-0.09287234496474266
1761469033251111000,8.45711083984375,0.035920039165019985,0.0029509587600827216,-0.16001929704248904
1761469033261094100,8.46709423828125,0.0575128622919321,0.03645487669408321,-0.1356178462356329
1761469033271076000,8.477076171875,0.04481996945738792,0.003355447907745838,-0.11087035847008228
1761469033281059300,8.487059326171876,0.04621697677373886,-0.0393354005664587,-0.1298451080530882
1761469033291042000,8.4970419921875,0.010818915656208992,-0.03254237942546606,-0.10953647951781749
1761469033301025300,8.507025390625,0.006465981143712997,-0.0609463438719511,-0.03849544261097908
1761469033311008300,8.51700830078125,0.03231003197431564,-0.11930851646959781,-0.07828969286084175
1761469033320991000,8.526990966796875,0.06329670639038086,-0.1056076156362891,-0.10599544591009616
1761469033330974200,8.53697412109375,0.07770400192737578,-0.06458791524469852,-0.10886720195412636
1761469033340957200,8.546957275390625,0.07784954787790775,0.04487871390730142,-0.05746317793130874
1761469033350940200,8.556940185546875,0.06963292367458343,0.08145955506861209,-0.0742699358254671
1761469033360923100,8.566923095703125,0.006128127491474151,0.08169424060732126,-0.0923825156211853
1761469033370905000,8.576905029296874,-0.03183715376555919,0.044640228976309294,-0.08658756560683249
1761469033380888300,8.586888427734374,-0.003122515934705734,0.017873218081891535,-0.1062596498042345
1761469033390871000,8.59687109375,-0.006322773280739784,-0.022287819653749465,-0.11450783818960189
1761469033400857000,8.606857177734375,0.010230302113294601,-0.04540829073935747,-0.11396247926652431
1761469033410840000,8.616840087890624,0.06238543676435947,-0.06538724892884493,-0.12349252415597438
1761469033420823000,8.626822998046874,0.07720657379925251,-0.04284896164536476,-0.1062421141475439
1761469033430805200,8.63680517578125,0.05456628744602203,-0.012447685901820658,-0.07813654812574386
1761469033440788000,8.6467880859375,0.06956921078860759,-0.0002986906856298446,-0.057310033196210856
1761469033450771200,8.656771240234375,0.0826221691071987,0.022205402067303655,-0.08931202213466168
1761469033460754200,8.666754150390625,0.05263268903493881,0.031105040098726746,-0.0865700299501419
1761469033470737200,8.676737060546875,0.0518576130092144,0.007404723298549651,-0.07204466099143028
1761469033480720100,8.68672021484375,0.0389607220351696,-0.024316402871906756,-0.07434943080246448
1761469033490703000,8.696703125,-0.003729834178090095,-0.02830605702996254,-0.06375614059567451
1761469033500686000,8.70668603515625,-0.044157121634483334,-0.017666005071997642,-0.13624679178893565
1761469033510669300,8.71666943359375,0.2350713231563568,-0.022212416329979896,-0.15187106190025806
1761469033520651000,8.726651123046874,-0.06618132191598415,-0.06553367166221141,-0.1146031152576208
1761469033530634200,8.73663427734375,-0.21526655248999593,0.031875147688388825,-0.15336977602541446
1761469033540617200,8.7466171875,-0.00393266327381134,-0.07516630014330149,-0.11875731232762336
1761469033550600000,8.756599853515626,0.0393657957047224,-0.09767886846363544,-0.04110474832653999
1761469033560583000,8.7665830078125,0.028735680618882178,-0.08591624221652745,-0.04382569772303104
1761469033570566000,8.77656591796875,0.09872925429940223,-0.0489838111385703,-0.06522153697311878
1761469033580549000,8.786549072265625,0.1418435888826847,0.034795126788318156,-0.041997313252091405
