time,seconds_elapsed,z,y,x
1761468902056775400,0.119775390625,0.10789923370480536,-0.0791892720490694,-0.07598901470303535
1761468902066758400,0.12975830078125,0.07371464003026484,-0.07783113543838262,-0.07536649889051913
1761468902076741000,0.1397412109375,0.07234159811139107,-0.06961977193206548,-0.057338090246915815
1761468902086723300,0.149723388671875,0.09643792849183082,-0.0527507624566555,-0.028002105647325515
1761468902096706300,0.159706298828125,0.058690089377760886,-0.04116320051550865,-0.005115735578536987
1761468902106689300,0.169689208984375,0.0843394944190979,-0.03303776172697544,-0.014371055179834365
1761468902116671200,0.179671142578125,0.06473813737034798,-0.05003887314945459,-0.07848843030333519
1761468902126654500,0.189654541015625,0.014892448705434798,-0.05064794495850801,-0.0983423008084297
1761468902136637200,0.19963720703125,0.050910687547922134,-0.07755056493133305,-0.12074760936200618
1761468902146619400,0.209619384765625,0.04220715661048889,-0.11125175900310277,-0.10558043536841868
1761468902156602400,0.219602294921875,0.05018997205793857,-0.11834756248295307,-0.11262333961725235
1761468902166585000,0.229585205078125,0.06993395244777202,-0.10527005424499511,-0.09064122491180897
1761468902176567300,0.2395673828125,0.04946633395850658,-0.08540273973643779,-0.07211188100874423
1761468902186550300,0.24955029296875,0.02080138048827648,-0.05875614035129547,-0.061675827190279954
1761468902196533200,0.259533203125,0.07931669782102108,-0.044542321559786796,-0.04109364241063595
1761468902206516200,0.26951611328125,0.07833002487123011,-0.05016746796518564,-0.03730886317491531
1761468902216498400,0.27949853515625,0.07204583003520965,-0.03783960905075073,-0.029234277790784833
1761468902226481200,0.289481201171875,0.09514730415940284,-0.01992781252413988,-0.03842939163744449
1761468902236464400,0.29946435546875,0.07482406257688999,-0.058440790791809555,-0.06113572896420955
1761468902246446300,0.3094462890625,0.08475450496077537,-0.07174538578391075,-0.07204290742576122
1761468902256429300,0.31942919921875,0.10624094510376453,-0.02730038711875677,-0.06703940005004405
1761468902266412300,0.329412353515625,0.08384849603176116,-0.031841245418787,-0.0734030898630619
1761468902276394200,0.339394287109375,0.10221768093705176,-0.03288520151376724,-0.09591945757567882
1761468902286377200,0.349377197265625,0.07927811937630176,-0.05977145487368107,-0.09310732276439666
1761468902296360200,0.359360107421875,0.12485212207138538,-0.03655161506682634,-0.0749409669548273
1761468902306342400,0.36934228515625,0.1151999121069908,-0.018395196129381657,-0.044703065079450606
1761468902316325000,0.3793251953125,0.09747077867090702,-0.019589082089066505,-0.0531254409879446
1761468902326308400,0.389308349609375,0.10117898553907871,-0.006201192727684974,-0.054178749433159826
1761468902336291300,0.399291259765625,0.10268705201447009,-0.001273088675737381,-0.08343173192441462
1761468902346273300,0.409273193359375,0.07058043365776538,0.020792904920876026,-0.07805588410496711
1761468902356256300,0.41925634765625,0.09482873972952366,0.02483984222412109,-0.08253215273618697
1761468902366239200,0.4292392578125,0.09495558097958565,-0.008348726150393485,-0.04964928930997848
1761468902376221200,0.43922119140625,0.07999649677872657,0.004278700232505798,-0.030866262906789777
1761468902386204200,0.4492041015625,0.09103519266545772,-0.0011047463715076445,-0.02843056019246578
1761468902396187400,0.4591875,0.12919219710230825,-0.054419280190765855,-0.05435235243439674
1761468902406169000,0.469169189453125,0.156487031263113,-0.05454933631122112,-0.047860652327537535
1761468902416152300,0.47915234375,0.007598784565925598,-0.024846271964907643,-0.047722705161571496
1761468902426139100,0.48913916015625,0.10909633453488349,-0.01531418124884367,-0.06385200218558311
1761468902436121000,0.49912109375,0.08565817580223083,0.03681874157041311,-0.06675532241165638
1761468902446104000,0.50910400390625,0.037788755646347996,-0.023968320086598396,-0.08138999696373939
1761468902456087000,0.519087158203125,0.1382055246412754,-0.11816226904392242,-0.056795069411396976
1761468902466069000,0.529069091796875,-0.06198854640126228,-0.004624444930255413,-0.09330956733822822
1761468902476052000,0.539052001953125,-0.02578852125108242,-0.020852526153624058,-0.013999883779883385
1761468902486035200,0.54903515625,0.1636497624993324,-0.10675357080101966,-0.04173661648929119
1761468902496018200,0.55901806640625,0.07800093904733657,-0.076966919824481,-0.09873334595263003
1761468902506000100,0.569000244140625,0.04291209000945091,-0.05593903710395098,-0.02853694317638874
1761468902515983000,0.578983154296875,0.08789631011784076,-0.08041121505945921,-0.06364975761175155
1761468902525966000,0.588966064453125,0.1203150631636381,-0.036416882771253586,-0.11900514960885047
1761468902535948000,0.598947998046875,0.09187339705526829,-0.06935264542847872,-0.12413374466896056
1761468902545931000,0.608930908203125,0.06063654727041721,-0.04714373622983694,-0.11266074901819229
1761468902555914200,0.618914306640625,-0.04732406123280525,-0.00570727173089981,-0.05544599289000034
1761468902565896000,0.62889599609375,0.06116144792735576,-0.09778875857889652,-0.0627589462518692
1761468902575879200,0.638879150390625,0.14665654212236404,-0.10985562846958637,-0.03674947572648525
1761468902585862100,0.648862060546875,-0.053796472117304796,-0.08093670023828745,-0.01781505815386772
1761468902595844000,0.658843994140625,0.018719898039102553,-0.07385083363056183,-0.03637538171708583
1761468902605827000,0.6688271484375,0.12698387340307235,-0.015666355687379837,0.0014046061009168624
1761468902615810000,0.67881005859375,0.11958616436719893,-0.1352086809128523,-0.1250900224804878
1761468902625793000,0.68879296875,0.08066928147375584,-0.08703004867732525,-0.13926643187105656
1761468902635775000,0.69877490234375,0.04926818103790283,-0.06964899802654981,-0.09354396061599254
1761468902645758200,0.70875830078125,0.03475041086375713,0.013076631455123423,-0.06945873615145683
1761468902655741000,0.718740966796875,0.0018190321207046509,0.047642625662684436,-0.04320318191051483
1761468902665723100,0.72872314453125,0.1104337206184864,-0.09641805474758147,-0.05473462975025176
1761468902675706000,0.7387060546875,-0.023297288957238194,-0.02167904010564089,-0.1359966164201498
1761468902685689000,0.748689208984375,-0.02287935580611229,-0.06997545350193977,-0.08868541466891765
1761468902695671000,0.758671142578125,0.14170447267293929,-0.13227671911418437,-0.11557868229150771
1761468902705654300,0.768654296875,-0.0407908600717783,-0.01606529187709093,-0.0918634601831436
1761468902715637000,0.778636962890625,0.017916764962673186,-0.05192454076558351,-0.03816284965574741
1761468902725619200,0.788619140625,0.12351122885644435,-0.06756225488036871,-0.0810544813990593
1761468902735602200,0.798602294921875,0.12687339876592157,-0.09859890591800212,-0.10871405721902846
1761468902745585200,0.808585205078125,0.05877952122688293,-0.09958207173645496,-0.09324760801792144
1761468902755567000,0.818567138671875,0.04821428807079792,-0.07900690121948718,-0.0941863501727581
1761468902765550000,0.828550048828125,0.03902092778980732,-0.05659691649079322,-0.08881459400653839
1761468902775533300,0.838533203125,0.03392915760874748,-0.030546529433131218,-0.08262801432609558
1761468902785516000,0.84851611328125,0.038680736050009726,-0.05974661269336939,-0.09678513449430465
1761468902795498200,0.858498291015625,0.06803600987195968,-0.05877250696420669,-0.09313830242455005
1761468902805481200,0.868481201171875,0.05693827727437019,-0.05053863936513662,-0.09096329647302627
1761468902815464000,0.8784638671875,0.049103345865011215,-0.06380582495629787,-0.09652385320961475
1761468902825446100,0.888446044921875,0.06689677670896053,-0.05611293236613273,-0.0805184748262167
1761468902835429000,0.89842919921875,0.04559855261445045,-0.07296908235996961,-0.08928162699639797
1761468902845412000,0.908412109375,0.08756079455316067,-0.014839841735363006,-0.06592880845963954
1761468902855394000,0.91839404296875,0.05740472574234008,0.05120031814426183,0.014282207852602005
1761468902865377300,0.928377197265625,0.10219956075847149,-0.010644143611192702,-0.03535480649769306
1761468902875360000,0.938360107421875,0.11500643536150455,0.000732113666832447,-0.04652385076582431
1761468902885342200,0.94834228515625,0.06063946987986564,0.02793693145662546,-0.059091655915975566
1761468902895325200,0.9583251953125,0.10337620332241058,-0.04496463862508535,-0.1210603285729885
1761468902905308000,0.968307861328125,0.07607084776759147,-0.00039250644892454146,-0.05934475389420986
1761468902915290000,0.9782900390625,0.06822890209555625,-0.010543313585221767,-0.0817120685249567
1761468902925273000,0.988273193359375,0.08749532810151577,-0.03142418905049562,-0.06997779158949852
1761468902935256000,0.998256103515625,0.053605333459377284,-0.06395429351627827,-0.08845160591304302
1761468902945239000,1.008239013671875,0.10421791484355926,-0.07326923435032368,-0.0802875886797905
1761468902955221200,1.01822119140625,0.09513210659027099,-0.06996522436887026,-0.07506430107355118
1761468902965204000,1.028203857421875,0.027574235624074933,-0.0405336704403162,-0.054573886230587954
1761468902975187000,1.03818701171875,0.02808160062432289,-0.04084609739035368,-0.07764379617273807
1761468902985169200,1.048169189453125,0.0356710328400135,-0.02221972285360098,-0.08216565751135349
1761468902995152000,1.05815185546875,0.055880292654037475,0.0006084872871637344,-0.05340484245121479
1761468903005135000,1.068135009765625,0.05370587122440338,-0.036164661575853824,-0.04963935243785381
1761468903015117000,1.078116943359375,0.054423664104938506,-0.07300649176090955,-0.04423427852392196
1761468903025100000,1.08810009765625,0.08715162923038006,-0.05687076499611139,-0.0012380173623561857
1761468903035083000,1.0980830078125,0.09852642520368099,-0.057499710549414156,-0.02982055324614048
1761468903045065200,1.108065185546875,0.052035892185568804,-0.05689531491547822,-0.08808511068820953
1761468903055048000,1.1180478515625,0.04568973802924156,-0.05487111561149358,-0.13610826010107993
1761468903065031200,1.12803125,0.05167231957018375,-0.03833937526643276,-0.1692664333373308
1761468903075013000,1.13801318359375,0.015509119299054144,-0.03574643616378307,-0.18878771088719368
1761468903084996000,1.14799609375,0.006299976927042007,-0.024100714294612406,-0.1447492471963167
1761468903094979000,1.15797900390625,0.047834933364391326,-0.06165829153358936,-0.1304278763771057
1761468903104961300,1.167961181640625,0.04356090930700302,-0.012897183234989642,-0.033275662136077876
1761468903114944000,1.177944091796875,0.03588321428596973,-0.029524785169959065,-0.04432721750438213
1761468903124927000,1.187927001953125,0.06931961994171142,-0.04551496598422527,-0.03048749272227287
1761468903134910200,1.19791015625,0.09051263009607792,-0.0630640666782856,-0.014023264655470847
1761468903144892000,1.207891845703125,0.06835048264861106,-0.03165244484841823,-0.030351299121975896
1761468903154875100,1.217875244140625,0.05714169089198112,-0.0525873885884881,-0.059545244902372355
1761468903164858000,1.227858154296875,0.07111001048982143,-0.03702127840518951,-0.04365209472179413
1761468903174840000,1.237840087890625,0.07906535340845584,-0.02122106720507145,-0.06236556302011013
1761468903184823000,1.247822998046875,0.08132920668721198,-0.027395079664885996,-0.07898527390956878
1761468903194806000,1.257805908203125,0.05558920075297355,-0.0071019409596920005,-0.07675240029096603
1761468903204788000,1.2677880859375,0.05337736992239952,0.014442659111320972,-0.0772808080792427
1761468903214771000,1.27777099609375,0.01939852795302868,-0.0010644143611192702,-0.08003799783289432
1761468903224754200,1.287754150390625,0.008849076887965202,-0.012240180630981921,-0.07335749715566635
1761468903234735900,1.29773583984375,0.03017594255506992,-0.03147416567206383,-0.07625614120662212
1761468903244719000,1.307718994140625,0.06607552345395087,-0.04461217192560434,-0.06548340277969837
1761468903254702000,1.3177021484375,0.0729500853985548,-0.05014233352392912,-0.09943594126403331
1761468903264684300,1.327684326171875,0.027733225578069686,-0.060761927215754984,-0.13840484660565852
1761468903274667000,1.3376669921875,0.02769464713335037,-0.08056406753361224,-0.12134265264570712
1761468903284650000,1.34764990234375,0.07304770055413246,-0.08117167803794145,-0.09877718509435653
1761468903294632200,1.357632080078125,0.1461743115633726,-0.09341565806120633,-0.09144377346634865
1761468903304615000,1.367614990234375,0.09646715458631515,-0.0595388151615858,-0.04015490025579929
1761468903314598100,1.37759814453125,0.025089433071017263,-0.06369242770969867,-0.04946282682716846
1761468903324580000,1.387580078125,0.010769231295585631,-0.060272390133142464,-0.0961293009340763
1761468903334563000,1.39756298828125,0.034893034204840655,-0.009008066841959953,-0.09413608129024505
1761468903344546000,1.407546142578125,0.052527475094795224,-0.018135083888471126,-0.09120061236023902
1761468903354529000,1.417529052734375,0.09319850817918778,0.016445815627276896,-0.06361468629837036
1761468903364511000,1.427510986328125,0.11314181053340434,0.029629122327268123,-0.02018880154788494
1761468903374494000,1.437493896484375,0.07886603144407271,0.023875965628027913,-0.035975568744540214
1761468903384477200,1.447477294921875,0.06327566360235214,-0.004707154777646065,-0.08097673998773097
1761468903394459100,1.457459228515625,0.037219431325793265,-0.014514263042807578,-0.08356441839337349
1761468903404442000,1.467442138671875,0.04059679880440235,-0.029959669455885886,-0.08534604111313819
1761468903414425000,1.477425048828125,0.08123919031620025,-0.06039893912225961,-0.11216156732439994
1761468903424403500,1.487403564453125,0.12806406985521315,-0.06711363433003426,-0.08830547544062137
1761468903434386400,1.497386474609375,0.10260580347180366,-0.051020869924128055,-0.033547464814782144
1761468903444369700,1.50736962890625,0.06630816316604614,-0.04153115704506635,-0.039247722283005715
1761468903454351400,1.517351318359375,0.085428458699584,-0.06726005706340074,-0.061050973290205
1761468903464334600,1.52733447265625,0.10830372285246849,-0.05988163724988699,-0.06518763470351696
1761468903474317600,1.537317626953125,0.08167056747078895,-0.020562895557284355,-0.034113866525888444
1761468903484299800,1.5472998046875,0.05775310078859329,0.013805822512507438,-0.018159926068782806
1761468903494282500,1.557282470703125,0.05378361263573169,0.009595803602039814,-0.05256429997384548
1761468903504265500,1.567265380859375,0.0402285500138998,-0.018851415464282036,-0.08507833008766173
1761468903514247700,1.57724755859375,0.04489478825926781,-0.0228024911776185,-0.13772504764795301
1761468903524230400,1.58723046875,0.03776829738020897,-0.05238572853654623,-0.1520171923726797
1761468903534213600,1.597213623046875,0.021813772401213644,-0.06990852574557066,-0.12100187638401984
1761468903544195600,1.607195556640625,0.02706803966760635,-0.06860211932212114,-0.06458499263525008
1761468903554178600,1.617178466796875,0.05726093335747719,-0.07725479685515164,-0.025530747097730636
1761468903564161500,1.62716162109375,0.13040098837018013,-0.08097703224867582,-0.037621582385897634
1761468903574144500,1.63714453125,0.11603519388735294,-0.06601093378514052,-0.07043021153211593
1761468903584126500,1.64712646484375,0.07785247048735618,-0.040519934175908566,-0.09267068491280078
1761468903594109400,1.657109375,0.08231529511511325,-0.052066871845722194,-0.1059375782430172
1761468903604092700,1.6670927734375,0.06637362961769104,-0.04579086031615734,-0.0968090998917818
1761468903614074400,1.677074462890625,0.06452303331494331,-0.01904459994882345,-0.07014613389372826
1761468903624057600,1.6870576171875,0.07840425915122032,0.010410919377207756,-0.0335971491754055
1761468903634040600,1.69704052734375,0.04127776680588722,0.011886544887721538,-0.03629939387142658
1761468903644022500,1.7070224609375,0.012760112851858138,-0.012031214055418968,-0.07650280944406986
1761468903654005500,1.717005615234375,0.04638590359985828,-0.033739480255544185,-0.08464403032362461
1761468903663988500,1.726988525390625,0.11456395229101181,-0.04484773424714803,-0.09884791224300861
1761468903673970400,1.736970458984375,0.09373802188336848,-0.05975362695604562,-0.09685936877429485
1761468903683953400,1.746953369140625,0.07639408837258815,-0.050746436896920204,-0.07066109767854213
1761468903693936600,1.7569365234375,0.08964870674312114,-0.033681320327520366,-0.03728431325554848
1761468903703918300,1.76691845703125,0.07152151390016079,-0.004094868098199368,-0.038080432069301604
1761468903713901600,1.776901611328125,-0.016650690549612043,0.004457563930749893,-0.04840776481628418
1761468903723884500,1.786884521484375,-0.0431260250210762,-0.011170797833800315,-0.0620224486708641
1761468903733866500,1.796866455078125,0.05067804783582687,-0.0365296954959631,-0.09300736952126025
1761468903743849500,1.806849365234375,0.1373608905106783,-0.06079904435575008,-0.11501812579929828
1761468903753832700,1.816832763671875,0.10254384415149688,-0.01800941168218851,-0.08921265341341494
1761468903763814400,1.826814453125,0.005820084455609322,-0.007496493235230445,-0.08391454700529574
1761468903773797600,1.836797607421875,0.01284369948208332,-0.02769201678484678,-0.11769757414162159
1761468903783780600,1.846780517578125,0.07640636333227158,-0.007609013698995113,-0.10709434706270694
1761468903793763600,1.856763671875,0.0825005885541439,-0.01480477042198181,-0.089703067278862
1761468903803745500,1.86674560546875,0.10972528008818626,-0.011206453669071198,-0.06669044048190116
1761468903813728500,1.876728515625,0.11342121199667453,0.01688654513210058,-0.06055822133719921
1761468903823711700,1.886711669921875,0.05550970577597618,0.0323380890250206,-0.07474982829689979
1761468903833693400,1.896693359375,0.06322597924172878,0.008940554563701152,-0.10547405238449573
1761468903843676700,1.9066767578125,0.06465630430579185,-0.0029620646759867665,-0.08499415893554688
1761468903853659600,1.91665966796875,0.02945756515264511,0.02762450450658798,-0.06081599549055099
1761468903863641600,1.9266416015625,0.11380699644386767,0.036490824790298935,-0.07334288410842418
1761468903873624600,1.93662451171875,0.09322422714233398,0.029799218197166917,-0.06084697515070438
1761468903883607600,1.946607666015625,0.13571546139121055,0.043964521671831604,-0.07634791114330292
1761468903893589500,1.956589599609375,0.11305004059672355,0.019703648379445073,-0.09830313784182071
1761468903903572500,1.966572509765625,0.06802081230282783,-0.017514321641623972,-0.11608604729175567
1761468903913555700,1.9765556640625,0.04006546840667724,-0.045886137384176254,-0.0954319663196802
1761468903923537400,1.986537353515625,0.06584405278563499,-0.021726970900595187,-0.10153379032611846
1761468903933520600,1.996520751953125,0.06907353622615336,0.005219195953011513,-0.07498539061844349
1761468903943503600,2.006503662109375,0.05922843403816223,0.0017906828090548514,-0.0896288329988718
1761468903953485600,2.016485595703125,0.07200725159049033,-0.002870294739305973,-0.0948135421603918
1761468903963468500,2.026468505859375,0.07574936072826385,-0.02437982349693775,-0.05510054045319557
1761468903973451500,2.036451416015625,0.08764321213960648,-0.01986906807422638,-0.04850479544997215
1761468903983433500,2.04643359375,0.10062544330954551,-0.056119946628808974,-0.06317161870598792
1761468903993416400,2.05641650390625,0.07215045945346354,-0.09903028307259082,-0.10930734693706035
1761468904003399700,2.066399658203125,-0.010600304469466209,-0.08171236078590154,-0.13385200560688973
1761468904013381400,2.07638134765625,0.0021826047360897064,-0.07961568076759576,-0.1253653322905302
1761468904023364600,2.086364501953125,0.025589783808588982,-0.052469899688661094,-0.10899521224796771
1761468904033347600,2.09634765625,0.059600189960002894,-0.03461801665574312,-0.07276011578440665
1761468904043329500,2.10632958984375,0.06643441989421844,-0.05502455260753631,-0.09274258110523223
1761468904053312500,2.1163125,0.061171384799480436,-0.07073913135081529,-0.09813830266892909
1761468904063295500,2.12629541015625,0.04468260681331158,-0.04100245699584484,-0.0631774639248848
1761468904073277400,2.13627734375,0.028345804518461224,-0.04452449364215135,-0.05381050064265728
1761468904083260400,2.146260498046875,0.022198972326517102,-0.07186784311980009,-0.0355664034217596
1761468904093243600,2.15624365234375,0.040860418176651,-0.06865969472825527,-0.026585224586725232
1761468904103226600,2.1662265625,0.06525660828649997,-0.06736117935031652,-0.033790625920891756
1761468904113208600,2.17620849609375,0.03465104214251041,-0.08449147011041641,-0.09983458519279956
1761468904123191600,2.186191650390625,-0.003958966758847236,-0.10889818161427973,-0.1458124925136566
1761468904133174800,2.1961748046875,0.012682371440529822,-0.10772212357223034,-0.15649404552578924
1761468904143156500,2.206156494140625,0.02025017634630203,-0.07767126870155334,-0.16244155575335026
1761468904153139700,2.2161396484375,0.036625557085871695,-0.04393149618506431,-0.11761281846761702
1761468904163122700,2.226122802734375,0.037978725260496136,-0.04293810123354196,-0.06324819107353687
1761468904173104600,2.236104736328125,0.022327567142248154,-0.08112520854771137,-0.04199029898941516
1761468904183087600,2.246087646484375,0.039753333717584605,-0.09183335730582474,-0.013425883284211158
1761468904193070600,2.256070556640625,0.0993055928826332,-0.11707564285099506,-0.03949555956423283
1761468904203052500,2.266052490234375,0.08366554068028927,-0.11558423524945974,-0.08402034546732902
1761468904213035500,2.276035400390625,0.04773030394613743,-0.09735825820714235,-0.10280395639240741
1761468904223018800,2.286018798828125,-0.0006844751328229904,-0.09202128109335898,-0.10638298392295836
1761468904233000400,2.29600048828125,-0.019126725274324415,-0.0818558609098196,-0.08632277719080447
1761468904242983700,2.305983642578125,0.0006575871258974075,-0.08271832295805215,-0.09157587541341781
1761468904252966700,2.315966552734375,0.007250409519672393,-0.05426321284621954,-0.07947334968745708
1761468904262948600,2.325948486328125,0.018784779968857763,-0.03215191880315542,-0.05126783042252064
1761468904272931600,2.335931640625,0.051010640791058534,-0.025537176838517188,-0.044811201629042625
1761468904282914600,2.34591455078125,0.08648001357913017,-0.025821838998794554,-0.039998248389363285
1761468904292896500,2.355896484375,0.04266074559688568,-0.04796937339901924,-0.04623334338665008
1761468904302879500,2.36587939453125,0.031090719312429425,-0.031245325352251527,-0.050312721654772755
1761468904312862700,2.37586279296875,0.06231763222515583,-0.023827158050239085,-0.04668225619792938
1761468904322844400,2.385844482421875,0.07036357603669166,-0.02563596103787422,-0.08089490692317486
1761468904332827600,2.39582763671875,0.07797638912796974,-0.018287644101679323,-0.07291209147572517
1761468904342810600,2.405810546875,0.06620470279157162,-0.03715513391792774,-0.04715454988479614
1761468904352792600,2.41579248046875,0.07683131074607372,-0.0522694086804986,-0.056979778328537935
1761468904362775600,2.425775634765625,0.0901250920832157,-0.02975391775071621,-0.059543491336703294
1761468904372758500,2.435758544921875,0.06223404559493065,-0.021485855621099472,-0.06741700119078159
1761468904382741500,2.445741455078125,0.028034838873147963,-0.04162906446158886,-0.11946809094548225
1761468904392723500,2.455723388671875,0.03620645489096641,-0.050260114684700964,-0.12166355516314506
1761468904402706700,2.465706787109375,0.04504384134113788,-0.035211306373775,-0.11133797598183154
1761468904412689400,2.475689453125,0.05891396126151085,-0.03443330773860216,-0.08629822727143764
1761468904422670800,2.4856708984375,0.06666822865009307,-0.04569090707302093,-0.034950317350029944
1761468904432653800,2.49565380859375,0.12134206812381744,-0.046990006972849364,-0.023062895679473876
1761468904442636800,2.50563671875,0.0944604909390211,-0.02797697120606899,-0.07170096212029457
1761468904452618800,2.51561865234375,0.016162614771723746,-0.016181027211248873,-0.07507774507701397
1761468904462602000,2.52560205078125,0.018252280527353285,-0.0254015677601099,-0.09570318447649478
1761468904472584700,2.535584716796875,0.07557166607379913,-0.022652853573858735,-0.1090174240797758
1761468904482567000,2.54556689453125,0.09075520668029785,-0.009000175796449184,-0.12551613893806934
1761468904492550000,2.5555498046875,0.0845218652486801,-0.029302959112823008,-0.10413432821333407
1761468904502532600,2.56553271484375,0.09810849205255508,-0.031982115194201466,-0.06323474707007408
1761468904512514800,2.575514892578125,0.12759236069023608,-0.027330197735130787,-0.04684533780515194
1761468904522497800,2.585497802734375,0.10142156212329864,-0.017518121033906934,-0.06509118859171867
1761468904532480800,2.595480712890625,0.044450551623106,-0.03880231660306453,-0.083598905184865
1761468904542462700,2.605462646484375,0.04732756836414337,-0.0032756606698036194,-0.06917056685984134
1761468904552446000,2.615446044921875,0.054882513788342475,-0.02995850041210651,-0.07172317395210266
1761468904562428700,2.6254287109375,0.07367723062932491,-0.007852759326994418,-0.07568389427661895
1761468904572411000,2.635410888671875,0.08840601320564746,-0.00803308432996273,-0.011864625316858292
1761468904582393900,2.645393798828125,0.09114449825882912,-0.04263298080712557,-0.018724574214220045
1761468904592376800,2.655376953125,0.10911562375724315,-0.06057780282050371,-0.02528174077272415
1761468904602358800,2.66535888671875,0.11508943746984004,-0.03878507320731878,-0.018999884024262427
1761468904612341800,2.675341796875,0.05330196659862995,-0.0567830867126584,-0.041427404409646984
1761468904622324700,2.68532470703125,0.063926820987463,-0.055018415127694606,-0.05049041630923748
1761468904632306700,2.695306640625,0.09934124871790409,-0.016821370941400526,-0.09827274270355701
1761468904642290000,2.7052900390625,0.10373802237212658,-0.027980770598351953,-0.13911562522351742
1761468904652272600,2.715272705078125,0.09786533094644546,-0.02431523382812738,-0.12129647541642188
1761468904662254800,2.7252548828125,0.07266133158504963,-0.03537175763249397,-0.08544190270304679
1761468904672237800,2.73523779296875,0.06991817035675048,-0.0398342899993062,-0.07207797873914241
1761468904682220800,2.745220703125,0.057117140972614285,-0.05482903003543615,-0.045747021174430844
1761468904692202800,2.75520263671875,0.07267945176362992,-0.07707534863501787,-0.03282382671535015
1761468904702186000,2.76518603515625,0.07493219912648201,-0.0976043419227004,-0.01789747574031353
1761468904712168700,2.775168701171875,0.09225976602435111,-0.07158551904708146,-0.04955518128573894
1761468904722151700,2.785151611328125,0.11526771664619445,-0.059466042186319824,-0.05880524019002914
1761468904732134000,2.7951337890625,0.07232581602036953,-0.03455401150882244,-0.05947510227560997
1761468904742116600,2.80511669921875,0.025813071170449255,-0.030245208398997782,-0.048153497794270514
1761468904752099800,2.815099853515625,0.05343582211136818,-0.030482524286210535,-0.055446577411890026
1761468904762081800,2.825081787109375,0.09128361446857453,-0.009153905053436755,-0.08590133690834045
1761468904772064800,2.835064697265625,0.0420674558788538,-0.012430150245130061,-0.0851630857616663
1761468904782047700,2.8450478515625,0.044475101542472834,-0.04419774590581655,-0.10602759461402893
1761468904792030000,2.855030029296875,0.07232932315170765,-0.03312514774948358,-0.05621522369682788
1761468904802012700,2.8650126953125,0.1272170976370573,-0.03519230941236019,-0.0024988310784101486
1761468904811995600,2.87499560546875,0.1365758776128292,-0.015650573596358297,-0.03503858015537262
1761468904821977900,2.884977783203125,0.0798339996933937,0.012235796716809272,-0.040212183400988574
1761468904831960600,2.894960693359375,0.07447393396496772,-0.01718932747095823,-0.07316869658529758
1761468904841943800,2.90494384765625,0.09963117157518864,-0.057581543613970276,-0.10637596966028214
1761468904851925800,2.91492578125,0.10821253743767738,-0.06674801588803529,-0.1391904440253973
1761468904861908700,2.92490869140625,0.04252279843091965,-0.0630567601546645,-0.09609656770825385
1761468904871891700,2.9348916015625,0.05575520496964454,-0.034595512562990184,-0.024048984107375142
1761468904881874000,2.9448740234375,0.07945172237753868,-0.01826777035742998,-0.015229717835783958
1761468904891857000,2.95485693359375,0.06426292107403278,0.0062307110831141465,-0.024002222356200215
1761468904901839600,2.964839599609375,0.038870705664157866,0.005490998631715774,-0.08763093717992305
1761468904911821800,2.97482177734375,0.05343932924270629,-0.018098551270365713,-0.09596271219551562
1761468904921804800,2.9848046875,0.0901297682583332,-0.05945376722663641,-0.1289993048787117
1761468904931787800,2.994787841796875,0.0770762254178524,-0.08233224624991417,-0.1149824699640274
1761468904941769700,3.004769775390625,0.0386380659520626,-0.04701426463127136,-0.05134966348707676
1761468904951753000,3.0147529296875,0.06684767687022686,-0.042722704917192454,-0.014969605594873427
1761468904961735700,3.024735595703125,0.09072890319526195,-0.07123802078366279,0.007362053200602531
1761468904971718000,3.0347177734375,0.08452829498946667,-0.06861994723975658,-0.0258808757096529
1761468904981700900,3.044700927734375,0.08314648524224758,-0.06675152301937341,-0.07520458632707595
1761468904991683800,3.054683837890625,0.055308045724034305,-0.060252516388893125,-0.10226093555688857
1761468905001665800,3.064665771484375,0.021176643541455268,-0.0355272404551506,-0.1193219604730606
1761468905011648800,3.074648681640625,0.03668517831861973,-0.03440086677372455,-0.13253566231131553
1761468905021631700,3.0846318359375,0.022779402562975882,-0.05791209074258804,-0.11886311078965663
1761468905031614000,3.094614013671875,0.03526946630179882,-0.08091185805797577,-0.03960895681083202
1761468905041597000,3.104596923828125,0.16425065100193023,-0.07958207075893879,-0.055385202613472934
1761468905051579600,3.11457958984375,0.1272603522568941,-0.05389467179477214,-0.05893266596198082
1761468905061561900,3.124561767578125,0.028197335958480833,-0.06537205135971308,-0.06363806717395783
1761468905071544800,3.134544921875,0.009299743264913559,-0.05387567483335733,-0.08773615112006664
1761468905081527800,3.14452783203125,0.018911621218919754,-0.06515870086997747,-0.08281681489646435
1761468905091509800,3.154509765625,0.006392915907502174,-0.05459259093105793,-0.06413432625830173
1761468905101493000,3.164492919921875,-0.006897942820191383,-0.03740034085065126,-0.013594225588440895
1761468905111475700,3.174475830078125,0.01911912648975849,-0.05236468574851751,-0.02436988662481308
1761468905121458000,3.1844580078125,0.07155775425732136,-0.08978314677774905,-0.1269336045205593
1761468905131441000,3.19444091796875,0.06503390544652939,-0.10104600680917501,-0.14515782799720764
1761468905141423600,3.204423583984375,0.11819675583541392,-0.04112959050685167,-0.14148527696430682
1761468905151405800,3.21440576171875,0.06890519392192364,-0.01946808605790138,-0.10070610733032226
1761468905161388800,3.224388916015625,0.03604863398075103,-0.020806933446228502,-0.08577917183339595
1761468905171371800,3.234371826171875,0.014392097967863083,-0.037467268607020376,-0.07232289341092109
1761468905181354800,3.244354736328125,0.0575087706387043,-0.02853606639355421,-0.0626367811769247
1761468905191337000,3.2543369140625,0.05543839410543441,-0.04490706321895122,-0.06969605203866958
1761468905201319700,3.264319580078125,0.016397592571377753,-0.0861103034839034,-0.09653379008173942
1761468905211302700,3.274302734375,0.00864566327035427,-0.09592910218685864,-0.07790040128231047
1761468905221284900,3.284284912109375,0.009275777867436408,-0.11529197430461645,-0.0770505064547062
1761468905231267600,3.294267578125,0.06688041009604931,-0.09593231705725193,-0.09181669843196869
1761468905241250800,3.304250732421875,0.06960311305820942,-0.08395107962340116,-0.06700082160532474
1761468905251232800,3.314232666015625,0.05542202749252319,-0.06923106487542391,-0.04481587780416012
1761468905261215700,3.3242158203125,0.07125263383090495,-0.04090542636215687,-0.048104982477426526
1761468905271198700,3.33419873046875,0.08610416600406169,-0.03080985654443502,-0.04038870901167393
1761468905281181000,3.344180908203125,0.07165887654423714,-0.026583763282001016,-0.06041968964934349
1761468905291163600,3.35416357421875,0.02644201672375202,-0.02269230880141258,-0.047505847540497775
1761468905301146600,3.364146728515625,0.03337035468220711,-0.028704408697783946,-0.03610942425727844
1761468905311128800,3.37412890625,0.09608487727046013,-0.03504880928844213,-0.08322481117546558
1761468905321111600,3.384111572265625,0.0797603499352932,-0.027799861073493956,-0.10294014999270439
1761468905331094800,3.3940947265625,0.04600888698101043,-0.048911914946138856,-0.06692249567210674
1761468905341076700,3.40407666015625,0.05567512547075748,-0.0579530072748661,-0.07558686364293098
1761468905351059700,3.414059814453125,0.06155483115911484,-0.051827217870950695,-0.06421089862585068
1761468905361042700,3.424042724609375,0.056956981974840164,-0.051181613443791865,-0.07487842311263083
1761468905371025000,3.43402490234375,0.040378772139549254,-0.06620382600873709,-0.08819324723780154
1761468905381008000,3.4440078125,0.06597615473270416,-0.08659107273817061,-0.1036193644285202
1761468905390990800,3.453990966796875,0.039760347980260846,-0.08621230255365371,-0.07785363953113555
1761468905400972800,3.463972900390625,0.011146832436323166,-0.0789861506924033,-0.06331891822218895
1761468905410956000,3.4739560546875,0.05556932700872421,-0.09423077383637428,-0.10560732337534427
1761468905420938800,3.483938720703125,0.05329319877028465,-0.09604512978196143,-0.08675123173594475
1761468905430921200,3.493921142578125,0.03796177412569523,-0.05920096150934696,-0.08029401842057704
1761468905440904400,3.503904541015625,0.06533961039483546,-0.05964812075495719,-0.1265764616459608
1761468905450887400,3.513887451171875,0.048775429084897036,-0.05770107834041118,-0.0918511852234602
1761468905460869400,3.523869384765625,0.08028934224545956,-0.05159516268074512,-0.06850070477426051
1761468905470852400,3.533852294921875,0.052335751914978024,-0.06958937679380178,-0.06696165863871574
1761468905480835300,3.54383544921875,0.03044657618999481,-0.058282385359704494,-0.06123626672923565
1761468905490817300,3.5538173828125,0.046104748570919035,-0.033031039725244044,-0.036817280265688895
1761468905500800300,3.56380029296875,0.08832242657542229,-0.0330766324326396,-0.06216098035871982
1761468905510783500,3.573783447265625,0.09389759635925292,-0.013107611115276812,-0.08084346899688244
1761468905520765200,3.58376513671875,0.08725041342973709,-0.019342121590673923,-0.08270400217175483
1761468905530748400,3.59374853515625,0.07568564784228801,-0.02031651958078146,-0.05838613799512386
1761468905540731400,3.6037314453125,0.10395546451508998,-0.021740707165002822,-0.07061959662437439
1761468905550713300,3.61371337890625,0.07986556387543678,-0.031985330064594746,-0.06716098060309887
1761468905560696300,3.6236962890625,0.025048516538739202,-0.019675299067795277,-0.051098903596401214
1761468905570679600,3.633679443359375,0.045595045483112336,-0.015042086309194564,-0.10149170475006103
1761468905580661200,3.6436611328125,0.08229834398031234,-0.036383272762596605,-0.10727204171717167
1761468905590644500,3.65364453125,0.08438391808271407,-0.017905074524879456,-0.0731073217868805
1761468905600627500,3.66362744140625,0.07476502586603165,-0.036980654133856296,-0.06285597688555718
1761468905610609400,3.673609375,0.06894961758553982,-0.05696779562979936,-0.09597966333031654
1761468905620592400,3.68359228515625,0.014712415963411331,-0.06309007790237665,-0.12132687055468559
1761468905630575400,3.693575439453125,-0.007638532054424285,-0.06755231800824403,-0.12011866380870341
1761468905640557300,3.703557373046875,0.001454290461540222,-0.06123363638073206,-0.10912965228259562
1761468905650540300,3.713540283203125,0.05580722741782665,-0.049265258428454396,-0.09444470884799956
1761468905660523500,3.7235234375,0.05969838963747024,-0.05249591091275215,-0.05287351205348968
1761468905670505200,3.733505126953125,0.06245031869411468,-0.05424713849425315,-0.01186111818552017
1761468905680488400,3.743488525390625,0.06970306630134582,-0.04424538443982601,0.0005535422295331955
1761468905690471400,3.753471435546875,0.06617080052196979,-0.05798895537108183,-0.05951134263277053
1761468905700453400,3.763453369140625,0.08095861980915069,-0.07212707857787609,-0.08258359066247939
1761468905710436400,3.773436279296875,0.08318915534019469,-0.05758329717963934,-0.1107686516612768
1761468905720419300,3.78341943359375,0.05343699115514755,-0.056041328434646126,-0.157641461995244
1761468905730401300,3.7934013671875,0.0032312370061874387,-0.046702129942178726,-0.11869827561676502
1761468905740384300,3.80338427734375,-0.016219897916913032,-0.04192892419099808,-0.09906769247353077
1761468905750367500,3.813367431640625,-0.0037450317472219464,-0.02638882523179054,-0.06479542051553726
1761468905760349200,3.82334912109375,0.024734628283977506,-0.018032792557775974,-0.07401976045668125
1761468905770332400,3.83333251953125,0.0376841262280941,-0.06131079327017069,-0.11022796891331672
1761468905780315400,3.8433154296875,0.06941840414106845,-0.0597460281714797,-0.10867781686186789
1761468905790298000,3.853298095703125,0.06893383549451827,-0.05658230344355106,-0.1325245563954115
1761468905800280300,3.8632802734375,0.04837853872179985,-0.05711304931938648,-0.09629822776019573
1761468905810263300,3.87326318359375,0.020123335096240043,-0.04234422699362039,-0.05535889912843704
1761468905820246300,3.883246337890625,-0.025673370438814163,-0.029277532410621643,-0.04937807115316391
1761468905830228200,3.893228271484375,-0.03152501907646656,-0.04930822078734636,-0.07466215001344681
1761468905840211500,3.90321142578125,-0.004426584270596504,-0.07678425673395395,-0.10548632734417915
1761468905850194200,3.913194091796875,0.03995791637897491,-0.06919803938865661,-0.1160328557997942
1761468905860176400,3.92317626953125,0.06306698928773403,-0.085154317933321,-0.10818389586508273
1761468905870159400,3.933159423828125,0.07711246577501296,-0.06804857709258795,-0.06106909346878528
1761468905880142300,3.943142333984375,0.04832476270794868,-0.12034750412851572,-0.1349900697261095
1761468905890124300,3.953124267578125,0.030773323926329612,-0.00008884732723236084,0.009342997884750365
1761468905900107300,3.963107177734375,0.08303484156131744,-0.008396656945347785,0.016249124011397362
1761468905910090500,3.973090576171875,0.07861994772851466,-0.03523439498841762,-0.05997077683806419
1761468905920072200,3.983072265625,0.07534253349304199,-0.039647535255551335,-0.08022095318436623
1761468905930055400,3.993055419921875,0.06811901198029517,-0.01097322943508625,-0.05742693757414818
1761468905940038400,4.003038330078125,0.06386193905770779,-0.04781973579525947,-0.03545826687216758
1761468905950020400,4.013020263671875,0.06702478700280189,-0.055630117285251614,-0.07897358347177505
1761468905960002300,4.023002197265625,0.0657084437072277,-0.06658902593404055,-0.05900163954496383
1761468905969985300,4.0329853515625,0.0528162289083004,-0.08084639160633086,-0.08142506827712058
1761468905979967200,4.04296728515625,0.056228667700290676,-0.10176526099443435,-0.11507657798826694
1761468905989950500,4.052950439453125,0.049693128451704975,-0.09642039283514023,-0.1014583870023489
1761468905999933200,4.06293310546875,0.05716565628945827,-0.03501110762655735,-0.09734452194273471
1761468906009915400,4.072915283203125,0.02951251021027565,-0.02114507935941219,-0.10382920778691768
1761468906019898400,4.0828984375,0.005148468804359436,-0.04276712858080864,-0.09473696979284287
1761468906029881300,4.09288134765625,0.04967442375123501,-0.045313890454173084,-0.05030512287020683
1761468906039863300,4.10286328125,0.07353051563501357,-0.04533960941731929,-0.03821078045070171
1761468906049846500,4.112846435546875,0.05119827231764793,-0.0769412008613348,-0.023662030616402624
1761468906059829200,4.122829345703125,0.07581950335502624,-0.08144991045743226,-0.05754384195208549
1761468906069811500,4.1328115234375,0.0333925665140152,-0.07593143929690122,-0.07720949640870094
1761468906079794400,4.14279443359375,-0.033169279152154924,-0.0538943795338273,-0.06990063470005989
1761468906089777200,4.152777099609375,-0.036332711619138716,-0.05818447794318199,-0.08770224885046482
1761468906099759400,4.16275927734375,0.07659574842453003,-0.07078121692687273,-0.1515904913932085
1761468906109742300,4.172742431640625,0.14651158069372175,-0.06815145294517279,-0.12905892611145972
1761468906119725300,4.182725341796875,0.11253449229001998,-0.0426838342115283,-0.06650806965231895
1761468906129707300,4.192707275390625,0.10083820927739143,-0.059036710858345026,-0.044597266617417336
1761468906139690500,4.2026904296875,0.07734393644332885,-0.08225508936047554,-0.03310381270051002
1761468906149673200,4.212673095703125,0.02782791812419891,-0.0472346293836832,-0.021252631387114522
1761468906159655400,4.222655517578125,-0.017678280031681058,-0.036305823612213135,-0.04945288995504379
1761468906169638400,4.232638427734375,0.007872340810298918,-0.04907470429241657,-0.08781330800950526
1761468906179621000,4.24262109375,0.06727145524024963,-0.013866905049979686,-0.08606208042800426
1761468906189603300,4.252603271484375,0.07811316725015639,-0.04564794471412897,-0.09070435327589511
1761468906199586300,4.26258642578125,0.10133797549307345,-0.07862170129418372,-0.09618483051359653
1761468906209569300,4.2725693359375,0.12378303153514861,-0.06772416744381189,-0.06838964561522007
1761468906219551200,4.28255126953125,-0.0076256725728511806,-0.03924655323922634,-0.031500469157099725
1761468906229534500,4.292534423828125,0.009432429733872413,-0.06252572201788426,-0.05124444954693317
1761468906239517400,4.302517333984375,0.07119125903248787,-0.06303016440868377,-0.05582768568396568
1761468906249499400,4.31249951171875,0.06629471916258335,-0.05856587847620248,-0.06736147161126137
1761468906259482400,4.322482421875,0.05189326884448528,-0.054959086155891415,-0.0941688145160675
1761468906269465300,4.33246533203125,0.06898118176758289,-0.037030630755424496,-0.09458557862341403
1761468906279447300,4.342447265625,0.06459083785414696,-0.03950052800029516,-0.08981061930656432
1761468906289430300,4.35243017578125,0.06154021811187267,-0.04058043219149112,-0.09134791187644005
1761468906299413500,4.36241357421875,0.028344050952792167,-0.047015725935995574,-0.10146481674313544
1761468906309395200,4.372395263671875,0.0035737668335437773,-0.05087590849548578,-0.08222294065654277
1761468906319378400,4.38237841796875,0.06218611479997634,-0.05021949041336775,-0.06559329289495945
1761468906329361400,4.392361328125,0.07964578364491462,-0.041106209631264205,-0.05843582235574722
1761468906339343400,4.40234326171875,0.10166121609807013,-0.043674306553602216,-0.03536883502304554
1761468906349326300,4.412326416015625,0.14547639242708682,-0.0054053661748766895,-0.012780571117997169
1761468906359309300,4.422309326171875,0.1210778642296791,0.01719546495079994,-0.03529050908982754
1761468906369291300,4.432291259765625,0.04965221191942692,-0.031466274626553055,-0.07227554713785649
1761468906379274500,4.4422744140625,0.055820086899399754,-0.03785802149027586,-0.09635726447105407
1761468906389257500,4.452257568359375,0.05606909322440624,-0.05871610060185194,-0.1075450134396553
1761468906399239400,4.462239501953125,0.04979132812917232,-0.0401718513906002,-0.08075228358209133
1761468906409222400,4.472222412109375,0.07114449728131293,-0.0015539514437317846,-0.049936289557814595
1761468906419205400,4.482205322265625,0.11042203018069266,0.0019514263287186621,-0.028210779961943624
1761468906429188000,4.49218798828125,0.10213643239438533,-0.02951251021027565,-0.04308744657635689
1761468906439170000,4.502170166015625,0.08283727316260338,-0.02534223878830671,-0.050445992645621295
1761468906449153000,4.512153076171875,0.1145814879477024,-0.017003157249093053,-0.06856207957267761
1761468906459135000,4.522135009765625,0.11272563094794749,-0.02217033075392246,-0.08414952480494975
1761468906469118200,4.5321181640625,0.10493746128976345,-0.04169248508661985,-0.052910336932539936
1761468906479101000,4.542100830078125,0.11108195539414882,-0.014029986657202244,-0.0674602558106184
1761468906489084000,4.552083984375,0.08386077099144458,-0.05236293218284845,-0.09811784440279006
1761468906499066000,4.562066162109375,0.033922727867960925,-0.040891397836804386,-0.08136252443492412
1761468906509048800,4.572048828125,0.05704582930207252,-0.024194822318851946,-0.08226210362315177
1761468906519032000,4.582031982421875,0.06066811145246029,-0.04307984779179096,-0.09344692998230457
1761468906529014000,4.592013916015625,0.03145020027458668,-0.039677053610980506,-0.0734860919713974
1761468906538997000,4.6019970703125,0.04733692071437835,-0.010530161842703818,-0.03593640577793121
1761468906548979000,4.61197900390625,0.12574527151882647,-0.028904022923111915,-0.032548516905307766
1761468906558962200,4.621962158203125,0.13098083408474923,-0.026565058581531045,-0.04109598049819469
1761468906568945000,4.63194482421875,0.07023322765529155,-0.0038268648117780685,-0.014967267507314681
1761468906578927900,4.641927978515625,0.05610182645022869,-0.017797522497177122,-0.04479658858180046
1761468906588910000,4.65191015625,0.07533610375225544,-0.004900047001242637,-0.05375555558502674
1761468906598892800,4.661892822265625,0.02304185289144516,-0.00582797550112009,-0.07293781043887138
1761468906608876000,4.6718759765625,0.03618015140593052,-0.04767857375890016,-0.10647650742530822
1761468906618858000,4.68185791015625,0.11122165612578391,-0.06306786607056855,-0.09888006094694136
1761468906628841200,4.69184130859375,0.12133739194869994,-0.08689560864269733,-0.11853519400954246
1761468906638823000,4.701822998046875,0.09317863443493843,-0.08362170153856277,-0.10520692588090896
1761468906648806100,4.71180615234375,0.053071664974093435,-0.04754296468049288,-0.07397475227117538
1761468906658789000,4.7217890625,0.0366951151907444,-0.037359716579318046,-0.05338379966318607
1761468906668772000,4.731772216796875,0.04898585696518421,-0.02750467751920223,-0.036781039908528324
1761468906678754000,4.741754150390625,0.08593933083117007,-0.02144844622015953,0.0032668928414583205
1761468906688737300,4.7517373046875,0.10256897859275341,-0.034568040034174914,-0.015884382352232933
1761468906698720000,4.761719970703125,0.07168459550738335,-0.07244213587641715,-0.10252163231968879
1761468906708702200,4.7717021484375,0.06731237177252769,-0.08616992471665144,-0.14025427386462688
1761468906718685200,4.781685302734375,0.05261749146580696,-0.047915012863278386,-0.10142799186408519
1761468906728668000,4.79166796875,0.04948445413708687,-0.03511076860874891,-0.06137655198276042
1761468906738650000,4.801650146484375,0.044887773996591565,-0.04459668209552765,-0.055308630245923994
1761468906748633000,4.811633056640625,0.04445756588578224,-0.058148822107911106,-0.03843172972500324
1761468906758616000,4.821615966796875,0.06385375575125217,-0.07617956883907318,-0.023968320086598396
1761468906768598000,4.831597900390625,0.07047463519573212,-0.09438508761525154,-0.05961655657291412
1761468906778581200,4.841581298828125,0.07129998010396957,-0.0959025064408779,-0.07019874086380004
1761468906788564000,4.85156396484375,0.06050795245468616,-0.11490969698876141,-0.09005553397834301
1761468906798546200,4.861546142578125,0.045808980494737625,-0.09951718980669974,-0.10490823519527911
1761468906808529200,4.871529052734375,0.052989831909537315,-0.06354775854200125,-0.10156535450816154
1761468906818511000,4.881510986328125,0.04593289913535118,-0.06436813501417636,-0.10299041887521743
1761468906828494000,4.891494140625,0.02224748764336109,-0.041620588894188404,-0.10401450122594832
1761468906838477000,4.90147705078125,0.028840310037136076,-0.013490180692076682,-0.053148237341642375
1761468906848460000,4.9114599609375,0.06240121885538101,-0.035759295645356175,-0.0639005175024271
1761468906858442000,4.92144189453125,0.0644365240752697,-0.06401333022713661,-0.10623393084108829
1761468906868425200,4.93142529296875,0.06158639534115791,-0.07582417953014374,-0.09320201531052588
1761468906878408000,4.941407958984375,0.09326046749949454,-0.027184359523653983,-0.028700024783611295
1761468906888390100,4.95139013671875,0.08110007410645484,-0.05191694198101759,-0.049208559805154796
1761468906898373000,4.961373046875,0.03474398112297058,-0.052880818577110765,-0.05166179817616939
1761468906908355000,4.97135498046875,0.03522971881330013,-0.05772445921599865,-0.07493336817026137
1761468906918338000,4.981338134765625,0.053444589939713474,-0.06446487338691949,-0.11723989350199698
1761468906928321000,4.991321044921875,0.06089022977054119,-0.03543488599658012,-0.11164835710525511
1761468906938304000,5.001303955078125,-0.02810848863124847,-0.04650660737007856,-0.09053542644977569
1761468906948286000,5.011285888671875,-0.02289806050658226,-0.03239507990926504,-0.05057049580812454
1761468906958269200,5.021269287109375,0.08627367735207081,-0.025577216587960718,-0.020709026029706
1761468906968252000,5.031251953125,0.0773415983557701,-0.06350128905177116,-0.04417699537873268
1761468906978234000,5.041234130859375,0.06109188982248306,-0.08298252685219049,-0.04436521142721176
1761468906988217000,5.051217041015625,0.08022972101271152,-0.0787450354129076,-0.04964987383186817
1761468906998199000,5.061198974609375,0.09839140064716338,-0.051122284471988674,-0.05931026710271835
1761468907008182000,5.07118212890625,0.0955757587045431,-0.028019933564960953,-0.06331774917840957
1761468907018165000,5.0811650390625,0.053265141719579696,0.004427461053431034,-0.061111179044842714
1761468907028148000,5.09114794921875,0.019732289952039718,-0.027243980756402015,-0.07568506332039833
1761468907038130000,5.1011298828125,0.05622106891572475,-0.048457156915962696,-0.0992138229459524
1761468907048113200,5.111113037109375,0.10838497139513492,-0.04592120869755745,-0.0756517455726862
1761468907058095900,5.121095947265625,0.10426116946339607,-0.02548690795600414,-0.08388999708592891
1761468907068078000,5.131078125,0.059552259165048596,-0.052663376434147355,-0.09439210187792778
1761468907078061000,5.14106103515625,0.0027349779218435286,-0.05165186130404472,-0.08537935886085032
1761468907088043000,5.15104296875,0.046477673536539074,-0.027252164062857628,-0.059497898629307745
1761468907098026000,5.16102587890625,0.020398644906282425,-0.0378846172362566,-0.046777533265948294
1761468907108009200,5.17100927734375,0.050318566873669625,-0.005470540365576744,-0.019339491242170333
1761468907117992000,5.180991943359375,0.0755073686659336,-0.029391514179110526,-0.045637131059169764
1761468907127974100,5.19097412109375,0.04880640874505043,-0.061117024263739585,-0.053043023401498794
1761468907137957000,5.20095703125,0.09959551573991775,-0.07311053665727377,-0.04954232180416584
1761468907147940000,5.210940185546875,0.05176350498497486,-0.04546323579698801,-0.05940905130207538
1761468907157922000,5.220922119140625,0.024298574954271315,-0.08320113803893327,-0.08412789749503136
1761468907167905000,5.230905029296875,0.05744856488406658,-0.04895458504408598,-0.096678166988492
1761468907177887000,5.240886962890625,0.03688566932678222,-0.05336188009232282,-0.08148001333475112
1761468907187870000,5.250869873046875,0.06732289316654205,-0.011420096419751644,-0.08026888397932053
1761468907197853200,5.260853271484375,0.11168109033107756,-0.015776538063585758,-0.08117664647400379
1761468907207836200,5.270836181640625,0.09198270264863967,-0.011973346388339995,-0.059112698704004284
1761468907217818000,5.280818115234375,0.08226035005748271,-0.050342240010201926,-0.06231529413759708
1761468907227801000,5.290801025390625,0.08147533715963363,-0.08919161062538623,-0.099240710952878
1761468907237784000,5.3007841796875,0.04954758250117302,-0.06693126350045203,-0.07773965776264667
1761468907247766000,5.31076611328125,0.013563245928287506,-0.08242810783982277,-0.07733984479010104
1761468907257749000,5.3207490234375,0.02690612710416317,-0.06871902370005846,-0.0752028327614069
1761468907267731000,5.33073095703125,0.04710311195850372,-0.05300824434906244,-0.06587678601145744
1761468907277714000,5.3407138671875,0.036494039660692215,-0.03906096753925085,-0.053179217001795766
1761468907287697200,5.350697265625,0.08656009307801724,-0.04332476246356964,-0.03980769425332546
1761468907297680100,5.36068017578125,0.09424363331794738,-0.066362523701787,-0.05275134697854519
1761468907307662000,5.370662109375,0.0843044231057167,-0.08349749063700437,-0.067791095200181
1761468907317645000,5.38064501953125,0.0877507641673088,-0.059085518436133855,-0.07141162378489971
1761468907327628000,5.3906279296875,0.0770633659362793,-0.043862230341136454,-0.07566343601047992
1761468907337610000,5.40060986328125,0.0537006105273962,-0.002131166809797287,-0.05098433730602264
1761468907347593000,5.410593017578125,0.07125906357169151,0.0005441898792982101,-0.09340075275301933
1761468907357575000,5.420574951171875,0.0752811586946249,-0.029684359645843504,-0.12620762833356858
1761468907367558000,5.430557861328125,0.023476737177371976,-0.043053836567699906,-0.10455693753957748
1761468907377541000,5.440541015625,0.02932254059612751,-0.04573533073663711,-0.0853325971096754
1761468907387524000,5.450524169921875,0.06237725345790386,-0.05650514655411243,-0.07313187170624733
1761468907397506000,5.460506103515625,0.03734159640073776,-0.0579442394465208,-0.04439151491224765
1761468907407489000,5.470489013671875,0.05599836607575416,-0.08499971189349889,-0.051555415192246434
1761468907417471000,5.480470947265625,0.08223404657244682,-0.09956687416732311,-0.058977089625596994
1761468907427454500,5.490454345703125,0.09966390480101107,-0.09653349782079458,-0.07555179232954978
1761468907437437400,5.5004375,0.08577624922394753,-0.07369651985168457,-0.06296586700081824
1761468907447419600,5.510419677734375,0.07896423112154007,-0.06284516323059797,-0.03597381517887115
1761468907457402400,5.52040234375,0.0028086276799440383,-0.045376726557314395,-0.0636567718744278
1761468907467385600,5.530385498046875,-0.023709961411356926,-0.024356442621350286,-0.05626724614500999
1761468907477367600,5.540367431640625,0.05517068307995796,-0.0022682371929287908,-0.04478782075345516
1761468907487350800,5.550350830078125,0.11358780073523521,-0.0377124755397439,-0.07233633741438389
1761468907497333500,5.56033349609375,0.09236673353016375,-0.064279287686944,-0.06041968964934349
1761468907507315700,5.570315673828125,0.10426526111662388,-0.06654518679231405,-0.0793891785353422
1761468907517298700,5.580298583984375,0.08666939867138862,-0.045158699892461296,-0.06843757641017437
1761468907527281400,5.590281494140625,0.05909633209109306,-0.03490677046924829,-0.05165829104483127
1761468907537263600,5.600263671875,0.08442074296176433,-0.03182692463248968,-0.08247779220044613
1761468907547246600,5.61024658203125,0.06375906320512294,-0.019714462034404277,-0.10966507433354854
1761468907557229600,5.6202294921875,0.07742401594221592,-0.04322890087366104,-0.09307400501668453
1761468907567211500,5.63021142578125,0.06553074905276299,-0.038436698161065576,-0.05495324093699455
1761468907577194800,5.64019482421875,0.03265022371411323,-0.026953181116282938,-0.027969372421503064
1761468907587177500,5.650177490234375,0.03301847250461578,-0.05941665008664131,-0.03144435505568981
1761468907597159700,5.66015966796875,0.040513212174177166,-0.07214870588779448,-0.10781798516213893
1761468907607142700,5.670142578125,0.15509002394676208,-0.09861205766052007,-0.12745441352427006
1761468907617125600,5.680125732421875,0.05934066224098205,-0.005434300008416175,-0.038869536620378495
1761468907627107600,5.690107666015625,0.049558103895187375,-0.04112871372401714,-0.08323357900381088
1761468907637090600,5.700090576171875,0.07570669063031674,-0.023039807064831254,-0.04970832602083683
1761468907647073500,5.710073486328125,0.06481295617222786,-0.05762070658057928,-0.09068974022865295
1761468907657055700,5.7200556640625,0.028240006056427954,-0.02864420294314623,-0.07304068629145621
1761468907667038700,5.730038818359375,0.010505027401447296,-0.02327478486448526,-0.06709434510767459
1761468907677021400,5.740021484375,0.07289514034092426,-0.0461713840663433,-0.06745499511361122
1761468907687003600,5.750003662109375,0.09055763828158378,-0.03899082491248846,-0.09125205028653144
1761468907696986600,5.759986572265625,0.07972995479702949,-0.058391983214020726,-0.11707447380721568
1761468907706969600,5.769969482421875,0.059632338663935656,-0.007839023062586783,-0.13858371030390262
1761468907716951600,5.77995166015625,0.016747136661410332,-0.04160305323749781,-0.06967617829442024
1761468907726934800,5.789934814453125,0.03799626091718673,-0.05205459688603878,-0.03364040379524231
1761468907736917500,5.79991748046875,0.07798106530308722,-0.09383183764666318,-0.02223053650856018
1761468907746899700,5.809899658203125,0.14994973844885826,-0.07284165658801793,-0.015336100819706915
1761468907756882700,5.819882568359375,0.10337152714729309,-0.0597784691363573,-0.0758475604057312
1761468907766865400,5.829865478515625,0.027046996879577637,-0.05722586204409599,-0.14447627547383307
1761468907776847600,5.83984765625,0.019122049099206923,-0.030278233885765074,-0.17560732679665086
1761468907786830600,5.84983056640625,0.002974631896615028,-0.030479017154872414,-0.12358312504887581
1761468907796813600,5.8598134765625,0.027013094609975814,-0.02013005709797144,-0.07729892825782299
1761468907806795500,5.86979541015625,0.034710078853368756,-0.03394406291693449,-0.02674479906260967
1761468907816778800,5.87977880859375,0.03199029850065708,-0.04696896418482065,0.010230302113294601
1761468907826761500,5.889761474609375,0.09002806144952774,-0.058958384925127026,-0.015534253740310668
1761468907836743700,5.89974365234375,0.07031915237307548,-0.07218933015912771,-0.06293254925310611
1761468907846726700,5.9097265625,0.05762099884152412,-0.07375935595482587,-0.12077800450026989
1761468907856709400,5.91970947265625,0.060796706268191336,-0.05609568897038698,-0.12029986559450626
1761468907866691600,5.929691650390625,0.0787450354129076,-0.026396131755411622,-0.09680325467288493
1761468907876674600,5.939674560546875,0.07106266421675682,-0.026171090827882288,-0.09442834223508834
1761468907886657500,5.949657470703125,0.041567689663171765,-0.019394728560745714,-0.05519464847743511
1761468907896639500,5.959639404296875,0.045370004555582995,-0.00968786579966545,-0.08329320023655891
1761468907906622700,5.969622802734375,-0.009703063368797301,-0.05972790799289941,-0.07865092738866805
1761468907916605400,5.97960546875,0.02547872464954853,-0.06315086817890406,-0.08310907584130764
1761468907926587600,5.989587646484375,0.045755204480886456,-0.07648848865777254,-0.06377309173047542
1761468907936570600,5.999570556640625,0.0685059654712677,-0.09454232400357723,-0.05986790098547935
1761468907946553300,6.00955322265625,0.062117725738883016,-0.06636895344257354,-0.0490951625585556
1761468907956535600,6.01953564453125,0.05512918202579021,-0.0613122545748949,-0.03404021676778793
1761468907966518500,6.0295185546875,0.07720365118980407,-0.08629150526970625,-0.07098316923975945
1761468907976501800,6.039501708984375,0.07077917110025882,-0.067712769266963,-0.08376023322641848
1761468907986483500,6.0494833984375,0.0693161128103733,-0.059489423061907284,-0.12373217813074588
1761468907996466700,6.059466796875,-0.014724106401205061,-0.08687018194049596,-0.13699322624206542
1761468908006449700,6.06944970703125,-0.05983633680343627,-0.1128998184710741,-0.10518529857099056
1761468908016431600,6.079431640625,0.020556465816497803,-0.07152794364094733,-0.0582493598729372
1761468908026414600,6.08941455078125,0.070950436013937,-0.06282149009406567,-0.06088906072676181
1761468908036397600,6.0993974609375,0.04774842412471771,-0.09606763387471437,-0.07290566173493862
1761468908046379500,6.109379638671875,0.03811374981701374,-0.0912497121989727,-0.08363222293257713
1761468908056362800,6.11936279296875,0.009685527712106705,-0.041454000155627724,-0.0487988099604845
1761468908066344400,6.129344482421875,0.02485737788081169,-0.01088087497651577,-0.06279927826225758
1761468908076327700,6.13932763671875,0.07152092937827109,-0.016149463029205797,-0.08690379194915294
1761468908086310700,6.149310546875,0.10877484749555587,-0.019649287843704222,-0.06818214034438133
1761468908096292600,6.159292724609375,0.14172960711419583,-0.02989011135101318,-0.06556815845370292
1761468908106275600,6.169275634765625,0.15527356382012367,-0.04675970534831285,-0.030339024162292477
1761468908116258600,6.179258544921875,0.15571780045628547,-0.05246230090409517,-0.009401450073719024
1761468908126240500,6.189240478515625,0.022740239596366882,-0.054473056204617024,-0.046183074504137035
1761468908136223500,6.199223388671875,0.0567027149528265,-0.03495703935176134,-0.0459317300915718
1761468908146206700,6.209206787109375,0.07740180411040783,-0.05167758026719093,-0.09896423209905623
1761468908156188400,6.2191884765625,0.07911445324718952,-0.04038724770694971,-0.10853343995511532
1761468908166171600,6.229171630859375,0.0992664299160242,-0.010878829149901867,-0.08728782283067703
1761468908176154600,6.239154541015625,0.08724456821084021,-0.0268894682303071,-0.08482932376265526
1761468908186136600,6.249136474609375,0.07297638888359069,-0.013751754237711428,-0.058897010126709934
1761468908196119600,6.25911962890625,0.0864005186021328,0.006284779357910156,-0.0316366627573967
1761468908206102500,6.2691025390625,0.09907996743321418,-0.0020899580165743828,-0.02927987049818039
1761468908216084500,6.27908447265625,0.057009588944911954,-0.005292261189222335,-0.068309566116333
1761468908226067500,6.2890673828125,0.06090834994912147,-0.06322130306661129,-0.09830138427615165
1761468908236050700,6.29905078125,0.08032382903695107,-0.045371465860307214,-0.10190087007284164
1761468908246032400,6.309032470703125,0.08322890282869339,-0.03309475261121988,-0.08956161298155785
1761468908256015600,6.319015625,0.05332943912744522,-0.03367313702106475,-0.08483516898155212
1761468908265998600,6.32899853515625,-0.015271218889951706,-0.05942307982742786,-0.04171498917937279
1761468908275980500,6.33898046875,0.03623860359489917,-0.05836977138221264,-0.036252632120251656
1761468908285963500,6.348963623046875,0.10454173997044562,-0.07488572963625192,-0.05341477932333946
1761468908295946500,6.358946533203125,0.09336392787396908,-0.07235767246335745,-0.03973930519223213
1761468908305928400,6.368928466796875,0.06725918028056621,-0.06462415560185909,-0.07905658558011054
1761468908315911400,6.378911376953125,0.049994157224893566,-0.031329496504366394,-0.10143909777998923
1761468908325894700,6.388894775390625,0.037677696487307545,-0.017960311843454837,-0.11832067447602748
1761468908335876600,6.398876708984375,0.026832477346062658,-0.022458500045537948,-0.1417342832893133
1761468908345859600,6.408859619140625,0.06852525469362736,-0.02047200240343809,-0.08976561112105846
1761468908355842600,6.418842529296875,0.1030570543706417,-0.05624678787887096,-0.06133329736292362
1761468908365824800,6.42882470703125,0.07119651972949505,-0.05341594836711883,-0.050099371165037154
1761468908375807500,6.438807373046875,0.043158173725008964,-0.03415945923328399,-0.03270750685930252
1761468908385790500,6.44879052734375,0.05183540117740631,-0.16219254942834377,-0.167315299269557
1761468908395772700,6.458772705078125,0.008856675672531128,0.06288169584870339,0.012882277926802634
1761468908405755400,6.46875537109375,0.038920974546670914,0.01601210038512945,-0.004826397243142128
1761468908415738600,6.478738525390625,0.08499532797932624,-0.021710896548628806,-0.107340430778265
1761468908425720600,6.488720458984375,0.08543839557170868,-0.07321808868497609,-0.15425883381962777
1761468908435703300,6.498703369140625,0.04777355856597423,-0.05538111096024513,-0.1287029522806406
1761468908445686300,6.508686279296875,0.04169569995701313,-0.041222237226366996,-0.10067162053883075
1761468908455668500,6.51866845703125,0.0307084419965744,-0.0268894682303071,-0.06704349170327187
1761468908465651200,6.528651123046875,-0.010787935996055603,-0.04614361927658319,-0.06228782160878181
1761468908475634400,6.538634521484375,0.01689268261194229,-0.08528612761944532,-0.054827568730711936
1761468908485616400,6.548616455078125,0.05864040501713753,-0.09934154097884892,-0.05864858832359313
1761468908495599400,6.558599365234375,0.0867184985101223,-0.10163052869886159,-0.1025298156261444
1761468908505581300,6.568581298828125,0.09453998591601848,-0.08356354161053896,-0.09206395119130611
1761468908515564500,6.578564453125,0.0846177268385887,-0.08575432965308427,-0.08322714926302432
1761468908525547300,6.58854736328125,0.035575171250104905,-0.08145254080593585,-0.09479425293803215
1761468908535529500,6.598529541015625,0.02448912909030914,-0.07122428451925515,-0.09222469471096992
1761468908545512400,6.608512451171875,0.002992752075195312,-0.03850654852688312,-0.06889233444035053
1761468908555495200,6.6184951171875,0.018508885636925695,-0.046915188170969485,-0.059034957292675966
1761468908565477400,6.628477294921875,0.03814648304283619,-0.017998305766284466,-0.031095395487546917
1761468908575460400,6.63846044921875,0.07445406022071838,-0.006224573603272438,-0.06988952878415584
1761468908585443300,6.648443359375,0.05837503207921981,-0.0015595044016838073,-0.052288405641913414
1761468908595425300,6.65842529296875,0.04884615623354911,-0.03572305528819561,-0.040813071903586386
1761468908605408500,6.668408447265625,0.07005611752271652,-0.06667524291276931,-0.048286184263229365
1761468908615391200,6.67839111328125,0.054691959652304646,-0.05211100324839353,-0.054365796437859534
1761468908625373400,6.68837353515625,0.020236147820949554,-0.07063567097634077,-0.09288286635875702
1761468908635356400,6.6983564453125,0.02714695012271404,-0.06795680715590716,-0.1047697035074234
1761468908645339100,6.708339111328125,0.025074235501885412,-0.0917661372885108,-0.13625439057350158
1761468908655321300,6.7183212890625,0.00017477204501628875,-0.058228609345853326,-0.09654021982252597
1761468908665304300,6.72830419921875,0.008998714491724968,-0.048400166031718254,-0.06999006654918194
1761468908675287300,6.738287353515625,0.036245033335685725,-0.06553162583559752,-0.10751286473572254
1761468908685269200,6.748269287109375,0.057522799164056775,-0.04528846375197172,-0.11902268526554106
1761468908695252500,6.75825244140625,0.04906535194218158,-0.06902794351875782,-0.1515121654599905
1761468908705235200,6.768235107421875,0.03127192109823227,-0.18973755895793437,-0.24121698630452154
1761468908715217400,6.778217529296875,-0.009690203887224197,-0.013600655329227447,-0.04578793770670891
1761468908725200400,6.788200439453125,0.021849428236484527,-0.01419394504725933,0.01534369960427284
1761468908735183400,6.798183349609375,0.057145198023319244,-0.07037994264960289,-0.07200315993726253
1761468908745165300,6.808165283203125,0.03952420113682747,-0.0751595781415701,-0.07942834150195122
1761468908755148300,6.818148193359375,0.026335633739829063,-0.02959258970916271,-0.041465398332476616
1761468908765131300,6.82813134765625,0.06265256326794624,0.0415051458209753,-0.03173310886919498
1761468908775113500,6.838113525390625,0.07420622293949126,-0.01888853260427713,-0.009217910200357437
1761468908785096400,6.848096435546875,0.0688631083458662,-0.04390256235152483,-0.06780746181309223
1761468908795079200,6.8580791015625,0.07209492987394332,-0.026723756274580953,-0.08507014678120613
1761468908805061400,6.868061279296875,0.013611761245131491,-0.034899756206572055,-0.07889642658233642
1761468908815044400,6.87804443359375,0.05022328980565071,-0.037190497492253775,-0.1291115330815315
1761468908825027300,6.88802734375,0.08683248027861118,-0.043678398206830026,-0.10820961482822894
1761468908835009300,6.89800927734375,0.06159048699438571,-0.06615180356055497,-0.06889642609357834
1761468908844992500,6.907992431640625,0.03441372625529766,-0.0597588876530528,-0.04062777846455574
1761468908854975200,6.917975341796875,0.07493921338915824,-0.04731207853406667,-0.021955226698517797
1761468908864957400,6.92795751953125,0.09924772521555424,-0.04666238245368003,-0.040237902364134784
1761468908874940400,6.9379404296875,0.11874328380227088,-0.024749825853109357,-0.06928396410644054
1761468908884922400,6.94792236328125,0.1254910044968128,-0.0014577975928783415,-0.0941080242395401
1761468908894905300,6.9579052734375,0.09221008166372775,-0.01065817213654518,-0.10131167200803756
1761468908904888300,6.967888427734375,0.04276595953702926,-0.014768822325766085,-0.06057867960333824
1761468908914870300,6.977870361328125,0.036384149545431135,-0.0457967055350542,-0.05784311715960502
1761468908924853200,6.987853271484375,0.0973585504680872,-0.07589578346163034,-0.04967734636068344
1761468908934836500,6.99783642578125,0.08778466643691063,-0.06082680914551019,-0.010013444492220878
1761468908944818200,7.007818115234375,0.07929623955488205,-0.048313656792044635,-0.05328969163894653
1761468908954801400,7.017801513671875,0.08171499113440513,-0.05210515802949667,-0.09901040932834147
1761468908964784400,7.027784423828125,0.04500760098397732,-0.036651276049017904,-0.09372633144557475
1761468908974766300,7.037766357421875,0.05178805490434169,-0.020418518650531767,-0.06588964549303054
1761468908984749300,7.047749267578125,0.019797756403684613,0.012572189064323901,-0.017599954098463058
1761468908994732300,7.057732177734375,0.04772621229290962,-0.056796822977066036,-0.08374035948216915
1761468909004714200,7.06771435546875,0.06410334659814834,-0.059548167511820786,-0.11606675806939601
1761468909014697200,7.077697265625,0.039162966609001156,-0.022110124999284744,-0.07057225035130978
1761468909024680400,7.087680419921875,0.09095862029790877,-0.05497223789840936,-0.12120529000163077
1761468909034662100,7.097662109375,0.14834054968655108,-0.05647679724246263,-0.14244389286339282
1761468909044645400,7.107645263671875,0.08752981489300728,-0.017456161713600156,-0.06741875475645065
1761468909054628400,7.11762841796875,0.0824526577591896,-0.0037479543566703794,-0.029737551137804984
1761468909064610300,7.1276103515625,0.09448854798972606,-0.0384989497423172,-0.06396423038840293
1761468909074593300,7.13759326171875,0.0349304436057806,-0.07718786909878253,-0.08458557813465595
1761468909084576300,7.147576171875,-0.010062544330954552,-0.06264525674432515,-0.08811842843592166
1761468909094558200,7.15755810546875,0.038061142846941946,-0.05972410860061645,-0.07619009023308754
1761468909104541200,7.167541259765625,0.07494330504238605,-0.05202595531344414,-0.07260404843986033
1761468909114524400,7.1775244140625,0.06099018301367759,-0.03552548688948154,-0.0454395626604557
1761468909124506000,7.187506103515625,0.10833294894695282,-0.00013736264407634735,0.006136310797929764
1761468909134489300,7.1974892578125,0.11516191818416117,-0.012874386881291866,-0.030891981869935987
1761468909144472300,7.207472412109375,0.10662029981017113,-0.04389613261073828,-0.07828560120761394
1761468909154454300,7.217454345703125,0.08907879790067673,-0.05554273126274347,-0.11780980234444141
1761468909164437200,7.227437255859375,0.07530980026721953,-0.03840016554296016,-0.13754209229648112
1761468909174420500,7.23742041015625,0.02928103954195976,-0.037867666101455685,-0.1421311736524105
1761468909184402200,7.247402099609375,-0.0035778584867715833,-0.019938918440043925,-0.09585282208025454
1761468909194385400,7.257385498046875,0.04862637600302696,0.02733955008536577,-0.04863280574381351
1761468909204368400,7.267368408203125,0.04113397442102432,0.00038519992530345915,-0.0658130731254816
1761468909214350300,7.277350341796875,0.014618892461061477,-0.03657528820335865,-0.104220252931118
1761468909224333300,7.287333251953125,0.0315887319624424,-0.05594722041040659,-0.13155191197097302
1761468909234315500,7.2973154296875,0.03205693399608135,-0.06815817494690418,-0.1282628072977066
1761468909244298200,7.30729833984375,0.07232113984525203,-0.06798311064094305,-0.0859124428242445
1761468909254281200,7.31728125,0.08519464994370937,-0.041192134349048136,-0.051555415192246434
1761468909264263400,7.327263427734375,0.04652735789716243,-0.00691635525971651,-0.0306605112016201
1761468909274246100,7.33724609375,0.05225567241609096,-0.005082710091769695,-0.03356967664659023
1761468909284229400,7.3472294921875,0.09759645087718963,-0.011821662957966326,-0.07262567574977874
1761468909294211300,7.35721142578125,0.10241758742332457,0.03898761004209518,-0.09780512519180774
1761468909304194600,7.367194580078125,0.05330021303296089,0.0216588741004467,-0.05878478192389011
1761468909314177300,7.37717724609375,0.08686988967955112,0.003784486974775791,-0.08311667462587356
1761468909324159500,7.387159423828125,0.07792378215789794,0.004709785126149654,-0.103505967181921
1761468909334142500,7.397142578125,0.047321138623356816,-0.004561024305224418,-0.051610360249876974
1761468909344125200,7.407125244140625,0.07674655507206916,-0.02033084036707878,-0.04870879358947277
1761468909354107400,7.417107421875,0.09774258134961128,-0.015802549287676812,-0.05821662664711475
1761468909364090400,7.42709033203125,0.029330139380693433,-0.019602526092529295,-0.0670072513461113
1761468909374073300,7.4370732421875,0.05854688151478767,-0.08821779715716839,-0.07550619962215423
1761468909384055300,7.44705517578125,0.07516951501369476,-0.09483078555613755,-0.07372399238049984
1761468909394038500,7.45703857421875,0.059359366941452024,-0.11055179404020309,-0.061253802385926245
1761468909404021200,7.467021240234375,0.04705751925110817,-0.08252396942973136,-0.06114508131444454
1761468909414003500,7.47700341796875,0.018380290821194648,-0.07805062340795993,-0.04903495680391788
1761468909423986400,7.486986328125,0.03831891700029373,-0.0882785874336958,-0.0845703805655241
1761468909433969200,7.49696923828125,0.0374748673915863,-0.10514408977776765,-0.08693009543418884
1761468909443951000,7.506951171875,0.0047451487004756925,-0.08697188874930142,-0.056879240563511846
1761468909453934000,7.51693408203125,0.045296939319372176,-0.07441928116828203,-0.04215688772797584
1761468909463917300,7.526917236328125,0.05593874484300613,-0.07586889545470475,-0.015597966626286507
1761468909473899000,7.53689892578125,0.02736789939701557,-0.03055237465202808,-0.029326047727465627
1761468909483882200,7.54688232421875,0.07179331657886505,-0.05154693962484598,-0.04992810625135898
1761468909493864200,7.5568642578125,0.0896814399689436,-0.06260960090905428,-0.10699264025390147
1761468909503847200,7.56684716796875,0.052589434415102,-0.08478460783809423,-0.11423895812034607
1761468909513830100,7.576830078125,0.008102642434835433,-0.06045943713784217,-0.09514671963751316
1761468909523812400,7.586812255859375,0.039837504869699475,-0.10880436585098505,-0.1085819552719593
1761468909533795000,7.596795166015625,0.06258242064118386,-0.09693418757617472,-0.08882803801000118
1761468909543778300,7.6067783203125,-0.0025765724897384643,-0.07972498636096716,-0.05156593658626079
1761468909553760300,7.61676025390625,0.07998129920959472,-0.08469839085936545,-0.029693711996078488
1761468909563743200,7.6267431640625,0.11441548373103141,-0.06810995189100504,-0.06214812087714672
1761468909573726200,7.636726318359375,0.042342765688896174,-0.07026566862016916,-0.028479660031199453
1761468909583708200,7.646708251953125,0.04676350474059582,-0.08724544499367475,-0.008466799572110176
1761468909593691100,7.656691162109375,0.09335048387050628,-0.12417875285446643,-0.06312661052048206
1761468909603674000,7.666674072265625,0.06782792007923126,-0.12006605683863163,-0.08788637324571609
1761468909613656300,7.67665625,0.03990063323378563,-0.09992577060759067,-0.09470540561079978
1761468909623639000,7.68663916015625,0.0015454758763313293,-0.06831774942278862,-0.04936345810592174
1761468909633622300,7.696622314453125,0.0688414810359478,-0.04432984785288572,-0.054452890199422836
1761468909643604200,7.706604248046875,0.033518823242187495,-0.010557049849629402,-0.07373392925262451
1761468909653587200,7.716587158203125,0.054632338419556614,-0.008814005574584007,-0.046076691520214076
1761468909663570200,7.726570068359375,0.09451426695287227,-0.039734336756169795,-0.036301731958985325
1761468909673552400,7.736552490234375,0.11309329521656036,-0.07861585607528686,-0.08436345981657505
1761468909683535000,7.74653515625,0.09685235451161861,-0.07443594004213809,-0.11936229248344897
1761468909693518000,7.75651806640625,0.01878887162208557,-0.08784984062761068,-0.0838122556746006
1761468909703500300,7.766500244140625,0.0360720148563385,-0.0544566895917058,0.0008569090902805328
1761468909713483000,7.77648291015625,0.13076105385422707,-0.028029578176140782,-0.016358429604768753
1761468909723466200,7.78646630859375,0.08710662104487418,-0.04919657710641622,-0.04517009806931019
1761468909733448200,7.7964482421875,0.06839841344356537,-0.05513268915712833,-0.029966099196672438
1761468909743431200,7.80643115234375,0.1039940429598093,-0.0499950340077281,-0.1042290207594633
1761468909753414100,7.8164140625,0.08102642434835433,-0.045319151151180265,-0.11824527115225791
1761468909763396400,7.826396240234375,0.04282791885733604,-0.055958326326310634,-0.11501812579929828
1761468909773379300,7.83637939453125,0.028120179069042205,-0.046834524150192736,-0.08647942905724049
1761468909783361300,7.846361328125,0.0374140771150589,-0.054527124479413026,-0.07943067958950996
1761468909793344300,7.85634423828125,0.047321138623356816,-0.03652794193029404,-0.09518062190711497
1761468909803327200,7.8663271484375,0.0641448476523161,-0.0038350481182336804,-0.061408700686693185
1761468909813309200,7.87630908203125,0.09613163902163505,-0.03250263193696737,-0.0927963571190834
1761468909823292200,7.886292236328125,0.07279635614156722,-0.05105827932506799,-0.09593231705725193
1761468909833275400,7.896275390625,0.031032267123460768,-0.022416706730425357,-0.07118833642303943
1761468909843257000,7.906257080078125,0.0336930107653141,-0.0011918401330709458,-0.029802433067560193
1761468909853240300,7.916240234375,0.063486676004529,-0.021566811902821063,-0.03582242400944233
1761468909863223300,7.926223388671875,0.10933189685642719,-0.04817892449647188,-0.07360884156823158
1761468909873205200,7.936205322265625,0.06434416961669921,-0.06322159532755613,-0.09779285023212432
1761468909883188200,7.946188232421875,0.04854863459169864,-0.06946458137035369,-0.07892389911115169
1761468909893171200,7.956171142578125,0.06580839695036411,-0.05997428396940231,-0.05364449642598629
1761468909903153200,7.966153076171875,0.06724339818954467,-0.04391191470175981,-0.07930559190511703
1761468909913136000,7.97613623046875,0.09253390679061413,0.0006955810487270354,-0.08049684751629829
1761468909923119400,7.986119384765625,0.08901157788336277,-0.0023582535639405247,-0.07320201433300971
1761468909933101000,7.99610107421875,0.09666823011636734,-0.022991876269876955,-0.07947451873123645
1761468909943084300,8.006084228515626,0.07281155371069908,-0.04539601577967405,-0.11826046872138976
1761468909953067300,8.0160673828125,0.0010813654959201812,-0.04609627300351858,-0.0811234549820423
1761468909963049200,8.02604931640625,0.06139701024889946,-0.026693653397262096,-0.045110476836562156
1761468909973032200,8.0360322265625,0.06780921537876129,-0.03350479471683502,-0.02197860757410526
1761468909983015400,8.046015380859375,0.03546060495972633,-0.03183364663422107,0.011291209343075752
1761468909992997000,8.0559970703125,0.06362754577994346,-0.036708266933262346,-0.037577158722281456
1761468910002980400,8.06598046875,0.07262918288111686,-0.030975276239216327,-0.07341653386652469
1761468910012963300,8.07596337890625,0.050659927657246584,0.009370178152620793,-0.10634966617524623
1761468910022945300,8.0859453125,0.02187105554640293,-0.0017848375901579857,-0.1476683495134115
1761468910032928300,8.09592822265625,0.13622867161035537,-0.06713643068373203,-0.2291547925889492
1761468910042910200,8.10591015625,0.7928706256121396,-0.08435352294445038,-0.2821364411920309
1761468910052893200,8.11589306640625,-0.22742811492681503,0.02452887657880783,0.1662047076791525
1761468910062876200,8.125876220703125,-0.5262199228435754,-0.08296879058778285,0.06374152754843235
1761468910072858000,8.135858154296875,0.06865209594368935,-0.18470394870489834,-0.16232815850675106
1761468910082841000,8.145841064453125,0.11461772830486297,-0.09934007967412471,-0.05589607474505901
1761468910092824300,8.15582421875,-0.08369652034044266,-0.10025193382203579,-0.0267173265337944
1761468910102806000,8.165805908203126,0.06778875711262226,-0.14789046783149243,-0.16718553541004658
1761468910112789200,8.175789306640626,0.10820260056555271,-0.10611644194126128,-0.1471849499106407
1761468910122772200,8.185772216796876,0.05194529129266739,-0.057257426226139066,-0.053069911408424375
1761468910132754400,8.19575439453125,0.04595511096715927,-0.0334033801689744,-0.031765257573127745
1761468910142737200,8.205737060546875,0.1363280403316021,-0.03300064458698034,-0.01707563796341419
1761468910152720100,8.21572021484375,0.09589783026576042,-0.08321721239089966,-0.008721651116013526
1761468910162702300,8.225702392578125,0.01995557731389999,-0.060632455617189406,-0.04716857841014862
1761468910172685000,8.23568505859375,0.034166473495960234,-0.07503361367434262,-0.0330003523260355
