time,seconds_elapsed,z,y,x
1761468883604385300,0.11638525390625,0.09610475101470947,-0.032301556406915184,-0.04132920473217964
1761468883614368500,0.126368408203125,0.05651157629489898,-0.01733458116054535,-0.053337037912011144
1761468883624351500,0.1363515625,0.07317103467285632,0.00227525145560503,-0.04206920944452285
1761468883634333400,0.14633349609375,0.13834639441668986,0.006824293062090874,-0.0643535219669342
1761468883644316400,0.15631640625,0.09458967027664184,-0.010511749403178691,-0.04975684133768082
1761468883654298400,0.16629833984375,0.07528700391352176,0.022469605961441992,-0.000027472528815269467
1761468883664281300,0.17628125,0.08783318175375461,-0.01748831041753292,-0.03693827629685402
1761468883674264300,0.186264404296875,0.11756313410699366,-0.04525193113386631,-0.06657002897262573
1761468883684246300,0.196246337890625,0.0736690473228693,-0.03881926773786545,-0.080840546387434
1761468883694229200,0.206229248046875,0.04992401459813118,-0.051881578406691546,-0.09516542433798313
1761468883704212500,0.21621240234375,0.05030278478264808,0.0047153380841016765,-0.12931143956780433
1761468883714194200,0.226194091796875,0.10307342098355293,-0.06694149263352155,-0.11667407631278037
1761468883724177400,0.236177490234375,-0.004572130221128463,0.052822366388142104,-0.06608896745741367
1761468883734160400,0.246160400390625,0.1581605174332857,-0.020064882907271386,-0.05237783749103546
1761468883744142300,0.256142333984375,0.09250994139313698,-0.002556991006433964,-0.06406944432854653
1761468883754125300,0.266125244140625,0.03178571583926677,-0.0006947042658925056,-0.05875847843885421
1761468883764107500,0.276107421875,0.0902823284715414,-0.03598842822611332,-0.08037351339757443
1761468883774090200,0.28609033203125,0.12294950332045554,-0.051210255016386506,-0.07960077545940876
1761468883784073500,0.296073486328125,0.10173954203128814,-0.07402092950046062,-0.053419455498456954
1761468883794055400,0.306055419921875,0.09375263493061065,-0.05486351682692766,-0.04352759155929088
1761468883804038400,0.316038330078125,0.1019026236385107,-0.03199205206632614,-0.030002924075722692
1761468883814021400,0.326021484375,0.06985504199266433,0.026051556101441383,-0.023088614642620086
1761468883824003600,0.336003662109375,0.05583645351231098,0.07993979815542697,-0.020058453166484833
1761468883833986300,0.345986328125,0.04962532391250133,-0.011397300066053866,-0.09115326608717442
1761468883843969300,0.35596923828125,0.029992402681708333,-0.025911855369806287,-0.13164134382009504
1761468883853951500,0.365951416015625,0.03377776643931865,-0.0037561376631259917,-0.06238543676435947
1761468883863934500,0.3759345703125,0.02907937949001789,-0.05351560934931039,-0.05350362665057182
1761468883873916400,0.38591650390625,0.09730652801990508,-0.055683601038157934,-0.06350538070499896
1761468883883899400,0.3958994140625,0.13373217861950396,-0.05149900882989168,-0.08674830912649631
1761468883893882600,0.405882568359375,0.08725333603918552,-0.0369347691655159,-0.08788403515815735
1761468883903864300,0.4158642578125,0.07191197452247142,-0.0063601826816797255,-0.11464929248690604
1761468883913847600,0.42584765625,0.03572247076630592,0.013467092077434063,-0.09196925864517688
1761468883923830500,0.43583056640625,0.03153144881725311,-0.014819675730168819,-0.08946399782598018
1761468883933812500,0.4458125,0.03733867379128933,-0.06316460444331169,-0.11524316672682762
1761468883943795500,0.45579541015625,0.06045242287516594,-0.06609305911064148,-0.11182196010649204
1761468883953778400,0.4657783203125,-0.007049918511509895,-0.07358692199736833,-0.07597264809012412
1761468883963760400,0.475760498046875,-0.029576223096251485,-0.07477496273815631,-0.05143032750785351
1761468883973743400,0.485743408203125,0.05884148054718971,-0.07575316012054681,-0.09143559015989303
1761468883983725300,0.495725341796875,0.03196516405940056,-0.09240238936543464,-0.10811609132587909
1761468883993708300,0.505708251953125,0.04353460582196712,-0.07873422175794839,-0.09748130006492137
1761468884003691500,0.51569140625,0.10220891310870647,-0.06777239049971104,-0.06810673702061176
1761468884013673200,0.525673095703125,0.1061070895910263,-0.0645344314917922,-0.10689853222966193
1761468884023656400,0.535656494140625,0.03153437142670154,-0.0780064920052886,-0.11530629509091377
1761468884033639400,0.545639404296875,0.007184943068027496,-0.06816665051430464,-0.10722644900977611
1761468884043621400,0.555621337890625,-0.003817512461543083,-0.0432198407843709,-0.03196574858129024
1761468884053604400,0.565604248046875,0.07735621140301227,-0.011359598404169082,0.02243395012617111
1761468884063586600,0.575586669921875,0.10555237831771373,-0.036871348540484905,-0.008359832066297531
1761468884073569300,0.5855693359375,0.03846913912594318,-0.08394260405600071,-0.07228080783486365
1761468884083552300,0.59555224609375,0.05750935516059398,-0.07999708130061627,-0.12029343585371971
1761468884093534500,0.605534423828125,0.13154548223018644,-0.07436725872009992,-0.11759002211391925
1761468884103517200,0.61551708984375,0.0475964484333992,-0.0729670365333557,-0.060655836492776866
1761468884113500400,0.62550048828125,0.041533202871680254,-0.026589608500897883,-0.04842763856053352
1761468884123482400,0.635482421875,0.0467032989859581,-0.008849076887965202,-0.05308861610889434
1761468884133465300,0.64546533203125,0.03663900108933449,-0.037948037861287594,-0.08087269509136677
1761468884143448300,0.6554482421875,0.07011807684302329,-0.07110533431470394,-0.08822305785417556
1761468884153430500,0.665430419921875,0.1142716913461685,-0.0748167560532689,-0.11158405969738959
1761468884163413200,0.675413330078125,0.07275193247795105,-0.08825491429716348,-0.12730711400806904
1761468884173395500,0.6853955078125,0.06392623646557331,-0.021580840428173542,-0.07538052741587162
1761468884183378400,0.69537841796875,0.08138824339807033,-0.01478343537300825,-0.026396424016356466
1761468884193361400,0.705361328125,0.06137713650465011,-0.026003040784597396,-0.048636897397041315
1761468884203343400,0.71534326171875,0.046318683582544325,-0.048717561417818064,-0.07663958756625652
1761468884213326300,0.725326416015625,0.059814124971628184,-0.01905687490850687,-0.06779167972207069
1761468884223309600,0.7353095703125,0.09182195912897587,-0.02387012040913105,-0.06667699647843837
1761468884233291300,0.745291259765625,0.07133622046113014,-0.03746493051946163,-0.061441433912515636
1761468884243274500,0.7552744140625,0.044812370672822,-0.015442483803629874,-0.011580547678470611
1761468884253257500,0.765257568359375,0.09548281972408294,-0.051555415192246434,-0.0033119010269641873
1761468884263239400,0.775239501953125,0.12712298961281776,-0.09527151506096124,-0.07362754626870155
1761468884273222400,0.785222412109375,0.05658581057488918,-0.0812719235420227,-0.11584639331698417
1761468884283204400,0.795204345703125,0.09290624723434447,-0.06445522877573967,-0.13744506166279316
1761468884293187300,0.805187255859375,0.07988134596645832,0.026871055790781972,-0.11122983943223953
1761468884303170600,0.815170654296875,0.11325929943323135,-0.018529343903064727,-0.11058978796303272
1761468884313152300,0.82515234375,0.1172913314282894,-0.025952771902084348,-0.023389643415808677
1761468884323135500,0.835135498046875,0.09674129535257815,-0.036141865222156046,0.04681026649177074
1761468884333118500,0.845118408203125,0.06432429587244987,-0.040814533208310605,0.022661329141259193
1761468884343100400,0.855100341796875,0.06263911926448344,-0.07031359941512345,-0.0619353549093008
1761468884353083400,0.86508349609375,0.021513912671804428,-0.022747546119987964,-0.11433423518836498
1761468884363065600,0.875065673828125,0.009741641813516616,-0.005558510909974575,-0.13019932831823824
1761468884373048300,0.88504833984375,0.02166705740690231,-0.031127836452424524,-0.14887889434695242
1761468884383031300,0.89503125,0.05854688151478767,-0.07010112570822238,-0.10143032995164394
1761468884393013500,0.905013427734375,0.03981295495033264,-0.07797171295285224,-0.05459317545294761
1761468884402996000,0.914995849609375,0.07541209159791469,-0.08683627967089413,-0.03762976569235325
1761468884412979000,0.92497900390625,0.1007785880446434,-0.09604922143518924,-0.04743745847940445
1761468884422961000,0.9349609375,0.06543722555041313,-0.08103928382992744,-0.06648644234240055
1761468884432944000,0.944944091796875,0.003234744137525558,-0.038004444223642346,-0.0355623117685318
1761468884442926800,0.9549267578125,0.03268003433048725,-0.018610300184786318,-0.06232698457539081
1761468884452909000,0.964908935546875,0.04382452867925167,-0.036708266933262346,-0.09852934781312941
1761468884462892000,0.97489208984375,0.05518471160531044,-0.04603197559565306,-0.13194763329029083
1761468884472874000,0.9848740234375,0.06474632067680358,-0.06278232712745666,-0.14081366131305695
1761468884482857000,0.99485693359375,0.06839549083411693,-0.0662701692432165,-0.15411504143476484
1761468884492840000,1.00483984375,0.010835282269120216,-0.036194472192227836,-0.12739011611640452
1761468884502822000,1.01482177734375,0.005910100826621055,-0.040785307113826275,-0.09070376875400543
1761468884512804900,1.024804931640625,0.04179214606881142,-0.03639554772228002,-0.019394436299800873
1761468884522788000,1.0347880859375,0.09598024785220623,-0.0197767136156559,0.03323591464757919
1761468884532769800,1.044769775390625,0.10878712245523929,-0.04446194979995489,0.019048399341106415
1761468884542753000,1.0547529296875,0.10044599508941172,-0.06829582985192537,-0.06576631137430668
1761468884552736000,1.064736083984375,0.05083937587738037,-0.05253390483558178,-0.13278583768010138
1761468884562718000,1.074718017578125,0.04959317520856857,-0.040267128458619114,-0.16758885551393032
1761468884572701000,1.084700927734375,0.021972177833318708,-0.03728372873365879,-0.1737374412715435
1761468884582683100,1.09468310546875,-0.03167524120211601,-0.036784547039866444,-0.08886369384527205
1761468884592665900,1.104665771484375,0.023875965628027913,-0.010271510906517504,-0.048773675519227976
1761468884602649000,1.114649169921875,0.05135258609652519,-0.04941138890087604,-0.04168927021622657
1761468884612631000,1.124631103515625,0.06838263135254383,-0.020811609621345997,-0.0057411740005016325
1761468884622614000,1.134614013671875,0.08129530441761017,-0.037650808480381964,-0.05676525879502296
1761468884632597000,1.144596923828125,0.07350362762808799,-0.050180911968648434,-0.09559095627367496
1761468884642579200,1.1545791015625,0.023749124377965926,-0.05780541549772024,-0.09961188235282897
1761468884652562000,1.16456201171875,0.046885669815540314,-0.056333297118544574,-0.06865209594368935
1761468884662545000,1.174544921875,0.057633858323097226,-0.06510258676856756,-0.07124503504633903
1761468884672527000,1.184527099609375,0.031496377503871915,-0.0706359632372856,-0.10708031853735446
1761468884682509800,1.194509765625,0.01918926911652088,-0.03528378708809614,-0.10645254202783107
1761468884692492000,1.204491943359375,0.011208207234740256,-0.034353812761604784,-0.07752280014157295
1761468884702475000,1.21447509765625,0.05373042114377021,-0.02851414682269096,-0.09211071294248104
1761468884712458000,1.2244580078125,0.11209610087275504,-0.014931903932988643,-0.09084054687619209
1761468884722440000,1.23443994140625,0.06120294898152351,-0.016059154397249222,-0.060981415185332295
1761468884732423200,1.244423095703125,0.03956277958154678,-0.003581657879054546,-0.0537877042889595
1761468884742406000,1.254406005859375,0.042868835389614106,-0.020351006372272967,-0.08476035017967223
1761468884752388000,1.26438818359375,0.04214519729018211,-0.04483049085140228,-0.11875614328384398
1761468884762371000,1.27437109375,0.022646716094017028,-0.042081776665151116,-0.11856968080103397
1761468884772353000,1.28435302734375,0.07627952208220959,-0.05888239707946777,-0.08418927229344844
1761468884782336000,1.2943359375,0.09132102386951446,-0.029493805509805678,-0.0769493841677904
1761468884792319000,1.304319091796875,0.06401449927091599,-0.058035424861311906,-0.07180968319177627
1761468884802301000,1.314301025390625,0.04478782075345516,-0.06180179165750742,-0.028449849414825437
1761468884812284000,1.324283935546875,0.07646949169635772,-0.04111439293771982,-0.026387071666121482
1761468884822267100,1.33426708984375,0.09093874655365944,-0.04436901081949472,-0.044728784042596816
1761468884832248800,1.344248779296875,0.05804653077721596,-0.0012909165933728218,-0.037329321441054344
1761468884842232000,1.354232177734375,0.08317980298995971,-0.03378039678782224,-0.0689630615890026
1761468884852215000,1.364215087890625,0.09897124636173248,-0.0380696184143424,-0.07648936544060707
1761468884862197000,1.374197021484375,0.08408931905031204,-0.06171966633200645,-0.04717091649770736
1761468884872180000,1.384179931640625,0.057683542683720584,-0.07380991709828376,-0.06012625966072082
1761468884882162200,1.394162109375,0.07196458149254321,-0.08369827390611172,-0.08215805872678757
1761468884892145000,1.404144775390625,0.0925567031443119,-0.03173223208636045,-0.09217384130656718
1761468884902127900,1.4141279296875,0.043162849900126456,-0.006210837338864803,-0.07756897737085819
1761468884912110000,1.424110107421875,0.07446867326796054,0.010826514440774917,-0.06284779357910156
1761468884922092800,1.4340927734375,0.0940770445793867,-0.009439151735603809,-0.051699207577109337
1761468884932076000,1.444075927734375,0.05540682992339134,-0.038405426239967344,-0.05415887568891048
1761468884942058000,1.45405810546875,0.023013211318850518,-0.05213584542870521,-0.021308160966634748
1761468884952041000,1.464041015625,0.07850713500380516,-0.05936696572601795,-0.02848842785954475
1761468884962023000,1.47402294921875,0.1307674835950136,-0.06660977646112441,-0.04721767824888229
1761468884972006100,1.484006103515625,0.08353402325510978,-0.06601707126498221,-0.06145838504731655
1761468884981988900,1.49398876953125,0.08847615583240985,-0.05367518382519483,-0.09471475796103476
1761468884991971000,1.50397119140625,0.07664660182893276,-0.06302110431939363,-0.14264730648100377
1761468885001954000,1.5139541015625,0.061487611141800874,-0.05113631299734115,-0.1650619673848152
1761468885011937000,1.52393701171875,0.007250409519672393,-0.04958879129439592,-0.1518605405062437
1761468885021919000,1.5339189453125,0.02152911024093628,-0.030097616621851918,-0.09582418050765991
1761468885031902000,1.54390185546875,0.04776537525951862,0.004604278925061225,-0.02539630706310272
1761468885041884000,1.5538837890625,0.09981938762366771,-0.00652034167945385,-0.04468611394464969
1761468885051867100,1.5638671875,0.08591068925857544,-0.008096212694048881,-0.05203413861989974
1761468885061850000,1.57385009765625,0.07230769584178924,-0.04616963050067425,-0.037601124119758605
1761468885071832000,1.58383203125,0.08677285904586314,-0.028259003017842767,-0.04012625868320465
1761468885081815000,1.59381494140625,0.09913374344706535,-0.0643190351754427,-0.07492518486380577
1761468885091798000,1.603798095703125,0.1042290207594633,-0.07050941424816846,-0.09295534707307815
1761468885101780000,1.613780029296875,0.06522270601689815,-0.06916647520661354,-0.10050210919082164
1761468885111763000,1.623762939453125,0.030273557710647582,-0.05875935522168874,-0.06242635329663753
1761468885121746200,1.63374609375,0.00480710802078247,-0.0446051576629281,-0.058038347470760344
1761468885131728000,1.643727783203125,0.015234978532791137,-0.060390755815804,-0.07391805364787578
1761468885141711000,1.653711181640625,0.04803483985066414,-0.04187485591620207,-0.06926642844974994
1761468885151692800,1.66369287109375,0.07639701098203659,-0.031028467731177806,-0.06180149939656257
1761468885161676000,1.673676025390625,0.06105389589965343,-0.03278407922685146,-0.036788638693094254
1761468885171659000,1.683658935546875,0.06174889242649078,-0.038542496623098846,-0.035282325783371926
1761468885181641000,1.693640869140625,0.07963643129467964,-0.03787234227657318,-0.0631207653015852
1761468885191624000,1.7036240234375,0.03205284234285354,-0.06619301235377788,-0.07139116551876068
1761468885201607000,1.71360693359375,0.03961187942028045,-0.08035802356749773,-0.09584463877379894
1761468885211589000,1.723589111328125,0.05691138926744461,-0.08242197035998106,-0.10589724623262882
1761468885221571800,1.73357177734375,0.0506464836537838,-0.03840191910862922,-0.0785141492664814
1761468885231554000,1.743553955078125,0.08646832314133644,-0.05138999549746513,-0.1338613579571247
1761468885241537000,1.753537109375,0.07811784342527389,-0.01652355703860521,-0.1375520291686058
1761468885251520000,1.76352001953125,0.08321370525956154,0.013265139764547348,-0.08086158917546271
1761468885261502000,1.773501953125,0.06329261473715304,0.028131869506835935,-0.06699439186453819
1761468885271485200,1.783485107421875,0.07042553535699844,0.023852000230550764,-0.03794131585955619
1761468885281468000,1.793468017578125,0.07660042459964751,0.009003098405897617,-0.020866262418031693
1761468885291450000,1.8034501953125,0.06794599350094795,0.02607902863025665,-0.001360182437300682
1761468885301433000,1.81343310546875,0.07434300106167793,0.0043885903477668756,0.02259878529906273
1761468885311415000,1.8234150390625,0.09240589649677276,0.02317424709945917,0.017262100446224213
1761468885321398000,1.83339794921875,0.07844517568349837,0.021903496511280537,-0.029116204369068144
1761468885331381000,1.843381103515625,0.04949848266243934,-0.004852992989122867,-0.10454992327690124
1761468885341363000,1.853363037109375,0.043397243177890774,-0.030286124931275842,-0.09390928679704666
1761468885351346000,1.863345947265625,0.10696282963752746,-0.07218143911361694,-0.11581073748171329
1761468885361329200,1.8733291015625,0.11732348013222217,-0.06773118170648813,-0.10736381165385246
1761468885371310800,1.883310791015625,0.0765010558784008,-0.09466916525363922,-0.07527940512895584
1761468885381294000,1.893294189453125,0.08054185570180415,-0.08745265800356865,-0.08143208253979682
1761468885391277000,1.903277099609375,0.08371347147524356,-0.07510872473716736,-0.06648878042995929
1761468885401259000,1.913259033203125,0.053605333459377284,-0.07595978860855102,-0.07656710685193538
1761468885411245800,1.923245849609375,0.02049216840863228,-0.049722354546189305,-0.06654840166270733
1761468885421228000,1.93322802734375,0.04873217446506023,-0.06403261944949626,-0.0663274523884058
1761468885431211000,1.9432109375,0.09937807359695434,-0.06639262657910586,-0.05947101062238216
1761468885441193700,1.95319384765625,0.038927404287457466,-0.06939882265776395,-0.03787409584224224
1761468885451176000,1.963176025390625,0.03891396028399467,-0.059112698704004284,-0.02642331202328205
1761468885461159000,1.973158935546875,0.09720774382054805,-0.07602700862586498,-0.050964463561773296
1761468885471142000,1.983141845703125,0.04208966771066189,-0.08841799590438604,-0.027360300612449644
1761468885481123800,1.993123779296875,0.060300447183847423,-0.06984744320809841,-0.022931378254294393
1761468885491107000,2.003107177734375,0.11677519859969615,-0.06832037977129221,-0.028190321695804595
1761468885501088800,2.0130888671875,0.10197042817771435,-0.048968613569438456,-0.035163667839765544
1761468885511072000,2.023072021484375,0.059764440611004825,-0.06022212125062942,-0.030170681858062744
1761468885521055000,2.033054931640625,0.09909984117746352,-0.05570084443390369,-0.07166705985069274
1761468885531037000,2.043036865234375,0.1161065055578947,-0.16960779412090776,-0.10287351449728012
1761468885541020000,2.05302001953125,-0.02714753464460373,-0.007362929983437061,-0.10732990938425063
1761468885551003000,2.0630029296875,0.1150304007589817,-0.09907587577998637,-0.13355799109637737
1761468885560984800,2.07298486328125,0.0631464842647314,-0.02199526644796133,-0.1375824243068695
1761468885570967800,2.0829677734375,-0.03425298273563385,0.014673837518692015,-0.07698387095928191
1761468885580951000,2.092950927734375,0.11867431021928787,-0.047782618655264376,-0.07180383797287941
1761468885590932700,2.1029326171875,0.13599310928881167,-0.04986322432160377,-0.04811784195899963
1761468885600916000,2.112916015625,0.0724924047589302,-0.07768617400974034,-0.04600771793723106
1761468885610897700,2.122897705078125,0.04083002303838729,-0.049854456493258474,-0.03660977499485016
1761468885620881000,2.132880859375,0.10189444033205508,-0.05699117650538683,-0.034354689544439314
1761468885630864000,2.14286376953125,0.15815934838950632,-0.08439327043294906,-0.05489303518235683
1761468885640846000,2.15284619140625,0.10167466010153293,-0.048669630622863766,-0.06863982098400592
1761468885650828800,2.162828857421875,0.03320727307498455,-0.04867343001514673,-0.06735153473913669
1761468885660811800,2.172811767578125,0.03892506619989872,-0.029336569121479986,-0.07851531831026076
1761468885670794000,2.1827939453125,0.018013211074471472,-0.008681026844680308,-0.06811141319572925
1761468885680777000,2.19277685546875,0.032678865286707874,-0.04978548291027546,-0.09377250867485999
1761468885690759000,2.202759033203125,-0.0036368951976299283,-0.07204670681804418,-0.08102291721701621
1761468885700742000,2.212741943359375,0.02276069786250591,-0.06357640011459588,-0.06804536222219466
1761468885710724900,2.222724853515625,0.10068331097662449,-0.04847644613832235,-0.027584172496199606
1761468885720706800,2.232706787109375,0.10708090305924416,-0.10401888514012098,-0.09911971492171287
1761468885730690000,2.24268994140625,0.08085691300034523,-0.06199906779527664,-0.13922609986066817
1761468885740672800,2.2526728515625,0.06974106022417545,-0.013740356060862541,-0.130876789188385
1761468885750655000,2.262655029296875,0.08916881427168846,-0.015529869826138019,-0.12032733812332153
1761468885760638000,2.272637939453125,0.013150573474168776,-0.054578270144760604,-0.10214870735406875
1761468885770620000,2.282619873046875,-0.000779167678952217,-0.10068594132512808,-0.06328560047447682
1761468885780603000,2.292602783203125,0.07966565738916397,-0.0009407879814505577,-0.04922667998373508
1761468885790586000,2.302586181640625,0.024268179816007613,-0.02304536002278328,-0.04646422953307628
1761468885800567800,2.31256787109375,-0.02374678629040718,-0.028718729484081267,-0.0046603930264711374
1761468885810551000,2.322551025390625,0.03180909671485424,0.012201309925317764,-0.07438333307206631
1761468885820534000,2.332533935546875,0.044237785655260084,0.046506022848188874,-0.08911562277972698
1761468885830516000,2.342515869140625,0.03764963943660259,0.05518383482247591,-0.0929793124705553
1761468885840499000,2.3524990234375,0.06784954738914967,0.03631254561394453,-0.1007435167312622
1761468885850482000,2.36248193359375,0.09311901320219039,0.013944646461308002,-0.09897416897118091
1761468885860463900,2.3724638671875,0.08249123620390891,-0.02270195341259241,-0.09002396979629992
1761468885870446800,2.38244677734375,0.08784779480099678,-0.047938978260755535,-0.09601005846858024
1761468885880428800,2.3924287109375,0.07615034274458884,-0.04409253196567297,-0.08182137411832809
1761468885890411800,2.402411865234375,0.0632470220297575,-0.05234510426521301,-0.060901335686445235
1761468885900395000,2.41239501953125,0.0490121604502201,-0.045590077047049996,-0.03510696921646595
1761468885910376700,2.422376708984375,0.06445289068818091,-0.07760638677179812,-0.03464402787983417
1761468885920360000,2.43235986328125,0.09336801952719688,-0.0516024692043662,-0.012920271849632263
1761468885930343000,2.442343017578125,0.11482874070703983,-0.04754062659293413,-0.050098202121257776
1761468885940324900,2.452324951171875,0.031235096219182013,-0.06274754807502031,-0.09353577730953692
1761468885950307800,2.462307861328125,-0.033254034826159476,-0.04090338053554296,-0.13364976103305815
1761468885960290000,2.4722900390625,0.0397404742360115,-0.024978666172921656,-0.13423369840085506
1761468885970272800,2.482272705078125,0.07049976963698863,-0.00893500160574913,-0.08624445125758648
1761468885980255700,2.492255859375,0.06741758571267127,-0.010648527525365352,-0.031447277665138246
1761468885990238000,2.502238037109375,0.09632394672334194,-0.044976329062879086,-0.020037410378456116
1761468886000221000,2.512220947265625,0.11691782194077968,-0.047641456618905065,0.007003741282224655
1761468886010204000,2.522203857421875,0.10042086064815521,-0.027796353942155835,0.034333646756410596
1761468886020185900,2.532185791015625,0.11958265723586081,-0.04506429960727691,-0.02728548181056976
1761468886030169000,2.542169189453125,0.08990881898403168,-0.10235212097167969,-0.134515437951684
1761468886040150800,2.55215087890625,-0.017482465198636055,-0.10414601865112781,-0.16099194146692752
1761468886050134000,2.562134033203125,-0.005160743764042854,-0.06104454354941845,-0.14444354224801062
1761468886060117000,2.572116943359375,0.030585107877850532,-0.02902823382467031,-0.12049217329621315
1761468886070099000,2.582098876953125,0.025989012259244916,-0.07359627434760331,-0.11559504890441893
1761468886080082000,2.59208203125,-0.0034311434924602507,-0.057769759662449356,-0.10122340920269489
1761468886090065000,2.60206494140625,0.03137128981947899,-0.07450374458134174,-0.030580431702733037
1761468886100046800,2.612046875,0.09139292006194591,-0.08888181402385234,-0.04647475092709064
1761468886110029800,2.62202978515625,0.11063362710475921,-0.11259352900087832,-0.050285249125957485
1761468886120013000,2.632012939453125,0.10438742619156836,-0.09108721511363983,-0.048105566999316215
1761468886129994800,2.641994873046875,0.0392307711482048,-0.0941013022378087,-0.03323591464757919
1761468886139978000,2.65197802734375,0.04752630580663681,-0.05696691884696483,-0.06795476132929325
1761468886149959700,2.661959716796875,0.0297977568924427,-0.05295154572576284,-0.08805705363750457
1761468886159943000,2.67194287109375,0.0517442157626152,-0.06397095239013433,-0.06953004782199859
1761468886169926000,2.68192578125,0.020079495954513547,-0.07619009023308754,-0.0793289727807045
1761468886179907800,2.691907958984375,0.05212064785957336,-0.030386370435357093,-0.05367196895480156
1761468886189890800,2.701890869140625,0.06697568716406822,-0.021512451367080212,-0.07772446019351482
1761468886199874000,2.7118740234375,0.06468319231271744,-0.06331424204707145,-0.04894961660802364
1761468886209855700,2.721855712890625,0.04552899450957775,-0.06980126597881317,0.005936404311656951
1761468886219839000,2.7318388671875,0.08113748350739479,-0.057277007709443564,-0.024161796832084654
1761468886229821000,2.741821044921875,0.10032441453635692,-0.06991466322541237,-0.06454115349352359
1761468886239804000,2.751803955078125,0.03360065630674362,-0.052398003496229646,-0.060523150023818015
1761468886249787000,2.761786865234375,0.05188508553802967,-0.040939328631758684,-0.07170271568596363
1761468886259769000,2.77176904296875,0.06486205601096152,-0.06865414177030324,-0.10814473289847373
1761468886269751800,2.781751708984375,0.0834895995914936,-0.029705694694817063,-0.09096855717003345
1761468886279734800,2.79173486328125,0.07896949181854725,0.022284020261466503,-0.04874561846852302
1761468886289717000,2.801717041015625,0.07269406481087208,0.01116319904923439,-0.036222236981987954
1761468886299699700,2.81169970703125,0.0448819287776947,-0.047884325464069843,-0.10112520952522754
1761468886309682000,2.821681884765625,0.06776829884648322,-0.038354865096509455,-0.1194049625813961
1761468886319665000,2.831664794921875,0.04722703059911727,-0.05962152500897645,-0.07657178302705288
1761468886329647900,2.84164794921875,0.054615387284755706,-0.05888268934041262,-0.07090951948165893
1761468886339629800,2.8516298828125,0.06649579469263553,-0.05964198327511549,-0.06183715523183345
1761468886349613000,2.861613037109375,0.09319032487273216,-0.04949760587960481,-0.04683890806436539
1761468886359596000,2.871595947265625,0.07643383586108685,-0.03390782255977392,-0.0455570515602827
1761468886369578000,2.881577880859375,0.07737550062537193,-0.04255903878808021,-0.08930266978442668
1761468886379561000,2.89156103515625,0.05546411306858062,-0.054260582497715946,-0.12674305038452147
1761468886389543000,2.90154296875,0.07340192081928253,-0.05327449406981468,-0.11438391954898834
1761468886399526000,2.91152587890625,0.07247136197090148,-0.010981412741541862,-0.059905310386419296
1761468886409508400,2.92150830078125,0.05826280387639999,0.025846096657216548,-0.02814472898840904
1761468886419490600,2.931490478515625,0.050581017202138895,0.01217968261539936,-0.028411270970106123
1761468886429473300,2.941473388671875,0.06578150894343852,0.011263152292370796,-0.04112462207078933
1761468886439456500,2.95145654296875,0.09151274704933166,0.0018240005567669868,-0.06121347037553787
1761468886449438500,2.9614384765625,0.0639221448123455,-0.03091419370174408,-0.09302139804661273
1761468886459421400,2.97142138671875,0.04610533309280872,-0.09254413592368364,-0.14132745605409144
1761468886469404400,2.981404296875,0.08107084801197051,-0.06453852314502001,-0.1357476100951433
1761468886479386600,2.99138671875,0.06823474731445311,-0.07728110034018755,-0.12375497448444366
1761468886489369300,3.001369384765625,-0.026319267126917838,-0.035982875268161296,-0.06899111863970755
1761468886499351600,3.0113515625,-0.016705635607242583,-0.011935352465510368,-0.006900280907750129
1761468886509334500,3.02133447265625,0.03982522991001606,-0.04441811065822839,-0.028243513187766075
1761468886519317500,3.0313173828125,0.14333002804815767,-0.12108633979707956,-0.059761518001556393
1761468886529299500,3.041299560546875,0.07995148859322071,-0.05355097292363643,-0.0666933630913496
1761468886539282700,3.05128271484375,0.0977811597943306,-0.06695727472454309,-0.03730594056546688
1761468886549265400,3.061265380859375,0.14433306761085987,-0.07337181794196367,-0.10149462735950947
1761468886559247600,3.07124755859375,0.10008651412725449,-0.04655979886204004,-0.11439210285544395
1761468886569230600,3.081230712890625,-0.005025719207525253,-0.05178834716528654,-0.09360299732685089
1761468886579212500,3.091212646484375,0.03622808220088482,-0.06326718803495168,-0.12516250319480896
1761468886589195500,3.101195556640625,0.047018356284499165,-0.04769172550141811,-0.11789163540899752
1761468886599178500,3.111178466796875,0.004695464339852333,-0.04180412876754999,-0.07202946342229842
1761468886609160400,3.121160400390625,0.045942251485586165,-0.041590778277814384,-0.015937573844194412
1761468886619143400,3.131143310546875,0.12159925775527954,0.002018061824142933,-0.021797990310192108
1761468886629126700,3.141126708984375,0.11170680929422377,-0.008478197748959065,-0.017446809363365172
1761468886639108400,3.1511083984375,0.08279284949898719,-0.009371931718289851,-0.030699089646339415
1761468886649091600,3.161091552734375,0.09930676192641258,-0.02497749712914228,-0.06233925953507423
1761468886659073500,3.171073486328125,0.07600655035972595,-0.07520195597857236,-0.05135726227164268
1761468886669056500,3.181056396484375,0.07093173131346703,-0.0697299543082714,-0.04441548030972481
1761468886679039500,3.19103955078125,0.08849427601099014,-0.08401391572654247,-0.07417582780122757
1761468886689021700,3.201021728515625,0.04738777411878109,-0.09544014962613583,-0.09187807323038577
1761468886699004400,3.21100439453125,0.018297873234748838,-0.03765051621943712,-0.08764788831472396
1761468886708987400,3.2209873046875,0.0218985280752182,-0.019769114831089972,-0.07263561262190342
1761468886718969600,3.230969482421875,0.0506289479970932,-0.03886135331392288,-0.07909925567805767
1761468886728952300,3.240952392578125,0.07683890953063964,-0.0066971595510840415,-0.08565700675845146
1761468886738934500,3.2509345703125,0.09157762897908688,-0.025497137089073658,-0.06306698928773403
1761468886748917500,3.26091748046875,0.06521043105721473,-0.021048633247613906,-0.020650573840737343
1761468886758900500,3.270900390625,0.08482815471887588,-0.06040536886304616,-0.01948211458325386
1761468886768882400,3.28088232421875,0.11329729335606098,-0.06096914022564888,-0.054898880401253694
1761468886778865700,3.29086572265625,0.0725923580020666,-0.06365794091820716,-0.05961071135401726
1761468886788848400,3.300848388671875,0.03663900108933449,-0.08047317437976598,-0.07921849814355372
1761468886798830600,3.31083056640625,0.051200610405206674,-0.09687953477948903,-0.10289280371963977
1761468886808813600,3.3208134765625,0.0706318715840578,-0.07167933481037617,-0.11088204890787601
1761468886818795500,3.33079541015625,0.03286357420384884,-0.06480360382199286,-0.07428805600404739
1761468886828778500,3.340778564453125,0.059765609654784196,-0.056227498656511304,-0.07411445300281047
1761468886838761500,3.350761474609375,0.07654781762957573,-0.03387655063867569,-0.09470248300135135
1761468886848743400,3.360743408203125,0.03251695272326469,-0.03550035244822502,-0.08862871604561805
1761468886858726400,3.370726318359375,0.043267479318380354,-0.017083821269869803,-0.09305822292566299
1761468886868709600,3.380709716796875,0.05626724614500999,-0.0298544555157423,-0.08620996446609497
1761468886878691300,3.39069140625,0.06373685137331485,-0.016126666675508022,-0.07901625356972217
1761468886888674600,3.400674560546875,0.028774259063601492,-0.013723112665116785,-0.06823299374878405
1761468886898656300,3.41065625,0.027685879305005073,-0.03707710024565458,-0.043005613511800767
1761468886908639500,3.420639404296875,0.07040799970030784,-0.04209609745144844,-0.016315759506821632
1761468886918622500,3.43062255859375,0.07370236507058144,-0.060933484390378,-0.05377776741683483
1761468886928604400,3.4406044921875,0.052346273308992386,-0.0314294497475028,-0.04214695085585117
1761468886938587400,3.45058740234375,0.026311083820462225,-0.04479425049424171,-0.07149579493701458
1761468886948570400,3.4605703125,0.028414778101444244,-0.001408405493199825,-0.13971534468233585
1761468886958552600,3.470552490234375,0.13309680332541465,-0.11878887650966644,-0.1336181968510151
1761468886968535300,3.480535400390625,0.09597031098008155,-0.04731704697012901,-0.0860994898289442
1761468886978517500,3.490517578125,0.1184942774772644,-0.06472703145444393,-0.0847965905368328
1761468886988500500,3.50050048828125,0.074853873193264,-0.04238105187267065,-0.06400280883312225
1761468886998483500,3.5104833984375,0.011433832684159278,-0.007738777558505535,-0.01360182437300682
1761468887008465400,3.52046533203125,0.006013561201095581,-0.017613690362870693,-0.018613515055179594
1761468887018448600,3.53044873046875,0.02096738470494747,-0.04601765480935573,-0.060790861049294466
1761468887028431400,3.540431396484375,0.032528643161058426,-0.08408025896102189,-0.07745148847103119
1761468887038413600,3.55041357421875,0.08292728953361511,-0.08420593116730452,-0.05846504845023155
1761468887048396500,3.560396484375,0.08556114516854285,-0.08170154713094234,-0.06952069547176361
1761468887058379500,3.570379638671875,0.08288754204511642,-0.07591857981532811,-0.03193067726790905
1761468887068361500,3.580361572265625,0.10333645583391189,-0.051017362792789935,-0.03902092778980732
1761468887078344700,3.5903447265625,0.06223404559493065,-0.06994388931989669,-0.07195522914230823
1761468887088326400,3.600326416015625,0.04885024788677692,-0.06690232966691255,-0.099035543769598
1761468887098309600,3.6103095703125,0.0642751960337162,-0.036680502143502235,-0.1283884795039892
1761468887108292600,3.620292724609375,0.0752764825195074,-0.01778057136237621,-0.13236907357275485
1761468887118274600,3.630274658203125,0.045724809342622755,-0.062304480482637876,-0.12330138549804687
1761468887128257500,3.640257568359375,-0.035547698721289635,-0.04365267924368381,-0.09147299956083298
1761468887138240500,3.650240478515625,-0.007525134807825088,-0.0794984841287136,-0.06701894178390502
1761468887148222500,3.660222412109375,0.02663841607868671,-0.11793898168206214,-0.04711012622117996
1761468887158205400,3.670205322265625,0.06500935552716255,-0.08135404886752366,-0.03501519927978516
1761468887168187400,3.6801875,0.10803834991455077,-0.07765782469809054,-0.07026537635922432
1761468887178170400,3.69017041015625,0.09401333169341086,-0.07600713488161563,-0.06154138715565204
1761468887188153600,3.700153564453125,0.09259761967658996,-0.03126169196516275,-0.06335925023257732
1761468887198135300,3.71013525390625,0.10018938997983932,-0.019297990188002587,-0.09383096086382865
1761468887208118500,3.720118408203125,0.06378478216826915,0.005590659613907337,-0.08542144443690776
1761468887218101500,3.7301015625,0.009932195949554443,0.03504559441804886,-0.08047989638149738
1761468887228083500,3.74008349609375,0.00006137479841709136,0.033060558080673215,-0.09140168789029121
1761468887238066400,3.75006640625,0.028425884017348288,0.003802607153356075,-0.08076981923878192
1761468887248048600,3.760048583984375,0.0522539188504219,-0.024366671754419804,-0.08994564386308193
1761468887258031400,3.77003125,0.06028875674605369,-0.0327627441778779,-0.07344400639533996
1761468887268014300,3.780014404296875,0.04214519729018211,-0.08965601326674222,-0.058953708750009534
1761468887277996500,3.78999658203125,0.028068741142749785,-0.09875935717672109,-0.09433189612329006
1761468887287979300,3.799979248046875,0.052453825336694716,-0.07058131044059991,-0.07039923187196254
1761468887297962500,3.80996240234375,0.02736146965622902,-0.0600005874544382,-0.08268822008073329
1761468887307944400,3.8199443359375,0.013646832558512687,-0.05082184022068977,-0.08212707906663418
1761468887317927700,3.829927734375,0.05201075774431228,-0.050874739451706404,-0.08767068466842173
1761468887327909400,3.839909423828125,0.03895020064115524,-0.041418052059412,-0.10935936938524246
1761468887337892600,3.849892578125,-0.006132803666591644,-0.05907645834684372,-0.09474982927441597
1761468887347875600,3.85987548828125,0.034139000967144964,-0.08129355085194111,-0.08520283325016498
1761468887357857500,3.869857421875,0.06796703628897667,-0.06902677447497844,-0.07044014840424061
1761468887367840500,3.879840576171875,0.04098375229537487,-0.08685469211041927,-0.0624275223404169
1761468887377823500,3.889823486328125,0.015582184535264968,-0.06270458571612834,-0.043048283609747884
1761468887387805400,3.899805419921875,0.03048281654715538,-0.05188976171314716,-0.09657412209212779
1761468887397788400,3.909788330078125,0.049826983964443204,-0.0586895048558712,-0.08297288224101067
1761468887407767000,3.91976708984375,0.04047755633890628,-0.06069529172033071,-0.08913432748019695
1761468887417750000,3.92975,0.06260697056055069,-0.05288724831789732,-0.059984220841526985
1761468887427733200,3.939733154296875,0.044561026260256764,-0.03885784618258476,-0.012216507494449615
1761468887437715000,3.94971484375,0.06281389130949974,-0.038780981554090974,-0.01441957049667835
1761468887447698200,3.9596982421875,0.07454816824495791,-0.044262920096516604,-0.05098784443736076
1761468887457681200,3.96968115234375,0.10047697474956511,-0.0029798925936222074,-0.04925941320955753
1761468887467663000,3.9796630859375,0.10602642557024955,-0.008753215298056602,-0.051968087646365166
1761468887477646000,3.98964599609375,0.07061842758059501,-0.0194824068441987,-0.08655483238101006
1761468887487628300,3.999628173828125,0.022972879308462143,-0.02630874573290348,-0.08572422677576541
1761468887497611000,4.009611083984375,0.07367138541042804,-0.019539689989387987,-0.0686146865427494
1761468887507594000,4.019593994140625,0.14503975457549095,-0.00675385817438364,-0.05302724131047725
1761468887517576200,4.029576171875,0.1441746621787548,-0.028587504319846628,-0.06848316911756992
1761468887527559200,4.03955908203125,0.04946808752417564,-0.02611351542174816,-0.08289163369834422
1761468887537542100,4.049542236328125,0.027572482058405876,-0.011220482194423675,-0.09767945298552512
1761468887547524000,4.059524169921875,0.011835983744263649,-0.007284896311163902,-0.1190343757033348
1761468887557507000,4.069507080078125,0.028691841477155682,-0.015288754546642302,-0.08116904768943786
1761468887567489000,4.079489013671875,0.09518120642900467,-0.015152853207290172,-0.07892857528626919
1761468887577472300,4.08947216796875,0.10617372508645057,-0.0378299644395709,-0.06362696125805378
1761468887587455000,4.099455078125,0.06846621798276901,-0.051901744411885734,-0.07653612719178199
1761468887597437200,4.109437255859375,0.03857610663175583,-0.018444003707170486,-0.04353460582196712
1761468887607420200,4.119420166015625,0.06325286724865437,-0.02258855616599321,-0.030841128465533253
1761468887617403100,4.129403076171875,0.045884968340396876,-0.06253185949772597,-0.07022095269560813
1761468887627385000,4.139385009765625,0.0747410604685545,-0.03175181356966495,-0.058222471866011614
1761468887637368300,4.149368408203125,0.11932605212628841,-0.019710078120231626,-0.06416822852790355
1761468887647350000,4.15935009765625,0.10863339319825172,-0.026916356237232684,-0.12490940521657466
1761468887657333200,4.169333251953125,0.027590017715096473,-0.04646861344724893,-0.14212357486784458
1761468887667316200,4.179316162109375,0.019176994156837462,-0.0271574715167284,-0.1408288588821888
1761468887677298200,4.189298095703125,0.03898761004209518,-0.03790156837105751,-0.1172831481218338
1761468887687281200,4.19928125,0.02210194169282913,-0.060035366506874556,-0.054798927158117294
1761468887697264000,4.20926416015625,0.08700432971417904,-0.05876870757192373,-0.055712534871697424
1761468887707246000,4.21924609375,0.1269207450389862,-0.07505261063575744,-0.042837855729460715
1761468887717229000,4.22922900390625,0.1124725329697132,-0.07002513786256313,-0.05195172103345394
1761468887727212300,4.23921240234375,0.05960778874456882,-0.0588832738623023,-0.1061246252477169
1761468887737194000,4.249194091796875,0.03901157543957233,-0.035114860261976716,-0.10370528914630413
1761468887747177200,4.25917724609375,0.031193595165014264,-0.025023674358427523,-0.09973813908100128
1761468887757159000,4.269158935546875,0.04036883526742458,-0.004264963968098163,-0.09037585197389125
1761468887767142100,4.27914208984375,0.0835287625581026,0.0030053192958235738,-0.04584171372056007
1761468887777125000,4.289125,0.055792029848694795,-0.033956922398507595,-0.02665244460403919
1761468887787107000,4.299107177734375,0.045996612021327016,-0.03658610185831785,-0.01767009672522545
1761468887797090000,4.309090087890625,0.0769499686896801,-0.05553250212967396,-0.04436404238343238
1761468887807072300,4.319072265625,0.06347732365429401,-0.0768649207547307,-0.060953358134627336
1761468887817055200,4.32905517578125,0.07115326510965823,-0.09356558792591095,-0.07914601742923259
1761468887827038000,4.339037841796875,0.07595277434587479,-0.10799860242605208,-0.12228840906322001
1761468887837020200,4.349020263671875,0.09706687404513359,-0.10861176588833331,-0.143329443526268
1761468887847003100,4.359003173828125,0.006121113228797912,-0.033959552747011186,-0.08988836071789263
1761468887856986000,4.368986083984375,0.03232055336833,-0.055087096449732774,-0.11309387973845005
1761468887866968000,4.378968017578125,0.03812134860157966,-0.02672083366513252,-0.09126081811487674
1761468887876951300,4.388951416015625,0.043918052181601525,-0.036378888848423954,-0.05381517681777477
1761468887886933000,4.39893310546875,0.08325812892317772,-0.0009530629411339759,-0.01768821690380573
1761468887896916200,4.408916259765625,0.12373393169641494,0.010607318732142448,-0.04987257667183876
1761468887906899200,4.418899169921875,0.033575521865487096,-0.009605448213219642,-0.07206804186701775
1761468887916881200,4.428881103515625,-0.0031681086421012877,-0.022872049282491206,-0.05637246008515358
1761468887926864100,4.438864013671875,0.032170331242680546,-0.016641045938432214,-0.023903438156843183
1761468887936847000,4.44884716796875,0.10209493134021759,-0.03246346897035837,-0.057196051427721974
1761468887946829000,4.4588291015625,0.09525894784033298,-0.04172697187811136,-0.061350833019614213
1761468887956812000,4.46881201171875,0.11748480817377567,-0.07358984460681676,-0.07488426833152771
1761468887966795300,4.478795166015625,0.15258651669323445,-0.12598141836225984,-0.10768763678073882
1761468887976777000,4.48877685546875,0.09298165055811404,-0.13892302526086567,-0.1094575690627098
1761468887986760200,4.49876025390625,0.042433951103687285,-0.066700085093081,-0.10982523333132266
1761468887996742000,4.508741943359375,0.026637831556797026,-0.030423779836297033,-0.12240414439737796
1761468888006725000,4.51872509765625,0.03348609001636505,-0.02920271360874176,-0.12137772395908832
1761468888016708000,4.5287080078125,0.07683949405252934,-0.010464695391058921,-0.06170388424098491
1761468888026690000,4.53868994140625,0.07563654800355434,0.003622282150387764,-0.035461774003505704
1761468888036673000,4.548673095703125,0.044571547654271126,-0.036113223649561405,-0.09005378041267395
1761468888046656300,4.55865625,0.0920166049182415,-0.08838146328628063,-0.005884966385364532
1761468888056638000,4.568637939453125,0.027965865290164947,-0.033630174662172795,-0.04482639919817447
1761468888066621200,4.57862109375,0.01243453415930271,-0.06453939992785454,-0.09218027104735374
1761468888076603100,4.58860302734375,0.03542494912445545,-0.0346995574593544,-0.1460223358720541
1761468888086586000,4.598586181640625,0.0814285754084587,-0.12161737793385982,-0.18847148454487322
1761468888096569000,4.608569091796875,0.06525251663327217,-0.07683364883363246,-0.089585578379035
1761468888106551300,4.61855126953125,0.029493220987915993,-0.00969400327950716,-0.034111528438329694
1761468888116534000,4.628533935546875,0.04998246678709983,-0.04432517167776823,-0.03515840714275837
1761468888126517000,4.63851708984375,0.06645078650712967,-0.060546823160350316,-0.05017652805447578
1761468888136499200,4.648499267578125,0.051992053043842315,-0.05796498997360468,-0.060462944269180294
1761468888146482000,4.65848193359375,0.029490882900357243,-0.062200143325328826,-0.0905570537596941
1761468888156464000,4.668464111328125,0.03360825509130955,-0.05781885950118303,-0.12416297076344489
1761468888166447000,4.678447021484375,0.054413142710924144,-0.028714930091798305,-0.13029518990814684
1761468888176430300,4.688430419921875,0.005315642064809799,-0.023859014493227002,-0.10981412741541861
1761468888186412000,4.698412109375,-0.016537877824902535,-0.026194763964414596,-0.09506254848539829
1761468888196395300,4.708395263671875,0.05005085584819317,-0.012408815196156501,-0.0774941585689783
1761468888206378200,4.718378173828125,0.050931730335950845,-0.030008184772729873,-0.05907353573739528
1761468888216360200,4.728360107421875,0.04592296226322651,-0.02860445545464754,-0.05424655397236347
1761468888226343200,4.73834326171875,0.0441413395434618,-0.00820785637497902,-0.04927694886624813
1761468888236325000,4.7483251953125,0.03318564576506614,-0.06687865653038025,-0.020905425384640693
1761468888246308000,4.75830810546875,0.06110241121649742,-0.0333642172023654,-0.1162637419462204
1761468888256291000,4.768291015625,0.04701192654371261,-0.050721886977553365,-0.12236264334321022
1761468888266273000,4.77827294921875,0.015170681124925613,-0.05189969858527183,-0.07886953857541083
1761468888276256000,4.788256103515625,-0.024018004447221755,-0.0244908826559782,-0.06920037747621535
1761468888286239200,4.7982392578125,-0.013471475991606712,-0.04063654629290104,-0.01910217535495758
1761468888296221000,4.808220947265625,-0.040863925307989116,-0.008368307633697987,-0.05443067836761474
1761468888306204200,4.8182041015625,-0.03509118712544441,-0.06637099926918745,-0.10596095911860465
1761468888316186000,4.82818603515625,-0.014158289211988449,-0.06959609879553318,-0.14881167432963846
1761468888326169000,4.838169189453125,0.06665536916851997,-0.08016659264862537,-0.12057634444832802
1761468888336152000,4.848152099609375,0.04783960953950882,-0.09781506206393241,-0.08410510114133357
1761468888346134300,4.85813427734375,0.0803086314678192,-0.09881079510301351,-0.052075639674067496
1761468888356117000,4.868116943359375,0.09897241540551185,-0.08854308358877896,-0.006806172883510589
1761468888366100000,4.878099853515625,0.04345452632308006,-0.07855009736269712,-0.011550152540206908
1761468888376082200,4.888082275390625,0.010309797090291976,-0.0847033592954278,-0.031385318344831464
1761468888386065000,4.89806494140625,0.027175591695308685,-0.08287175995409488,-0.06531856760680675
1761468888396047000,4.908047119140625,0.01379705468416214,-0.09125877228826283,-0.11391805560290813
1761468888406030000,4.918030029296875,-0.04468903655409813,-0.060169514280557626,-0.10534662661254406
1761468888416013300,4.928013427734375,-0.020966800183057785,-0.07719751370996236,-0.07342705526053905
1761468888425995300,4.937995361328125,0.014762684845924377,-0.09002133944779633,-0.1093617074728012
1761468888435978200,4.947978271484375,0.010643559089303017,-0.10681611464321612,-0.10930734693706035
1761468888445961200,4.957961181640625,-0.011596914291381835,-0.11634499048888683,-0.11405366468131542
1761468888455943400,4.967943359375,0.0177811558842659,-0.08261135545223951,-0.0743096833139658
1761468888465926100,4.977926025390625,0.03803483936190605,-0.07132628358900546,-0.02461947747170925
1761468888475908400,4.987908447265625,0.06409925494492054,-0.07257219199687243,-0.051746553850173946
1761468888485891300,4.997891357421875,0.0604758037507534,-0.07190963643491267,-0.07939736184179783
1761468888495874000,5.0078740234375,0.04335398855805397,-0.07094049914181232,-0.08383797463774681
1761468888505856300,5.017856201171875,0.04062836298644543,-0.08750818758308887,-0.11359949117302894
1761468888515839200,5.027839111328125,0.017839608073234557,-0.053745326451957225,-0.12906710941791533
1761468888525822200,5.037822265625,0.036812019568681714,-0.009889233590662478,-0.06783259625434875
1761468888535804200,5.04780419921875,0.06790040079355239,-0.025654957999289036,-0.06532908900082111
1761468888545787400,5.057787353515625,0.05686988821327686,-0.023835049095749853,-0.05019172562360763
1761468888555769000,5.06776904296875,0.07579027726054191,-0.07069353864341973,-0.053799394726753234
1761468888565752300,5.07775244140625,0.06436871953606606,-0.08706161285936832,-0.0923433526545763
1761468888575735300,5.0877353515625,0.0946177273273468,-0.07366349436491727,-0.11713526408374308
1761468888585717200,5.09771728515625,0.06137421389520168,-0.06452274105399847,-0.15868717165589333
1761468888595700200,5.1077001953125,-0.012641454908251762,-0.018155834415555,-0.14296937804222107
1761468888605682400,5.117682373046875,0.06483984417915344,-0.025163375090062615,-0.1186468376904726
1761468888615665200,5.1276650390625,0.08087211056947707,-0.012103110247850418,-0.07615151178836822
1761468888625648400,5.1376484375,0.046488194930553436,-0.04344429719001054,-0.0279547593742609
1761468888635630300,5.14763037109375,0.09557868131399154,-0.021240940949320792,-0.01390811384320259
1761468888645613300,5.15761328125,0.12922726841568946,-0.02512567342817783,-0.024027941319346425
1761468888655596300,5.16759619140625,0.136619132232666,0.012759820590913296,0.005563479346036911
1761468888665578200,5.177578125,0.12408581387400626,0.04609627300351858,0.04810848960876465
1761468888675561200,5.187561279296875,0.15157003312706946,0.002627425894141197,-0.035028643283247944
1761468888685543400,5.19754345703125,0.16644611521959304,0.002425473581254482,-0.0469470446139574
1761468888695526400,5.2075263671875,0.0759738171339035,0.02091039382070303,-0.05765022493600845
1761468888705509000,5.217509033203125,0.10413432821333407,0.002874386392533779,-0.15314298153221606
1761468888715491300,5.2274912109375,0.12378536962270736,-0.001522095000743866,-0.11282383062541484
1761468888725474300,5.237474365234375,0.07468611541092396,-0.011010931096971035,-0.07908405810892581
1761468888735457300,5.247457275390625,0.11219780768156051,0.007543547247350215,-0.033496026888489724
1761468888745439200,5.257439208984375,0.08318214107751846,-0.004676175117492676,0.013818681994080543
1761468888755422500,5.26742236328125,0.06013035131394863,-0.04087327765822411,0.029675591817498206
1761468888765404200,5.277404052734375,0.08428864101469516,-0.03890986863076687,0.03459843517243862
1761468888775387400,5.287387451171875,0.13369710730612278,-0.03376578374058008,-0.03752513627409935
1761468888785370400,5.297370361328125,0.033790041399002074,-0.014297113160789012,-0.09248188434243201
1761468888795352300,5.307352294921875,0.03700608083605766,-0.043110242930054665,-0.1510024623721838
1761468888805335300,5.317335205078125,0.03596329378485679,-0.05297609564512968,-0.12539748099446296
1761468888815318300,5.327318359375,0.01310731885433197,0.005560848997533321,-0.08352817803621292
1761468888825300200,5.33730029296875,0.028525837260484695,-0.024983926869928834,-0.08087854031026363
1761468888835283200,5.347283203125,0.08937281241118908,-0.035487785227596755,-0.10098083261847496
1761468888845265400,5.357265380859375,0.04861819269657135,-0.05971329494565725,-0.12059738723635673
1761468888855248100,5.367248046875,0.002315291205048561,-0.0551926026508212,-0.07276771456897259
1761468888865231400,5.3772314453125,0.10834697747230529,-0.059580316215753555,-0.0505763410270214
1761468888875213300,5.38721337890625,0.1421925484508276,-0.039455812075734134,-0.07616787840127945
1761468888885196300,5.3971962890625,0.0858726953357458,-0.061413376861810684,-0.058631052666902536
1761468888895179300,5.40717919921875,0.05167407313585281,-0.06281652165800333,-0.0867664293050766
1761468888905161500,5.417161376953125,0.07168576455116271,-0.03350771732628345,-0.10787234569787979
1761468888915144200,5.427144287109375,0.07753507510125636,-0.01318096861243248,-0.10504033714234828
1761468888925126400,5.43712646484375,0.05449614481925964,-0.0274079391464591,-0.08373334521949291
1761468888935109400,5.447109375,0.061622635698318474,-0.028331775993108748,-0.055199909174442285
1761468888945092000,5.457092041015625,0.12290917131006716,-0.04077273989319801,-0.052312955561280246
1761468888955074300,5.46707421875,0.10744622924029827,-0.04180179067999124,-0.06594575959444046
1761468888965057300,5.477057373046875,0.058711716687679286,-0.031021161207556724,-0.05490706370770931
1761468888975040300,5.487040283203125,0.09616203415989875,-0.018746786046028138,-0.07757423806786537
1761468888985022200,5.497022216796875,0.1213432371675968,-0.013665537258982658,-0.07198854689002036
1761468888995005400,5.50700537109375,0.06194061560630798,0.010078618682920933,-0.03328969066143036
1761468889004987100,5.516987060546875,0.07707856350541115,0.055898412832617754,-0.04575988065600395
1761468889014970400,5.526970458984375,0.06272153685092925,0.012947744378447533,-0.09137713797092437
1761468889024953300,5.536953369140625,0.05011106160283088,-0.016921908706426618,-0.11953881809413433
1761468889034935300,5.546935302734375,0.0600835895627737,-0.030481647503376005,-0.14742694197297096
1761468889044918300,5.556918212890625,0.13646364941000938,0.0006485270366072655,-0.05899287171661854
1761468889054901200,5.5669013671875,0.1295522625863552,0.022764497254788876,-0.0012228197932243347
1761468889064883200,5.57688330078125,0.08510346452891826,-0.0008048866420984267,0.0017559037566184997
1761468889074866200,5.5868662109375,0.08259878823161125,-0.021130174051225185,-0.014106266763806342
1761468889084848000,5.59684814453125,0.10628069259226322,-0.06529723255783319,-0.04006897553801536
1761468889094831000,5.6068310546875,0.09362520915865898,-0.09796265384107827,-0.050535424494743346
1761468889104814300,5.616814453125,0.0954103390097618,-0.10558832641392946,-0.06457856289446354
1761468889114796300,5.62679638671875,0.059793666705489155,-0.06090659638345241,-0.031229835522174832
1761468889124779300,5.636779296875,0.007637363010644912,-0.030889059260487555,-0.018477905976772308
1761468889134762200,5.64676220703125,0.016849427992105485,-0.02652268074452877,-0.009383914417028426
1761468889144744200,5.656744140625,0.06457973193824292,-0.01945288848876953,-0.010769231295585631
1761468889154727200,5.66672705078125,0.09924714069366454,-0.022633272090554237,-0.007903320470452307
1761468889164709400,5.67670947265625,0.14195990873873232,-0.051713528363406654,-0.07022738243639469
1761468889174692000,5.686692138671875,0.13991349760293958,-0.0693099753305316,-0.09076514355242252
1761468889184675300,5.69667529296875,0.10417992092072963,-0.07247106970995665,-0.07659107224941253
1761468889194657300,5.7066572265625,0.04745733222365379,-0.10775836392939091,-0.05815232923924923
1761468889204640500,5.716640625,0.04643617248237133,-0.10109013821184634,-0.03950374287068844
1761468889214622200,5.726622314453125,0.0840694453060627,-0.10900222651064395,-0.04650163893401622
1761468889224605400,5.73660546875,0.09100713561475277,-0.11882277877926825,-0.07076105092167854
1761468889234588400,5.74658837890625,0.06565349864959716,-0.08098843042552471,-0.06544131720364094
1761468889244570400,5.7565703125,0.05487199239432811,-0.05203618444651365,-0.02790215240418911
1761468889254553300,5.76655322265625,0.05869535007476806,-0.0878317204490304,-0.044003392377495766
1761468889264536300,5.776536376953125,0.06365326474308967,-0.10503332287967204,-0.041586394363641734
1761468889274518300,5.786518310546875,0.08095978885293006,-0.1012295466825366,-0.020219196686148643
1761468889284501200,5.796501220703125,0.09452478834688663,-0.10760434241145848,-0.03012976532578468
1761468889294483200,5.806483154296875,0.10621814875006676,-0.09333879343271255,-0.0741834265857935
1761468889304466200,5.816466064453125,0.09792729026675223,-0.06247048469930887,-0.05811082818508148
1761468889314449400,5.826449462890625,0.06604980449080466,-0.061864920021593564,-0.05802081181406975
1761468889324431000,5.83643115234375,-0.0028396073400974273,-0.05223930580317974,-0.04875146368741989
1761468889334414300,5.846414306640625,0.02780921342372894,-0.04233516690433025,-0.011644845086336135
1761468889344397300,5.856397216796875,0.09894260478913783,-0.057792848277091975,-0.06855155817866325
1761468889354379300,5.866379150390625,0.08761281700134277,-0.06675619919449091,-0.07898118225634097
1761468889364362200,5.8763623046875,0.10284253483712673,-0.06468173100799322,-0.0524240147203207
1761468889374344400,5.886344482421875,0.11505962685346603,-0.054874622742831704,-0.06422843428254127
1761468889384327200,5.8963271484375,0.11820903079509734,-0.045478141105175014,-0.005166004461050033
1761468889394310100,5.90631005859375,0.09383446799516677,-0.050667526441812515,-0.009900631767511367
1761468889404292400,5.916292236328125,0.1098930378705263,-0.05672171191424131,-0.037321722656488414
1761468889414278700,5.926278564453125,0.0703577308177948,-0.05392506693303585,-0.020887889727950096
1761468889424262000,5.936261962890625,0.05578209297657013,-0.025471125864982604,-0.046563013732433316
1761468889434243800,5.946243896484375,0.07390227155685425,-0.02746814490109682,-0.08339607608914375
1761468889444226800,5.956226806640625,0.063359834754467,-0.06349836644232272,-0.11477145756185055
1761468889454208800,5.966208740234375,0.04374211109280586,-0.039135494080185886,-0.11292086125910282
1761468889464192000,5.97619189453125,0.038465047472715376,-0.030370296083390712,-0.0920294643998146
1761468889474174700,5.9861748046875,0.0437578931838274,0.015129764592647551,-0.0513344659179449
1761468889484157000,5.996156982421875,0.05677928732037544,-0.010396598590910433,-0.05891045413017273
1761468889494140000,6.006139892578125,0.0231663560539484,-0.04710895717740059,-0.09923661929965019
1761468889504121900,6.016121826171875,0.0367559054672718,-0.04619008876681328,-0.08086100465357303
1761468889514104800,6.026104736328125,0.07395663209259509,-0.043350773687660694,-0.09504968900382518
1761468889524087800,6.036087890625,0.08533493519723415,-0.045538346859812735,-0.08229951302409172
1761468889534069800,6.04606982421875,0.08580605984032154,-0.07023994965702295,-0.04298106359243393
1761468889544052700,6.056052734375,0.08816577470898627,-0.04117927486747503,-0.0357844300866127
1761468889554036000,6.066035888671875,0.052992754518985746,-0.0506222259953618,-0.05156944371759891
1761468889564017700,6.076017578125,0.03496726848483085,-0.07675444611757994,-0.07811550533771515
1761468889574001000,6.0860009765625,0.011526771664619444,-0.05378069002628326,-0.07666822913885116
1761468889583982800,6.09598291015625,0.05940320608317852,-0.028752047231793403,-0.04994271929860115
1761468889593965800,6.1059658203125,0.1031225208222866,-0.04543459422439337,-0.047206572332978244
1761468889603948800,6.11594873046875,0.0518967759758234,-0.0452829107940197,-0.028056466183066366
1761468889613931000,6.125930908203125,0.0518663808375597,-0.05759118822515011,-0.04920271458625793
1761468889623913700,6.135913818359375,0.06047288114130497,-0.05954319907575845,-0.09204407744705677
1761468889633896700,6.145896728515625,0.05272679705917835,-0.0751043408229947,-0.11580138513147831
1761468889643879000,6.15587890625,0.006120528706908226,-0.08871844015568495,-0.12462591210007667
1761468889653862000,6.16586181640625,0.04355447956621647,-0.06295505334585905,-0.13436755391359329
1761468889663843800,6.17584375,0.03418284010887146,-0.04847089318037033,-0.09932371306121349
1761468889673826800,6.185826904296875,0.039977790123224256,-0.031469489496946335,-0.02117839710712433
1761468889683809800,6.195809814453125,0.0893067614376545,-0.01153875436335802,0.008427052083611488
1761468889693791700,6.205791748046875,0.10462357303500175,-0.0492106056317687,-0.01935878046452999
1761468889703775000,6.21577490234375,0.10796119302511215,-0.05429448476731777,-0.07728139260113238
1761468889713756700,6.225756591796875,0.06018412732779979,-0.03282587254196405,-0.09219663766026497
1761468889723740000,6.235739990234375,0.05307458758354187,-0.01937748516499996,-0.1131523319274187
1761468889733723000,6.245722900390625,0.04195581219792366,-0.023337913228571414,-0.12693594260811805
1761468889743704800,6.255704833984375,0.04803133271932602,-0.02513444125652313,-0.10216916562020778
1761468889753687800,6.265687744140625,0.06139116503000259,-0.01836889264434576,-0.10629238303005695
1761468889763671000,6.275671142578125,0.07762859860360621,-0.03834697405099868,-0.11914660390615463
1761468889773652700,6.28565283203125,0.032711013990640636,-0.04374474144130945,-0.09789631060659885
1761468889783636000,6.295635986328125,0.02149637701511383,-0.045699674901366234,-0.056826633593440055
1761468889793618000,6.305617919921875,0.04986380884349346,0.009191898976266384,-0.0015676877081394194
1761468889803601000,6.315600830078125,0.09960136095881461,0.005346621724963188,0.023605916514992713
1761468889813584000,6.325583984375,0.11051029298603535,-0.03903787892460823,-0.03963058412075043
1761468889823566000,6.335566162109375,0.07362170104980469,-0.05629150380343199,-0.058392567735910415
1761468889833548800,6.345548828125,0.08622457751333713,-0.11191402230411768,-0.09498071542084216
1761468889843531800,6.35553173828125,0.09520049565136432,-0.08694704656898974,-0.09204641553461551
1761468889853514000,6.365513916015625,0.06830430541932582,-0.06917962694913149,-0.06699439186453819
1761468889863496700,6.37549658203125,0.01867079820036888,-0.04003916492164135,-0.054018005913496016
1761468889873479000,6.38547900390625,0.050209845802187916,-0.025993396173417567,-0.08033201234340667
1761468889883462000,6.3954619140625,0.09185001617968082,-0.051666182090342044,-0.0779734665185213
1761468889893444900,6.40544482421875,0.08693418708741664,-0.051341772441565986,-0.05175006098151207
1761468889903426800,6.4154267578125,0.07375263395309448,-0.02007540430128574,-0.014461656072735786
1761468889913410000,6.42541015625,0.08961889612674713,-0.03233721224218607,-0.0016910218268632888
1761468889923392800,6.435392822265625,0.10148819761872291,-0.04841185646951198,-0.015980243942141533
1761468889933375000,6.445375,0.08673018894791602,-0.038725159713625903,-0.011289455777406691
1761468889943358000,6.45535791015625,0.10663257476985454,-0.02676934898197651,-0.03472293833494186
1761468889953340000,6.46533984375,0.12511691048741339,-0.033496319149434566,-0.03171849582195282
1761468889963323000,6.475322998046875,0.1105208143800497,-0.05087123232036829,-0.049907063463330265
1761468889973305900,6.485305908203125,0.09850129076242446,-0.04061462672203779,-0.10312193630039691
1761468889983287800,6.495287841796875,0.08620645733475685,-0.02322831537425518,-0.11996025837659835
1761468889993270800,6.505270751953125,0.06476210276782512,-0.006665010847151279,-0.0894067146807909
1761468890003252700,6.515252685546875,0.03335164998173713,-0.0014499065473675726,-0.07351531806588173
1761468890013235700,6.525235595703125,0.03145312288403511,-0.025036241579055783,-0.044320203241705894
1761468890023219000,6.535218994140625,0.05888473516702652,-0.07787848171144723,-0.06366027900576592
1761468890033200600,6.54520068359375,0.08833177892565727,-0.07271686116456985,-0.06048398705720901
1761468890043183900,6.555183837890625,0.09754209034144878,-0.05515577777177095,-0.025379940450191495
1761468890053166800,6.565166748046875,0.09491641801297664,-0.08180500750541686,-0.053958384680747984
1761468890063149000,6.575149169921875,0.05774608652591705,-0.10949760881215333,-0.049206806239485736
1761468890073131800,6.5851318359375,0.04991933842301369,-0.1468932734876871,-0.07692658781409263
1761468890083114000,6.595114013671875,0.07254618077278137,-0.019011866723001,-0.02628478033542633
1761468890093097000,6.605096923828125,0.06950666694641112,-0.03737345284372568,0.0037567221850156782
1761468890103079700,6.61507958984375,0.02769815426468849,-0.048206981547176835,-0.06690788262486458
1761468890113062000,6.625061767578125,0.07635434088408946,-0.08027005302309989,-0.0892623377740383
1761468890123044900,6.635044921875,0.045214521732926366,-0.06193944656252861,-0.10088847815990447
1761468890133026800,6.64502685546875,0.0471954664170742,-0.0931055691987276,-0.09948387205898761
1761468890143009800,6.655009765625,0.09395020332932472,-0.06583090104311705,-0.06334814431667328
1761468890152993000,6.664992919921875,0.08167816625535487,-0.053392275230586525,-0.03663198682665825
1761468890162974700,6.674974609375,0.07065349889397621,-0.08966215074658393,-0.04636719889938831
1761468890172958000,6.6849580078125,0.06479191338419914,-0.08081979586035012,-0.0766840112298727
1761468890182941000,6.69494091796875,0.017855974686145783,-0.08173311131298541,-0.08818915558457374
1761468890192923000,6.7049228515625,-0.004201543343067169,-0.07317775667458772,-0.07525017903447151
1761468890202905900,6.71490576171875,-0.005276479098200798,-0.05761106196939945,-0.04622983625531196
1761468890212887800,6.7248876953125,0.026970424512028694,-0.06649374886602163,-0.038460371297597884
1761468890222870800,6.734870849609375,0.07428396435081959,-0.06065028353482484,-0.018369184905290603
1761468890232854000,6.74485400390625,0.13191139293313026,-0.06032353579849004,-0.043105566754937166
1761468890242835700,6.754835693359375,0.06808510971069336,-0.03412146531045437,-0.07109422839879989
1761468890252819000,6.76481884765625,0.0076291797041893004,-0.0418210799023509,-0.11382277853488922
1761468890262801000,6.77480078125,0.055036243045330044,0.007198679332435131,-0.1400216341525316
1761468890272784000,6.784783935546875,0.05909925470054149,-0.010059329460561275,-0.11284078176021575
1761468890282766800,6.794766845703125,0.053064650711417194,-0.02537847914546728,-0.0993184523642063
1761468890292749000,6.8047490234375,0.05521744483113288,-0.020701427245140073,-0.1049824694752693
1761468890302731800,6.814731689453125,0.06878419789075851,-0.05523556500971317,-0.15290391207933424
1761468890312714800,6.82471484375,0.019260580787062644,-0.06288958689421414,-0.15141104317307472
1761468890322697000,6.834697021484375,0.0030272388666868206,-0.0011336802050471305,-0.12006956396996975
1761468890332679700,6.8446796875,0.050934652945399284,-0.04352320764511823,-0.09253215322494507
1761468890342662000,6.854661865234375,-0.0073024319678544995,-0.06064823770821094,-0.057953591796755785
1761468890352644900,6.864644775390625,0.03229308083951473,-0.053715515835583205,-0.010820084699988365
1761468890362627800,6.8746279296875,0.1433469791829586,-0.031492870372533795,-0.0077712185233831405
1761468890372609800,6.88460986328125,0.13003741575479508,-0.041270460282266136,-0.04840893386006355
1761468890382593000,6.894593017578125,0.03999532577991485,-0.04327244775444269,-0.09582768763899803
1761468890392575700,6.90457568359375,0.03227203805148601,-0.013898176971077918,-0.025292846688628197
1761468890402558000,6.914557861328125,0.013628127858042717,0.015581015491485595,-0.12048749712109565
1761468890412537000,6.924537109375,0.05599953511953354,-0.021821078924834727,-0.07621054849922657
1761468890422519000,6.93451904296875,0.08750409592986107,0.0067877604439854616,-0.07111760927438736
1761468890432502000,6.944501953125,0.03477671434879303,-0.01484188756197691,-0.04129296437501907
1761468890442485000,6.954485107421875,0.04963759887218475,-0.04434124602973461,-0.05951309619843959
1761468890452467000,6.964467041015625,0.054794835504889484,-0.04048340155780315,-0.056490533506870264
1761468890462450000,6.974449951171875,0.06909282544851303,-0.025737667846679687,-0.08276011627316475
1761468890472431900,6.984431884765625,0.08907353720366955,-0.053204059182107445,-0.09871113412082194
1761468890482414800,6.994414794921875,0.11915186460316181,-0.031902620217204095,-0.08981003478467464
1761468890492398000,7.004398193359375,0.10594283894002438,-0.01530541342049837,-0.08378419862389563
1761468890502379800,7.0143798828125,0.040487493211030956,-0.0428384402513504,-0.09683715694248676
1761468890512363000,7.024363037109375,0.016916063487529755,-0.03712824591100216,-0.08594868318140506
1761468890522346000,7.034345947265625,0.03520692245960235,-0.03858838159143924,-0.09159048846065998
1761468890532328000,7.044327880859375,0.04191197305619716,-0.04957739311754703,-0.11549275757372379
1761468890542311000,7.054310791015625,0.07459726808369159,-0.0560553569599986,-0.1076104798913002
1761468890552293000,7.064293212890625,0.10745148993730544,-0.05796995840966701,-0.08215572063922881
1761468890562275800,7.07427587890625,0.10125672695040702,-0.03676818042695522,-0.06051321315169334
1761468890572259000,7.084259033203125,0.06940203752815723,-0.0386947645753622,-0.057957683449983595
1761468890582241000,7.094240966796875,0.026452538117766378,-0.045427287700772284,-0.062165656533837314
1761468890592224000,7.10422412109375,0.020417349606752396,-0.028212533527612684,-0.06064940675199031
1761468890602206000,7.1142060546875,0.07193418635427952,-0.025534838750958442,-0.08458674717843533
1761468890612189000,7.12418896484375,0.06769406456649303,-0.04655366138219833,-0.07850304335057735
1761468890622172000,7.134171875,0.04404138630032539,0.011015315011143684,-0.03244973270595074
1761468890632154000,7.144154052734375,0.0763923348069191,0.01146685817092657,-0.053746203234791755
1761468890642137000,7.15413720703125,0.16005787548720835,-0.06561521246582269,-0.08648878140747547
1761468890652119800,7.164119873046875,0.005322656327486038,0.055313014160096645,-0.10997136380374431
1761468890662102000,7.17410205078125,0.15656477267444133,-0.08846534217745065,-0.051609775727987285
1761468890672085000,7.1840849609375,0.18931904128491878,-0.062199266542494296,-0.07759528085589408
1761468890682067000,7.19406689453125,0.056201195171475406,-0.037106034079194064,-0.06165127727091312
1761468890692050000,7.2040498046875,0.0014069441884756089,-0.015376140569150447,-0.03685995036363601
1761468890702033200,7.214033203125,0.02323299154937267,-0.02800005982071161,-0.09885200389623641
1761468890712014800,7.224014892578125,0.09735153620541095,-0.02423135493695736,-0.13695289423167706
1761468890721998000,7.233998046875,0.09386661669909954,-0.05068535435944795,-0.08680734583735465
1761468890731981000,7.24398095703125,0.06675766049921512,-0.03164893771708011,-0.03415010688304901
1761468890741963000,7.253962890625,0.06656067662239075,-0.05786328316479921,-0.020389877077937126
1761468890751946000,7.263946044921875,0.013452186769247055,-0.04296118984818458,0.00030687399208545685
1761468890761928200,7.27392822265625,-0.028440497064590453,-0.004277531188726425,0.007690554502606391
1761468890771911000,7.283910888671875,0.11016600959300994,-0.03987608331441879,-0.09342588719427584
1761468890781894000,7.293893798828125,0.10231938774585723,-0.04876519995182752,-0.1202589490622282
1761468890791876000,7.3038759765625,0.042402386921644206,-0.03148556384891271,-0.10756371814012528
1761468890801858800,7.31385888671875,0.06383446652889252,-0.06102145493477583,-0.10415595552325248
1761468890811841000,7.323841064453125,0.06735153473913669,-0.0981572996303439,-0.07591478042304516
1761468890821824000,7.333823974609375,0.04648936397433281,-0.08640519477725028,-0.07018178972899913
1761468890831807000,7.343806884765625,0.03990414036512375,-0.09415595503449439,-0.11847323468923568
1761468890841789000,7.353788818359375,0.025518472138047216,-0.08138853565901517,-0.11001286485791206
1761468890851772200,7.363772216796875,0.00293839153945446,-0.05774520974308252,-0.10636720183193683
1761468890861755000,7.3737548828125,0.013846739044785498,-0.04145370789468288,-0.09846621944904327
1761468890871737000,7.383737060546875,0.01168342353105545,-0.038432314246892925,-0.08709843773841858
1761468890881720000,7.393719970703125,0.06651099226176738,-0.015631576634943484,-0.05319383004903793
1761468890891702000,7.403701904296875,0.12101765847504138,-0.08581570445150137,-0.06472761597633361
1761468890901685000,7.41368505859375,0.015960954719781876,0.0007809212446212769,-0.05962006370425224
1761468890911668000,7.42366796875,0.16691314820945263,-0.1296548461779952,-0.08181903603076934
1761468890921650000,7.43364990234375,0.09734159933328627,-0.07507043855339288,-0.08607844704091548
1761468890931633000,7.4436328125,0.0004138414978981018,-0.04093348341286182,-0.018072832307219504
1761468890941616000,7.4536162109375,-0.01609305666685104,0.009127309307456016,-0.042673605078458784
1761468890951597800,7.463597900390625,0.04699906706213951,-0.03231733849793672,-0.12135434308350085
1761468890961581000,7.4735810546875,0.06021510698795318,-0.04366700002998113,-0.12341478274464607
1761468890971562800,7.483562744140625,0.07628478277921676,-0.02937485530525446,-0.11622633254528045
1761468890981546000,7.4935458984375,0.10500351226329803,-0.04424538443982601,-0.16294190649092197
1761468890991529000,7.503529052734375,0.09034136518239974,-0.03917991774380207,-0.10880465811192988
1761468891001511200,7.51351123046875,0.062324646487832064,-0.0286737212985754,-0.042643794462084765
1761468891011494000,7.523493896484375,0.04619242685437202,0.04738397472649812,-0.004207973083853721
1761468891021476900,7.533476806640625,0.043184477210044855,0.060898997598886485,-0.0264560452491045
1761468891031459000,7.543458984375,0.14934943446815013,-0.004072364005446433,-0.07643968107998371
1761468891041441800,7.55344189453125,0.133635147985816,0.012869126184284686,-0.10630056633651255
1761468891051424000,7.563424072265625,0.0753939714193344,-0.019636720623075962,-0.1000157869786024
1761468891061407000,7.573406982421875,0.09273439779877662,-0.018949907402694224,-0.027617490243911743
1761468891071390000,7.583389892578125,0.010258359163999557,-0.006608896745741367,-0.03299333806335926
1761468891081372000,7.593371826171875,-0.01196048690676689,-0.00732639736533165,-0.053204935964941975
1761468891091355100,7.603355224609375,0.052397711235284805,-0.004290975192189217,-0.04846680152714252
1761468891101337900,7.613337890625,0.04747252979278564,-0.014869067829847335,-0.09292436741292476
1761468891111320000,7.623320068359375,0.052203649967908855,-0.010676584576070309,-0.1389332543939352
1761468891121303000,7.633302978515625,-0.003660276073217392,0.009574760814011096,-0.14249591531157493
1761468891131285000,7.643284912109375,0.02654489257633686,-0.039133448253571984,-0.1148211419224739
1761468891141268000,7.65326806640625,0.07487959215641021,-0.0171884506881237,-0.08164543302953242
1761468891151251200,7.663251220703125,0.13456862944364548,-0.0594496755734086,-0.05003741184473037
1761468891161233000,7.67323291015625,0.09502338551878929,-0.03743219729363918,-0.024729952108860014
1761468891171216100,7.683216064453125,0.11145955653488636,-0.08001169434785843,-0.032305355799198146
1761468891181199000,7.69319921875,0.12868950827717782,-0.0834741097614169,-0.051631987559795374
1761468891191181000,7.70318115234375,0.03718085288107395,-0.06416501365751028,-0.04122749792337417
1761468891201164000,7.7131640625,0.027416414713859555,-0.0724991267606616,-0.019739304214715956
1761468891211146000,7.72314599609375,0.06551379791796207,-0.0901709770515561,-0.04096329402923584
1761468891221129000,7.73312890625,0.0698521193832159,-0.08934270953387022,-0.08455518299639224
1761468891231112000,7.74311181640625,0.0035369419544935225,-0.09504676639437674,-0.09023498219847678
1761468891241094000,7.753093994140625,-0.004296235889196396,-0.06358487568199635,-0.09180383895039558
1761468891251076900,7.763076904296875,0.04476970057487487,-0.042947161322832106,-0.12407003178298473
1761468891261060000,7.77306005859375,0.1025824225962162,-0.018244389481842517,-0.08224106083512306
1761468891271041800,7.783041748046875,0.061442018434405325,-0.019703356118500232,-0.026488778474926946
1761468891281025000,7.79302490234375,0.05109422742128372,-0.053660570777952665,-0.030119243931770324
1761468891291007000,7.803007080078125,0.09718144033551215,-0.07088555408418178,-0.04222644583284855
1761468891300990000,7.812989990234375,0.07254793433845043,-0.06494008968323468,-0.059492053410410875
1761468891310973000,7.822972900390625,0.055421442970633505,-0.061977732746303076,-0.06273965702950954
1761468891320955100,7.832955078125,0.05281213725507259,-0.07707213376462459,-0.09454641565680504
1761468891330937900,7.842937744140625,0.1055886186748743,-0.06989245139360427,-0.1380699155628681
1761468891340920800,7.8529208984375,0.05997311492562293,-0.06879881093800068,-0.1295481709331274
1761468891350903000,7.862903076171875,0.006205284380912781,-0.024495558831095693,-0.09351648808717727
1761468891360886000,7.872885986328125,0.025234979021549222,-0.0808230107307434,-0.1209820026397705
1761468891370868000,7.882867919921875,0.05969195989668369,-0.0796834853067994,-0.06763502785563469
1761468891380851000,7.892850830078125,0.09661971479952335,-0.04317337129414081,-0.0443026675850153
1761468891390834200,7.902834228515625,0.05453998396098613,-0.01753828703910112,-0.016287117934226988
1761468891400815900,7.91281591796875,0.054228433793783185,0.02041442699730396,0.00048339960277080535
1761468891410803000,7.922802978515625,0.09311316798329353,-0.041131636333465574,-0.08579203131496906
1761468891420785700,7.93278564453125,0.11132979267537593,-0.03543225564807653,-0.0500625462859869
1761468891430767900,7.942767822265625,0.08705927477180957,-0.028738018706440924,-0.03892506619989872
1761468891440750800,7.952750732421875,0.051100072640180585,-0.045810149538516996,-0.06818447843194007
1761468891450732800,7.96273291015625,0.04217266981899738,-0.012469313211739063,-0.07022270626127719
1761468891460715800,7.9727158203125,0.019014497071504592,-0.026687515917420385,-0.07576338925361632
1761468891470698800,7.98269873046875,0.06085106680393219,-0.038166064526140686,-0.07982932351827621
1761468891480680700,7.9926806640625,0.08423135786950588,-0.03162117292732,-0.07262976740300654
1761468891490663700,8.00266357421875,0.12305413273870944,-0.06526069993972777,-0.09522212296128273
1761468891500647000,8.01264697265625,0.10966799694299698,-0.05424275458008051,-0.07084872920513152
1761468891510628600,8.022628662109375,0.06080021339952946,-0.0441541990250349,-0.07436112124025822
1761468891520611800,8.03261181640625,0.07002922951579094,-0.007010755544900894,-0.08444178574979305
1761468891530593500,8.042593505859376,0.09056231445670128,-0.0001014145478606224,-0.05453063161075115
1761468891540576800,8.05257666015625,0.09132219291329384,-0.05967763911038637,-0.07800444617867469
1761468891550559700,8.062559814453126,0.0642050534069538,-0.023462416391074655,-0.053631052422523494
1761468891560541700,8.072541748046875,0.05917348898053169,-0.04680734388232231,-0.0754424867361784
1761468891570524700,8.082524658203125,0.0746270787000656,-0.06363982073962689,-0.11661328603625297
1761468891580507600,8.092507568359375,0.04965162739753723,-0.04887129067480564,-0.12619418433010576
1761468891590489600,8.102489501953125,0.05537643478512764,-0.02646335177272558,-0.094290979591012
1761468891600472600,8.11247265625,0.0641314036488533,-0.0017070961788296698,-0.09014555034935474
1761468891610455800,8.122455810546874,0.08632043910324573,-0.05490355657637119,-0.07188099486231804
1761468891620437500,8.1324375,0.025837621089816094,-0.04003390422463417,0.0011509236007928847
1761468891630420700,8.142420654296876,0.08369125964343548,-0.006897066037356853,-0.011549568018317222
1761468891640402700,8.152402587890625,0.12879121508598326,-0.017595862445235252,-0.005634791016578674
1761468891650385700,8.1623857421875,0.09539923309385775,-0.009960253000259399,-0.020487492233514783
1761468891660368600,8.17236865234375,0.11168927363753318,0.0005552957952022552,-0.07677519664466381
1761468891670350800,8.182350830078125,0.10478314751088619,0.01768909368664026,-0.0898638107985258
1761468891680333600,8.19233349609375,0.05074000715613365,-0.0027598201021552084,-0.10797639059424399
1761468891690316800,8.20231689453125,0.054554597008228296,-0.013706453791260719,-0.0916980404883623
1761468891700298800,8.212298828125,0.08940262302756309,0.008567629598081111,-0.09124620506763458
1761468891710281700,8.22228173828125,0.10073299533724785,-0.004881050039827823,-0.07710837412178516
1761468891720264700,8.2322646484375,0.06635141778588295,-0.02879822446107864,-0.04533376419842243
1761468891730246700,8.24224658203125,0.16296762545406818,-0.13426380127817392,-0.06069207684993744
1761468891740230000,8.25222998046875,0.18178747673630713,-0.04074818997383117,-0.03339958077669143
1761468891750211800,8.2622119140625,0.07766366991698742,-0.07072510282546281,-0.06852817730307578
1761468891760194800,8.27219482421875,0.03304302242398262,-0.09606588030904531,-0.07910743898451328
1761468891770177800,8.282177734375,0.03074059070050716,-0.014232231231033801,-0.07272562899291515
1761468891780159700,8.29215966796875,0.023824527701735494,-0.017765666054189205,-0.09861410348713398
1761468891790142700,8.302142822265624,0.022864158236980438,-0.021725801856815812,-0.08563128779530525
1761468891800126000,8.3121259765625,0.06437573379874229,-0.023486381788551804,-0.07369710437357425
1761468891810107600,8.322107666015626,0.08591887256503104,-0.047882864159345624,-0.050557051804661746
1761468891820091000,8.3320908203125,0.10014847344756125,-0.04831307227015495,-0.011052724412083626
1761468891830073900,8.342073974609375,0.15435820254087448,-0.06486380957663058,-0.03147591923773289
1761468891840055800,8.352055908203125,0.11637070945203304,-0.08573883982300758,-0.08572539581954479
1761468891850038800,8.362038818359375,0.05278700281381607,-0.06008534312844276,-0.07361059513390064
1761468891860020700,8.372020751953125,0.0549292755395174,-0.003450724975764751,-0.07303542559444903
1761468891870003700,8.382003662109375,0.04784428571462631,-0.04370820882320404,-0.09890227277874945
1761468891879986700,8.391986572265624,0.0788403124809265,-0.04965601131170988,-0.11954817044436931
1761468891889968600,8.40196875,0.04206862492263317,-0.02260521503984928,-0.10140051933526992
1761468891899951600,8.41195166015625,0.07096388001739978,-0.0206786308914423,-0.07913608055710793
1761468891909934800,8.421934814453126,0.07813771716952324,-0.02239566394239664,-0.08399170389473437
1761468891919916500,8.43191650390625,0.05724807387590408,-0.026884499794244766,-0.06996317854225635
1761468891929899800,8.441899658203125,0.09327917219996452,-0.015896365050971507,-0.023740941071510313
1761468891939882800,8.4518828125,0.09550444703400135,-0.038292028993368143,-0.03057517100572586
1761468891949864700,8.46186474609375,0.11016951672434806,-0.08751637088954448,-0.06687281131148338
1761468891959847700,8.47184765625,0.0538964253604412,-0.08017740630358457,-0.07172960369288921
1761468891969830000,8.481829833984374,0.04559621452689171,-0.057956222145259376,-0.07397942844629288
1761468891979812600,8.4918125,0.08668810337185859,-0.06897884368002415,-0.11265490379929542
1761468891989795600,8.501795654296876,0.04837912324368954,-0.06093260760754347,-0.13222177405655383
1761468891999777800,8.51177783203125,0.012274959683418274,-0.017568097655475137,-0.04946867204606533
1761468892009760500,8.521760498046875,0.09471417343914508,0.016256722795963286,-0.03864391117095947
1761468892019743700,8.53174365234375,0.09803718038201331,-0.03680675887167453,-0.053721653315424917
1761468892029725700,8.5417255859375,0.022266776865720747,-0.030260405968129633,-0.03931844943165779
1761468892039708700,8.551708740234375,0.056258478316664695,-0.057225277522206304,-0.043833296507596965
1761468892049691600,8.561691650390625,0.13401567173600196,-0.09865385097563266,-0.10643149923980236
1761468892059673900,8.571673828125,0.1042681837260723,-0.09346095850765705,-0.09897826062440872
1761468892069656800,8.58165673828125,0.07368366037011147,-0.10712211185246705,-0.08673837225437164
1761468892079639600,8.5916396484375,0.058278585967421526,-0.0825815448358655,-0.049307928526401514
1761468892089621800,8.601621826171876,0.07776245411634444,-0.046477673536539074,-0.033040099814534186
1761468892099605800,8.611605712890626,0.026128128468990323,-0.03571428745985031,-0.0694552290201187
1761468892109588700,8.621588623046875,0.052177931004762645,-0.029961715282499787,-0.08530570910274982
1761468892119571700,8.63157177734375,0.06554243949055671,-0.000410042105615139,-0.09239303701519966
1761468892129554000,8.641553955078125,0.07589607572257519,-0.026980945906043052,-0.1092921493679285
1761468892139536600,8.65153662109375,0.09058218820095061,-0.029515725080668926,-0.10476152020096778
1761468892149519600,8.66151953125,0.05716039559245109,-0.05184738387614488,-0.11010346575081348
1761468892159501800,8.671501708984374,0.03374444869160652,-0.06484890426844359,-0.11515490392148495
1761468892169484500,8.681484619140624,0.05982347732186317,-0.04884118779748678,-0.08397241467237472
1761468892179467800,8.6914677734375,0.05869242746531963,-0.05512275228500366,-0.07976210350096226
1761468892189449700,8.70144970703125,0.057089668443799015,-0.059331017629802224,-0.07730126634538173
1761468892199433000,8.711432861328126,0.08393968144655227,-0.049480070222914216,-0.05692191066145896
1761468892209415700,8.721415771484375,0.10695581537485122,-0.042789048151671887,-0.05324643701910972
1761468892219398000,8.73139794921875,0.13149579786956309,-0.009950316128134728,-0.043535774865746495
1761468892229380900,8.741380859375,0.12429974888563156,0.02410889760106802,-0.0331745398491621
1761468892239363600,8.751363525390625,0.12723638685941696,0.04425269096344709,-0.06984919677376747
1761468892249345800,8.761345703125,0.09564414776563644,0.02501519879102707,-0.07679214777946472
1761468892259328800,8.771328857421874,0.08459025430977345,0.009058335724473,-0.06413958695530891
1761468892269310700,8.781310791015626,0.13722002073526382,0.006153554193675518,-0.022878186762332914
1761468892279293700,8.791293701171876,0.44502574071288103,-0.011665303352475166,-0.012414660415053368
1761468892289277000,8.80127685546875,-0.1210731880545616,0.00032031799554824825,0.015510872864723205
1761468892299258600,8.811258544921875,-0.27371991050243377,-0.02665332138687372,-0.0621311697423458
1761468892309241900,8.821241943359375,0.06578092442154884,-0.052693479311466215,-0.1298217271775007
1761468892319224800,8.831224853515625,0.02735094826221466,0.007892506815493106,-0.14904372951984404
1761468892329206800,8.841206787109375,0.049321957051753997,-0.011011223357915878,-0.14099603214263914
1761468892339189800,8.851189697265625,0.0756207659125328,-0.03917436478585005,-0.14231646709144113
1761468892349172700,8.8611728515625,0.03861234698891639,-0.07382131527513265,-0.09948796371221542
1761468892359154700,8.87115478515625,0.04501812237799167,-0.09865034384429454,-0.06402618970870971
1761468892369137700,8.8811376953125,0.059388008514046665,-0.12556056260168552,-0.07072013438940047
1761468892379121000,8.891120849609376,0.10146832387447356,-0.09568594108074903,-0.04346621676087379
1761468892389102600,8.9011025390625,0.10045827004909515,-0.05913607957959175,-0.0628419483602047
1761468892399085800,8.9110859375,0.06763502785563469,-0.06550298426300287,-0.10014321275055407
