time,seconds_elapsed,z,y,x
1761468953031554800,0.114554931640625,-0.006496375426650047,-0.03138916939496994,-0.004822943825274706
1761468953041537800,0.124537841796875,0.005184553563594818,-0.02743024006485939,0.005261200945824385
1761468953051519700,0.134519775390625,0.006528917234390974,-0.02116834931075573,0.0036313459277153015
1761468953061503000,0.1445029296875,0.013326232321560383,-0.01908794790506363,-0.00031057349406182766
1761468953071485700,0.154485595703125,0.015224799513816833,-0.016516398638486862,-0.009646018035709858
1761468953081468000,0.164468017578125,0.01843065768480301,-0.01566368155181408,-0.016707981005311012
1761468953091451000,0.174450927734375,0.01374136283993721,-0.00911390408873558,-0.017273103818297386
1761468953101432800,0.184432861328125,0.009767728857696056,-0.0195421501994133,0.0017294359859079123
1761468953111415800,0.194415771484375,-0.005054626148194075,-0.022648993879556656,0.007979609072208405
1761468953121399000,0.20439892578125,-0.001089370809495449,-0.04057187959551811,0.0014551645144820213
1761468953131380700,0.214380615234375,0.0034856735728681087,-0.045710716396570206,-0.007912504486739635
1761468953141364000,0.224364013671875,0.009982689283788204,-0.04207180067896843,-0.01315733790397644
1761468953151347000,0.234346923828125,0.015723133459687233,-0.037167854607105255,-0.01227529812604189
1761468953161329000,0.244328857421875,0.01623605750501156,-0.03111502155661583,-0.005452812183648348
1761468953171311900,0.254311767578125,0.018035024404525757,-0.027488062158226967,-0.004076490644365549
1761468953181294800,0.264294921875,0.013939924538135529,-0.03355671465396881,-0.00916629284620285
1761468953191276800,0.27427685546875,0.020172519609332085,-0.04375901818275452,0.0012437370605766773
1761468953201259800,0.284259765625,0.0033048386685550213,-0.0405559241771698,0.0010762501042336226
1761468953211243000,0.294242919921875,-0.00020653940737247467,-0.03255019336938858,-0.0007956856861710548
1761468953221224700,0.304224609375,0.0027635861188173294,-0.02933540940284729,0.00010197656229138374
1761468953231208000,0.3142080078125,0.006546606309711933,-0.030764728784561157,0.003895383095368743
1761468953241191000,0.32419091796875,0.008377845399081707,-0.031682007014751434,0.006666646338999271
1761468953251172900,0.3341728515625,0.005070199258625507,-0.030067596584558487,0.009586002677679062
1761468953261155800,0.34415576171875,0.005700016859918833,-0.017536789178848267,0.015158692374825478
1761468953271138800,0.354138916015625,0.005403607152402401,-0.011573437601327896,0.009973517619073391
1761468953281120800,0.364120849609375,0.004189793951809406,-0.012209640815854073,0.006512532476335764
1761468953291103700,0.374103759765625,0.006588769610971212,-0.01633913815021515,-0.0020902766846120358
1761468953301086000,0.3840859375,0.00917699746787548,-0.021869909018278122,-0.004802796058356762
1761468953311068700,0.394068603515625,0.011731235310435295,-0.0221567302942276,-0.01161675900220871
1761468953321052000,0.404052001953125,0.006379166152328253,-0.013197807595133781,-0.007565763778984547
1761468953331033900,0.414033935546875,0.01041199080646038,-0.002886048052459955,-0.0024085529148578644
1761468953341016800,0.424016845703125,0.008511529304087162,-0.004090618342161179,-0.00720197893679142
1761468953350999800,0.433999755859375,0.015072492882609367,-0.00991042423993349,-0.009001210331916809
1761468953360982000,0.44398193359375,0.01731044612824917,-0.007509133778512478,-0.007992315106093884
1761468953370964700,0.45396484375,0.02002260833978653,-0.007912336848676205,-0.005141667556017637
1761468953380947700,0.46394775390625,0.016727324575185776,-0.009085138328373432,-0.00718046585097909
1761468953390930000,0.473929931640625,0.009883001446723938,-0.014552608132362366,-0.01312544010579586
1761468953400912600,0.48391259765625,0.0046986001543700695,-0.010761868208646774,-0.016301050782203674
1761468953410896000,0.493895751953125,-0.0021688933484256268,-0.010923521593213081,-0.01422724686563015
1761468953420877800,0.5038779296875,0.002773278160020709,-0.007095410488545895,-0.01154798548668623
1761468953430860800,0.51386083984375,0.00510141346603632,-0.005735334008932114,-0.006150290369987488
1761468953440843800,0.52384375,0.008969288319349289,-0.005523800849914551,0.0007365539204329252
1761468953450826000,0.533825927734375,0.008317346684634686,-0.013781198300421238,-0.0040483479388058186
1761468953460808700,0.54380859375,0.008643928915262222,-0.008207535371184349,-0.0005931265186518431
1761468953470791700,0.553791748046875,0.007471073418855667,-0.002889735158532858,-0.006313064135611057
1761468953480774400,0.5637744140625,0.00612815422937274,-0.003329541767016053,-0.01323655340820551
1761468953490757400,0.57375732421875,0.0034085342194885015,-0.014141443185508251,-0.020583415403962135
1761468953500739600,0.583739501953125,0.005816985387355089,-0.020027348771691322,-0.017819438129663467
1761468953510722300,0.593722412109375,0.004856117069721222,0.0019756867550313473,-0.008117543533444405
1761468953520705500,0.60370556640625,0.002863063011318445,0.012650729157030582,0.006608732044696808
1761468953530687500,0.6136875,-0.010798420757055283,0.009396612644195557,0.004385524895042181
1761468953540670500,0.62367041015625,-0.01229030266404152,-0.004793880973011255,0.0009409668855369091
1761468953550653400,0.6336533203125,-0.010647932067513466,-0.020523041486740112,-0.004188015125691891
1761468953560635600,0.6436357421875,-0.010208375751972198,-0.014682503417134285,-0.0006451169028878212
1761468953570618400,0.653618408203125,-0.008608350530266762,-0.015533117577433586,0.0028382977470755577
1761468953580601300,0.663601318359375,-0.0031899926252663136,-0.001947496784850955,0.015014497563242912
1761468953590583600,0.67358349609375,-0.009681714698672295,0.0024219518527388573,0.024584567174315453
1761468953600566300,0.683566162109375,-0.014535720460116863,0.006181064993143082,0.029373370110988617
1761468953610549500,0.693549560546875,-0.018905434757471085,0.010827216319739819,0.025334421545267105
1761468953620531500,0.703531494140625,-0.022687695920467377,0.008943420834839344,0.021918032318353653
1761468953630514400,0.713514404296875,-0.02005010098218918,-0.007647007703781128,0.0008337870240211487
1761468953640497400,0.723497314453125,-0.015771619975566864,-0.030723512172698975,-0.01595306396484375
1761468953650479600,0.733479736328125,-0.002149551175534725,-0.02334495633840561,-0.011270161718130112
1761468953660462300,0.74346240234375,-0.0003511635586619377,-0.020077509805560112,-0.004359635524451733
1761468953670444500,0.753444580078125,-0.002295803278684616,-0.008100476115942001,0.005870898254215717
1761468953680427500,0.763427490234375,-0.007268957793712616,0.006084703840315342,0.021206792443990707
1761468953690410500,0.773410400390625,-0.019053446128964424,0.006514538079500198,0.02326568216085434
1761468953700392400,0.783392333984375,-0.025624658912420273,-0.010869190096855164,0.017488395795226097
1761468953710375400,0.79337548828125,-0.02632001042366028,-0.02528274990618229,0.0061079091392457485
1761468953720358400,0.8033583984375,-0.02463892474770546,-0.027193741872906685,0.004778468981385231
1761468953730340600,0.813340576171875,-0.017806585878133774,-0.008777451701462269,0.01443162839859724
1761468953740323600,0.823323486328125,-0.01393847819417715,0.004654774442315102,0.021955762058496475
1761468953750306300,0.833306396484375,-0.008483792655169964,0.023277726024389267,0.024473782628774643
1761468953760288500,0.84328857421875,-0.011390498839318752,0.02324812486767769,0.02005729079246521
1761468953770271500,0.853271484375,-0.007574987597763538,0.0069735487923026085,0.00817399937659502
1761468953780254700,0.863254638671875,-0.007723471149802208,-0.009777024388313293,-0.009357978589832783
1761468953790236400,0.873236328125,-0.007605493068695068,-0.013806121423840523,-0.017043327912688255
1761468953800219600,0.8832197265625,-0.006346259731799364,-0.01430930383503437,-0.01702454313635826
1761468953810202600,0.89320263671875,-0.00035547884181141853,-0.012174513190984726,-0.00808324757963419
1761468953820184600,0.9031845703125,-0.006932829041033983,-0.005592053756117821,0.0022744652815163136
1761468953830167600,0.91316748046875,-0.0074345688335597515,0.004306383430957794,0.012247471138834953
1761468953840150500,0.923150634765625,-0.005072989035397768,0.0006996092852205038,0.011985830962657928
1761468953850132500,0.933132568359375,-0.002654039766639471,-0.004328971263021231,0.0052757300436496735
1761468953860115500,0.943115478515625,0.0017124656587839127,-0.0033344170078635216,-0.0014437203062698245
1761468953870097400,0.953097412109375,0.002317003207281232,0.004214579239487648,-0.003212591866031289
1761468953880080400,0.963080322265625,0.0003276532515883446,-0.00374797941185534,0.0005445987917482853
1761468953890063600,0.973063720703125,-0.0009671756997704506,-0.011867690831422806,-0.0020519832614809275
1761468953900045300,0.98304541015625,-0.003581731114536524,-0.018518615514039993,-0.004121884237974882
1761468953910028500,0.993028564453125,0.0011903876438736916,-0.022621214389801025,-0.007002891972661018
1761468953920011500,1.003011474609375,0.007386228535324335,-0.03584657236933708,-0.014810561202466488
1761468953929993500,1.012993408203125,0.014786621555685997,-0.02932555228471756,-0.011529013514518738
1761468953939976400,1.0229765625,0.01649421639740467,-0.005425718147307634,-0.0060625867918133736
1761468953949959400,1.03295947265625,0.013214001432061195,0.003387480741366744,0.006141881924122572
1761468953959941400,1.04294140625,0.007900085300207138,-0.001624108524993062,0.0034280032850801945
1761468953969924400,1.05292431640625,0.005554372910410166,-0.02014053612947464,-0.00311272032558918
1761468953979907600,1.062907470703125,0.002330418210476637,-0.02875942923128605,-0.006304165814071894
1761468953989889300,1.07288916015625,0.005684669595211744,-0.02936050482094288,-0.0021810599137097597
1761468953999872500,1.08287255859375,0.011008551344275475,-0.021329103037714958,0.0002541039139032364
1761468954009855500,1.09285546875,0.012320691719651222,-0.011756103485822678,0.0057934788055717945
1761468954019837400,1.10283740234375,0.011620799079537392,-0.010590040124952793,0.0004820423200726509
1761468954029820400,1.1128203125,0.015182777307927608,-0.012989016249775887,-0.0036248185206204653
1761468954039802600,1.122802734375,0.015481834299862385,-0.016425710171461105,-0.006762794218957424
1761468954049785300,1.132785400390625,0.013786998577415943,-0.023179486393928528,-0.009939678944647312
1761468954059768300,1.142768310546875,0.009950786828994751,-0.021825624629855156,-0.00951860100030899
1761468954069750500,1.15275048828125,0.01615062728524208,-0.01523110456764698,-0.003404782386496663
1761468954079733200,1.162733154296875,0.013880111277103424,-0.011871354654431343,0.0009219339117407799
1761468954089716500,1.172716552734375,0.014815413393080235,-0.008580219000577927,0.0023400671780109406
1761468954099698400,1.182698486328125,0.014390947297215462,0.008405310101807117,0.009762327186763287
1761468954109681400,1.192681396484375,0.017042391002178192,0.004969565197825432,0.009998283348977566
1761468954119664400,1.202664306640625,0.016824591904878616,-0.019727075472474098,-0.004045919515192509
1761468954129646600,1.212646484375,0.013699905946850777,-0.032225556671619415,-0.0052254339680075645
1761468954139629600,1.222629638671875,0.011608883738517761,-0.021608175709843636,-0.00021455343812704086
1761468954149612500,1.232612548828125,0.011635515838861465,-0.009695323184132576,0.0023460760712623596
1761468954159594500,1.242594482421875,0.005214479751884937,0.007977201603353024,0.010130347684025764
1761468954169577500,1.252577392578125,0.00385387078858912,0.026897363364696503,0.01329098641872406
1761468954179560400,1.262560546875,0.004107743967324495,0.016488317400217056,0.011044910177588463
1761468954189542700,1.272542724609375,0.010045528411865234,-0.007512091193348169,-0.003163054119795561
1761468954199525600,1.282525634765625,0.017338860780000687,-0.021496884524822235,-0.011803414672613144
1761468954209508400,1.29250830078125,0.020169714465737343,-0.02116519585251808,-0.012430728413164616
1761468954219490600,1.302490478515625,0.02391732670366764,-0.025241736322641373,-0.016024824231863022
1761468954229473500,1.3124736328125,0.016728922724723816,-0.033142536878585815,-0.013923056423664093
1761468954239455500,1.32245556640625,0.007937084883451462,-0.01561677921563387,-0.0027459776028990746
1761468954249438500,1.3324384765625,-0.0012585436925292015,0.0017925708089023829,0.005185714922845364
1761468954259421700,1.342421630859375,-0.0010491888970136642,0.0023723633494228125,0.010879023000597954
1761468954269403400,1.3524033203125,-0.005880429409444332,-0.0032647494226694107,0.005972148850560188
1761468954279386600,1.36238671875,0.004058908671140671,0.0029970877803862095,0.0022348167840391397
1761468954289369600,1.37236962890625,0.003682071575894952,0.006902613677084446,-0.0020613945089280605
1761468954299351600,1.3823515625,0.0016712178476154804,0.01771843060851097,-0.004486911464482546
1761468954309334500,1.39233447265625,-0.00022015906870365143,0.017567161470651627,-0.004273326136171818
1761468954319317500,1.4023173828125,0.0027420748956501484,0.020219672471284866,-0.006404920015484095
1761468954329299500,1.412299560546875,0.0009297938086092472,0.024363018572330475,-0.007062454707920551
1761468954339282400,1.422282470703125,-0.0006460165604948997,0.029485981911420822,-0.004172899294644594
1761468954349265700,1.432265625,-0.009723134338855743,0.027039336040616035,-0.004037078004330397
1761468954359247400,1.442247314453125,-0.009801668114960194,0.028316080570220947,-0.009585505351424217
1761468954369230600,1.452230712890625,-0.008539062924683094,0.0377386100590229,-0.009143686853349209
1761468954379212300,1.46221240234375,-0.009870113804936409,0.05208424851298332,-0.004916928242892027
1761468954389195500,1.472195556640625,-0.01854775846004486,0.05086558684706688,-0.004023704212158918
1761468954399178500,1.482178466796875,-0.02048896625638008,0.04789445176720619,-0.003489878959953785
1761468954409160400,1.492160400390625,-0.01571578159928322,0.04800896719098091,0.001867868471890688
1761468954419143400,1.502143310546875,-0.01232944056391716,0.04622549191117287,0.0012310128659009933
1761468954429126400,1.51212646484375,-0.007364510092884302,0.04171755909919739,-0.000829208642244339
1761468954439108400,1.5221083984375,-0.0029484559781849384,0.04823324829339981,-0.006055129691958427
1761468954449091300,1.53209130859375,-0.0010019517503678799,0.05402455851435661,-0.0018252308946102858
1761468954459074600,1.542074462890625,-0.005653551779687405,0.05149996280670166,0.0005805236287415028
1761468954469056300,1.55205615234375,-0.007747062481939793,0.04023878648877144,-0.005931970663368702
1761468954479039500,1.56203955078125,-0.009401382878422737,0.03129362687468529,-0.011326652020215988
1761468954489022500,1.5720224609375,-0.011430177837610245,0.023999763652682304,-0.017030609771609306
1761468954499004400,1.58200439453125,-0.009281031787395477,0.019293956458568573,-0.02495223842561245
1761468954508987400,1.5919873046875,-0.006366468966007233,0.028941523283720016,-0.020694376900792122
1761468954518970400,1.601970458984375,-0.005677050445228815,0.03926694765686989,-0.012860989198088646
1761468954528952300,1.611952392578125,-0.0074059744365513325,0.03711697831749916,-0.010721405036747456
1761468954538935300,1.621935302734375,-0.0009641945362091064,0.02429032325744629,-0.011998509988188744
1761468954548918500,1.63191845703125,-0.00018814951181411743,0.035889722406864166,-0.010478910058736801
1761468954558900500,1.641900390625,-0.0006263223476707935,0.024162454530596733,-0.013549119234085083
1761468954568883500,1.651883544921875,0.00029273470863699913,0.010388318449258804,-0.013659107498824596
1761468954578865400,1.661865478515625,-0.0021735536865890026,0.02062477171421051,-0.01700562983751297
1761468954588848400,1.671848388671875,-0.002334408927708864,0.033413536846637726,-0.01402528490871191
1761468954598831400,1.681831298828125,-0.0009380360133945942,0.044167399406433105,-0.01629791408777237
1761468954608813600,1.6918134765625,-0.0024081007577478886,0.04913792386651039,-0.008814164437353611
1761468954618796300,1.70179638671875,-0.002926252782344818,0.051542412489652634,-0.00885242410004139
1761468954628779500,1.711779541015625,-0.00498460978269577,0.04165569320321083,-0.013269277289509773
1761468954638761500,1.721761474609375,-0.005442383233457804,0.033435314893722534,-0.011287828907370567
1761468954648744400,1.731744384765625,-0.007067709695547819,0.034823622554540634,-0.009593792259693146
1761468954658727400,1.7417275390625,-0.00541854090988636,0.04788915067911148,-0.001272303401492536
1761468954668709600,1.751709716796875,-0.006538666784763336,0.04944736883044243,0.0020230922382324934
1761468954678692400,1.7616923828125,-0.006975775118917227,0.04666992276906967,0.006933311466127634
1761468954688675300,1.77167529296875,-0.006046864669770002,0.03689612075686455,0.004084794782102108
1761468954698657500,1.781657470703125,-0.014225432649254799,0.036887332797050476,0.005902667995542288
1761468954708640300,1.79164013671875,-0.00996251031756401,0.04267145320773125,0.011116072535514832
1761468954718623500,1.80162353515625,-0.005878564901649952,0.06132383272051811,0.018118027597665787
1761468954728605400,1.81160546875,-0.00442075077444315,0.05499482899904251,0.02066880464553833
1761468954738588400,1.82158837890625,-0.005117068532854319,0.056927137076854706,0.024455109611153603
1761468954748570400,1.8315703125,-0.005992715712636709,0.043194014579057693,0.02244761772453785
1761468954758553600,1.8415537109375,-0.0006590480916202068,0.03352295979857445,0.006018726620823145
1761468954768536300,1.851536376953125,-0.005006126128137112,0.03258179873228073,-0.014025555923581123
1761468954778518500,1.8615185546875,-0.009951436892151833,0.01950695551931858,-0.017967894673347473
1761468954788501500,1.87150146484375,-0.009615611284971237,0.04001355916261673,-0.019655272364616394
1761468954798484200,1.881484130859375,-0.016682997345924377,0.04979860410094261,-0.015097156167030334
1761468954808466400,1.891466552734375,-0.009670628234744072,0.05307801812887192,-0.013100849464535713
1761468954818449400,1.901449462890625,-0.0014046221040189266,0.04655012860894203,-0.013725832104682922
1761468954828432600,1.9114326171875,0.000886229332536459,0.035141147673130035,-0.02152889408171177
1761468954838414300,1.921414306640625,0.005345803685486317,0.03344104066491127,-0.021557006984949112
1761468954848397600,1.9313974609375,0.004399582743644714,0.025464605540037155,-0.022161809727549553
1761468954858380500,1.941380615234375,0.0033847515005618334,0.016175953671336174,-0.02438332885503769
1761468954868362500,1.951362548828125,0.008383505046367645,0.01652456261217594,-0.018466318026185036
1761468954878345500,1.961345458984375,0.010939151979982853,0.026735318824648857,-0.01798371784389019
1761468954888328400,1.971328369140625,0.015301676467061043,0.029772920534014702,-0.020847948268055916
1761468954898310400,1.981310302734375,0.0165849756449461,0.03431181237101555,-0.029759986326098442
1761468954908293400,1.99129345703125,0.014661907218396664,0.034945644438266754,-0.0319131501019001
1761468954918275300,2.001275390625,0.007493514567613602,0.03497587889432907,-0.03213144466280937
1761468954928258300,2.01125830078125,0.0021102004684507847,0.041265200823545456,-0.02520429715514183
1761468954938241500,2.021241455078125,0.00006912834942340851,0.037639833986759186,-0.02190762758255005
1761468954948223200,2.03122314453125,-0.0002951924689114094,0.03856741264462471,-0.025062941014766693
1761468954958206500,2.04120654296875,0.0074408454820513725,0.03621482849121094,-0.02670205384492874
1761468954968189400,2.051189453125,0.006427246145904064,0.041740890592336655,-0.027189146727323532
1761468954978171400,2.06117138671875,0.008477693423628807,0.0484643317759037,-0.020776405930519104
1761468954988154400,2.071154296875,0.0032405874226242304,0.048665668815374374,-0.013931549154222012
1761468954998137600,2.0811376953125,-0.00570007786154747,0.05037560313940048,-0.005566736683249474
1761468955008119300,2.091119384765625,-0.008134473115205765,0.0514022521674633,0.0010932967998087406
1761468955018102500,2.1011025390625,-0.007418968249112368,0.05419106408953667,0.003372634993866086
1761468955028085500,2.11108544921875,-0.0025357953272759914,0.04342656582593918,-0.005126310978084803
1761468955038067500,2.1210673828125,-0.0019094068557024002,0.030699189752340317,-0.021711116656661034
1761468955048050400,2.131050537109375,0.00046879611909389496,0.02037358283996582,-0.023820340633392334
1761468955058033400,2.141033447265625,-0.0027651754207909107,0.026138093322515488,-0.014690636657178402
1761468955068015400,2.151015380859375,-0.0056563024409115314,0.03240424394607544,-0.0033639464527368546
1761468955077998300,2.160998291015625,-0.008256679400801659,0.04008011519908905,-0.0014348390977829695
1761468955087980500,2.17098046875,-0.012337174266576767,0.046780362725257874,0.0010940986685454845
1761468955097963300,2.18096337890625,-0.014214681461453438,0.04162554815411568,-0.0019104238599538803
1761468955107946500,2.190946533203125,-0.011312633752822876,0.04232116416096687,-0.0020568976178765297
1761468955117928400,2.200928466796875,-0.01222615409642458,0.044127292931079865,-0.0026415204629302025
1761468955127911400,2.210911376953125,-0.01683714985847473,0.032521769404411316,-0.005594699643552303
1761468955137894400,2.220894287109375,-0.010481169447302818,0.03304325044155121,0.0019861040636897087
1761468955147876600,2.230876708984375,-0.008192980661988258,0.028617078438401222,0.005037820897996426
1761468955157859300,2.240859375,-0.002456403337419033,0.0462077297270298,0.013613822869956493
1761468955167842300,2.25084228515625,-0.003484649583697319,0.045626893639564514,0.01202711183577776
1761468955177824500,2.260824462890625,-0.01764114759862423,0.03090057149529457,0.015758555382490158
1761468955187807500,2.270807373046875,-0.01692342571914196,0.016979696229100227,0.018128499388694763
1761468955197790500,2.28079052734375,-0.015352506190538406,0.00856301560997963,0.013583969324827194
1761468955207772400,2.2907724609375,-0.011143380776047707,0.010949473828077316,0.017088688910007477
1761468955217755600,2.300755615234375,-0.008509531617164612,0.005776126869022846,0.021109819412231445
1761468955227738400,2.31073828125,-0.0012891702353954315,0.03256140276789665,0.036024320870637894
1761468955237720600,2.320720458984375,-0.020499911159276962,0.03604106977581978,0.05140886828303337
1761468955247703600,2.33070361328125,-0.017224488779902458,0.03639660403132439,0.0500653013586998
1761468955257686300,2.340686279296875,-0.01943921484053135,0.017238475382328033,0.04543211683630943
1761468955267668500,2.35066845703125,-0.016899891197681427,0.0010232864879071712,0.03803225979208946
1761468955277651500,2.3606513671875,-0.01815418340265751,-0.0151444710791111,0.03183141350746155
1761468955287633400,2.37063330078125,-0.00907307118177414,-0.023801343515515327,0.028122959658503532
1761468955297616400,2.380616455078125,-0.005319288466125727,-0.02849992923438549,0.018527118489146233
1761468955307599600,2.390599609375,-0.010549737140536308,-0.006238300818949938,0.01820514164865017
1761468955317581300,2.400581298828125,-0.015240375883877277,0.027103010565042496,0.04071361571550369
1761468955327564500,2.410564453125,-0.027135387063026428,0.038475774228572845,0.05918183922767639
1761468955337547500,2.420547607421875,-0.031094763427972794,0.0315784253180027,0.06959261000156403
1761468955347529500,2.430529541015625,-0.03884030133485794,0.00837696623057127,0.06331633776426315
1761468955357512400,2.440512451171875,-0.03982798382639885,-0.01769907772541046,0.05716082453727722
1761468955367495400,2.450495361328125,-0.040228791534900665,-0.03284287452697754,0.043041277676820755
1761468955377477400,2.460477294921875,-0.03268088400363922,-0.0436910018324852,0.03588557243347168
1761468955387460400,2.47046044921875,-0.03166622295975685,-0.04518423601984978,0.034288741648197174
1761468955397443600,2.480443603515625,-0.032405558973550797,-0.03778959438204765,0.027961306273937225
1761468955407425300,2.49042529296875,-0.03291182592511177,-0.02332703396677971,0.03782272711396217
1761468955417408500,2.500408447265625,-0.04191853478550911,-0.0008748106192797422,0.05324789881706238
1761468955427391500,2.5103916015625,-0.047315433621406555,0.015511619858443737,0.06863883882761002
1761468955437373400,2.52037353515625,-0.050956856459379196,0.026130933314561844,0.07954064011573792
1761468955447356400,2.5303564453125,-0.06132374331355095,0.025657422840595245,0.08637005090713501
1761468955457339600,2.540339599609375,-0.06004371866583824,0.016063706949353218,0.08262470364570618
1761468955467321300,2.5503212890625,-0.06388425827026367,0.017128173261880875,0.07009266316890717
1761468955477304300,2.56030419921875,-0.06398351490497589,0.015449358150362968,0.059249185025691986
1761468955487287300,2.570287353515625,-0.05639190599322319,0.008107822388410568,0.04508383199572563
1761468955497269500,2.58026953125,-0.07984571158885956,0.014819983392953873,0.041475873440504074
1761468955507252200,2.590252197265625,-0.09139876812696457,0.04649748653173447,0.06447173655033112
1761468955517234400,2.600234375,-0.09378782659769058,0.07440558075904846,0.071535624563694
1761468955527217400,2.610217529296875,-0.09561236202716827,0.09483043104410172,0.05646346136927605
1761468955537200000,2.6202001953125,-0.08420169353485107,0.10926692932844162,0.0554102398455143
1761468955547182300,2.630182373046875,-0.05786224082112312,0.11185605823993683,0.06264098733663559
1761468955557165300,2.640165283203125,-0.07059936970472336,0.11570084095001221,0.05901237204670906
1761468955567148300,2.650148193359375,-0.09530019015073776,0.09916926920413971,0.0607634000480175
1761468955577130200,2.660130126953125,-0.11375400424003601,0.09884811192750931,0.06506259739398956
1761468955587113500,2.670113525390625,-0.1580306589603424,0.09965398162603378,0.07146084308624268
1761468955597096200,2.68009619140625,-0.18640892207622528,0.11699281632900238,0.0690896287560463
1761468955607078400,2.690078369140625,-0.1856781542301178,0.1371833086013794,0.06572125852108002
1761468955617061400,2.700061279296875,-0.15769533812999725,0.13954535126686096,0.058777835220098495
1761468955627044000,2.710044189453125,-0.1264711171388626,0.08104342222213745,0.03504081442952156
1761468955637026300,2.7200263671875,-0.09667978435754776,0.04316021129488945,0.012836123816668987
1761468955647009300,2.73000927734375,-0.09011402726173401,0.034345678985118866,-0.0016069967532530427
1761468955656992500,2.739992431640625,-0.09947049617767334,0.0446600615978241,-0.0013428772799670696
1761468955666974200,2.74997412109375,-0.10035866498947144,0.05286073312163353,-0.0061557418666779995
1761468955676957400,2.75995751953125,-0.10652230679988861,0.06733793765306473,-0.0008451314643025398
1761468955686940400,2.7699404296875,-0.0930832028388977,0.0761285051703453,-0.0008107766043394804
1761468955696922400,2.77992236328125,-0.08111318945884705,0.08091454207897186,-0.018722549080848694
1761468955706905300,2.7899052734375,-0.060589276254177094,0.09027448296546936,-0.015662310644984245
1761468955716888300,2.799888427734375,-0.04424633830785751,0.06830176711082458,-0.0015449520433321595
1761468955726870300,2.809870361328125,-0.03249913454055786,0.03497923165559769,0.008555086329579353
1761468955736853200,2.819853271484375,-0.013041027821600437,0.022892333567142487,0.022447170689702034
1761468955746835200,2.829835205078125,-0.03199394419789314,0.010658569633960724,0.0363808274269104
1761468955756818200,2.839818115234375,-0.05321527272462845,0.015564018860459328,0.03894287720322609
1761468955766801400,2.849801513671875,-0.04688440263271332,0.024442996829748154,0.0338895283639431
1761468955776784400,2.859784423828125,-0.03285259008407593,0.0337674655020237,0.010624036192893982
1761468955786766300,2.869766357421875,0.025125756859779358,0.03373816981911659,-0.01970670558512211
1761468955796749300,2.879749267578125,0.027319420129060745,0.03065251186490059,-0.025275876745581627
1761468955806731300,2.889731201171875,0.04719938337802887,0.013502286747097969,0.0006300222594290972
1761468955816714200,2.89971435546875,0.06288318336009979,-0.01179939229041338,0.008336026221513748
1761468955826697500,2.909697509765625,0.09661771357059479,-0.03657717630267143,0.0008421572856605053
1761468955836679200,2.91967919921875,0.08247970789670944,-0.026871059089899063,0.023325778543949127
1761468955846662400,2.929662353515625,0.09094323217868805,0.040026213973760605,0.04706945642828941
1761468955856645400,2.939645263671875,0.103471539914608,0.040775101631879807,0.048230916261672974
1761468955866627300,2.94962744140625,0.2713279128074646,0.10258413851261139,0.187407448887825
1761468955876610300,2.9596103515625,0.1948920041322708,0.09150085598230362,0.18977873027324677
1761468955886593300,2.96959326171875,0.14243730902671814,0.05842413380742073,0.10239855200052261
1761468955896575200,2.9795751953125,0.14741571247577667,-0.0057108220644295216,0.013079769909381866
1761468955906558200,2.98955810546875,0.11593474447727203,-0.1178264394402504,-0.06858926266431808
1761468955916541400,2.99954150390625,0.13314048945903778,-0.13997364044189453,-0.07986179739236832
1761468955926523100,3.009523193359375,0.11908458918333054,-0.11343231797218323,-0.04306437447667122
1761468955936506400,3.01950634765625,0.09267871081829071,-0.04925069212913513,-0.002190498635172844
1761468955946489300,3.0294892578125,0.12880316376686096,0.004575788509100676,0.018486017361283302
1761468955956471300,3.03947119140625,0.13557745516300201,-0.04021458700299263,0.03332807868719101
1761468955966454300,3.049454345703125,0.1261562705039978,-0.07616140693426132,0.026006782427430153
1761468955976437200,3.059437255859375,0.13210177421569824,-0.12364185601472855,0.0017591731157153845
1761468955986419200,3.069419189453125,0.10945504158735275,-0.1347413808107376,-0.01808776892721653
1761468955996402200,3.079402099609375,0.09250947088003159,-0.11929827183485031,-0.036306772381067276
1761468956006385400,3.089385498046875,0.09630846977233887,-0.1221742182970047,-0.06730703264474869
1761468956016367400,3.099367431640625,0.1315697282552719,-0.15261206030845642,-0.09989219903945923
1761468956026350300,3.109350341796875,0.15312935411930084,-0.2592087984085083,-0.11759316921234131
1761468956036333300,3.119333251953125,0.11462784558534622,-0.3313957452774048,-0.1140521988272667
1761468956046315500,3.1293154296875,0.06698495894670486,-0.35556209087371826,-0.11072005331516266
1761468956056298200,3.13929833984375,0.06514216959476471,-0.35875460505485535,-0.10652972012758255
1761468956066281200,3.14928125,0.06134023889899254,-0.3653714954853058,-0.11124670505523682
1761468956076263400,3.159263427734375,0.07827457040548325,-0.39420419931411743,-0.11789384484291077
1761468956086246100,3.16924609375,0.10564547777175903,-0.3889460563659668,-0.09522661566734314
1761468956096229400,3.1792294921875,0.10819751769304276,-0.3777730464935303,-0.040264736860990524
1761468956106211300,3.18921142578125,0.10071483254432678,-0.32521212100982666,0.0033245517406612635
1761468956116194300,3.1991943359375,0.0743505209684372,-0.28181537985801697,0.02841658517718315
1761468956126177300,3.20917724609375,0.052881184965372086,-0.2278488427400589,0.03871769458055496
1761468956136159500,3.219159423828125,0.040534671396017075,-0.20364701747894287,0.027857767418026924
1761468956146142200,3.22914208984375,0.031336378306150436,-0.22455576062202454,0.014163792133331299
1761468956156125200,3.239125244140625,0.02913472056388855,-0.20922712981700897,0.01694679819047451
1761468956166107400,3.249107421875,0.0482863113284111,-0.14816884696483612,0.029185889288783073
1761468956176090400,3.25909033203125,0.08258727192878723,-0.09439774602651596,0.048508454114198685
1761468956186073300,3.2690732421875,0.1076851636171341,-0.06442892551422119,0.023962100967764854
1761468956196055300,3.27905517578125,0.1413344144821167,-0.12875042855739594,0.02022669091820717
1761468956206038300,3.289038330078125,0.16774286329746246,-0.1687127649784088,0.030515281483530998
1761468956216021200,3.299021240234375,0.1179937943816185,-0.14919720590114594,0.010802648030221462
1761468956226003500,3.30900341796875,0.050259217619895935,-0.12537017464637756,-0.013667008839547634
1761468956235986200,3.318986083984375,0.023853827267885208,-0.12222091853618622,-0.03166639432311058
1761468956245969400,3.328969482421875,0.011127910576760769,-0.12202757596969604,-0.029703913256525993
1761468956255951400,3.338951416015625,-0.0020779063925147057,-0.11731511354446411,-0.021643057465553284
1761468956265934300,3.348934326171875,-0.03871794044971466,-0.05558037757873535,0.021569393575191498
1761468956275917300,3.358917236328125,-0.06344054639339447,0.05822787433862686,0.08142109960317612
1761468956285899500,3.3688994140625,-0.08733389526605606,0.1519266664981842,0.11945903301239014
1761468956295882200,3.37888232421875,-0.08972276747226715,0.21942006051540375,0.1602325439453125
1761468956305865200,3.388865234375,-0.08595359325408936,0.22046668827533722,0.17487592995166779
1761468956315847400,3.398847412109375,-0.0808945894241333,0.19178059697151184,0.1773284524679184
1761468956325830100,3.408830078125,-0.08810536563396454,0.13285495340824127,0.1659836620092392
1761468956335813400,3.4188134765625,-0.10321612656116486,0.11154156178236008,0.16073273122310638
1761468956345795300,3.42879541015625,-0.11939802020788193,0.13744133710861206,0.15879981219768524
1761468956355778300,3.4387783203125,-0.1284150928258896,0.15141594409942627,0.1651979386806488
1761468956365761300,3.44876123046875,-0.1362607628107071,0.13560982048511505,0.1759166270494461
1761468956375743500,3.458743408203125,-0.14289458096027374,0.11846776306629181,0.18616056442260742
1761468956385726200,3.468726318359375,-0.14608532190322876,0.0984911248087883,0.18593846261501312
1761468956395709200,3.478709228515625,-0.14547616243362427,0.09730342775583267,0.1882595270872116
1761468956405691400,3.48869140625,-0.1530078500509262,0.11466297507286072,0.19947703182697296
1761468956415674000,3.498674072265625,-0.17108571529388428,0.1493586003780365,0.2158287763595581
1761468956425657300,3.5086572265625,-0.1805332750082016,0.17596730589866638,0.2255367934703827
1761468956435639300,3.518639404296875,-0.18852339684963226,0.18353062868118286,0.22936390340328217
1761468956445622300,3.528622314453125,-0.18766212463378906,0.1571517437696457,0.22986938059329987
1761468956455605200,3.538605224609375,-0.18877644836902618,0.12477327883243561,0.22953827679157257
1761468956465587500,3.54858740234375,-0.1961403638124466,0.11647272855043411,0.22849032282829285
1761468956475573500,3.558573486328125,-0.20756541192531586,0.13619688153266907,0.23440568149089813
1761468956485556500,3.568556396484375,-0.22014884650707245,0.16617555916309357,0.25475171208381653
1761468956495538400,3.578538330078125,-0.23070365190505981,0.20730185508728027,0.26703375577926636
1761468956505521400,3.588521484375,-0.24858784675598145,0.2068834751844406,0.26109063625335693
1761468956515504600,3.598504638671875,-0.3323955535888672,0.14708173274993896,0.2756854295730591
1761468956525486600,3.608486572265625,-0.3347229063510895,0.10547970235347748,0.29816490411758423
1761468956535469600,3.618469482421875,-0.27761122584342957,0.14303889870643616,0.2962598502635956
1761468956545452500,3.62845263671875,-0.2515319585800171,0.16117528080940247,0.2609806954860687
1761468956555434500,3.6384345703125,-0.24630704522132874,0.15309149026870728,0.2367216795682907
1761468956565417500,3.64841748046875,-0.22724628448486328,0.16290976107120514,0.23057298362255096
1761468956575400700,3.658400634765625,-0.2275659590959549,0.1657758504152298,0.2304759919643402
1761468956585382400,3.66838232421875,-0.24220295250415802,0.1615305095911026,0.23669447004795074
1761468956595365600,3.67836572265625,-0.29163670539855957,0.13033641874790192,0.27900049090385437
1761468956605348600,3.6883486328125,-0.2630961537361145,0.14467434585094452,0.3005406856536865
1761468956615330600,3.69833056640625,-0.24869616329669952,0.15964770317077637,0.28467196226119995
1761468956625313500,3.7083134765625,-0.24383242428302765,0.15102413296699524,0.24588541686534882
1761468956635296500,3.718296630859375,-0.23452730476856232,0.14688561856746674,0.22541403770446777
1761468956645278500,3.728278564453125,-0.22928780317306519,0.17540115118026733,0.2192019373178482
1761468956655261400,3.738261474609375,-0.23664933443069458,0.20731337368488312,0.23093312978744507
1761468956665244700,3.74824462890625,-0.23729275166988373,0.21701128780841827,0.24264438450336456
1761468956675227600,3.7582275390625,-0.2379869669675827,0.19995936751365662,0.2631595730781555
1761468956685209600,3.768209716796875,-0.25584879517555237,0.19077040255069733,0.282211571931839
1761468956695192600,3.778192626953125,-0.262437105178833,0.1941968947649002,0.2811642587184906
1761468956705175600,3.788175537109375,-0.2600679397583008,0.21061502397060394,0.2811781167984009
1761468956715157500,3.798157470703125,-0.25741061568260193,0.24506530165672302,0.2818599045276642
1761468956725140500,3.808140380859375,-0.24031312763690948,0.2738594114780426,0.26929059624671936
1761468956735123700,3.818123779296875,-0.2337103933095932,0.3090876638889313,0.25630176067352295
1761468956745105400,3.82810546875,-0.23350933194160461,0.3424069881439209,0.2518119215965271
1761468956755088600,3.838088623046875,-0.2398444563150406,0.3483354449272156,0.24863851070404053
1761468956765071600,3.848071533203125,-0.24507956206798553,0.3523503839969635,0.25093376636505127
1761468956775053600,3.858053466796875,-0.23989610373973846,0.36456233263015747,0.26039478182792664
1761468956785036500,3.86803662109375,-0.22351446747779846,0.3934749364852905,0.2554745674133301
1761468956795019500,3.87801953125,-0.22150546312332153,0.41823810338974,0.2396252602338791
1761468956805001500,3.88800146484375,-0.21402570605278015,0.43262290954589844,0.23075319826602936
1761468956814984400,3.897984375,-0.22952745854854584,0.44750818610191345,0.24174536764621735
1761468956824967700,3.9079677734375,-0.25641289353370667,0.45470407605171204,0.2694054841995239
1761468956834949400,3.917949462890625,-0.2685229480266571,0.4583037495613098,0.2870604693889618
1761468956844932600,3.9279326171875,-0.2721824049949646,0.4668194651603699,0.29243072867393494
1761468956854915600,3.93791552734375,-0.26924946904182434,0.4645387530326843,0.2918645441532135
1761468956864897500,3.9478974609375,-0.2562876045703888,0.4585343897342682,0.2802142798900604
1761468956874880500,3.957880615234375,-0.24568615853786469,0.4579121768474579,0.2607087194919586
1761468956884863500,3.967863525390625,-0.2554783225059509,0.47109320759773254,0.2504933774471283
1761468956894846700,3.9778466796875,-0.25473272800445557,0.48614582419395447,0.24416185915470123
1761468956904828700,3.98782861328125,-0.24137218296527863,0.4722864627838135,0.22280250489711761
1761468956914811600,3.997811767578125,-0.24218179285526276,0.4831300675868988,0.20764672756195068
1761468956924791600,4.00779150390625,-0.25481584668159485,0.5023810267448425,0.2112603634595871
1761468956934774500,4.0177744140625,-0.26324188709259033,0.48461130261421204,0.20370705425739288
1761468956944756500,4.027756591796875,-0.2799904942512512,0.4454503059387207,0.18769586086273193
1761468956954739500,4.037739501953125,-0.2554413676261902,0.4250158667564392,0.17012517154216766
1761468956964722700,4.04772265625,-0.21702659130096436,0.4028075039386749,0.1445247381925583
1761468956974705400,4.057705322265625,-0.18892855942249298,0.4042102098464966,0.1291334182024002
1761468956984687600,4.0676875,-0.16763710975646973,0.4132678806781769,0.1265200674533844
1761468956994670600,4.077670654296875,-0.15072691440582275,0.41631534695625305,0.1274997889995575
1761468957004653600,4.087653564453125,-0.13807237148284912,0.4162852466106415,0.13484477996826172
1761468957014635500,4.097635498046875,-0.11624957621097565,0.4364457130432129,0.13737481832504272
1761468957024618800,4.10761865234375,-0.07778261601924896,0.43631255626678467,0.1313515454530716
1761468957034601700,4.117601806640625,-0.0688474029302597,0.4029906392097473,0.12414775788784027
1761468957044583700,4.127583740234375,-0.08348466455936432,0.3620953857898712,0.12929724156856537
1761468957054566700,4.137566650390625,-0.09333238750696182,0.34799695014953613,0.1304268091917038
1761468957064549600,4.147549560546875,-0.10333894938230515,0.3243781626224518,0.11204353719949722
1761468957074531600,4.157531494140625,-0.09164219349622726,0.30222007632255554,0.08348847180604935
1761468957084514600,4.1675146484375,-0.07401100546121597,0.275661438703537,0.06190595030784607
1761468957094497800,4.177497802734375,-0.07346091419458389,0.24918217957019806,0.07026811689138412
1761468957104479500,4.1874794921875,-0.08066769689321518,0.22689522802829742,0.08303956687450409
1761468957114462700,4.197462646484375,-0.05436795577406883,0.250601202249527,0.08805113285779953
1761468957124445700,4.20744580078125,-0.02841438725590706,0.27677369117736816,0.0882258340716362
1761468957134428400,4.217428466796875,-0.025938399136066437,0.30764883756637573,0.0774046778678894
1761468957144410600,4.22741064453125,-0.08479425311088562,0.2894541621208191,0.08869941532611847
1761468957154393600,4.2373935546875,-0.10277438163757324,0.2687549591064453,0.11045306921005249
1761468957164376600,4.24737646484375,-0.09638918936252594,0.2729113698005676,0.09615349024534225
1761468957174358500,4.257358642578125,-0.07607459276914597,0.27290603518486023,0.06011692434549332
1761468957184341800,4.267341796875,-0.05997844785451889,0.2459428608417511,0.024413522332906723
1761468957194324500,4.277324462890625,-0.038020431995391846,0.23854222893714905,-0.010218748822808266
1761468957204306700,4.287306640625,-0.03335138037800789,0.21600496768951416,-0.03255574777722359
1761468957214289700,4.29728955078125,-0.03241433948278427,0.18132445216178894,-0.06860920041799545
1761468957224272400,4.3072724609375,-0.030257711187005043,0.16476039588451385,-0.1046564131975174
1761468957234254600,4.317254638671875,-0.044025976210832596,0.1805342733860016,-0.136491060256958
1761468957244237600,4.327237548828125,-0.062267035245895386,0.21645763516426086,-0.15536567568778992
1761468957254220500,4.337220458984375,-0.09113100171089172,0.2590517997741699,-0.17144033312797546
1761468957264202500,4.347202392578125,-0.09820409119129181,0.2515225112438202,-0.18389034271240234
1761468957274185700,4.357185791015625,-0.10855113714933395,0.21717575192451477,-0.19384673237800598
1761468957284168400,4.36716845703125,-0.1341787427663803,0.15725329518318176,-0.20680007338523865
1761468957294151400,4.3771513671875,-0.12540122866630554,0.11882229149341583,-0.21576374769210815
1761468957304133600,4.387133544921875,-0.10358141362667084,0.10466838628053665,-0.23247188329696655
1761468957314116400,4.397116455078125,-0.0673433169722557,0.10583005845546722,-0.24351660907268524
1761468957324099600,4.407099609375,-0.03332516551017761,0.13091358542442322,-0.25796452164649963
1761468957334081500,4.41708154296875,0.022084856405854225,0.15946869552135468,-0.2959315776824951
1761468957344064500,4.427064453125,0.15589086711406708,0.11651430279016495,-0.40374085307121277
1761468957354047500,4.437047607421875,0.10528521239757538,0.1755770444869995,-0.4039557874202728
1761468957364029700,4.44702978515625,0.07745091617107391,0.30502480268478394,-0.35524576902389526
1761468957374012400,4.457012451171875,0.08573440462350845,0.384806752204895,-0.32724741101264954
1761468957383995600,4.46699560546875,0.10063399374485016,0.3445698320865631,-0.35562658309936523
1761468957393978600,4.476978515625,0.11682461947202682,0.24075978994369507,-0.41238048672676086
1761468957403960600,4.486960693359375,0.1354028433561325,0.14635446667671204,-0.44813475012779236
1761468957413943600,4.496943603515625,0.15476499497890472,0.06692148000001907,-0.46249914169311523
1761468957423926500,4.506926513671875,0.15831711888313293,0.02795517072081566,-0.4609462320804596
1761468957433908500,4.516908447265625,0.16784699261188507,0.02971733920276165,-0.45697784423828125
1761468957443891500,4.526891357421875,0.17434804141521454,0.035285741090774536,-0.4670959711074829
1761468957453874700,4.536874755859375,0.17255918681621552,0.037678323686122894,-0.4839801490306854
1761468957463856400,4.5468564453125,0.16704778373241425,0.04365365952253342,-0.5086540579795837
1761468957473839600,4.556839599609375,0.17020338773727417,0.051960237324237823,-0.5377776026725769
1761468957483819500,4.566819580078125,0.17614516615867615,0.06077636778354645,-0.5568549036979675
1761468957493801500,4.576801513671875,0.18312902748584747,0.05594698712229729,-0.5570974946022034
1761468957503784700,4.58678466796875,0.18323396146297455,0.057864464819431305,-0.5364789962768555
1761468957513769700,4.596769775390625,0.1736907958984375,0.06267940253019333,-0.498367577791214
1761468957523751400,4.60675146484375,0.17778833210468292,0.07044651359319687,-0.46412867307662964
1761468957533734700,4.616734619140625,0.18040820956230164,0.06513171643018723,-0.414972186088562
1761468957543717600,4.626717529296875,0.14481985569000244,0.06776824593544006,-0.34538671374320984
1761468957553699600,4.636699462890625,0.11392711102962494,0.03910119831562042,-0.29820892214775085
1761468957563682600,4.6466826171875,0.11771758645772934,0.00599251314997673,-0.3001013398170471
1761468957573665500,4.65666552734375,0.1319570094347,-0.02363710291683674,-0.3261198103427887
1761468957583647500,4.6666474609375,0.14465123414993286,-0.03961101174354553,-0.34626927971839905
1761468957593630500,4.67663037109375,0.15029148757457733,-0.04221481829881668,-0.34961798787117004
1761468957603613700,4.68661376953125,0.14595186710357666,-0.059389811009168625,-0.3592360019683838
1761468957613596700,4.6965966796875,0.14419075846672058,-0.07833227515220642,-0.3631415367126465
1761468957623578600,4.70657861328125,0.14731650054454803,-0.10268741101026535,-0.3711104989051819
1761468957633561600,4.7165615234375,0.14463837444782257,-0.13759084045886993,-0.38885068893432617
1761468957643544600,4.726544677734375,0.12797871232032776,-0.20263108611106873,-0.4162287712097168
1761468957653526500,4.736526611328125,0.1182522252202034,-0.24433614313602448,-0.4438975155353546
1761468957663509500,4.746509521484375,0.11824503540992737,-0.26281845569610596,-0.4765161871910095
1761468957673492700,4.75649267578125,0.12904299795627594,-0.2589589059352875,-0.5099525451660156
1761468957683474400,4.766474365234375,0.14713652431964874,-0.23679183423519135,-0.526373565196991
1761468957693457700,4.776457763671875,0.17467984557151794,-0.21745023131370544,-0.5167234539985657
1761468957703440600,4.786440673828125,0.19110168516635895,-0.1957758367061615,-0.5165679454803467
1761468957713423600,4.796423583984375,0.19447381794452667,-0.16251787543296814,-0.5195086002349854
1761468957723405600,4.806405517578125,0.206312358379364,-0.12967577576637268,-0.5240806937217712
1761468957733388500,4.816388427734375,0.2063838541507721,-0.1282637119293213,-0.5422510504722595
1761468957743371500,4.82637158203125,0.19691339135169983,-0.1537427008152008,-0.5734020471572876
1761468957753353500,4.836353515625,0.17177855968475342,-0.1663273125886917,-0.6152181029319763
1761468957763336700,4.846336669921875,0.14511339366436005,-0.15137365460395813,-0.635703444480896
1761468957773319400,4.8563193359375,0.11268211901187897,-0.10842421650886536,-0.6362265348434448
1761468957783301600,4.866301513671875,0.09227485209703445,-0.056861426681280136,-0.6120485067367554
1761468957793284600,4.87628466796875,0.0707627683877945,0.00909497495740652,-0.5607439279556274
1761468957803267600,4.886267578125,0.04923243820667267,0.07399781048297882,-0.502423107624054
1761468957813250600,4.89625048828125,0.03952458128333092,0.09502469003200531,-0.44006073474884033
1761468957823232800,4.906232666015625,0.039698753505945206,0.09118494391441345,-0.3980030119419098
1761468957833215500,4.916215576171875,0.04743918031454086,0.04065962880849838,-0.37291932106018066
1761468957843198500,4.926198486328125,0.04976385459303856,-0.02994583174586296,-0.37414437532424927
1761468957853180700,4.9361806640625,0.041511502116918564,-0.09581129252910614,-0.39200615882873535
1761468957863163400,4.946163330078125,0.019302336499094963,-0.15535876154899597,-0.3883238136768341
1761468957873146600,4.956146728515625,-0.04034661501646042,-0.233099564909935,-0.33377188444137573
1761468957883129600,4.966129638671875,-0.03127562254667282,-0.2528229355812073,-0.3052433133125305
1761468957893111600,4.976111572265625,-0.025096897035837173,-0.22729261219501495,-0.28327101469039917
1761468957903094500,4.986094482421875,-0.020105866715312004,-0.19575493037700653,-0.27659422159194946
1761468957913077500,4.996077392578125,-0.02782255969941616,-0.155844584107399,-0.25830990076065063
1761468957923059500,5.0060595703125,-0.03814816474914551,-0.1334921419620514,-0.2187393307685852
1761468957933042400,5.01604248046875,-0.03741832077503204,-0.11145390570163727,-0.17821890115737915
1761468957943025700,5.026025634765625,-0.04355211555957794,-0.07236109673976898,-0.13399231433868408
1761468957953008600,5.036008544921875,-0.02638932876288891,-0.03537297993898392,-0.1015092059969902
1761468957962990600,5.045990478515625,-0.005672332365065813,-0.015512724407017231,-0.08158449828624725
1761468957972973600,5.0559736328125,0.004130516201257706,0.006479362025856972,-0.08159057796001434
1761468957982956500,5.06595654296875,0.00340427178889513,-0.016467764973640442,-0.08397996425628662
1761468957992938500,5.0759384765625,-0.0085319634526968,-0.022189924493432045,-0.08521851897239685
1761468958002921500,5.08592138671875,-0.03850078210234642,0.00849315244704485,-0.10163264721632004
1761468958012904700,5.09590478515625,-0.04384659603238106,0.0317532941699028,-0.0885787084698677
1761468958022887400,5.105887451171875,-0.05350721254944801,0.06613949686288834,-0.08008082956075668
1761468958032869600,5.11586962890625,-0.07594997435808182,0.10692974925041199,-0.09438680857419968
1761468958042852600,5.1258525390625,-0.06568588316440582,0.10648366808891296,-0.08847139775753021
1761468958052835600,5.135835693359375,-0.06464147567749023,0.07776018977165222,-0.06514672935009003
1761468958062817500,5.145817626953125,-0.05967867746949196,0.06288909912109375,-0.05241309106349945
1761468958072800500,5.155800537109375,-0.054609265178442,0.04845259338617325,-0.040408264845609665
1761468958082783500,5.165783447265625,-0.04207642748951912,0.024352848529815674,-0.01763770543038845
1761468958092765700,5.175765625,-0.059005655348300934,0.043558016419410706,-0.03482956811785698
1761468958102748700,5.185748779296875,-0.06478258222341537,0.07329753041267395,-0.04448086395859718
1761468958112731400,5.1957314453125,-0.06221252679824829,0.08765875548124313,-0.04917668551206589
1761468958122714600,5.205714599609375,-0.06305408477783203,0.09522213786840439,-0.05040546879172325
1761468958132696600,5.215696533203125,-0.06675884127616882,0.10131745785474777,-0.053319256752729416
1761468958142679600,5.225679443359375,-0.0663929134607315,0.08232805877923965,-0.0635007917881012
1761468958152662500,5.23566259765625,-0.06840690225362778,0.06438712030649185,-0.06556213647127151
1761468958162645500,5.2456455078125,-0.07437877357006073,0.041836801916360855,-0.06508755683898926
1761468958172627700,5.255627685546875,-0.07656306028366089,0.02885240875184536,-0.06929799169301987
1761468958182610400,5.2656103515625,-0.07169267535209656,0.013232171535491943,-0.068213552236557
1761468958192593700,5.27559375,-0.05734551325440407,-0.008800312876701355,-0.06489720195531845
1761468958202575600,5.28557568359375,-0.03112669661641121,-0.0357283316552639,-0.05636709928512573
1761468958212558600,5.29555859375,-0.017714420333504677,-0.06397099047899246,-0.053070068359375
1761468958222541600,5.30554150390625,0.005145356059074402,-0.11512179672718048,-0.019057242199778557
1761468958232524500,5.315524658203125,0.002529534976929426,-0.1015869677066803,0.003915150184184313
1761468958242506500,5.325506591796875,0.004258458968251944,-0.07208900153636932,0.016600586473941803
1761468958252489500,5.335489501953125,0.005077795125544071,-0.0608011931180954,0.05219815671443939
1761468958262472700,5.34547265625,0.01075192540884018,-0.06119401007890701,0.08233768492937088
1761468958272454400,5.355454345703125,0.04232441261410713,-0.10400782525539398,0.13049684464931488
1761468958282437600,5.365437744140625,0.023576024919748306,-0.10071216523647308,0.14895813167095184
1761468958292420600,5.375420654296875,0.0059363399632275105,-0.073415108025074,0.133111834526062
1761468958302403300,5.3854033203125,-0.009704405441880226,-0.05904308706521988,0.14399351179599762
1761468958312385500,5.395385498046875,-0.019236451014876366,-0.04343806952238083,0.15351931750774384
1761468958322368500,5.405368408203125,-0.038066864013671875,-0.02815738320350647,0.1564653068780899
1761468958332351700,5.415351806640625,-0.08823347836732864,-0.029324032366275787,0.21779008209705353
1761468958342333400,5.42533349609375,-0.09054803103208542,-0.01695071905851364,0.24819940328598022
1761468958352316700,5.435316650390625,-0.08537708967924118,0.04218586906790733,0.2659265697002411
1761468958362299600,5.445299560546875,-0.09479989111423492,0.06966676563024521,0.2895594537258148
1761468958372282600,5.45528271484375,-0.10014811158180237,0.08642314374446869,0.3163433372974396
1761468958382264600,5.4652646484375,-0.08605173230171204,0.1000252440571785,0.3168882429599762
1761468958392247600,5.47524755859375,-0.0748274177312851,0.11501635611057281,0.3041025400161743
1761468958402230500,5.48523046875,-0.07016635686159134,0.11133453994989395,0.3069707751274109
1761468958412212700,5.495212646484375,-0.0759107694029808,0.09484071284532547,0.3188256323337555
1761468958422195700,5.50519580078125,-0.07218047976493835,0.09619572758674622,0.3217332661151886
1761468958432178400,5.515178466796875,-0.07571221143007278,0.09888844937086105,0.3167516887187958
1761468958442161700,5.52516162109375,-0.07675377279520035,0.09110056608915329,0.3135034441947937
1761468958452143600,5.5351435546875,-0.07667121291160583,0.07005476206541061,0.3390655219554901
1761468958462126600,5.545126708984375,-0.06358097493648529,0.05583720654249191,0.34445470571517944
1761468958472109600,5.555109619140625,-0.06116439774632454,0.05574517324566841,0.3480033874511719
1761468958482097400,5.565097412109375,-0.0558663085103035,0.040724147111177444,0.35342320799827576
1761468958492080000,5.575080078125,-0.05553903430700302,0.026578569784760475,0.36032742261886597
1761468958502063400,5.5850634765625,-0.06099345535039902,0.0199318528175354,0.37254464626312256
1761468958512046300,5.59504638671875,-0.06569934636354446,0.007686221972107887,0.3827356994152069
1761468958522028300,5.6050283203125,-0.06353019922971725,0.008050010539591312,0.3848113715648651
1761468958532011300,5.61501123046875,-0.07397174835205078,0.011903558857738972,0.3866461515426636
1761468958541994200,5.624994140625,-0.08107679337263107,0.017982490360736847,0.3819637894630432
1761468958551977500,5.6349775390625,-0.08843427896499634,0.011546790599822998,0.3694102466106415
1761468958561959200,5.644959228515625,-0.10147524625062943,0.00025791721418499947,0.3423844873905182
1761468958571942400,5.6549423828125,-0.1035810112953186,-0.032250843942165375,0.31365323066711426
1761468958581925400,5.66492529296875,-0.10318712890148163,-0.06545700132846832,0.28882697224617004
1761468958591907300,5.6749072265625,-0.09955345094203949,-0.09252186864614487,0.2829587757587433
1761468958601890300,5.684890380859375,-0.0901988297700882,-0.10613914579153061,0.2927115261554718
1761468958611873300,5.694873291015625,-0.07997234910726547,-0.10813804715871811,0.3064541518688202
1761468958621856300,5.704856201171875,-0.06999748200178146,-0.09667287021875381,0.3301410973072052
1761468958631838200,5.714838134765625,-0.07850068807601929,-0.07178840041160583,0.3694709539413452
1761468958641821400,5.724821533203125,-0.08846224099397659,-0.040854454040527344,0.4171697795391083
1761468958651804200,5.73480419921875,-0.10013414174318314,-0.032931137830019,0.44908446073532104
1761468958661787400,5.744787353515625,-0.09663368761539459,-0.05023076385259628,0.45903724431991577
1761468958671769300,5.754769287109375,-0.09501909464597702,-0.07666705548763275,0.4462020695209503
1761468958681752300,5.76475244140625,-0.08145534992218018,-0.1296224147081375,0.4032610058784485
1761468958691735300,5.7747353515625,-0.07090840488672256,-0.19586223363876343,0.3450544476509094
1761468958701717500,5.784717529296875,-0.07742995023727417,-0.2505355775356293,0.29580166935920715
1761468958711700200,5.7947001953125,-0.09100548177957535,-0.2713147699832916,0.25336623191833496
1761468958721683200,5.80468310546875,-0.08125031739473343,-0.27591776847839355,0.23385807871818542
1761468958731666400,5.81466650390625,-0.07467561960220337,-0.2595751881599426,0.22483278810977936
1761468958741648400,5.8246484375,-0.06144450977444649,-0.22278735041618347,0.20379221439361572
1761468958751631400,5.83463134765625,-0.048255257308483124,-0.18127606809139252,0.1793920248746872
1761468958761614300,5.8446142578125,-0.024627957493066788,-0.15763412415981293,0.14040175080299377
1761468958771597300,5.854597412109375,-0.011248120106756687,-0.14790187776088715,0.1066066101193428
1761468958781579300,5.864579345703125,-0.0019004251807928085,-0.1407475620508194,0.09088356792926788
1761468958791562200,5.874562255859375,-0.0035160179249942303,-0.13374528288841248,0.08489610254764557
1761468958801545500,5.88454541015625,-0.013525508344173431,-0.12722986936569214,0.0796603262424469
1761468958811527200,5.894527099609375,-0.033379197120666504,-0.10399466007947922,0.07422075420618057
1761468958821510400,5.904510498046875,-0.06018737703561783,-0.07121993601322174,0.08189757913351059
1761468958831493400,5.914493408203125,-0.0842956081032753,-0.0424516499042511,0.09744597226381302
1761468958841476000,5.92447607421875,-0.10394920408725739,-0.03433992713689804,0.10954178124666214
1761468958851458300,5.934458251953125,-0.11453624069690704,-0.0250054020434618,0.11815372854471207
1761468958861441300,5.944441162109375,-0.1220703199505806,-0.006483648903667927,0.12660713493824005
1761468958871424500,5.954424560546875,-0.11799512803554535,0.014233014546334743,0.13389864563941956
1761468958881407200,5.9644072265625,-0.11171060055494308,0.027099013328552246,0.14061273634433746
1761468958891389400,5.974389404296875,-0.10152711719274521,0.02697070501744747,0.14934290945529938
1761468958901372400,5.984372314453125,-0.0918438658118248,0.015562254935503006,0.15367774665355682
1761468958911355100,5.994355224609375,-0.0746348425745964,-0.010691225528717041,0.15499088168144226
1761468958921338400,6.00433837890625,-0.05937519669532776,-0.030637502670288086,0.14520803093910217
1761468958931320300,6.0143203125,-0.06354472786188126,-0.044421110302209854,0.13823604583740234
1761468958941303300,6.02430322265625,-0.06194417551159859,-0.03872514143586159,0.1392533779144287
1761468958951286300,6.034286376953125,-0.061076097190380096,-0.016812995076179504,0.1376628279685974
1761468958961268500,6.0442685546875,-0.054713279008865356,0.006133599206805229,0.12898783385753632
1761468958971251200,6.054251220703125,-0.05826888978481293,0.012829390354454517,0.10820502787828445
1761468958981234400,6.064234375,-0.05150233209133148,0.01525153499096632,0.0883554220199585
1761468958991217400,6.074217529296875,-0.041747137904167175,0.017045555636286736,0.06839696317911148
1761468959001199400,6.084199462890625,-0.042412661015987396,0.03845204412937164,0.06098831444978714
1761468959011182300,6.094182373046875,-0.04657817631959915,0.06022031977772713,0.04869534820318222
1761468959021165300,6.104165283203125,-0.041787683963775635,0.06291410326957703,0.04564549773931503
1761468959031148500,6.1141484375,-0.04133681207895279,0.04943656176328659,0.04257965087890625
1761468959041130200,6.124130126953125,-0.02767026610672474,0.009848137386143208,0.03995031118392944
1761468959051113500,6.134113525390625,-0.008954104036092758,-0.03819475322961807,0.029361050575971603
1761468959061096400,6.144096435546875,0.003980336245149374,-0.07602042704820633,0.019760090857744217
1761468959071079200,6.1540791015625,0.016764696687459946,-0.08025868237018585,0.019235052168369293
1761468959081061400,6.164061279296875,0.02575153298676014,-0.06844037771224976,0.011833596043288708
1761468959091044400,6.17404443359375,0.03166466951370239,-0.06309399753808975,-0.004242719616740942
1761468959101027300,6.18402734375,0.04144139960408211,-0.06874708831310272,-0.033455997705459595
1761468959111009300,6.19400927734375,0.06025838106870651,-0.07384143024682999,-0.05209476873278618
1761468959120992500,6.203992431640625,0.07844430953264236,-0.054884787648916245,-0.058441080152988434
1761468959130975200,6.213975341796875,0.09697248786687851,-0.027187276631593704,-0.04157153517007828
1761468959140958200,6.223958251953125,0.11012130975723267,0.006025006994605064,-0.004028151743113995
1761468959150940400,6.2339404296875,0.11827091127634048,0.001879038056358695,0.02639426290988922
1761468959160923100,6.243923095703125,0.12438739091157913,-0.033295195549726486,0.033275872468948364
1761468959170906400,6.25390625,0.1151605173945427,-0.07199399918317795,0.00852383766323328
1761468959180889300,6.263889404296875,0.10104096680879593,-0.08820439130067825,-0.019398607313632965
1761468959190871300,6.273871337890625,0.07993265986442566,-0.08953755348920822,-0.042457688599824905
1761468959200854300,6.283854248046875,0.06659182161092758,-0.09615470468997955,-0.05360781401395798
1761468959210837200,6.293837158203125,0.06774967908859253,-0.10328110307455063,-0.05173274129629135
1761468959220820500,6.303820556640625,0.0794188529253006,-0.10003364086151123,-0.03739907592535019
1761468959230802200,6.31380224609375,0.08073019236326218,-0.09019868820905685,-0.01567675732076168
1761468959240785400,6.323785400390625,0.07821430265903473,-0.08719916641712189,0.004708942025899887
1761468959250768400,6.333768310546875,0.07235073298215866,-0.08470270037651062,0.014905019663274288
1761468959260750300,6.343750244140625,0.04779291898012161,-0.06802652031183243,0.035432662814855576
1761468959270733300,6.3537333984375,0.026474490761756897,-0.0415317676961422,0.04954279214143753
1761468959280716500,6.363716552734375,0.012919800356030464,-0.02259935438632965,0.06485676020383835
1761468959290699300,6.37369921875,-0.002998270094394684,-0.006066951900720596,0.07396867126226425
1761468959300681500,6.383681396484375,-0.016316737979650497,-0.0007488855626434088,0.07387332618236542
1761468959310664400,6.39366455078125,-0.02132306434214115,-0.022402506321668625,0.06330660730600357
1761468959320647200,6.403647216796875,-0.02533751353621483,-0.04734247550368309,0.059955280274152756
1761468959330630400,6.41363037109375,-0.0110554788261652,-0.0651179850101471,0.046674951910972595
1761468959340612400,6.4236123046875,-0.009617370553314686,-0.07256684452295303,0.04033849388360977
1761468959350595300,6.43359521484375,-0.007700022775679827,-0.06245064362883568,0.05215450003743172
1761468959360578300,6.443578369140625,-0.006799608003348112,-0.051322091370821,0.055749502032995224
1761468959370561300,6.453561279296875,0.002190226688981056,-0.049629878252744675,0.04273900389671326
1761468959380543200,6.463543212890625,0.00973070040345192,-0.05060699209570885,0.02098444104194641
1761468959390526200,6.473526123046875,0.006934349425137043,-0.04792991653084755,-0.007838458754122257
1761468959400509400,6.483509521484375,0.0017755399458110332,-0.044785257428884506,-0.015523542650043964
1761468959410492400,6.493492431640625,-0.016428207978606224,-0.026709534227848053,0.00042219110764563084
1761468959420474400,6.503474365234375,-0.04356688633561134,-0.012053892016410828,0.021766360849142075
1761468959430457300,6.513457275390625,-0.055743731558322906,-0.013669890351593494,0.03761100396513939
1761468959440440300,6.5234404296875,-0.08153032511472702,-0.031111732125282288,0.038956169039011
1761468959450422300,6.53342236328125,-0.07102782279253006,-0.056927308440208435,0.021751675754785538
1761468959460405200,6.5434052734375,-0.05476389452815056,-0.06672322005033493,0.0036360551603138447
1761468959470388500,6.553388427734375,-0.04439598321914673,-0.07653114199638367,-0.004640041384845972
1761468959480365600,6.563365478515625,-0.02563481032848358,-0.08142762631177902,-0.01083934772759676
1761468959490347300,6.57334716796875,-0.00776013545691967,-0.07333696633577347,-0.0012721109669655561
1761468959500330500,6.58333056640625,0.004437142051756382,-0.06920560449361801,0.01603524014353752
1761468959510313500,6.5933134765625,0.011519067920744419,-0.06961962580680847,0.02522316947579384
1761468959520296400,6.60329638671875,0.008649512194097042,-0.07732121646404266,0.021789822727441788
1761468959530278400,6.6132783203125,0.011644475162029266,-0.09179000556468964,0.007645487319678068
1761468959540261600,6.62326171875,0.010092385113239288,-0.12231303006410599,-0.008746801875531673
1761468959550244400,6.633244384765625,0.02255195751786232,-0.15638774633407593,-0.03770044445991516
1761468959560227300,6.643227294921875,0.05599407106637955,-0.1918109953403473,-0.05978577584028244
1761468959570209500,6.65320947265625,0.09166424721479416,-0.21368907392024994,-0.07507705688476562
1761468959580192300,6.663192138671875,0.12064982205629349,-0.22880864143371582,-0.08376295119524002
1761468959590175500,6.673175537109375,0.13242346048355103,-0.22216923534870148,-0.09033048897981644
1761468959600158500,6.683158447265625,0.12217587977647781,-0.19622045755386353,-0.09097258001565933
1761468959610140700,6.693140625,0.08811043202877045,-0.16945092380046844,-0.0821978971362114
1761468959620123400,6.703123291015625,0.05081046745181084,-0.1644258052110672,-0.07362038642168045
1761468959630106400,6.7131064453125,0.02598521299660206,-0.1706010103225708,-0.062223464250564575
1761468959640089600,6.723089599609375,0.0034058678429573774,-0.16892854869365692,-0.03317689895629883
1761468959650071300,6.7330712890625,-0.0048824818804860115,-0.16554825007915497,0.004791993647813797
1761468959660054500,6.743054443359375,-0.0065080756321549416,-0.1757849007844925,0.032638806849718094
1761468959670037500,6.75303759765625,-0.010320330038666725,-0.19242775440216064,0.05443151295185089
1761468959680020200,6.763020263671875,-0.01931861788034439,-0.20384551584720612,0.061431095004081726
1761468959690002400,6.77300244140625,-0.020713431760668755,-0.19977593421936035,0.05627165362238884
1761468959699985400,6.7829853515625,-0.028254704549908638,-0.1950911581516266,0.05529853329062462
1761468959709968400,6.792968505859375,-0.03932596370577812,-0.1726444959640503,0.06455013155937195
1761468959719951400,6.802951416015625,-0.054523028433322906,-0.13358791172504425,0.08689431846141815
1761468959729933600,6.81293359375,-0.05907026305794716,-0.07185596227645874,0.10796080529689789
1761468959739916500,6.82291650390625,-0.07021506130695343,-0.04789949208498001,0.11657506227493286
1761468959749899300,6.832899169921875,-0.08218957483768463,-0.035261016339063644,0.12340434640645981
1761468959759881500,6.842881591796875,-0.09457141160964966,-0.037559326738119125,0.13847118616104126
1761468959769864400,6.852864501953125,-0.10006579756736755,-0.035317473113536835,0.1564973145723343
1761468959779847400,6.862847412109375,-0.10354681313037872,-0.04918215423822403,0.16705834865570068
1761468959789830400,6.872830322265625,-0.09476295858621597,-0.07968220114707947,0.17650213837623596
1761468959799812600,6.8828125,-0.07095057517290115,-0.11109338700771332,0.16268539428710938
1761468959809795300,6.89279541015625,-0.04768729954957962,-0.12364264577627182,0.14113911986351013
1761468959819778600,6.902778564453125,-0.028100019320845604,-0.1330779492855072,0.11616452038288116
1761468959829761500,6.912761474609375,-0.010829196311533451,-0.12006180733442307,0.09402347356081009
1761468959839743500,6.922743408203125,-0.004144927486777306,-0.09721321612596512,0.08308374136686325
1761468959849726500,6.9327265625,0.0048916456289589405,-0.07914966344833374,0.08380883932113647
1761468959859709400,6.94270947265625,0.004216534085571766,-0.07269255816936493,0.09500370919704437
1761468959869692400,6.9526923828125,-0.007793570403009653,-0.09368263930082321,0.10018885880708694
1761468959879674400,6.96267431640625,-0.0066713145934045315,-0.13068406283855438,0.10744331032037735
1761468959889657600,6.97265771484375,-0.002503493335098028,-0.17131201922893524,0.10160297900438309
1761468959899640600,6.982640625,0.0006281174719333649,-0.1936791092157364,0.1031406819820404
1761468959909623300,6.992623291015625,0.009144186042249203,-0.2032933533191681,0.10756558924913406
1761468959919605500,7.00260546875,0.013530412688851357,-0.2101493924856186,0.11407861858606339
1761468959929588500,7.01258837890625,0.01660047098994255,-0.19654697179794312,0.11773962527513504
1761468959939571500,7.022571533203125,0.015427349135279655,-0.16917872428894043,0.12249603122472763
1761468959949554400,7.032554443359375,0.010517079383134842,-0.1339028924703598,0.12766051292419434
1761468959959536600,7.04253662109375,-0.011832701042294502,-0.1330416202545166,0.13530004024505615
1761468959969519400,7.052519287109375,-0.032356102019548416,-0.17340873181819916,0.13775788247585297
1761468959979502300,7.06250244140625,-0.03719107061624527,-0.2012033462524414,0.13641990721225739
1761468959989485600,7.072485595703125,-0.03245498985052109,-0.20193049311637878,0.13905446231365204
1761468959999467300,7.08246728515625,-0.014697561971843243,-0.21122172474861145,0.1184714213013649
1761468960009450500,7.092450439453125,0.011105304583907127,-0.2263602465391159,0.08226525038480759
1761468960019433500,7.10243359375,0.006048228591680527,-0.21925893425941467,0.06651691347360611
1761468960029415400,7.11241552734375,-0.0018346281722187996,-0.20626182854175568,0.07571186125278473
1761468960039398400,7.1223984375,-0.002029571682214737,-0.17756466567516327,0.09939109534025192
1761468960049381400,7.13238134765625,-0.003407225012779236,-0.16365471482276917,0.13530275225639343
1761468960059364600,7.142364501953125,0.006820112466812134,-0.16920900344848633,0.16059106588363647
1761468960069347300,7.152347412109375,0.011871257796883583,-0.18008746206760406,0.15837974846363068
1761468960079329500,7.16232958984375,0.01974569261074066,-0.1622469425201416,0.14282315969467163
1761468960089312500,7.1723125,0.015649963170289993,-0.11020392924547195,0.13599105179309845
1761468960099295500,7.18229541015625,-0.006061192601919174,-0.05139600485563278,0.13501127064228058
1761468960109277400,7.19227734375,-0.015560568310320377,0.004821542650461197,0.12926055490970612
1761468960119260700,7.2022607421875,-0.019905783236026764,0.03771158307790756,0.11039818823337555
1761468960129243400,7.212243408203125,-0.031226877123117447,0.03396398201584816,0.07212989032268524
1761468960139226400,7.222226318359375,-0.04194024205207825,0.030022768303751945,0.028593603521585464
1761468960149208600,7.23220849609375,-0.03627772256731987,0.03237716108560562,-0.021497974172234535
1761468960159191300,7.24219140625,-0.03180813789367676,0.04770577698945999,-0.053451910614967346
1761468960169174500,7.252174560546875,-0.037500787526369095,0.07081979513168335,-0.06848505139350891
1761468960179157500,7.262157470703125,-0.03777269646525383,0.09448783844709396,-0.06814523041248322
1761468960189139500,7.272139404296875,-0.04167342185974121,0.11583796888589859,-0.05458519607782364
1761468960199122400,7.282122314453125,-0.03921612352132797,0.1343591958284378,-0.0436989925801754
1761468960209105400,7.29210546875,-0.04096579924225807,0.1595018357038498,-0.034880731254816055
1761468960219088600,7.302088623046875,-0.05522356554865837,0.16001050174236298,-0.02779538929462433
1761468960229070300,7.3120703125,-0.05819070339202881,0.14580681920051575,-0.03280383348464966
1761468960239053600,7.322053466796875,-0.04801343381404877,0.14572745561599731,-0.04105936735868454
1761468960249036500,7.33203662109375,-0.04704020172357559,0.15508924424648285,-0.05567336082458496
1761468960259019300,7.342019287109375,-0.040078699588775635,0.15971195697784424,-0.0649571418762207
1761468960269001500,7.35200146484375,-0.039538588374853134,0.15789121389389038,-0.06432244926691055
1761468960278984400,7.361984375,-0.048082008957862854,0.14037427306175232,-0.06141187995672226
1761468960288967400,7.371967529296875,-0.04465198516845703,0.11082975566387177,-0.06609892100095749
1761468960298950400,7.381950439453125,-0.03970516473054886,0.08136773854494095,-0.07410731166601181
1761468960308932600,7.3919326171875,-0.025660904124379158,0.04152289405465126,-0.09034587442874908
1761468960318915300,7.401915283203125,-0.01225322112441063,0.020856497809290886,-0.10813392698764801
1761468960328898300,7.411898193359375,-0.003762730397284031,0.02707086130976677,-0.126689150929451
1761468960338881500,7.421881591796875,-0.004390970803797245,0.024291586130857468,-0.1353665292263031
1761468960348863500,7.431863525390625,-0.01750275120139122,0.0005517376121133566,-0.1480223834514618
1761468960358846500,7.441846435546875,-0.02942172810435295,-0.04162660613656044,-0.1532520353794098
1761468960368829400,7.451829345703125,-0.042473599314689636,-0.07307090610265732,-0.1400989592075348
1761468960378812700,7.461812744140625,-0.039451971650123596,-0.07833277434110641,-0.12361346185207367
1761468960388794400,7.47179443359375,-0.026936586946249008,-0.046160988509655,-0.09342983365058899
1761468960398777600,7.481777587890625,-0.006887776777148247,-0.002825764939188957,-0.06014325097203255
1761468960408760600,7.491760498046875,-0.010291064158082008,0.01199931651353836,-0.04571135342121124
1761468960418742500,7.501742431640625,-0.005499504040926695,0.01777624525129795,-0.047402460128068924
1761468960428725500,7.5117255859375,0.0020213027019053698,0.002954198746010661,-0.05909687653183937
1761468960438708500,7.52170849609375,0.0039041575510054827,-0.01737530715763569,-0.06879424303770065
1761468960448691500,7.53169140625,0.008889474906027317,-0.032959941774606705,-0.07077949494123459
1761468960458674400,7.54167431640625,0.017079494893550873,-0.04466027393937111,-0.06192287802696228
1761468960468656600,7.55165673828125,0.019821956753730774,-0.042285576462745667,-0.04509922116994858
1761468960478638800,7.561638916015625,0.0008511957712471485,0.00017400016076862812,0.0014443134423345327
1761468960488621800,7.571621826171875,-0.011585945263504982,0.04808228090405464,0.05247029662132263
1761468960498604000,7.58160400390625,-0.021757889539003372,0.07805588841438293,0.09298789501190186
1761468960508587000,7.5915869140625,-0.026856517419219017,0.061199843883514404,0.08715688437223434
1761468960518570000,7.601570068359375,-0.014441126957535744,0.01851470023393631,0.049130141735076904
1761468960528553000,7.611552978515625,0.00971170049160719,-0.02528270334005356,0.00760728120803833
1761468960538535000,7.621534912109375,0.029831616207957268,-0.05701985955238342,-0.034001678228378296
1761468960548518000,7.631517822265625,0.036912914365530014,-0.05965649336576462,-0.047894351184368134
1761468960558501000,7.641501220703125,0.028125546872615814,-0.061383288353681564,-0.04665624722838402
1761468960568483800,7.65148388671875,0.027075789868831635,-0.06881772726774216,-0.039387088268995285
1761468960578466000,7.661466064453125,0.020037055015563965,-0.0800061970949173,-0.03436090424656868
1761468960588449000,7.671448974609375,0.009382772259414196,-0.07873670756816864,-0.037654757499694824
1761468960598431700,7.681431640625,0.004797075409442186,-0.06153721734881401,-0.04709672927856445
1761468960608415000,7.6914150390625,0.01031465269625187,-0.02809399738907814,-0.04827325791120529
1761468960618397000,7.70139697265625,0.01633659191429615,0.001977883977815509,-0.04398716613650322
1761468960628380200,7.711380126953125,0.01582411490380764,0.02209845744073391,-0.034592680633068085
1761468960638363000,7.72136279296875,0.0003210552968084812,0.03907078132033348,-0.020323198288679123
1761468960648345900,7.731345947265625,-0.009341852739453316,0.06222710758447647,-0.0016618111403658986
1761468960658328000,7.741328125,-0.022096529603004456,0.05368901416659355,0.00830347090959549
1761468960668310800,7.751310791015625,-0.030182059854269028,0.02221442200243473,-0.003284107893705368
1761468960678294000,7.7612939453125,-0.020121170207858086,-0.01725309155881405,-0.03218260034918785
1761468960688277000,7.771277099609375,0.0009635211899876595,-0.03336349502205849,-0.0654146745800972
1761468960698259000,7.781259033203125,0.025325585156679153,-0.027744224295020103,-0.08727522939443588
1761468960708242000,7.791241943359375,0.032816216349601746,-0.006535694003105164,-0.097814179956913
1761468960718225000,7.801224853515625,0.03807196766138077,0.01014980860054493,-0.0959148108959198
1761468960728208000,7.811207763671875,0.04758957028388977,0.014348547905683517,-0.0906715840101242
1761468960738189800,7.82118994140625,0.047201283276081085,0.0404275543987751,-0.06842939555644989
1761468960748173000,7.831173095703125,0.03849053755402565,0.08254038542509079,-0.022567197680473328
1761468960758156000,7.841156005859375,0.03174448385834694,0.08659424632787704,0.01509069837629795
1761468960768138000,7.851137939453125,0.030206311494112015,0.05034584924578667,0.025844626128673553
1761468960778121000,7.861120849609375,0.031898483633995056,0.020416447892785072,0.001148865558207035
1761468960788104000,7.87110400390625,0.04334796965122223,0.013085130602121353,-0.02901593968272209
1761468960798087000,7.8810869140625,0.045793287456035614,0.01781277358531952,-0.05838794261217117
1761468960808068900,7.89106884765625,0.03990864381194115,0.005046560894697905,-0.07788293808698654
1761468960818052000,7.901052001953125,0.03678901493549347,-0.010103097185492516,-0.08892840147018433
1761468960828034800,7.911034912109375,0.04406341537833214,-0.0007642898708581924,-0.091702900826931
1761468960838018000,7.92101806640625,0.05286010354757309,0.0259096659719944,-0.07218299806118011
1761468960848000000,7.931,0.056687161326408386,0.0434417724609375,-0.045690830796957016
1761468960857983000,7.94098291015625,0.05093792825937271,0.05768861621618271,-0.020780157297849655
1761468960867966000,7.950966064453125,0.046595774590969086,0.0469089113175869,-0.007376893423497677
1761468960877949000,7.960948974609375,0.04778434336185455,0.02032230980694294,-0.010242454707622528
1761468960887931000,7.970930908203125,0.04477699473500252,-0.004589304327964783,-0.02960185706615448
1761468960897913900,7.980913818359375,0.04617275670170784,-0.0005117384716868401,-0.038227301090955734
1761468960907897000,7.99089697265625,0.04662273824214935,0.005897441413253546,-0.03666599094867706
1761468960917880000,8.000880126953126,0.047241389751434326,0.0051490929909050465,-0.02991514466702938
1761468960927861000,8.010861083984375,0.030595868825912476,-0.00220288778655231,-0.026699870824813843
1761468960937843000,8.020843017578125,0.03543989360332489,-0.009369454346597195,-0.023277174681425095
1761468960947826000,8.030825927734375,0.038799505680799484,-0.009924512356519699,-0.02182598039507866
1761468960957809000,8.040808837890625,0.04147038981318474,-0.018822932615876198,-0.019694918766617775
1761468960967792000,8.050792236328125,0.05033877491950989,-0.0376940481364727,-0.02648458629846573
1761468960977773800,8.06077392578125,0.052976638078689575,-0.052101485431194305,-0.031926486641168594
1761468960987757000,8.070757080078126,0.05205339565873146,-0.04616020992398262,-0.026863757520914078
1761468960997740000,8.080739990234376,0.04515128210186958,-0.026927392929792404,-0.017510470002889633
1761468961007722800,8.09072265625,0.037342749536037445,-0.011597621254622936,-0.002852840581908822
1761468961017705000,8.100705078125,0.019269738346338272,0.0022947583347558975,0.010573485866189003
1761468961027688000,8.11068798828125,0.007011852692812681,0.007393623702228069,0.02218417450785637
1761468961037671000,8.1206708984375,0.001520148478448391,0.0037914321292191744,0.030882056802511215
1761468961047654000,8.13065380859375,-0.0006841076537966728,0.0004215175285935402,0.03552507236599922
1761468961057636000,8.140635986328125,-0.005418941844254732,-0.01675587147474289,0.029746277257800102
1761468961067618800,8.150618896484374,0.0007097483612596989,-0.03207016363739967,0.016360905021429062
1761468961077601800,8.160601806640624,0.0018418582621961832,-0.025597617030143738,0.012220222502946854
1761468961087585000,8.1705849609375,0.003926189616322517,-0.006171899382025003,0.013669640757143497
1761468961097566700,8.180566650390626,0.00891162734478712,0.000669761560857296,0.02171744592487812
1761468961107550000,8.190550048828126,0.010713379830121994,0.0042241960763931274,0.031185656785964966
1761468961117533000,8.200532958984375,0.0039481520652771,0.01473755668848753,0.05107920244336128
1761468961127516000,8.210515869140625,-0.0039539458230137825,0.024456968531012535,0.07103590667247772
1761468961137497900,8.220497802734375,-0.006605122238397598,0.02088220790028572,0.07974603772163391
1761468961147481000,8.230481201171875,-0.012303787283599377,0.021434606984257698,0.08141527324914932
1761468961157464000,8.240464111328125,-0.0162721648812294,0.02277417667210102,0.08415593206882477
1761468961167446000,8.250446044921874,-0.019178910180926323,0.03543003275990486,0.08911164104938507
1761468961177429000,8.260428955078124,-0.019605815410614014,0.037550974637269974,0.08948314934968948
1761468961187412000,8.270411865234376,-0.014349542558193207,0.021469106897711754,0.07656200975179672
1761468961197395000,8.28039501953125,-0.007747032679617405,0.014519588090479374,0.06979358196258545
1761468961207377000,8.290376953125,0.004481351003050804,0.03578579053282738,0.07208812236785889
1761468961217360100,8.300360107421875,0.023495521396398544,0.08567585051059723,0.15391242504119873
1761468961227342800,8.3103427734375,0.019710006192326546,0.04247051104903221,0.21198146045207977
1761468961237325800,8.320325927734375,0.011956213042140007,-0.0388517752289772,0.1768980324268341
1761468961247308000,8.33030810546875,0.014067072421312332,-0.07119130343198776,0.11595272272825241
1761468961257290800,8.340290771484375,0.004136145114898682,-0.05482404679059982,0.05566195026040077
1761468961267274000,8.35027392578125,-0.012253807857632637,-0.03305833786725998,0.0017935975920408964
1761468961277257000,8.360257080078124,-0.020732779055833817,-0.02133057452738285,-0.02905299887061119
1761468961287239000,8.370239013671876,-0.016039201989769936,-0.01211283914744854,-0.04923735931515694
1761468961297222000,8.380221923828126,-0.005983905401080847,-0.016941949725151062,-0.06003487855195999
1761468961307204900,8.390204833984376,0.01435708999633789,-0.010265099816024303,-0.05902202054858208
1761468961317188000,8.40018798828125,0.020585957914590836,-0.0012977041769772768,-0.02474394254386425
1761468961327169800,8.410169677734375,0.01320633850991726,-0.022948138415813446,0.014206120744347572
1761468961337153000,8.420153076171875,0.0055311089381575584,-0.05027589946985245,0.03507225215435028
