time,seconds_elapsed,z,y,x
1761469005998354700,0.119354736328125,1.072545051574707,1.3594214916229248,-0.6992406249046326
1761469006008336600,0.129336669921875,1.0944970846176147,1.2298247814178467,-0.8205713629722595
1761469006018319600,0.139319580078125,1.1483371257781982,0.929794430732727,-0.9567171931266785
1761469006028302600,0.149302490234375,1.1810460090637207,0.7173019051551819,-1.0683538913726807
1761469006038285800,0.159285888671875,1.1572208404541016,0.7952616810798645,-1.160573124885559
1761469006048268500,0.1692685546875,1.1625385284423828,0.8005104660987854,-1.3173025846481323
1761469006058251500,0.17925146484375,1.2543057203292847,0.7292231917381287,-1.4664103984832764
1761469006068234800,0.18923486328125,1.3524962663650513,0.684598445892334,-1.5498281717300415
1761469006078217700,0.1992177734375,1.3314913511276245,0.5718897581100464,-1.666201114654541
1761469006088200400,0.209200439453125,1.3201818466186523,0.6859909892082214,-1.8272441625595093
1761469006098183700,0.21918359375,1.2754863500595093,0.9787125587463379,-2.0036959648132324
1761469006108165600,0.22916552734375,1.1637451648712158,1.3456140756607056,-2.079552173614502
1761469006118148600,0.239148681640625,1.0486336946487427,1.493165373802185,-2.113435745239258
1761469006128131600,0.249131591796875,0.884867787361145,1.495435118675232,-2.109203577041626
1761469006138114800,0.25911474609375,0.6741294264793396,1.4439951181411743,-2.031738758087158
1761469006148097500,0.26909765625,0.4766629636287689,1.292643427848816,-1.9419432878494263
1761469006158080500,0.27908056640625,0.24758131802082062,1.1145501136779785,-1.7721188068389893
1761469006168063700,0.289063720703125,-0.04356231167912483,1.0229833126068115,-1.5994585752487183
1761469006178046700,0.299046630859375,-0.29768407344818115,1.052465796470642,-1.5146347284317017
1761469006188029400,0.309029541015625,-0.4095844328403473,1.2827682495117188,-1.4869558811187744
1761469006198011600,0.31901171875,-0.5708308219909668,1.060998558998108,-1.3681977987289429
1761469006207994600,0.32899462890625,-0.227720707654953,1.2406048774719238,-1.6065648794174194
1761469006217977600,0.3389775390625,0.02235252410173416,1.1717357635498047,-1.4634006023406982
1761469006227960600,0.348960693359375,-0.006460546050220728,0.549258291721344,-1.3519710302352905
1761469006237943600,0.358943603515625,0.041890475898981094,0.19676309823989868,-1.3995305299758911
1761469006247926800,0.3689267578125,0.0912628173828125,0.5293335318565369,-1.5614007711410522
1761469006257909500,0.378909423828125,0.0676317885518074,0.9624437093734741,-1.5971033573150635
1761469006267892500,0.388892578125,0.04602709785103798,1.2803318500518799,-1.499549388885498
1761469006277875700,0.398875732421875,0.06818486750125885,1.8241461515426636,-1.4974191188812256
1761469006287858700,0.408858642578125,0.08532296866178513,2.14224910736084,-1.5162677764892578
1761469006297840600,0.418840576171875,0.0332975834608078,2.092602014541626,-1.3394898176193237
1761469006307823600,0.42882373046875,-0.0558040626347065,1.6639118194580078,-1.056511640548706
1761469006317806800,0.438806884765625,-0.07088900357484818,1.3928859233856201,-0.6080856919288635
1761469006327789600,0.44878955078125,0.00867166742682457,1.2139666080474854,-0.008995244279503822
1761469006337772500,0.4587724609375,0.046620383858680725,1.2961006164550781,0.49711641669273376
1761469006347755800,0.468755859375,-0.013102669268846512,2.073975086212158,0.6309812068939209
1761469006357738800,0.47873876953125,-0.1970440000295639,3.051726818084717,0.38494160771369934
1761469006367721500,0.488721435546875,-0.19921875,3.3600997924804688,-0.038549989461898804
1761469006377704700,0.49870458984375,-0.055286336690187454,2.5032055377960205,-0.44339519739151
1761469006387686700,0.508686767578125,0.058108724653720856,1.3717461824417114,-0.6441317200660706
1761469006397669600,0.518669677734375,0.15654900670051575,0.5836626887321472,-0.8319463729858398
1761469006407652600,0.528652587890625,0.18471567332744598,0.258878231048584,-1.132887363433838
1761469006417635600,0.538635498046875,0.10475878417491913,0.4014207422733307,-1.3230055570602417
1761469006427618800,0.548618896484375,-0.01311405748128891,0.7427388429641724,-1.339398980140686
1761469006437601500,0.5586015625,-0.1366860568523407,1.1256494522094727,-1.2697194814682007
1761469006447584500,0.56858447265625,-0.22048868238925934,1.3919799327850342,-1.2173906564712524
1761469006457567700,0.578567626953125,-0.2539648711681366,1.5975208282470703,-1.1599116325378418
1761469006467550500,0.588550537109375,-0.2989458739757538,1.747206211090088,-1.0290629863739014
1761469006477532700,0.59853271484375,-0.3324074447154999,1.7296490669250488,-0.8745138645172119
1761469006487515600,0.608515625,-0.33422017097473145,1.4971555471420288,-0.7140607833862305
1761469006497498600,0.61849853515625,-0.261892706155777,1.0814608335494995,-0.6121882200241089
1761469006507481600,0.628481689453125,-0.2361707091331482,0.7697698473930359,-0.5079703330993652
1761469006517464600,0.638464599609375,-0.26580822467803955,0.6224126219749451,-0.3522009551525116
1761469006527447000,0.648447021484375,-0.25945526361465454,0.5557166934013367,-0.18322978913784027
1761469006537430000,0.658429931640625,-0.20677180588245392,0.5180060267448425,0.01469394564628601
1761469006547413000,0.6684130859375,-0.11862769722938538,0.468328058719635,0.2380206286907196
1761469006557396000,0.67839599609375,-0.046912502497434616,0.2850131094455719,0.3665359914302826
1761469006567379000,0.68837890625,-0.012644857168197632,0.11406415700912476,0.31283947825431824
1761469006577361200,0.698361083984375,-0.026972398161888123,0.3673914968967438,0.28865399956703186
1761469006587344000,0.70834375,-0.05303177982568741,1.6042739152908325,0.7421145439147949
1761469006597327000,0.7183271484375,0.027217520400881767,0.9191194176673889,0.5057166814804077
1761469006607310000,0.72831005859375,0.06992869824171066,0.1594717800617218,0.17312879860401154
1761469006617293000,0.73829296875,0.13323816657066345,-0.12527020275592804,0.10734205693006516
1761469006627276000,0.748276123046875,0.1133294403553009,0.42764928936958313,0.48649924993515015
1761469006637259000,0.758259033203125,0.10453780740499496,0.340918630361557,0.6147432327270508
1761469006647242000,0.768241943359375,0.11470343172550201,-0.12023167312145233,0.41526374220848083
1761469006657225200,0.77822509765625,0.12181194126605988,-0.4440893828868866,0.13096438348293304
1761469006667207000,0.78820703125,0.0973237007856369,-0.46327048540115356,-0.05678149685263634
1761469006677190100,0.798190185546875,0.056069474667310715,-0.38335752487182617,-0.13250023126602173
1761469006687173000,0.808173095703125,0.019886311143636703,-0.2785629630088806,-0.13223984837532043
1761469006697155800,0.81815576171875,-0.00774957612156868,-0.1565086841583252,-0.072125643491745
1761469006707139000,0.82813916015625,-0.026981333270668983,-0.026316387578845024,0.014448634348809719
1761469006717122000,0.8381220703125,-0.04206601157784462,0.02310788631439209,0.052132364362478256
1761469006727105000,0.84810498046875,-0.05542222782969475,-0.05158624053001404,0.03043167106807232
1761469006737088000,0.858087890625,-0.0830136388540268,-0.16903644800186157,0.0027294678147882223
1761469006747071000,0.868071044921875,-0.10768989473581314,-0.25889867544174194,-0.015991708263754845
1761469006757053200,0.87805322265625,-0.05582297220826149,-0.2717635929584503,-0.052526284009218216
1761469006767036000,0.888035888671875,-0.06831472367048264,-0.23034146428108215,-0.08996597677469254
1761469006777019100,0.89801904296875,-0.052244946360588074,-0.1583583503961563,-0.1363811492919922
1761469006787002000,0.908002197265625,-0.031773824244737625,-0.12124277651309967,-0.19494707882404327
1761469006796985000,0.917985107421875,0.0069999354891479015,-0.027934934943914413,-0.16473005712032318
1761469006806968000,0.927968017578125,0.016843311488628387,0.11335993558168411,-0.06168055906891823
1761469006816951000,0.937950927734375,0.011130563914775848,0.21108543872833252,0.024811454117298126
1761469006826934000,0.94793408203125,0.0026732312981039286,0.18715061247348785,0.06575150787830353
1761469006836917200,0.957917236328125,0.011769790202379227,0.018574386835098267,0.06611555814743042
1761469006846900000,0.96789990234375,0.03470533341169357,-0.17231105268001556,0.062166210263967514
1761469006856882200,0.977882080078125,0.0714859813451767,-0.33279260993003845,0.029610663652420044
1761469006866865200,0.987865234375,0.13459716737270355,-0.4554874897003174,-0.05500530079007149
1761469006876847900,0.997847900390625,0.20215171575546265,-0.46327537298202515,-0.09173188358545303
1761469006886831000,1.0078310546875,0.20188386738300323,-0.24162642657756805,0.03013768419623375
1761469006896814000,1.01781396484375,0.1211743876338005,0.04049714654684067,0.20041035115718842
1761469006906797000,1.027797119140625,0.05728107690811157,0.0939236655831337,0.20179079473018646
1761469006916780000,1.037780029296875,0.026862720027565956,0.04064073786139488,0.0974087342619896
1761469006926763000,1.047762939453125,0.012475858442485332,-0.012470855377614498,-0.012644452974200249
1761469006936746200,1.057746337890625,-0.012690747156739235,-0.023758664727211,-0.08212738484144211
1761469006946728000,1.06772802734375,-0.024459920823574066,0.00880073569715023,-0.09807001054286957
1761469006956711200,1.077711181640625,-0.025169122964143753,0.07224388420581818,-0.09856615215539932
1761469006966694100,1.087694091796875,-0.020056378096342087,0.12681269645690918,-0.09253724664449692
1761469006976676900,1.0976767578125,-0.01682303473353386,0.16425248980522156,-0.06539271771907806
1761469006986660000,1.10766015625,-0.04032637178897858,0.16014325618743896,-0.015347561798989773
1761469006996643000,1.11764306640625,-0.0442713126540184,0.14097249507904053,0.03103165328502655
1761469007006626000,1.1276259765625,-0.059456851333379745,0.13468913733959198,0.07147609442472458
1761469007016609000,1.137609130859375,-0.0802295058965683,0.1645977646112442,0.07746235281229019
1761469007026592000,1.147592041015625,-0.09821416437625885,0.19075025618076324,0.05643531307578087
1761469007036574200,1.15757421875,-0.12374721467494965,0.23051604628562927,0.04959551617503166
1761469007046557000,1.167556884765625,-0.11907311528921127,0.24508346617221832,0.033364858478307724
1761469007056540000,1.177539794921875,-0.1294431984424591,0.2513536214828491,0.03985391557216644
1761469007066523100,1.187523193359375,-0.11972645670175552,0.21370311081409454,0.05227164179086685
1761469007076506000,1.197506103515625,-0.11150047928094864,0.14294478297233582,0.07132841646671295
1761469007086489000,1.207489013671875,-0.09755995869636536,0.09557327628135681,0.07542964816093445
1761469007096472000,1.21747216796875,-0.06175322085618973,0.10689863562583923,0.09329866617918015
1761469007106455000,1.227455078125,-0.037361934781074524,0.15873028337955475,0.09989336133003235
1761469007116438300,1.237438232421875,-0.027883213013410568,0.11429757624864578,0.04933590814471245
1761469007126420000,1.247419921875,-0.013713798485696316,0.08022648841142654,0.019753312692046165
1761469007136403200,1.2574033203125,-0.014627263881266117,0.03416498377919197,0.0012563273776322603
1761469007146386200,1.26738623046875,-0.021401945501565933,0.01683087646961212,-0.005293579772114754
1761469007156369000,1.277368896484375,-0.03058239445090294,-0.025134949013590813,-0.027025774121284485
1761469007166352100,1.28735205078125,-0.02657720260322094,-0.07628785818815231,-0.04028959572315216
1761469007176335000,1.297335205078125,-0.021204540506005287,-0.1111944392323494,-0.04702872782945633
1761469007186318000,1.307318115234375,-0.027828682214021683,-0.12277573347091675,-0.01860644668340683
1761469007196301000,1.317301025390625,-0.028744280338287354,-0.12908875942230225,0.0033664957154542208
1761469007206284000,1.327283935546875,-0.026148298755288124,-0.1307317614555359,0.027736201882362366
1761469007216266200,1.337266357421875,-0.01786826364696026,-0.12134678661823273,0.05021567642688751
1761469007226249000,1.3472490234375,-0.02924182079732418,-0.12505251169204712,0.05404479801654816
1761469007236232000,1.35723193359375,-0.03761426359415054,-0.14893120527267456,0.061616700142621994
1761469007246215200,1.367215087890625,-0.03216637670993805,-0.16185490787029266,0.05577516555786133
1761469007256198000,1.377197998046875,-0.027906384319067,-0.13689976930618286,0.04440852627158165
1761469007266181000,1.38718115234375,0.00017937785014510155,-0.10378200560808182,0.03696131333708763
1761469007276164000,1.3971640625,0.03630409389734268,-0.06604500859975815,0.05675605684518814
1761469007286147000,1.40714697265625,0.030586296692490578,-0.0413653738796711,0.10168629139661789
1761469007296130000,1.417130126953125,0.030331430956721306,-0.031066130846738815,0.14783036708831787
1761469007306112000,1.427112060546875,-0.03881169110536575,-0.016092574223876,0.19520050287246704
1761469007316095200,1.43709521484375,-0.041958749294281006,-0.02620060183107853,0.18866057693958282
1761469007326078000,1.447077880859375,-0.04266488552093506,-0.056528761982917786,0.13446646928787231
1761469007336061000,1.45706103515625,-0.027371946722269058,-0.07182275503873825,0.07609637081623077
1761469007346044200,1.467044189453125,-0.0020673274993896484,-0.07445260882377625,0.011792268604040146
1761469007356027100,1.477027099609375,0.019308269023895264,-0.03876945376396179,-0.02891814336180687
1761469007366009900,1.487009765625,0.030649935826659203,0.009802366606891155,-0.04060324281454086
1761469007375993000,1.4969931640625,0.041140925139188766,0.025529930368065834,-0.03807510435581207
1761469007385976000,1.50697607421875,0.050436828285455704,0.03666722774505615,-0.033219460397958755
1761469007395958000,1.5169580078125,0.06250414997339249,0.07499811053276062,-0.03235233575105667
1761469007405941000,1.52694091796875,0.03394440561532974,0.07811877131462097,-0.029039904475212097
1761469007415924000,1.536924072265625,0.013372018933296204,0.09930288791656494,-0.010457431897521019
1761469007425907200,1.5469072265625,-0.012293804436922073,0.14839030802249908,0.033581219613552094
1761469007435890000,1.556889892578125,-0.02274378202855587,0.15699072182178497,0.04530685022473335
1761469007445873000,1.566872802734375,-0.029939906671643257,0.1487560272216797,0.03556104749441147
1761469007455856000,1.576856201171875,-0.03001926653087139,0.1223558560013771,0.015127411112189293
1761469007465839000,1.586839111328125,-0.035388801246881485,0.09231744706630707,-0.0011413807515054941
1761469007475822000,1.596822021484375,-0.029989242553710938,0.08273325860500336,0.0059607368893921375
1761469007485804000,1.606803955078125,-0.02653558738529682,0.07846589386463165,-0.0016595592023804784
1761469007495787300,1.616787353515625,-0.027102572843432426,0.06920075416564941,-0.009479931555688381
1761469007505770000,1.62677001953125,-0.03242383152246475,0.07465226203203201,-0.006044179201126099
1761469007515753000,1.6367529296875,-0.03036627732217312,0.08946157246828079,0.00015965476632118225
1761469007525736400,1.646736328125,-0.0318540520966053,0.1140914037823677,0.024513859301805496
1761469007535719700,1.6567197265625,-0.0358666367828846,0.1559445708990097,0.05971924588084221
1761469007545702700,1.66670263671875,-0.04221821203827858,0.19109587371349335,0.09785306453704834
1761469007555685600,1.676685546875,-0.044427305459976196,0.21474102139472961,0.1386612206697464
1761469007565668600,1.686668701171875,-0.04175468534231186,0.17011594772338867,0.1422814279794693
1761469007575650800,1.69665087890625,-0.063271164894104,0.08311154693365097,0.1334248185157776
1761469007585633500,1.706633544921875,-0.03365495055913925,0.04430185630917549,0.11851751804351807
1761469007595616500,1.716616455078125,-0.03299262374639511,0.016113892197608948,0.1180751621723175
1761469007605599700,1.726599853515625,-0.055012620985507965,-0.03673820197582245,0.10406892001628876
1761469007615582700,1.736582763671875,-0.05810482054948807,-0.046760208904743195,0.11108475178480148
1761469007625565400,1.7465654296875,-0.06728967279195786,-0.0481758750975132,0.1272806078195572
1761469007635548700,1.756548583984375,-0.05411794036626816,-0.05638213828206062,0.12738659977912903
1761469007645531600,1.76653173828125,-0.045271992683410645,-0.062008488923311234,0.11003071069717407
1761469007655514600,1.7765146484375,-0.023007167503237724,-0.04850173741579056,0.09345759451389313
1761469007665496600,1.78649658203125,0.0019005914218723774,-0.051820386201143265,0.09202355891466141
1761469007675479600,1.7964794921875,0.011157473549246788,-0.002392916940152645,0.10414546728134155
1761469007685462800,1.806462890625,0.001131728757172823,-0.00596375297755003,0.09535487741231918
1761469007695445500,1.816445556640625,0.009136125445365906,-0.0060961125418543816,0.0871339663863182
1761469007705428500,1.826428466796875,0.010997084900736809,-0.012531631626188755,0.06790777295827866
1761469007715411700,1.83641162109375,0.005793001968413591,-0.012992092408239841,0.041597072035074234
1761469007725394700,1.846394775390625,-0.0035170200280845165,0.002969861263409257,0.031477417796850204
1761469007735377700,1.856377685546875,-0.014465007930994034,0.025605399161577225,0.04507072642445564
1761469007745359600,1.866359619140625,-0.028140142560005188,0.051582302898168564,0.06401397287845612
1761469007755342800,1.8763427734375,-0.031339131295681,0.06331965327262878,0.07210998237133026
1761469007765325600,1.88632568359375,-0.029989641159772873,0.06671977043151855,0.06122598052024841
1761469007775308500,1.89630859375,-0.017710871994495392,0.08773637562990189,0.06080413609743118
1761469007785291800,1.906291748046875,-0.006234046071767807,0.09316807985305786,0.06191113591194153
1761469007795274800,1.916274658203125,-0.013715931214392185,0.0796128511428833,0.04371029511094093
1761469007805257500,1.926257568359375,0.007319050841033459,0.08659148216247559,0.00892757996916771
1761469007815240700,1.93624072265625,-0.00419832207262516,0.11206141859292984,-0.002208694349974394
1761469007825223700,1.9462236328125,-0.0077345347963273525,0.1476432979106903,-0.008173448964953423
1761469007835205600,1.95620556640625,-0.012557784095406532,0.14711865782737732,-0.006610440090298653
1761469007845188600,1.966188720703125,-0.0010878155007958412,0.12832635641098022,-0.0157203059643507
1761469007855171600,1.976171630859375,-0.010461344383656979,0.08719809353351593,-0.014835604466497898
1761469007865154800,1.98615478515625,-0.017592694610357285,0.0632493644952774,-0.02022526226937771
1761469007875137500,1.996137451171875,-0.023685738444328308,0.057359252125024796,-0.020913690328598022
1761469007885120500,2.00612060546875,-0.042213134467601776,0.05787305161356926,-0.006193877197802067
1761469007895103700,2.016103759765625,-0.06799972802400589,0.06306062638759613,0.012733208015561104
1761469007905086500,2.02608642578125,-0.0824502483010292,0.06890782713890076,0.03597331419587135
1761469007915069700,2.036069580078125,-0.07500165700912476,0.05522210896015167,0.03625214472413063
1761469007925051600,2.0460517578125,-0.04985375329852104,0.03933314234018326,0.023215923458337784
1761469007935034600,2.05603466796875,-0.02064792811870575,0.03078386001288891,0.014932693913578987
1761469007945017600,2.066017578125,0.00756119703873992,0.008971295319497585,-0.005620947107672691
1761469007955000600,2.07600048828125,0.0273255817592144,-0.007231110706925392,-0.02222495526075363
1761469007964983800,2.08598388671875,0.03942039608955383,-0.005070894956588745,-0.03145352005958557
1761469007974966500,2.095966552734375,0.052858974784612656,0.005358576308935881,-0.027818569913506508
1761469007984949500,2.105949462890625,0.05545102804899216,0.01150994561612606,-0.018101228401064873
1761469007994932700,2.1159326171875,0.060545921325683594,0.0017776903696358204,-0.0071897245943546295
1761469008004914400,2.12591455078125,0.06666739284992218,-0.01327566709369421,-0.011508921161293983
1761469008014897700,2.135897705078125,0.07343395054340363,-0.025806905701756477,-0.021148499101400375
1761469008024880600,2.145880615234375,0.08312779664993286,-0.0344153456389904,-0.035007379949092865
1761469008034863600,2.155863525390625,0.09363583475351334,-0.04512365162372589,-0.04806113243103027
1761469008044846600,2.1658466796875,0.09051533788442612,-0.04880350083112717,-0.06105959415435791
1761469008054829600,2.17582958984375,0.08401056379079819,-0.051456011831760406,-0.06453235447406769
1761469008064812500,2.1858125,0.07751931250095367,-0.04792170971632004,-0.057250503450632095
1761469008074795800,2.195795654296875,0.06805949658155441,-0.025818541646003723,-0.03873913735151291
1761469008084778500,2.205778564453125,0.059257615357637405,-0.007012014277279377,-0.02914924919605255
1761469008094760700,2.2157607421875,0.0435287170112133,0.02020549215376377,-0.021717699244618416
1761469008104743700,2.22574365234375,0.03308013826608658,0.04312553629279137,-0.012992576695978642
1761469008114726700,2.2357265625,0.027227576822042465,0.046738915145397186,-0.01126817986369133
1761469008124709600,2.245709716796875,0.03140401467680931,0.03793005645275116,-0.009048095904290676
1761469008134692600,2.255692626953125,0.03686269372701645,0.032975777983665466,-0.009015871211886406
1761469008144675800,2.26567578125,0.04778672754764557,0.031154004856944084,-0.018424784764647484
1761469008154658600,2.275658447265625,0.055574607104063034,0.02666604518890381,-0.025538619607686996
1761469008164641500,2.2856416015625,0.06003255397081375,0.006492237094789743,-0.03486570715904236
1761469008174624800,2.295624755859375,0.06522438675165176,-0.00936848483979702,-0.04306238517165184
1761469008184606500,2.3056064453125,0.05793116241693497,-0.011016547679901123,-0.04473640024662018
1761469008194589700,2.315589599609375,0.04951797053217888,-0.02021350897848606,-0.03643558919429779
1761469008204572700,2.32557275390625,0.039655882865190506,-0.00523042120039463,-0.018149659037590027
1761469008214555600,2.3355556640625,0.02457866258919239,0.010377833619713783,-0.005537194199860096
1761469008224538600,2.34553857421875,0.013539664447307587,0.009153170511126518,-0.007367229089140892
1761469008234521600,2.355521484375,0.010016835294663906,-0.0008968005422502756,-0.019535211846232414
1761469008244504600,2.365504638671875,0.024123603478074074,-0.016333524137735367,-0.03696373105049133
1761469008254487600,2.375487548828125,0.03909749165177345,-0.02496429532766342,-0.04806298762559891
1761469008264469500,2.385469482421875,0.04724143445491791,-0.013005970977246761,-0.05077916756272316
1761469008274452700,2.39545263671875,0.054196543991565704,0.0012635127641260624,-0.04496735334396362
1761469008284435500,2.405435546875,0.055351823568344116,-0.010608039796352386,-0.04239020124077797
1761469008294418700,2.415418701171875,0.06127309799194336,-0.02766079269349575,-0.05075732246041298
1761469008304401700,2.425401611328125,0.053204916417598724,-0.031353943049907684,-0.055776454508304596
1761469008314384600,2.435384521484375,0.04051628336310387,-0.02247176691889763,-0.059792499989271164
1761469008324367600,2.44536767578125,0.022534620016813278,-0.0101352259516716,-0.05497271567583084
1761469008334350600,2.4553505859375,0.014748070389032364,0.002774446737021208,-0.04605725407600403
1761469008344333600,2.46533349609375,0.0135948546230793,0.010057845152914524,-0.03109142743051052
1761469008354315500,2.4753154296875,0.014817778021097183,0.0057523129507899284,-0.02002093382179737
1761469008364298500,2.485298583984375,0.01472850888967514,-0.002678382210433483,-0.019993513822555542
1761469008374281700,2.49528173828125,0.01282754447311163,-0.006146350875496864,-0.016518356278538704
1761469008384264700,2.5052646484375,0.011204742826521397,-0.020793907344341278,-0.01776539534330368
1761469008394247400,2.515247314453125,0.00998874381184578,-0.020876731723546982,-0.016655921936035156
1761469008404230700,2.525230712890625,0.007714859675616026,-0.007618905045092106,-0.015508747659623623
1761469008414213600,2.535213623046875,-0.002447762992233038,0.016915999352931976,-0.020403902977705002
1761469008424196600,2.545196533203125,-0.008300451561808586,0.05578932166099548,-0.023545462638139725
1761469008434178600,2.555178466796875,-0.013124501332640648,0.08440844714641571,-0.024515386670827866
1761469008444161500,2.56516162109375,-0.019482802599668503,0.09806296229362488,-0.007522040046751499
1761469008454144800,2.575144775390625,-0.023712702095508575,0.0929211974143982,0.012580564245581627
1761469008464127500,2.58512744140625,-0.02817508950829506,0.06498390436172485,0.03000485524535179
1761469008474110700,2.59511083984375,-0.031456902623176575,0.0376681312918663,0.03739885613322258
1761469008484093700,2.60509375,-0.03191503882408142,0.009155609644949436,0.036484476178884506
1761469008494076700,2.61507666015625,-0.03011474572122097,-0.022309105843305588,0.02892589196562767
1761469008504059600,2.6250595703125,-0.029789699241518974,-0.04344319552183151,0.029502904042601585
1761469008514041600,2.63504150390625,-0.030402759090065956,-0.05510304868221283,0.02862619049847126
1761469008524024800,2.64502490234375,-0.03058931604027748,-0.04852118715643883,0.019541479647159576
1761469008534008000,2.655008056640625,-0.029643893241882324,-0.037922073155641556,0.016953153535723686
1761469008543991000,2.664990966796875,-0.026839187368750572,-0.03016738034784794,0.02255896106362343
1761469008553974300,2.674974365234375,-0.02440905198454857,-0.027737779542803764,0.03159959614276886
1761469008563957200,2.684957275390625,-0.02183504030108452,-0.03584171459078789,0.03621917590498924
1761469008573940000,2.69493994140625,-0.022371934726834297,-0.051002293825149536,0.020116109400987625
1761469008583923200,2.704923095703125,-0.016298387199640274,-0.0541200265288353,0.005833812523633242
1761469008593906200,2.71490625,-0.014020584523677826,-0.04684613645076752,0.006490814033895731
1761469008603888000,2.72488818359375,-0.014221655204892159,-0.03981275111436844,0.006921172142028809
1761469008613871000,2.73487109375,-0.018735714256763458,-0.030511926859617233,0.009121475741267204
1761469008623854000,2.74485400390625,-0.021151531487703323,-0.03719279170036316,0.009083859622478485
1761469008633837300,2.75483740234375,-0.020758450031280518,-0.049985021352767944,-0.0009160430636256933
1761469008643820000,2.764820068359375,-0.016158580780029297,-0.05867280811071396,-0.00816646870225668
1761469008653803000,2.774802978515625,-0.011675414629280567,-0.04970860853791237,-0.009454106912016869
1761469008663786200,2.7847861328125,-0.01817118003964424,-0.028692707419395447,-0.013111695647239685
1761469008673769200,2.794769287109375,-0.011592106893658638,-0.018337802961468697,-0.011257069185376167
1761469008683751200,2.804751220703125,-0.004061498679220676,-0.01783270202577114,-0.011258171871304512
1761469008693734100,2.814734130859375,-0.008060500957071781,-0.02762967348098755,-0.008238413371145725
1761469008703717000,2.824717041015625,-0.011323935352265835,-0.03112664632499218,-0.00707114115357399
1761469008713700000,2.8347001953125,-0.015979673713445663,-0.03364865854382515,-0.008069027215242386
1761469008723683000,2.84468310546875,-0.013123365119099617,-0.035402797162532806,-0.007201296277344227
1761469008733666300,2.854666259765625,-0.010600287467241287,-0.04079356789588928,-0.009606396779417992
1761469008743649300,2.864649169921875,-0.01107320748269558,-0.03574637696146965,-0.01018240861594677
1761469008753632000,2.874632080078125,-0.004939680453389883,-0.030424047261476517,-0.0005055470392107964
1761469008763615200,2.884615234375,-0.0020976876839995384,-0.026332490146160126,-0.0017208763165399432
1761469008773597200,2.89459716796875,0.008840713649988174,-0.020438116043806076,-0.012407874688506126
1761469008783580200,2.904580078125,0.01175075676292181,-0.01734558492898941,-0.02669384516775608
1761469008793563100,2.914563232421875,0.00895417109131813,-0.009903648868203163,-0.0282422062009573
1761469008803546000,2.924546142578125,-0.01691117323935032,-0.023828648030757904,-0.028476471081376076
1761469008813529000,2.934529052734375,0.0008244146592915058,-0.005375871900469065,-0.04908188432455063
1761469008823512000,2.944511962890625,0.005707066971808672,0.006962640210986137,-0.06098964437842369
1761469008833495000,2.9544951171875,0.009787295944988728,-0.01465530414134264,-0.052645958960056305
1761469008843478300,2.964478271484375,0.0034480150789022446,-0.0278923436999321,-0.035591546446084976
1761469008853460000,2.9744599609375,-0.009679771028459072,-0.032744623720645905,-0.021030981093645096
1761469008863443200,2.984443115234375,-0.02618182823061943,-0.03866953030228615,-0.006672822870314121
1761469008873426200,2.99442626953125,-0.03731011226773262,-0.03237701579928398,0.006435788236558437
1761469008883409000,3.004408935546875,-0.03534318879246712,-0.02676062285900116,0.00425959937274456
1761469008893392100,3.01439208984375,-0.02500293403863907,-0.020588746294379234,-0.005099547561258078
1761469008903375000,3.024375,-0.014138830825686455,-0.013909514993429184,-0.008276423439383507
1761469008913358300,3.0343583984375,0.0006060260348021984,-0.014501536265015602,-0.007432733662426472
1761469008923341000,3.044341064453125,0.006822234019637108,-0.029280727729201317,-0.007806554436683655
1761469008933323300,3.0543232421875,0.008777527138590813,-0.02606096677482128,-0.009312305599451065
1761469008943306200,3.06430615234375,0.004443377256393433,-0.011186941526830196,-0.014914609491825104
1761469008953289000,3.0742890625,-0.00202357629314065,0.005324923433363438,-0.015749776735901833
1761469008963272200,3.084272216796875,-0.010583890601992607,0.009520724415779114,-0.010390521958470345
1761469008973255200,3.094255126953125,-0.01613738015294075,0.015902988612651825,0.00006478209979832172
1761469008983238100,3.104238037109375,-0.026342090219259262,0.011056511662900448,0.012227686122059822
1761469008993221000,3.11422119140625,-0.03343621641397476,0.012061323039233685,0.026081716641783714
1761469009003204000,3.1242041015625,-0.03824736177921295,0.022869538515806198,0.03314211964607239
1761469009013186300,3.134186279296875,-0.0420820489525795,0.02985953912138939,0.042703669518232346
1761469009023169000,3.1441689453125,-0.04613497480750084,0.021790888160467148,0.044286277145147324
1761469009033152000,3.154152099609375,-0.0498008169233799,0.018148215487599373,0.047304969280958176
1761469009043135200,3.16413525390625,-0.054894253611564636,0.005538195371627808,0.051573581993579865
1761469009053118200,3.1741181640625,-0.06404141336679459,-0.01718602515757084,0.04660439491271973
1761469009063101000,3.184100830078125,-0.06330922245979309,-0.024327874183654785,0.04154796898365021
1761469009073084200,3.194084228515625,-0.05615251138806343,-0.02194061689078808,0.04133598133921623
1761469009083067100,3.204067138671875,-0.05544525757431984,-0.012993896380066872,0.04359956458210945
1761469009093050400,3.21405029296875,-0.051258500665426254,-0.004007591400295496,0.04220646619796753
1761469009103032000,3.224031982421875,-0.04586866497993469,-0.002451119478791952,0.04001295194029808
1761469009113015300,3.234015380859375,-0.044322967529296875,0.0021239249035716057,0.035835783928632736
1761469009122998300,3.243998291015625,-0.04398521035909653,0.014416605234146118,0.037372224032878876
1761469009132981000,3.25398095703125,-0.045069385319948196,0.01941775530576706,0.04053046554327011
1761469009142964200,3.263964111328125,-0.05036833882331848,0.022869683802127838,0.04309049993753433
1761469009152947200,3.273947265625,-0.0493592694401741,0.027473222464323044,0.04164706543087959
1761469009162930000,3.283929931640625,-0.04666922241449356,0.030494188889861107,0.04473867639899254
1761469009172913200,3.2939130859375,-0.04172453284263611,0.031923506408929825,0.04494693502783775
1761469009182895000,3.30389501953125,-0.04316474869847298,0.02943629026412964,0.05202142894268036
1761469009192878300,3.31387841796875,-0.04180946946144104,0.028627488762140274,0.05364835262298584
1761469009202861000,3.323861083984375,-0.04040304571390152,0.02644532173871994,0.054968491196632385
1761469009212844000,3.333843994140625,-0.0376589260995388,0.023233547806739807,0.04685517027974129
1761469009222827300,3.3438271484375,-0.037992093712091446,0.025802673771977425,0.0352962426841259
1761469009232810000,3.35381005859375,-0.03273927420377731,0.03490908816456795,0.03140803053975105
1761469009242793000,3.36379296875,-0.02847016602754593,0.039187461137771606,0.031400881707668304
1761469009252776200,3.373776123046875,-0.020402919501066208,0.034853167831897736,0.04210785776376724
1761469009262758100,3.383758056640625,-0.011868219822645187,0.024777427315711975,0.054970987141132355
1761469009272741000,3.3937412109375,-0.006503815297037363,-0.0034598037600517273,0.053644999861717224
1761469009282724000,3.40372412109375,0.004244104493409395,-0.018097130581736565,0.043380845338106155
1761469009292707300,3.413707275390625,0.006566381081938744,-0.014952469617128372,0.029893532395362854
1761469009302690000,3.42368994140625,0.011991440318524837,-0.015076633542776108,0.02261159010231495
1761469009312673000,3.433673095703125,0.013340864330530167,-0.010344728827476501,0.0123222004622221
1761469009322656300,3.44365625,0.01663113757967949,0.0057652294635772705,0.007049618288874626
1761469009332639200,3.45363916015625,0.015652691945433617,0.017576614394783974,0.0016758919227868319
1761469009342621200,3.46362109375,0.020497318357229233,0.015015007928013802,-0.0034402331802994013
1761469009352604200,3.473604248046875,0.02288271114230156,-0.0007370579987764359,-0.008274669758975506
1761469009362587100,3.483587158203125,0.02359236776828766,-0.008207360282540321,-0.00042988755740225315
1761469009372570000,3.493570068359375,0.02257903479039669,-0.014561396092176437,0.0015352589543908834
1761469009382553000,3.503552978515625,0.02579587697982788,-0.013241725042462349,0.0003198198974132538
1761469009392536000,3.5135361328125,0.02584274858236313,-0.013171417638659477,-0.007921598851680756
1761469009402519300,3.523519287109375,0.024505164474248886,-0.008205641061067581,-0.006864488590508699
1761469009412502000,3.533501953125,0.0283206757158041,-0.0016028655227273703,-0.007680214941501617
1761469009422485000,3.543485107421875,0.029210301116108894,0.004725683480501175,-0.012331846170127392
1761469009432467200,3.55346728515625,0.030011113733053207,0.008909509517252445,-0.014570233412086964
1761469009442450000,3.563449951171875,0.02984759956598282,0.006582237780094147,-0.02160574682056904
1761469009452433200,3.57343310546875,0.02954692952334881,0.009561782702803612,-0.02329499088227749
1761469009462416100,3.583416015625,0.029872694984078407,0.01452992670238018,-0.030803991481661797
1761469009472399400,3.5933994140625,0.02958773635327816,0.015422884374856949,-0.026810048148036003
1761469009482382000,3.603382080078125,0.03461745008826256,0.005983371287584305,-0.02675805240869522
1761469009492365000,3.613364990234375,0.03677727282047272,0.005124768242239952,-0.02585071325302124
1761469009502348300,3.623348388671875,0.03671565279364586,0.0009905914776027203,-0.0254795141518116
1761469009512330000,3.633330078125,0.03606877103447914,-0.006974923424422741,-0.02481425739824772
1761469009522313200,3.643313232421875,0.02975691854953766,-0.003632194362580776,-0.02118057757616043
1761469009532295700,3.653295654296875,0.020030520856380463,0.0027415489312261343,-0.020311586558818817
1761469009542278700,3.663278564453125,0.01683831959962845,0.011091703549027443,-0.0201687291264534
1761469009552262000,3.673261962890625,0.013512829318642616,0.018387433141469955,-0.017574012279510498
1761469009562244600,3.68324462890625,0.011556602083146572,0.023430747911334038,-0.015954431146383286
1761469009572227800,3.693227783203125,0.013025601394474506,0.02807530015707016,-0.01923384889960289
1761469009582210800,3.7032109375,0.019764743745326996,0.037083860486745834,-0.022075114771723747
1761469009592192800,3.71319287109375,0.027640243992209435,0.028011532500386238,-0.025134287774562836
1761469009602175700,3.72317578125,0.028546305373311043,0.020968468859791756,-0.025100719183683395
1761469009612158700,3.73315869140625,0.02534092403948307,0.016526581719517708,-0.017813777551054955
1761469009622142000,3.743141845703125,0.02774224989116192,0.0029427185654640198,-0.010906331241130829
1761469009632124700,3.753124755859375,0.021046530455350876,-0.016842171549797058,-0.0054527102038264275
1761469009642107600,3.763107666015625,0.01774100586771965,-0.017559971660375595,-0.0020148633047938347
1761469009652091000,3.7730908203125,0.020657431334257126,-0.013816631399095058,-0.0073875244706869125
1761469009662073900,3.783073974609375,0.01046311017125845,-0.00017654011026024818,-0.016521934419870377
1761469009672056600,3.793056640625,0.015416056849062443,0.006248335354030132,-0.026331422850489616
1761469009682038800,3.803038818359375,0.00873006321489811,0.014151718467473984,-0.03270234912633896
1761469009692021800,3.813021728515625,0.005312960594892502,0.021366488188505173,-0.027330752462148666
1761469009702004700,3.823004638671875,0.002110835164785385,0.030215339735150337,-0.021019304171204567
1761469009711987700,3.83298779296875,0.007252067793160677,0.03155410662293434,-0.01604371890425682
1761469009721970700,3.842970703125,0.012541908770799637,0.02710670419037342,-0.01132936030626297
1761469009731954000,3.852953857421875,0.011508336290717125,0.02476685121655464,-0.009138111025094986
1761469009741936600,3.8629365234375,0.011886904016137123,0.022846035659313202,-0.0007769875228404999
1761469009751919900,3.872919921875,0.009266619570553303,0.02242099493741989,0.0009008038323372602
1761469009761901800,3.88290185546875,0.012618541717529297,0.02200961858034134,0.0004025993403047323
1761469009771884800,3.892884765625,0.007220314349979162,0.0206958819180727,-0.000027234898880124092
1761469009781867800,3.90286767578125,0.003546812105923891,0.023878097534179688,0.0012199634220451117
1761469009791850800,3.912850830078125,0.003777974285185337,0.026214487850666046,-0.00008232239633798599
1761469009801834000,3.922833984375,0.0025794922839850187,0.03486897796392441,0.0029760205652564764
1761469009811816700,3.932816650390625,0.01045019831508398,0.03589962422847748,0.004131832160055637
1761469009821799700,3.942799560546875,0.012953098863363266,0.03398589789867401,0.01205425150692463
1761469009831783000,3.952782958984375,0.010438276454806328,0.02839059568941593,0.01795155555009842
1761469009841765600,3.962765625,0.0018893294036388397,0.031803231686353683,0.021030500531196594
1761469009851747800,3.972747802734375,-0.0022809142246842384,0.03739666938781738,0.026402629911899567
1761469009861730800,3.982730712890625,-0.0044273571111261845,0.041430599987506866,0.028888480737805367
1761469009871713500,3.992713623046875,-0.009285762906074524,0.04320240020751953,0.020078210160136223
1761469009881696800,4.00269677734375,-0.016638146713376045,0.03996811434626579,0.0066698165610432625
1761469009891679700,4.0126796875,-0.017354004085063934,0.04763002693653107,-0.0024126283824443817
1761469009901662700,4.022662841796875,-0.007580207195132971,0.0518375001847744,-0.0027024049777537584
1761469009911645700,4.032645751953125,-0.0016283080913126469,0.03855045512318611,-0.003882185323163867
1761469009921628700,4.042628662109375,0.009572216309607029,0.03212274610996246,0.0003744259011000395
1761469009931611000,4.05261083984375,0.008729325607419014,0.02891816757619381,0.021171849220991135
1761469009941593600,4.062593505859375,0.013941008597612381,0.022114023566246033,0.03828442841768265
1761469009951576800,4.072576904296875,0.010038146749138832,0.019737418740987778,0.05329187214374542
1761469009961559800,4.082559814453125,0.006862513720989227,0.01380152441561222,0.05448776111006737
1761469009971542800,4.092542724609375,0.0034925497602671385,0.0016820109449326992,0.034433357417583466
1761469009981525800,4.10252587890625,-0.007819155231118202,-0.004446816630661488,0.021701164543628693
1761469009991508700,4.1125087890625,-0.0118330717086792,-0.00818962324410677,0.013599828816950321
1761469010001491700,4.12249169921875,-0.01988733932375908,0.0032304415944963694,0.020140472799539566
1761469010011475000,4.132474853515625,-0.01839037612080574,0.011952294036746025,0.029585640877485275
1761469010021456600,4.14245654296875,-0.021864471957087517,0.012478497810661793,0.026769863441586494
1761469010031440000,4.15243994140625,-0.020896412432193756,0.009247818030416965,0.02975153736770153
1761469010041422800,4.1624228515625,-0.018737245351076126,0.0004335322882980108,0.029082996770739555
1761469010051405600,4.172405517578125,-0.014619465917348862,-0.005520230624824762,0.03591294214129448
1761469010061388800,4.182388916015625,-0.015578079968690872,-0.014896417036652565,0.042039889842271805
1761469010071371800,4.192371826171875,-0.017636436969041824,-0.014521976932883263,0.04275121912360191
1761469010081354800,4.202354736328125,-0.013757804408669472,-0.007314857095479965,0.038331203162670135
1761469010091337700,4.212337646484375,-0.011991331353783607,-0.011176707223057747,0.03052041493356228
1761469010101320700,4.22232080078125,-0.015539927408099174,-0.024196838960051537,0.02383062057197094
1761469010111303000,4.232302978515625,-0.012822171673178673,-0.04294522851705551,0.015057636424899101
1761469010121285600,4.24228564453125,-0.0033850613981485367,-0.04988710582256317,0.019530875608325005
1761469010131268900,4.252268798828125,0.0017276755534112453,-0.06010192632675171,0.026221001520752907
1761469010141251800,4.262251953125,0.0023601739667356014,-0.06571457535028458,0.024065954610705376
1761469010151234800,4.27223486328125,0.004951163660734892,-0.06488659232854843,0.021350596100091934
1761469010161217800,4.2822177734375,0.003648878540843725,-0.06094403564929962,0.023229463025927544
1761469010171200800,4.29220068359375,0.007373841945081949,-0.06928478926420212,0.016603518277406693
1761469010181183700,4.302183837890625,0.00978526659309864,-0.07289216667413712,0.008952961303293705
1761469010191166700,4.312166748046875,0.010538941249251366,-0.07490818202495575,0.00991116650402546
1761469010201148700,4.322148681640625,-0.0004945988766849041,-0.07191929221153259,0.011394788511097431
1761469010211132000,4.3321318359375,-0.010260144248604774,-0.050689637660980225,0.013990038074553013
1761469010221114600,4.342114501953125,-0.016430556774139404,-0.039281103760004044,0.019709022715687752
1761469010231097600,4.35209765625,-0.013423848897218704,-0.03090226650238037,0.015637315809726715
1761469010241080800,4.362080810546875,-0.007844459265470505,-0.03449007123708725,0.005950368940830231
1761469010251063800,4.372063720703125,-0.003029464278370142,-0.0454910583794117,0.0003891561646014452
1761469010261046500,4.382046630859375,0.008595766499638557,-0.04675307124853134,-0.000930143753066659
1761469010271029800,4.39202978515625,0.011503937654197216,-0.04247896373271942,0.0008030417375266552
1761469010281012700,4.4020126953125,0.014471631497144699,-0.03937810659408569,0.001618638401851058
1761469010290994700,4.41199462890625,0.006241398397833109,-0.03428134694695473,0.003579524112865329
1761469010300977700,4.421977783203125,0.0009297234937548637,-0.026159537956118584,0.003672985127195716
1761469010310961000,4.4319609375,-0.006683721672743559,-0.022791970521211624,0.0030063961166888475
1761469010320943900,4.44194384765625,-0.014711087569594383,-0.026514848694205284,-0.00008452543988823891
1761469010330926600,4.451926513671875,-0.015249580144882202,-0.03208351880311966,-0.0150578822940588
1761469010340909800,4.461909912109375,-0.014475863426923752,-0.02730972319841385,-0.03981375694274902
1761469010350892800,4.471892822265625,-0.014088107272982597,-0.013442909345030785,-0.04272485896945
1761469010360875800,4.481875732421875,-0.01217595860362053,0.0026779859326779842,-0.026379181072115898
1761469010370858800,4.491858642578125,-0.005016316194087267,0.0007695648819208145,-0.013306789100170135
1761469010380840700,4.5018408203125,0.002941541839390993,-0.006934646517038345,0.0010511679574847221
1761469010390824000,4.511823974609375,0.0035977447405457497,-0.01826772838830948,0.0019523818045854568
1761469010400806700,4.521806640625,0.007791557349264622,-0.022283650934696198,-0.005988236516714096
1761469010410789600,4.53178955078125,-0.003987604286521673,-0.011427806690335274,-0.014375862665474415
1761469010420772900,4.54177294921875,-0.010556686669588089,0.004585990682244301,-0.024072794243693352
1761469010430755800,4.551755859375,-0.01237322948873043,0.015817074105143547,-0.03247746452689171
1761469010440738600,4.561738525390625,-0.0159966628998518,0.025503799319267273,-0.03303349390625954
1761469010450721800,4.5717216796875,-0.015322349965572357,0.0369735024869442,-0.02710210159420967
1761469010460704800,4.581704833984375,-0.016425365582108498,0.03874616324901581,-0.02194722183048725
1761469010470687700,4.591687744140625,-0.010768543928861618,0.03106214478611946,-0.01007990911602974
1761469010480670700,4.601670654296875,-0.008447466418147087,0.013182591646909714,-0.001287627499550581
1761469010490653700,4.61165380859375,-0.002966415137052536,-0.0017755856970325112,0.00041972496546804905
1761469010500637000,4.621636962890625,-0.0021871072240173817,-0.019308162853121758,-0.0031837259884923697
1761469010510619600,4.63161962890625,-0.0016667256131768227,-0.022432316094636917,-0.0027429729234427214
1761469010520602600,4.6416025390625,-0.003926284145563841,-0.029566001147031784,-0.006801500916481018
1761469010530585300,4.65158544921875,-0.010053684934973717,-0.02165667898952961,-0.02720237895846367
1761469010540568300,4.661568359375,-0.02125493995845318,0.0032161667477339506,-0.05081130936741829
1761469010550551300,4.67155126953125,-0.05831708759069443,0.031954072415828705,-0.07243884354829788
1761469010560533200,4.681533203125,-0.06566022336483002,0.08375764638185501,-0.09038426727056503
1761469010570516200,4.69151611328125,-0.06381092220544815,0.09793151915073395,-0.0935763344168663
1761469010580499500,4.70149951171875,-0.05058945715427399,0.08987059444189072,-0.07375556230545044
1761469010590482400,4.711482421875,-0.035370029509067535,0.06511198729276657,-0.056817054748535156
1761469010600465400,4.72146533203125,-0.020259518176317215,0.04616864398121834,-0.04747842252254486
1761469010610448400,4.731448486328125,-0.01686318777501583,0.03426031768321991,-0.03752698749303818
1761469010620431400,4.741431396484375,-0.014026856049895287,0.02233983762562275,-0.018527382984757423
1761469010630414600,4.75141455078125,-0.013356802985072136,0.008272754028439522,-0.00819405261427164
1761469010640397300,4.761397216796875,-0.02182292565703392,-0.002163355238735676,-0.004439219366759062
1761469010650380300,4.77138037109375,-0.033400487154722214,-0.003169763833284378,-0.011342398822307587
1761469010660362500,4.781362548828125,-0.03975152596831322,0.0068014832213521,-0.019587192684412003
1761469010670345200,4.79134521484375,-0.03145790845155716,0.012007697485387325,-0.025869324803352356
1761469010680328400,4.801328369140625,-0.012621570378541946,-0.001798120909370482,-0.029128998517990112
1761469010690311400,4.8113115234375,0.01250562071800232,-0.01108403131365776,-0.039968326687812805
1761469010700294400,4.82129443359375,0.026901204138994217,-0.033570293337106705,-0.05357081815600395
1761469010710277400,4.83127734375,0.03656981140375137,-0.05930308625102043,-0.06938093900680542
1761469010720260400,4.84126025390625,0.03910314291715622,-0.07987316697835922,-0.07903740555047989
1761469010730243300,4.851243408203125,0.035452477633953094,-0.08076772093772888,-0.07218828797340393
1761469010740226300,4.861226318359375,0.025732675567269325,-0.07092238962650299,-0.05743233114480972
1761469010750209300,4.871209228515625,0.02166256681084633,-0.046621304005384445,-0.03419678285717964
1761469010760191500,4.88119140625,0.011719653382897377,-0.01709960401058197,-0.016906995326280594
1761469010770174200,4.89117431640625,0.0031629169825464487,0.005089055746793747,-0.008550262078642845
1761469010780157400,4.901157470703125,0.006469899322837591,0.014226727187633514,-0.013723337091505527
1761469010790140400,4.911140380859375,0.010586880147457123,0.017954619601368904,-0.01682938262820244
1761469010800123400,4.921123291015625,0.02158520370721817,0.008481478318572044,-0.025969624519348145
1761469010810106400,4.9311064453125,0.036842186003923416,-0.0041807871311903,-0.03297213837504387
1761469010820089300,4.94108935546875,0.051032841205596924,-0.021909959614276886,-0.05991878733038902
1761469010830072300,4.951072265625,0.050487421452999115,-0.03302972391247749,-0.07025105506181717
1761469010840055600,4.9610556640625,0.02821287512779236,-0.015078544616699219,-0.04517059773206711
1761469010850038300,4.971038330078125,0.0018798066303133965,0.011607128195464611,-0.014455296099185944
1761469010860020500,4.9810205078125,-0.006932588294148445,0.02753012254834175,-0.007252805400639772
1761469010870003500,4.99100341796875,-0.0016179843805730343,0.02951737307012081,-0.020737456157803535
1761469010879986200,5.000986083984375,0.004906623624265194,0.020973313599824905,-0.023790352046489716
1761469010889969400,5.010969482421875,0.021978817880153656,0.02076105959713459,-0.016314592212438583
1761469010899952400,5.020952392578125,0.03814307972788811,0.01797741837799549,-0.021013831719756126
1761469010909935400,5.030935302734375,0.04237617552280426,0.011088619939982891,-0.030683768913149834
1761469010919918300,5.04091845703125,0.04485224187374115,-0.004587909672409296,-0.0489766001701355
1761469010929901300,5.0509013671875,0.0436338447034359,-0.02174239605665207,-0.0641917735338211
1761469010939884500,5.060884521484375,0.030198734253644943,-0.01505814865231514,-0.05972753092646599
1761469010949867500,5.070867431640625,0.02380581572651863,0.002789025194942951,-0.048339586704969406
1761469010959850200,5.080850341796875,0.021043986082077026,0.004479719325900078,-0.04498174786567688
1761469010969832400,5.09083251953125,0.025119688361883163,0.008271794766187668,-0.03558079153299332
1761469010979815400,5.1008154296875,0.028396574780344963,0.02187163010239601,-0.025961583480238914
1761469010989798400,5.11079833984375,0.035810813307762146,0.024885529652237892,-0.023391099646687508
1761469010999781400,5.120781494140625,0.04883886128664017,0.02650754153728485,-0.023316655308008194
1761469011009764400,5.130764404296875,0.051354750990867615,0.009489676915109158,-0.028956163674592972
1761469011019747600,5.14074755859375,0.03783973678946495,-0.012972439639270306,-0.038841258734464645
1761469011029730300,5.150730224609375,0.019755275920033455,-0.008030944503843784,-0.0373871736228466
1761469011039713300,5.16071337890625,0.001708303578197956,0.0055601089261472225,-0.01985142193734646
1761469011049696500,5.170696533203125,-0.008910251781344414,0.02210739254951477,-0.007647219579666853
1761469011059679200,5.18067919921875,-0.005688894540071487,0.019981935620307922,-0.009463222697377205
1761469011069661400,5.190661376953125,-0.0059488192200660706,0.007990253157913685,-0.013990862295031548
1761469011079644400,5.20064453125,0.0012173531576991081,-0.0005242950282990932,-0.01191321387887001
1761469011089627400,5.21062744140625,0.0059497905895113945,-0.00419200025498867,-0.018013983964920044
1761469011099610400,5.2206103515625,0.01293532457202673,-0.0045051067136228085,-0.02115510404109955
1761469011109593300,5.23059326171875,0.0070883543230593204,-0.00856509618461132,-0.02651791274547577
1761469011119576600,5.24057666015625,-0.0007498590275645256,-0.008854057639837265,-0.022891225293278694
1761469011129559300,5.250559326171875,-0.01603453978896141,-0.008724095299839973,-0.014755001291632652
1761469011139542300,5.260542236328125,-0.031084269285202026,-0.008444610051810741,-0.007113493978977203
1761469011149525500,5.270525390625,-0.0332544781267643,-0.00014406978152692318,0.0006160647608339787
1761469011159508500,5.280508544921875,-0.032658252865076065,0.007075625471770763,0.008872018195688725
1761469011169491200,5.2904912109375,-0.030473660677671432,-0.0013764488976448774,0.014219911769032478
1761469011179473400,5.300473388671875,-0.023187456652522087,-0.019175607711076736,0.009224165230989456
1761469011189456400,5.310456298828125,-0.016384944319725037,-0.02924768254160881,-0.00188361294567585
1761469011199439400,5.320439453125,-0.013932237401604652,-0.032346609979867935,-0.011828459799289703
1761469011209422300,5.33042236328125,-0.018813546746969223,-0.023931818082928658,-0.00940578244626522
1761469011219405300,5.3404052734375,-0.018771667033433914,-0.019610242918133736,0.001556119415909052
1761469011229388500,5.350388427734375,-0.014624593779444695,-0.016846412792801857,0.011653494089841843
1761469011239371300,5.360371337890625,-0.010467659682035446,-0.013870342634618282,0.022220104932785034
1761469011249354200,5.370354248046875,-0.005801800172775984,-0.003526891814544797,0.023858483880758286
1761469011259337500,5.38033740234375,-0.00003081187605857849,-0.0036981350276619196,0.027537355199456215
1761469011269320400,5.390320556640625,-0.003256432246416807,-0.008211926557123661,0.02528325654566288
1761469011279303400,5.400303466796875,-0.004863649141043425,-0.0091115552932024,0.017223991453647614
1761469011289285400,5.410285400390625,-0.00441597169265151,-0.01091105304658413,0.02292715013027191
1761469011299268600,5.4202685546875,-0.010824652388691902,-0.010896526277065277,0.030556729063391685
1761469011309251300,5.430251220703125,-0.01688920333981514,-0.011654995381832123,0.021767498925328255
1761469011319234300,5.440234375,-0.016861911863088608,-0.020823052152991295,0.003547891741618514
1761469011329217500,5.450217529296875,-0.013610991649329662,-0.01609594188630581,0.0036312483716756105
1761469011339200500,5.460200439453125,-0.008803978562355042,-0.00938611663877964,0.0046474989503622055
1761469011349183200,5.470183349609375,-0.000906107947230339,-0.0010453625582158566,-0.0006489960942417383
1761469011359166500,5.48016650390625,0.0008236113935709,0.0007584008853882551,0.0002207981888204813
1761469011369149400,5.4901494140625,-0.0002736109308898449,0.003197057405486703,-0.00007268227636814117
1761469011379132200,5.500132080078125,0.008417407982051373,0.006809718906879425,0.0032600814010947943
1761469011389115400,5.510115478515625,0.006381687708199024,0.004016862250864506,-0.0043517653830349445
1761469011399098400,5.520098388671875,0.005553052294999361,0.00007363664917647839,-0.004158569034188986
1761469011409080300,5.530080322265625,0.0001449710689485073,0.004795954097062349,0.0005078217945992947
1761469011419063300,5.540063232421875,0.001863907091319561,0.014710240066051483,0.007359206210821867
1761469011429046300,5.55004638671875,0.0016242223791778088,0.016654081642627716,0.006721645127981901
1761469011439029500,5.560029541015625,0.00013470696285367012,0.019309017807245255,0.004153052810579538
1761469011449012200,5.57001220703125,-0.002184639684855938,0.02037268504500389,0.005556538235396147
1761469011458995500,5.579995361328125,0.0032952185720205307,0.007619183510541916,-0.0024956786073744297
1761469011468978400,5.589978515625,0.009771494194865227,0.003197537502273917,-0.007983654737472534
1761469011478961400,5.59996142578125,0.012607957236468792,0.003166055306792259,0.00044785463251173496
1761469011488944400,5.6099443359375,0.008769809268414974,0.0020230268128216267,0.006013861857354641
1761469011498927400,5.61992724609375,0.014685098081827164,-0.004017712082713842,0.006064039655029774
1761469011508910300,5.629910400390625,0.01189810037612915,-0.004738896153867245,0.009876354597508907
1761469011518893600,5.6398935546875,0.010844359174370766,0.0008583306334912777,0.014135872945189476
1761469011528876300,5.649876220703125,0.005858388729393482,0.010049432516098022,0.018827565014362335
1761469011538859300,5.659859375,-0.0018678493797779083,-0.0004539298824965954,0.008676541969180107
1761469011548842200,5.66984228515625,0.008078791201114655,-0.004196470137685537,0.00023725093342363834
1761469011558825200,5.6798251953125,0.011092088185250759,-0.001005794620141387,-0.000918619567528367
1761469011568808200,5.68980810546875,0.01522078737616539,0.0015596284065395594,0.006451678462326527
1761469011578791200,5.699791259765625,0.014131889678537846,0.00892625655978918,0.010358061641454697
1761469011588774100,5.709774169921875,0.017403583973646164,0.010404311120510101,0.004107089713215828
1761469011598757400,5.71975732421875,0.016772812232375145,0.006617964245378971,-0.012318085879087448
1761469011608740400,5.729740234375,0.029289670288562775,0.0013976360205560923,-0.01749846711754799
1761469011618723000,5.73972314453125,0.029339348897337914,-0.008792567066848278,-0.015447720885276794
1761469011628706300,5.749706298828125,0.027540383860468864,-0.021255362778902054,-0.012557923793792725
1761469011638689300,5.759689208984375,0.02655266411602497,-0.01668976992368698,-0.004557665437459946
1761469011648671200,5.769671142578125,0.01752268336713314,-0.007677899673581123,0.00004214630462229252
1761469011658654200,5.779654296875,0.013055454939603806,-0.003818317549303174,-0.004517314024269581
1761469011668637200,5.78963720703125,0.010996831580996513,-0.012673327699303627,-0.004357791040092707
1761469011678620400,5.799620361328125,0.0056895483285188675,-0.023173505440354347,0.004950891714543104
1761469011688603100,5.80960302734375,0.0036956395488232374,-0.02601749449968338,0.01114647090435028
1761469011698586000,5.819586181640625,-0.0017366837710142136,-0.026589268818497658,0.009327542968094349
1761469011708569300,5.8295693359375,-0.0011151023209095001,-0.028014592826366425,0.005477144382894039
1761469011718552300,5.83955224609375,-0.001844477839767933,-0.015808455646038055,-0.0027338427025824785
1761469011728535300,5.849535400390625,-0.0006987857632339001,0.0032635056413710117,-0.006755748763680458
1761469011738518300,5.859518310546875,-0.003082633949816227,0.01185531634837389,0.004104800522327423
1761469011748501200,5.869501220703125,-0.008348502218723297,0.014605030417442322,0.011701466515660286
1761469011758484500,5.879484375,-0.00783159676939249,0.003746537957340479,0.02093387208878994
1761469011768466200,5.889466064453125,-0.006607607938349247,-0.015250323340296745,0.014651207253336906
1761469011778449400,5.899449462890625,-0.0038468381389975548,-0.016934113577008247,0.010312508791685104
1761469011788432400,5.909432373046875,-0.00770069845020771,-0.01346667855978012,0.011381236836314201
1761469011798415000,5.9194150390625,-0.00957649014890194,-0.02312317118048668,0.004969267640262842
1761469011808398300,5.9293984375,-0.013246593065559864,-0.029049770906567574,-0.0018974265549331903
1761469011818381300,5.93938134765625,-0.021863501518964767,-0.02584013156592846,-0.008171318098902702
1761469011828364300,5.9493642578125,-0.030048727989196777,-0.01410624384880066,-0.007608857937157154
1761469011838347300,5.95934716796875,-0.02915871888399124,-0.015517713502049446,0.0016547031700611115
1761469011848330200,5.969330322265625,-0.02101343870162964,-0.01361674815416336,-0.0014444172848016024
1761469011858313200,5.979313232421875,-0.012534251436591148,-0.0069032590836286545,-0.004730578977614641
1761469011868296200,5.989296142578125,-0.0033969455398619175,-0.00018117413856089115,-0.006442192476242781
1761469011878279200,5.999279052734375,0.004071149043738842,0.001731309574097395,0.0031910694669932127
1761469011888262100,6.00926220703125,0.005236814729869366,0.0032644914463162422,0.00586035568267107
1761469011898244000,6.019244140625,0.0026839047204703093,-0.0032029931899160147,0.004194820765405893
1761469011908227300,6.029227294921875,0.00044924626126885414,-0.00423709861934185,0.004541031550616026
1761469011918210300,6.039210205078125,-0.006693411152809858,-0.002375085838139057,0.004746018443256617
1761469011928193300,6.049193359375,-0.00942261889576912,0.0023043546825647354,0.006815827917307615
1761469011938176300,6.05917626953125,-0.006823857314884663,0.0030732909217476845,0.00015668710693717003
1761469011948159200,6.0691591796875,-0.0062510110437870026,-0.0015148029197007418,-0.00022973748855292797
1761469011958142200,6.07914208984375,0.0036178790032863617,-0.0015864563174545765,-0.0007570667658001184
1761469011968125400,6.08912548828125,0.014615136198699474,0.005808343179523945,-0.00540934270247817
1761469011978108200,6.099108154296875,0.018298564478754997,0.013393024913966656,-0.009943651035428047
1761469011988091100,6.109091064453125,0.017512133345007896,0.012611652724444866,-0.007530827075242996
1761469011998074400,6.119074462890625,0.022945242002606392,0.00026790169067680836,-0.002043645130470395
1761469012008057300,6.129057373046875,0.025433700531721115,-0.011649743653833866,-0.005476193502545357
1761469012018040000,6.1390400390625,0.030428588390350342,-0.012551623396575451,-0.009228983893990517
1761469012028023300,6.149023193359375,0.020519234240055084,-0.010090064257383347,-0.0032536499202251434
1761469012038005200,6.159005126953125,0.010278528556227684,0.0033995811827480793,0.007150973659008741
1761469012047988200,6.16898828125,0.00030152779072523117,0.01584266871213913,0.015726618468761444
1761469012057971200,6.17897119140625,0.0010372810065746307,0.02265123650431633,0.012865262106060982
1761469012067954200,6.1889541015625,0.004972900729626417,0.0012021383736282587,-0.0035805553197860718
1761469012077937400,6.1989375,0.00923062302172184,-0.0065155671909451485,-0.00478309765458107
1761469012087920000,6.208920166015625,0.009438082575798035,-0.00811932235956192,0.0003813041839748621
1761469012097903400,6.2189033203125,0.004973157774657011,-0.00438330601900816,-0.0022460343316197395
1761469012107886300,6.22888623046875,0.00808373000472784,-0.002397919539362192,-0.0015014144591987133
1761469012117869000,6.238869140625,-0.00048522045835852623,0.00020000222139060497,0.0035218039993196726
1761469012127852300,6.248852294921875,-0.00449780561029911,0.01504606008529663,0.0180197861045599
1761469012137835300,6.258835205078125,-0.0007297894917428493,0.023063160479068756,0.019344396889209747
1761469012147818200,6.268818359375,0.00017541879788041115,0.014946646057069302,0.010716554708778858
1761469012157801200,6.27880126953125,0.00751170190051198,0.004626698791980743,-0.001368543948046863
1761469012167784200,6.2887841796875,0.010519210249185562,-0.007406794466078281,0.0001715619582682848
1761469012177766400,6.298766357421875,0.014977995306253433,-0.008244493044912815,0.007176619954407215
1761469012187749000,6.3087490234375,0.012989945709705353,-0.011686362326145172,0.0002060628030449152
1761469012197732000,6.318732177734375,0.010797839611768723,-0.005068473517894745,0.0002406081184744835
1761469012207715300,6.32871533203125,0.002636049408465624,0.00874347798526287,0.01673303171992302
1761469012217698300,6.3386982421875,0.003991598263382912,0.0016381647437810898,0.023444730788469315
1761469012227681300,6.348681396484375,0.008437213487923145,-0.004515867680311203,0.013379047624766827
1761469012237664300,6.358664306640625,0.007949583232402802,-0.008263202384114265,0.002851043827831745
1761469012247647200,6.368647216796875,0.009758668020367622,-0.008687709458172321,0.005006606224924326
1761469012257630500,6.37863037109375,0.01128375343978405,-0.009756026789546013,0.009222768247127533
1761469012267613200,6.38861328125,0.013643047772347927,-0.009929399006068707,0.00938362255692482
1761469012277596200,6.39859619140625,0.013892244547605515,0.0025152151938527822,0.009153464809060097
1761469012287579400,6.408579345703125,0.011303918436169624,0.013975064270198345,0.008774496614933014
1761469012297562400,6.418562255859375,0.014712464064359665,-0.0007613112684339285,0.007048415020108223
1761469012307545000,6.428545166015625,0.01182106975466013,-0.013758070766925812,0.005819099023938179
1761469012317528300,6.4385283203125,0.0084813442081213,-0.0071484679356217384,0.013747040182352066
1761469012327510300,6.44851025390625,0.0012631118297576904,-0.0013595549389719963,0.020234500989317894
1761469012337493200,6.4584931640625,-0.0019759689457714558,-0.0030604181811213493,0.015566268935799599
1761469012347476200,6.468476318359375,0.0029769781976938248,-0.02037442848086357,0.0073336390778422356
1761469012357459200,6.478459228515625,0.007428158074617386,-0.02565576694905758,-0.003113924292847514
1761469012367442400,6.4884423828125,0.002622484229505062,-0.022384872660040855,-0.006022096145898104
1761469012377425200,6.498425048828125,-0.004626379813998938,-0.010979355312883854,-0.005440989509224892
1761469012387408400,6.508408447265625,-0.0033856132067739964,0.0009212458971887827,-0.002532817656174302
1761469012397391400,6.518391357421875,-0.002409142442047596,0.00695904903113842,0.0018697711639106274
1761469012407374000,6.5283740234375,-0.0023478902876377106,0.013538654893636703,0.007001682184636593
1761469012417357300,6.538357421875,-0.0006367042660713196,0.006159947253763676,-0.00012345099821686745
1761469012427340300,6.54834033203125,0.0010203146375715733,-0.0020260768942534924,-0.008225586265325546
1761469012437323300,6.5583232421875,-0.0009418227709829807,0.0006315652281045914,-0.006856665480881929
1761469012447306200,6.56830615234375,-0.0012187915854156017,0.0048012761399149895,-0.002395337913185358
1761469012457289200,6.578289306640625,-0.006732407491654158,0.008022299036383629,0.0017484801355749369
1761469012467272200,6.588272216796875,-0.012892033904790878,0.005409738048911095,0.0025876422878354788
1761469012477254100,6.598254150390625,-0.009674102067947388,0.010524099692702293,0.0029908225405961275
1761469012487237000,6.608237060546875,-0.011869078502058983,0.00936482660472393,0.0035343735944479704
1761469012497220400,6.618220458984375,-0.010825748555362225,0.0058323172852396965,-0.0019011860713362694
1761469012507203300,6.628203369140625,-0.008661397732794285,0.015600260347127914,0.000551585340872407
1761469012517186000,6.63818603515625,-0.007770977448672056,0.021836446598172188,0.00431157648563385
1761469012527169300,6.648169189453125,-0.009027989581227303,0.02246122434735298,0.002902764594182372
1761469012537155600,6.658155517578125,-0.0036130468361079693,0.0211948249489069,0.007283060811460018
1761469012547138800,6.668138916015625,0.000290614552795887,0.010384522378444672,0.0020781795028597116
1761469012557121500,6.67812158203125,0.0008873860351741314,0.0019933865405619144,0.001023218035697937
1761469012567104500,6.6881044921875,0.005789999384433031,0.0015148166567087173,0.004723414313048124
1761469012577087700,6.698087646484375,0.0035285484045743942,0.0018126703798770905,-0.00028157723136246204
1761469012587070700,6.70807080078125,0.002858230611309409,0.008007182739675045,-0.005204963497817516
1761469012597053400,6.718053466796875,-0.0006990041583776474,0.018904516473412514,0.0003540394827723503
1761469012607036700,6.72803662109375,-0.0021320516243577003,0.02676563523709774,0.006539231166243553
1761469012617019600,6.73801953125,0.0015926528722047806,0.028001347556710243,0.012022408656775951
1761469012627002600,6.748002685546875,0.006598596926778555,0.021578069776296616,0.008293983526527882
1761469012636984600,6.757984619140625,0.006462632678449154,0.011127948760986328,-0.00038431957364082336
1761469012646967600,6.767967529296875,0.007927903905510902,0.011757787317037582,-0.011787442490458488
1761469012656950800,6.77795068359375,0.008118927478790283,0.008954350836575031,-0.017334746196866035
1761469012666933500,6.78793359375,0.00984279066324234,0.010052371770143509,-0.022340422496199608
1761469012676916500,6.79791650390625,0.008574265986680984,0.015706202015280724,-0.018640831112861633
1761469012686899700,6.807899658203125,0.006239472888410091,0.023976381868124008,-0.010083560831844807
1761469012696882700,6.817882568359375,0.0056647625751793385,0.022881023585796356,-0.007876066491007805
1761469012706865700,6.82786572265625,0.004482052754610777,0.029079798609018326,-0.0016730320639908314
1761469012716848600,6.8378486328125,-0.0026443065144121647,0.03725649416446686,-0.0026932847686111927
1761469012726831600,6.84783154296875,-0.007414294872432947,0.031040411442518234,0.0006316718645393848
1761469012736814800,6.85781494140625,-0.0014006937853991985,0.019851064309477806,0.0066225603222846985
1761469012746797600,6.867797607421875,0.0025354581885039806,0.015391865745186806,0.008530981838703156
1761469012756780500,6.877780517578125,0.005707830190658569,0.01873760297894478,0.0024747801944613457
1761469012766763800,6.887763671875,0.007743017747998238,0.014708239585161209,-0.0051498496904969215
1761469012776746500,6.89774658203125,0.006502349395304918,0.01779707334935665,-0.005101331043988466
1761469012786729500,6.9077294921875,0.00782567448914051,0.017864983528852463,-0.007015078328549862
1761469012796712700,6.917712646484375,0.004490246996283531,0.008298024535179138,-0.016760176047682762
1761469012806694700,6.927694580078125,0.002015371574088931,0.013056028634309769,-0.02126144990324974
1761469012816677600,6.937677734375,0.0022899978794157505,0.025746045634150505,-0.01915854588150978
1761469012826660600,6.94766064453125,0.002998931333422661,0.028204411268234253,-0.010499808937311172
1761469012836643600,6.9576435546875,0.009203266352415085,0.03258874639868736,-0.006627392023801804
1761469012846626600,6.96762646484375,0.011230198666453362,0.025905540212988853,-0.002489638514816761
1761469012856609500,6.977609619140625,0.01873711682856083,0.016664370894432068,-0.0027937714476138353
1761469012866592800,6.9875927734375,0.016291270032525063,0.007046898361295462,-0.006162670440971851
1761469012876575700,6.99757568359375,0.019783299416303635,-0.0011488888412714005,-0.014491816982626915
1761469012886558500,7.007558349609375,0.014377349056303501,0.0008495473302900791,-0.013579151593148708
1761469012896541700,7.017541748046875,0.010659774765372276,-0.00004987022839486599,-0.016101498156785965
1761469012906524700,7.027524658203125,0.0028788167983293533,0.017660416662693024,-0.008340246975421906
1761469012916507600,7.037507568359375,0.0028519469778984785,0.03611695021390915,-0.003752436488866806
1761469012926490600,7.04749072265625,0.0038325227797031403,0.03520641475915909,-0.008306175470352173
1761469012936473600,7.0574736328125,0.009583497419953346,0.030856020748615265,-0.01682017371058464
1761469012946456600,7.06745654296875,0.009731835685670376,0.034586045891046524,-0.01964525505900383
1761469012956439800,7.077439697265625,0.006309795193374157,0.049815982580184937,-0.01714467443525791
1761469012966422500,7.087422607421875,0.006573714315891266,0.05151774361729622,-0.01271344069391489
1761469012976405500,7.097405517578125,0.00016421591863036156,0.05458776652812958,-0.004168221261352301
1761469012986388700,7.107388671875,-0.007013802416622639,0.06740928441286087,0.0033301750663667917
1761469012996370400,7.117370361328125,-0.013028321787714958,0.07471085339784622,0.0028547204565256834
1761469013006353700,7.127353759765625,-0.014453379437327385,0.06327737122774124,-0.004644474945962429
1761469013016336600,7.137336669921875,-0.014741114340722561,0.05164695158600807,-0.01495680958032608
1761469013026319600,7.147319580078125,-0.00931785348802805,0.046686284244060516,-0.019686317071318626
1761469013036302600,7.157302490234375,0.000838225707411766,0.04841293394565582,-0.021249551326036453
1761469013046285600,7.16728564453125,0.0068732150830328465,0.057805903255939484,-0.018791187554597855
1761469013056268800,7.177268798828125,0.01061787735670805,0.06239505112171173,-0.010491175577044487
1761469013066251500,7.18725146484375,0.00908256508409977,0.04720038175582886,-0.008142533712089062
1761469013076234500,7.197234375,0.010332318022847176,0.03667869791388512,-0.005203002132475376
1761469013086217700,7.2072177734375,0.010740313678979874,0.02834167331457138,-0.009418252855539322
1761469013096200700,7.21720068359375,0.010153389535844326,0.02917902171611786,-0.012604738585650921
1761469013106183400,7.227183349609375,0.014462650753557682,0.035048630088567734,-0.015958189964294434
1761469013116166700,7.237166748046875,0.007841858081519604,0.04039314016699791,-0.013928182423114777
1761469013126149600,7.247149658203125,0.0052529992535710335,0.032176755368709564,-0.008884154260158539
1761469013136132600,7.257132568359375,0.000587227288633585,0.0243170578032732,-0.003169484669342637
1761469013146115600,7.267115478515625,-0.00024314597249031067,0.0317976139485836,0.0001623961143195629
1761469013156098600,7.2770986328125,-0.006142245605587959,0.03779085725545883,0.005813955329358578
1761469013166081800,7.287081787109375,-0.011725028976798058,0.033829670399427414,0.011554932221770287
1761469013176063500,7.2970634765625,-0.011495711281895638,0.028345966711640358,0.01028495840728283
1761469013186046700,7.307046630859375,-0.013586558401584625,0.021467287093400955,0.011219995096325874
1761469013196029700,7.31702978515625,-0.01200886256992817,0.012204861268401146,0.008609810844063759
1761469013206012700,7.3270126953125,-0.007854864932596684,0.005489701870828867,0.0030286249238997698
1761469013215995600,7.33699560546875,-0.004278986249119043,0.008935078978538513,0.006308380048722029
1761469013225978600,7.346978515625,-0.007394086103886366,0.008088460192084312,0.011033892631530762
1761469013235961600,7.356961669921875,-0.00881979614496231,0.004802269395440817,0.012329649180173874
1761469013245944800,7.36694482421875,-0.005614681635051966,0.004256854299455881,0.01203137543052435
1761469013255927600,7.376927490234375,-0.0037485864013433456,-0.009863998740911484,0.008477379567921162
1761469013265910500,7.38691064453125,0.00004508625715970993,-0.02000371739268303,0.012523520737886429
1761469013275893800,7.396893798828125,0.004258515313267708,-0.024846378713846207,0.018411578610539436
1761469013285876500,7.40687646484375,0.0017157290130853653,-0.03100280649960041,0.01741049624979496
1761469013295859500,7.416859375,0.0008919001556932926,-0.029649773612618446,0.010009530931711197
1761469013305842700,7.4268427734375,-0.005222983658313751,-0.022251244634389877,0.0024275111500173807
1761469013315825700,7.43682568359375,-0.012279311195015907,-0.021017946302890778,0.004333974793553352
1761469013325808600,7.44680859375,-0.008420657366514206,-0.025829743593931198,0.009560694918036461
1761469013335791600,7.45679150390625,-0.011153556406497955,-0.019373148679733276,0.015200018882751465
1761469013345774600,7.466774658203125,-0.010178839787840843,-0.019481804221868515,0.02432454191148281
1761469013355757800,7.4767578125,-0.007753664627671242,-0.03459753096103668,0.03137105330824852
1761469013365740500,7.486740478515625,-0.0011519547551870346,-0.03903355821967125,0.03180088475346565
1761469013375722800,7.49672265625,0.005429293029010296,-0.03658101707696915,0.023597892373800278
1761469013385705700,7.506705810546875,0.01089463196694851,-0.043550245463848114,0.01662040874361992
1761469013395688400,7.5166884765625,0.00834504421800375,-0.048360828310251236,0.013546102680265903
1761469013405671700,7.526671630859375,0.003091426333412528,-0.0472971610724926,0.004623980261385441
1761469013415654700,7.536654541015625,-0.0016586249694228172,-0.04619733244180679,0.006763576529920101
1761469013425637600,7.5466376953125,-0.0015965732745826244,-0.04730893671512604,0.012493633665144444
1761469013435620600,7.55662060546875,-0.007392616476863623,-0.048891860991716385,0.011611664667725563
1761469013445603600,7.566603515625,-0.008007008582353592,-0.05470927059650421,0.008491504937410355
1761469013455586600,7.576586669921875,-0.0046577900648117065,-0.04918157681822777,0.00621076300740242
1761469013465569800,7.58656982421875,0.00744707603007555,-0.04438868910074234,0.006472552195191383
1761469013475552500,7.596552490234375,0.017147256061434746,-0.039503492414951324,0.008341953158378601
1761469013485535700,7.60653564453125,0.02011295221745968,-0.031983524560928345,0.012533236294984818
1761469013495518700,7.616518798828125,0.016870182007551193,-0.031213197857141495,0.014420565217733383
1761469013505501700,7.626501708984375,0.013774522580206394,-0.03417995944619179,0.013209359720349312
1761469013515484700,7.636484619140625,0.014237714931368828,-0.0364299938082695,0.009776078164577484
1761469013525467600,7.646467529296875,0.004811455495655537,-0.029166487976908684,0.005108622368425131
1761469013535446500,7.656446533203125,0.001932784914970398,-0.03177111595869064,0.01141598355025053
1761469013545429500,7.666429443359375,0.0055088778026402,-0.04566562920808792,0.008032970130443573
1761469013555412200,7.676412109375,0.009383726865053177,-0.05295181646943092,0.0038312289398163557
1761469013565395500,7.6863955078125,0.008990378119051456,-0.045685913413763046,-0.0005906836595386267
1761469013575378400,7.69637841796875,0.01216903980821371,-0.03810718283057213,-0.0047173104248940945
1761469013585360400,7.7063603515625,0.01411927305161953,-0.025714430958032608,-0.004379088990390301
1761469013595343400,7.71634326171875,0.021825483068823814,-0.026184648275375366,-0.005710078403353691
1761469013605326300,7.726326416015625,0.020555421710014343,-0.03390967845916748,-0.0030796739738434553
1761469013615309600,7.7363095703125,0.022859295830130577,-0.042098402976989746,0.0018615652807056904
1761469013625292300,7.746292236328125,0.021391095593571663,-0.04876083508133888,0.0005907048471271992
1761469013635275300,7.756275146484375,0.016238929703831673,-0.039783041924238205,-0.0038211725186556578
1761469013645258500,7.766258544921875,0.007126125041395426,-0.02783450111746788,-0.0010312448721379042
1761469013655241500,7.776241455078125,0.0022824860643595457,-0.019969545304775238,0.0002027351874858141
1761469013665224200,7.78622412109375,-0.0044694263488054276,-0.022540293633937836,0.0062502408400177956
1761469013675207400,7.79620751953125,-0.004758347291499376,-0.021464893594384193,0.007938496768474579
1761469013685190400,7.8061904296875,-0.004858748521655798,-0.02222522534430027,0.01065678521990776
1761469013695173400,7.81617333984375,-0.006512189283967018,-0.020159270614385605,0.013408148661255836
1761469013705156400,7.82615625,-0.009291463531553745,-0.009396371431648731,0.020870590582489967
1761469013715139300,7.836139404296875,-0.004346484784036875,-0.004455943591892719,0.013519283384084702
1761469013725122600,7.84612255859375,-0.004434102680534124,-0.00623733177781105,0.004168924875557423
1761469013735105300,7.856105224609375,0.003302389057353139,-0.014487259089946747,-0.0018120058812201023
1761469013745088300,7.866088134765625,0.008851084858179092,-0.012937832623720169,-0.0009182491339743137
1761469013755071500,7.876071533203125,0.007284003309905529,-0.008341564796864986,0.004768069833517075
1761469013765054500,7.886054443359375,0.0002846834249794483,-0.0008911052718758583,0.009108223952353
1761469013775037200,7.896037109375,-0.0075791678391397,-0.0002200582530349493,0.013678673654794693
1761469013785020400,7.9060205078125,-0.010107839480042458,-0.002183074364438653,0.013383597135543823
1761469013795002400,7.91600244140625,-0.013000298291444778,-0.009730739519000053,0.007657800335437059
1761469013804985300,7.9259853515625,-0.010348588228225708,-0.022912321612238884,0.0063224914483726025
1761469013814968300,7.93596826171875,-0.0035408413968980312,-0.035124316811561584,0.008085357025265694
1761469013824951300,7.945951416015625,0.00012366846203804016,-0.03763141483068466,0.017905229702591896
1761469013834934500,7.9559345703125,-0.0011956216767430305,-0.0251102726906538,0.01792740821838379
1761469013844917200,7.965917236328125,-0.0034475908614695072,-0.012088746763765812,0.02118818275630474
1761469013854900500,7.975900390625,-0.009096292778849602,-0.0011755186133086681,0.020883120596408844
1761469013864883500,7.985883544921875,-0.015625031664967537,0.011681956239044666,0.024382248520851135
1761469013874866400,7.995866455078125,-0.016579214483499527,0.004681880585849285,0.028639569878578186
1761469013884849400,8.005849365234376,-0.013514447957277298,-0.0024471350479871035,0.03383859246969223
1761469013894831400,8.015831298828125,-0.011306192725896835,-0.011438022367656231,0.03512144833803177
1761469013904814600,8.025814697265625,-0.004965472500771284,-0.01326441764831543,0.02256118319928646
1761469013914797300,8.03579736328125,0.0004799710586667061,-0.015483281575143337,0.010046517476439476
1761469013924780300,8.0457802734375,0.0022890563122928143,-0.029567409306764603,0.011848412454128265
1761469013934763500,8.055763427734375,0.00143375713378191,-0.02838297002017498,0.015124155208468437
1761469013944746500,8.06574658203125,-0.0005191387608647346,-0.017959624528884888,0.016375306993722916
1761469013954729200,8.075729248046875,0.002411323832347989,-0.008325725793838501,0.02118358202278614
1761469013964712400,8.08571240234375,-0.0017759641632437706,-0.014079486019909382,0.016645288094878197
1761469013974695400,8.0956953125,0.001777817029505968,-0.015484781004488468,0.00991768017411232
1761469013984678100,8.10567822265625,0.006600801832973957,-0.015840312466025352,0.004857141524553299
1761469013994661400,8.115661376953126,0.013515671715140343,-0.014555912464857101,-0.00318319839425385
1761469014004644400,8.125644287109376,0.013278383761644363,-0.017283255234360695,-0.006278058048337698
1761469014014627600,8.135627685546876,0.014871396124362946,-0.02421073615550995,-0.0029657650738954544
1761469014024610300,8.1456103515625,0.015287648886442184,-0.016742167994379997,-0.0012115408899262547
1761469014034592500,8.155592529296875,0.01775466278195381,-0.009721684269607067,-0.0025160890072584152
1761469014044575500,8.165575439453125,0.01563744992017746,-0.00446140905842185,-0.007341736927628517
1761469014054558200,8.17555810546875,0.01185640599578619,-0.00518218195065856,-0.011541219428181648
1761469014064541400,8.18554150390625,0.016600027680397034,-0.003361378563567996,-0.009629069827497005
1761469014074524400,8.1955244140625,0.020357154309749603,-0.007528531830757856,-0.01168900914490223
1761469014084507400,8.20550732421875,0.01822209730744362,-0.0039100949652493,-0.011168893426656723
1761469014094490400,8.215490478515624,0.016315754503011703,0.00045635481365025043,-0.0065653324127197266
1761469014104473300,8.225473388671874,0.018844958394765854,0.009029868990182877,-0.003800705075263977
1761469014114456300,8.235456298828124,0.021796738728880882,-0.007027729414403439,-0.005788021720945835
1761469014124439600,8.245439453125,0.0215408094227314,-0.015052367001771927,-0.0064330389723181725
1761469014134422300,8.25542236328125,0.020989764481782913,-0.01911051943898201,-0.010675002820789814
1761469014144405200,8.2654052734375,0.0203655194491148,-0.015465185046195984,-0.01585378497838974
1761469014154388500,8.275388427734375,0.014030322432518005,-0.014462041668593884,-0.01618781127035618
1761469014164371500,8.285371337890625,0.0066283331252634525,-0.013339253142476082,-0.007528010755777359
1761469014174354400,8.2953544921875,0.00044241175055503845,-0.008357474580407143,0.00574897788465023
1761469014184337400,8.30533740234375,0.011542467400431633,-0.011089079082012177,0.012597030028700829
1761469014194320400,8.3153203125,0.016547895967960358,-0.01796213909983635,0.009783393703401089
1761469014204303400,8.325303466796875,0.02233707532286644,-0.01687769964337349,-0.0026599597185850143
1761469014214286300,8.335286376953125,0.02120029181241989,-0.005821206606924534,-0.000831295270472765
1761469014224269300,8.345269287109375,0.01938987523317337,0.004435691982507706,0.009988862089812756
1761469014234252500,8.35525244140625,0.008244141936302185,0.011003972962498665,0.014033539220690727
1761469014244235300,8.3652353515625,0.002894383855164051,0.009746162220835686,0.021129798144102097
1761469014254218200,8.37521826171875,0.0009766197763383389,0.01218135841190815,0.023068232461810112
1761469014264200400,8.385200439453126,0.009550134651362896,0.015812313184142113,0.02522086538374424
1761469014274183200,8.39518310546875,-0.0004399712197482586,0.021878112107515335,0.028260618448257446
1761469014284166400,8.40516650390625,0.0056725163012743,0.019888464361429214,0.021737203001976013
1761469014294149400,8.4151494140625,0.00303279934450984,0.006941517814993858,0.0070195067673921585
1761469014304132400,8.42513232421875,0.002637852681800723,-0.006284006405621767,0.0008638759609311819
1761469014314115300,8.435115234375,0.0079271849244833,-0.007134313695132732,0.0038330242969095707
1761469014324098300,8.445098388671875,0.011317655444145203,-0.0004913248121738434,0.008829114958643913
1761469014334081500,8.45508154296875,0.01963047869503498,0.0017976800445467234,0.018703395500779152
1761469014344064500,8.465064453125,0.014958761632442474,0.0009241632651537657,0.020181717351078987
1761469014354047200,8.475047119140624,0.01582072488963604,-0.0008748902473598719,0.017177792266011238
1761469014364030500,8.485030517578124,0.009395848959684372,-0.003344705794006586,0.013185979798436165
1761469014374013400,8.495013427734374,0.00010164408013224602,-0.002164149424061179,0.007418031804263592
1761469014383996400,8.504996337890624,-0.0022563189268112183,0.009411546401679516,0.0027252754662185907
1761469014393979400,8.5149794921875,-0.0102759450674057,0.02096026949584484,0.011362986639142036
1761469014403962400,8.52496240234375,-0.015114907175302505,0.016904009506106377,0.018110904842615128
1761469014413945300,8.5349453125,-0.011766644194722176,-0.0016050864942371845,0.020607218146324158
1761469014423928300,8.54492822265625,-0.014886004850268364,-0.008886701427400112,0.011886164546012878
1761469014433911300,8.554911376953125,-0.0081791328266263,-0.006376715376973152,0.014023630879819393
1761469014443894300,8.564894287109375,-0.00615912489593029,-0.00832295324653387,0.015095819719135761
1761469014453877500,8.57487744140625,0.001070789061486721,-0.007634819485247135,0.013135920278728008
1761469014463860200,8.584860107421875,0.0000838213600218296,-0.006347713526338339,0.007168574258685112
1761469014473842400,8.594842529296875,0.0033533750101923943,-0.005194044206291437,0.0028025913052260876
1761469014483827500,8.604827392578125,-0.0010150079615414143,-0.005542918108403683,-0.0008014643099159002
1761469014493810400,8.614810546875,0.0016737375408411026,-0.008252659812569618,-0.01005995087325573
1761469014503793400,8.62479345703125,-0.000826704315841198,-0.0005811580922454596,-0.012821649201214314
1761469014513776400,8.6347763671875,-0.0015919990837574005,0.005656347144395113,-0.0008035446517169476
1761469014523759400,8.64475927734375,-0.005146253854036331,0.01423545554280281,0.01360788568854332
1761469014533742300,8.654742431640624,-0.009114410728216171,0.014538717456161976,0.020070061087608337
1761469014543725600,8.6647255859375,-0.00977061316370964,0.01011307630687952,0.01936831884086132
1761469014553708300,8.674708251953126,-0.006332927383482456,-0.0003860879223793745,0.005425932817161083
1761469014563691300,8.684691162109376,-0.004045272246003151,-0.003184537636116147,-0.008576701395213604
1761469014573674500,8.694674560546876,0.0008920733816921711,-0.0019668368622660637,-0.009397345595061779
1761469014583657200,8.7046572265625,0.004210371989756823,0.0016292296350002289,-0.007776279468089342
1761469014593640400,8.714640380859375,0.00458490801975131,0.0066238283179700375,-0.0025801307056099176
1761469014603623400,8.72462353515625,0.001492978073656559,0.019206464290618896,0.010561770759522915
1761469014613606400,8.7346064453125,-0.005715441890060902,0.024838728830218315,0.012549837119877338
1761469014623589400,8.74458935546875,-0.0036030225455760956,0.01885753497481346,0.008756164461374283
1761469014633571300,8.7545712890625,-0.0036951955407857895,0.008236302062869072,0.002535735722631216
1761469014643554600,8.764554443359375,0.0011541550047695637,-0.0017654657131060958,-0.005393560044467449
1761469014653537300,8.774537353515624,0.0067338463850319386,-0.00392892537638545,-0.0006170349661260843
1761469014663520300,8.784520263671874,0.012668434530496597,-0.007141763344407082,-0.006984386593103409
1761469014673503500,8.79450341796875,0.014239639043807983,-0.0028605242259800434,-0.012020493857562542
1761469014683486500,8.804486572265626,0.017758473753929138,-0.002620839746668935,-0.02089627832174301
1761469014693469200,8.81446923828125,0.015068452805280685,0.0025100396014750004,-0.022297285497188568
1761469014703452400,8.824452392578126,0.018631761893630028,0.006389199756085873,-0.01923704706132412
1761469014713435400,8.834435302734375,0.012561245821416378,0.00928368791937828,-0.004647331777960062
1761469014723418400,8.84441845703125,0.0044745574705302715,0.009029621258378029,0.004359212704002857
1761469014733401300,8.8544013671875,-0.00009401794523000717,0.009677116759121418,0.011255530640482903
1761469014743384300,8.86438427734375,-0.007493078242987394,0.009360467083752155,0.009297840297222137
1761469014753367600,8.874367431640625,-0.006904037669301033,0.008723394013941288,0.002541328314691782
1761469014763350500,8.8843505859375,-0.00943856779485941,0.003723575733602047,-0.004506993573158979
1761469014773333200,8.894333251953125,-0.0025103124789893627,0.002131305169314146,-0.011844458989799023
1761469014783316500,8.90431640625,0.003426672425121069,-0.0020040515810251236,-0.014288707636296749
1761469014793299500,8.914299560546874,0.0011725649237632751,-0.003698631189763546,-0.004335938487201929
1761469014803282200,8.9242822265625,0.016926229000091553,-0.00235533295199275,-0.0007960647344589233
1761469014813265400,8.934265380859374,0.012998073361814022,-0.0022442685440182686,-0.007131995167583227
1761469014823248400,8.944248291015626,0.013925919309258461,0.0019653900526463985,-0.011825283989310265
1761469014833231400,8.9542314453125,0.010569993406534195,0.006462058052420616,-0.015891194343566895
1761469014843213300,8.96421337890625,0.008273283019661903,0.010474909096956253,-0.013312455266714096
1761469014853196300,8.9741962890625,0.011376338079571724,0.008345386013388634,-0.013200405053794384
1761469014863179500,8.984179443359375,0.012202450074255466,-0.000009482493624091148,-0.01632882095873356
1761469014873162200,8.994162353515625,0.016140328720211983,-0.008573547005653381,-0.01803896762430668
1761469014883145200,9.004145263671875,0.01938406005501747,-0.02083767019212246,0.0012529713567346334
1761469014893128400,9.01412841796875,0.02048247680068016,-0.034574925899505615,0.015357740223407745
1761469014903111400,9.024111328125,0.0270993672311306,-0.04963936284184456,0.00714188814163208
1761469014913094400,9.034094482421875,0.018178971484303474,-0.04187585413455963,-0.0028517553582787514
1761469014923077400,9.044077392578124,0.006837101187556982,-0.005830501206219196,-0.011451369151473045
1761469014933060400,9.054060302734374,-0.002976270392537117,0.020039839670062065,-0.01852014847099781
1761469014943043600,9.064043701171874,-0.007542526349425316,0.031459204852581024,-0.022206496447324753
1761469014953026300,9.0740263671875,-0.00392700033262372,0.023939773440361023,-0.029414787888526917
1761469014963009300,9.08400927734375,-0.00023346254602074623,0.00911875069141388,-0.020637808367609978
1761469014972992500,9.093992431640626,0.008010867051780224,-0.00656141247600317,-0.0021233330480754375
1761469014982975500,9.1039755859375,0.012380581349134445,-0.023570489138364792,0.008599085733294487
