time,seconds_elapsed,z,y,x
1761468902056775400,0.119775390625,0.011537523008883,-0.045439109206199646,0.01884460262954235
1761468902066758400,0.12975830078125,0.00910605676472187,-0.03684189170598984,0.02119350992143154
1761468902076741000,0.1397412109375,0.0065354108810424805,-0.021284380927681923,0.027909014374017715
1761468902086723300,0.149723388671875,-0.0007006637752056122,-0.018836138769984245,0.022962458431720734
1761468902096706300,0.159706298828125,-0.005875323433429003,-0.009527558460831642,0.02153778076171875
1761468902106689300,0.169689208984375,-0.004276894498616457,-0.0069887675344944,0.021152155473828316
1761468902116671200,0.179671142578125,0.00023155845701694489,-0.009323525242507458,0.01253204233944416
1761468902126654500,0.189654541015625,0.009967010468244553,-0.012125436216592789,0.007889887318015099
1761468902136637200,0.19963720703125,0.011543000116944313,-0.019013695418834686,0.0003704002592712641
1761468902146619400,0.209619384765625,0.015164365991950035,-0.014082585461437702,-0.007779671810567379
1761468902156602400,0.219602294921875,0.011653288267552853,-0.0027509734500199556,-0.006981230340898037
1761468902166585000,0.229585205078125,0.008123002015054226,-0.004632230382412672,-0.00408104807138443
1761468902176567300,0.2395673828125,0.0076463595032691956,-0.012246942147612572,-0.008112262934446335
1761468902186550300,0.24955029296875,0.009191525168716908,-0.013390502892434597,-0.01190753374248743
1761468902196533200,0.259533203125,0.01198183000087738,-0.021153844892978668,-0.009928369894623756
1761468902206516200,0.26951611328125,0.013373065739870071,-0.025529952719807625,-0.005129354074597359
1761468902216498400,0.27949853515625,0.014123475179076195,-0.024859610944986343,-0.0017954448703676462
1761468902226481200,0.289481201171875,0.01560232974588871,-0.023732027038931847,-0.0022396601270884275
1761468902236464400,0.29946435546875,0.015964599326252937,-0.011922571808099747,0.0030585259664803743
1761468902246446300,0.3094462890625,0.006749795749783516,-0.00040599796921014786,0.011257600039243698
1761468902256429300,0.31942919921875,0.0031984124798327684,0.004468352068215609,0.01166127622127533
1761468902266412300,0.329412353515625,-0.002909813541918993,0.006571450736373663,0.006651869509369135
1761468902276394200,0.339394287109375,-0.004219657741487026,0.004063984379172325,-0.0033894400112330914
1761468902286377200,0.349377197265625,-0.005309423431754112,0.010039319284260273,0.0006180847994983196
1761468902296360200,0.359360107421875,-0.005224587395787239,0.009091407991945744,0.003292626701295376
1761468902306342400,0.36934228515625,-0.005550025030970573,0.00693451426923275,0.001313631422817707
1761468902316325000,0.3793251953125,-0.004608400631695986,0.012521849945187569,0.006482192315161228
1761468902326308400,0.389308349609375,-0.007778893690556288,0.01637890562415123,0.01272677257657051
1761468902336291300,0.399291259765625,-0.008082269690930843,0.012722057290375233,0.013334439136087894
1761468902346273300,0.409273193359375,-0.00830730702728033,0.006816498003900051,0.014352033846080303
1761468902356256300,0.41925634765625,-0.010544412769377232,-0.0006524412892758846,0.014699289575219154
1761468902366239200,0.4292392578125,-0.017758116126060486,0.0036578846629709005,0.017099330201745033
1761468902376221200,0.43922119140625,-0.016898153349757195,0.005851206835359335,0.016760829836130142
1761468902386204200,0.4492041015625,-0.01788751780986786,0.02022668346762657,0.015146421268582344
1761468902396187400,0.4591875,-0.026856692507863045,0.02029285579919815,0.017755651846528053
1761468902406169000,0.469169189453125,-0.018534578382968903,0.006966663058847189,0.015140961855649948
1761468902416152300,0.47915234375,-0.023122508078813553,0.009130382910370827,0.020714297890663147
1761468902426139100,0.48913916015625,-0.017237987369298935,0.007970309816300869,0.02483047917485237
1761468902436121000,0.49912109375,-0.013991249725222588,0.005960885901004076,0.02650250494480133
1761468902446104000,0.50910400390625,-0.009415140375494957,0.028150346130132675,0.039882760494947433
1761468902456087000,0.519087158203125,-0.014201315119862556,-0.0037130131386220455,0.03241771459579468
1761468902466069000,0.529069091796875,-0.013768283650279045,-0.012154967524111271,0.024271901696920395
1761468902476052000,0.539052001953125,-0.015096543356776237,0.009315716102719307,0.02879224717617035
1761468902486035200,0.54903515625,-0.02533559873700142,0.0068094152957201,0.022147128358483315
1761468902496018200,0.55901806640625,-0.0278854351490736,-0.005111705511808395,0.01877433806657791
1761468902506000100,0.569000244140625,-0.02534451335668564,0.005518301390111446,0.022230587899684906
1761468902515983000,0.578983154296875,-0.023237254470586777,0.015885891392827034,0.031004246324300766
1761468902525966000,0.588966064453125,-0.013792885467410088,0.02127320133149624,0.029627125710248947
1761468902535948000,0.598947998046875,-0.01818239316344261,0.009022691287100315,0.024746570736169815
1761468902545931000,0.608930908203125,-0.011835282668471336,0.001596200279891491,0.021551044657826424
1761468902555914200,0.618914306640625,-0.0009706616401672363,0.020325828343629837,0.023640215396881104
1761468902565896000,0.62889599609375,-0.011745544150471687,0.027523286640644073,0.02711404301226139
1761468902575879200,0.638879150390625,-0.01109716109931469,0.003995420411229134,0.019635533913969994
1761468902585862100,0.648862060546875,-0.02542256936430931,-0.003557570744305849,0.010251086205244064
1761468902595844000,0.658843994140625,-0.026242684572935104,0.010479304939508438,0.008421686477959156
1761468902605827000,0.6688271484375,-0.01977519690990448,0.02451975829899311,0.00973702222108841
1761468902615810000,0.67881005859375,-0.016919927671551704,0.03314909711480141,0.01130491029471159
1761468902625793000,0.68879296875,-0.011567238718271255,0.038975827395915985,0.007323484867811203
1761468902635775000,0.69877490234375,-0.019744209945201874,0.04173086956143379,0.00376230594702065
1761468902645758200,0.70875830078125,-0.01587037555873394,0.02878177911043167,0.001603281358256936
1761468902655741000,0.718740966796875,-0.008329693228006363,0.041610993444919586,0.00935062300413847
1761468902665723100,0.72872314453125,-0.010205889120697975,0.011514076963067055,0.005307678133249283
1761468902675706000,0.7387060546875,-0.0032733925618231297,0.00955096073448658,-0.0053198984824121
1761468902685689000,0.748689208984375,-0.0026339679025113583,0.027164842933416367,0.0013747555203735828
1761468902695671000,0.758671142578125,-0.0058930981904268265,0.004045749083161354,-0.007107876241207123
1761468902705654300,0.768654296875,-0.004155385307967663,-0.009300416335463524,-0.008255432359874249
1761468902715637000,0.778636962890625,-0.0038534770719707012,-0.0032718766015022993,0.0005027318838983774
1761468902725619200,0.788619140625,-0.0041205924935638905,-0.0007983327377587557,0.0022044917568564415
1761468902735602200,0.798602294921875,-0.0020158388651907444,-0.004612747114151716,-0.002851193305104971
1761468902745585200,0.808585205078125,-0.002708793617784977,-0.001990864984691143,-0.009592719376087189
1761468902755567000,0.818567138671875,-0.005201701074838638,0.0011044524144381285,-0.013577248901128769
1761468902765550000,0.828550048828125,-0.0011528972536325455,-0.0010982481762766838,-0.009817131794989109
1761468902775533300,0.838533203125,0.004706971347332001,0.004637999460101128,-0.01136111281812191
1761468902785516000,0.84851611328125,0.011717475950717926,0.005832959897816181,-0.014906046912074089
1761468902795498200,0.858498291015625,0.008980933576822281,-0.002336557023227215,-0.01927373744547367
1761468902805481200,0.868481201171875,0.015851357951760292,-0.005578156560659409,-0.024878093972802162
1761468902815464000,0.8784638671875,0.018342893570661545,-0.0024463466834276915,-0.023798035457730293
1761468902825446100,0.888446044921875,0.020757582038640976,-0.004051966592669487,-0.030083362013101578
1761468902835429000,0.89842919921875,0.016926856711506844,0.004068146459758282,-0.021114660426974297
1761468902845412000,0.908412109375,0.017120469361543655,-0.005588475614786148,-0.017719661816954613
1761468902855394000,0.91839404296875,0.014269734732806683,0.0009617067407816648,-0.012027023360133171
1761468902865377300,0.928377197265625,0.0024034881498664618,-0.0032663275487720966,-0.006205086596310139
1761468902875360000,0.938360107421875,0.0013150540180504322,-0.010891490615904331,-0.0045784274116158485
1761468902885342200,0.94834228515625,0.0016290410421788692,-0.004082852974534035,-0.006502827629446983
1761468902895325200,0.9583251953125,0.0015212693251669407,0.00002866378054022789,-0.006119199097156525
1761468902905308000,0.968307861328125,0.000891165342181921,0.0017466689459979534,-0.003544721519574523
1761468902915290000,0.9782900390625,0.00002102414146065712,0.004074409604072571,-0.0052351634949445724
1761468902925273000,0.988273193359375,0.005331100896000862,0.005513048730790615,-0.009771059267222881
1761468902935256000,0.998256103515625,0.002571324585005641,0.012395489029586315,-0.009298288263380527
1761468902945239000,1.008239013671875,0.003636589040979743,0.0206342451274395,-0.01138673909008503
1761468902955221200,1.01822119140625,-0.001108991913497448,0.019223665818572044,-0.01262492872774601
1761468902965204000,1.028203857421875,0.0025667031295597553,0.01462145708501339,-0.012538110837340355
1761468902975187000,1.03818701171875,0.0036752254236489534,0.00794923771172762,-0.00880796741694212
1761468902985169200,1.048169189453125,0.00046931207180023193,0.011127187870442867,-0.007617001421749592
1761468902995152000,1.05815185546875,0.000585462898015976,0.01289486326277256,-0.005906692706048489
1761468903005135000,1.068135009765625,0.002044342691078782,0.007447102107107639,-0.007735219318419695
1761468903015117000,1.078116943359375,-0.010366827249526978,0.008074223063886166,-0.003933088853955269
1761468903025100000,1.08810009765625,-0.015754135325551033,0.017140954732894897,0.004238821566104889
1761468903035083000,1.0980830078125,-0.022121498361229897,0.02592427469789982,0.01103445328772068
1761468903045065200,1.108065185546875,-0.02046208269894123,0.037698909640312195,0.004672427661716938
1761468903055048000,1.1180478515625,-0.019272563979029655,0.04549897462129593,-0.0015062256716191769
1761468903065031200,1.12803125,-0.010120876133441925,0.0511065274477005,-0.005742782261222601
1761468903075013000,1.13801318359375,-0.005443839356303215,0.05250422656536102,-0.007544449530541897
1761468903084996000,1.14799609375,-0.000066384207457304,0.051022179424762726,-0.009901081211864948
1761468903094979000,1.15797900390625,0.0020375698804855347,0.037917062640190125,-0.004449530504643917
1761468903104961300,1.167961181640625,0.004318566992878914,0.03553672879934311,-0.0013466817326843739
1761468903114944000,1.177944091796875,0.004434226080775261,0.04100918769836426,0.002383700804784894
1761468903124927000,1.187927001953125,0.0030046412721276283,0.0482599101960659,0.005072694271802902
1761468903134910200,1.19791015625,-0.0012550265528261662,0.04663648083806038,0.0008234146516770124
1761468903144892000,1.207891845703125,-0.006006372161209583,0.03979242220520973,-0.009158912114799023
1761468903154875100,1.217875244140625,-0.009531582705676556,0.04138709604740143,-0.01223060768097639
1761468903164858000,1.227858154296875,-0.014147905632853508,0.04362574964761734,-0.015394443646073341
1761468903174840000,1.237840087890625,-0.013894202187657356,0.05367475003004074,-0.01103014126420021
1761468903184823000,1.247822998046875,-0.011054472997784615,0.06054730340838432,-0.011051713488996029
1761468903194806000,1.257805908203125,-0.010231398046016693,0.06127713993191719,0.000054919393733143806
1761468903204788000,1.2677880859375,-0.00553518021479249,0.04881194606423378,0.0011279068421572447
1761468903214771000,1.27777099609375,-0.004332293756306171,0.037935636937618256,-0.002485036151483655
1761468903224754200,1.287754150390625,-0.001692567951977253,0.03363196924328804,-0.0017433458706364036
1761468903234735900,1.29773583984375,-0.0028882287442684174,0.03231193125247955,0.002966579981148243
1761468903244719000,1.307718994140625,-0.0017590485513210297,0.03614262491464615,0.0054907239973545074
1761468903254702000,1.3177021484375,0.0018535160925239325,0.029577165842056274,-0.0026316437870264053
1761468903264684300,1.327684326171875,0.0014420580118894577,0.02986399084329605,-0.008284203708171844
1761468903274667000,1.3376669921875,0.0012225466780364513,0.031017526984214783,-0.008969038724899292
1761468903284650000,1.34764990234375,-0.0033106859773397446,0.03965522348880768,-0.003924479708075523
1761468903294632200,1.357632080078125,-0.013572282157838345,0.03715673089027405,-0.006912688259035349
1761468903304615000,1.367614990234375,-0.01580268144607544,0.027516884729266167,-0.008521770127117634
1761468903314598100,1.37759814453125,-0.012122305110096931,0.022713370621204376,-0.00795014575123787
1761468903324580000,1.387580078125,-0.009731852449476719,0.030610444024205208,-0.007244141772389412
1761468903334563000,1.39756298828125,-0.004087585490196943,0.040436744689941406,-0.008020976558327675
1761468903344546000,1.407546142578125,-0.0026771756820380688,0.04496864601969719,-0.001941778464242816
1761468903354529000,1.417529052734375,-0.00014035729691386223,0.04632991552352905,0.006774667650461197
1761468903364511000,1.427510986328125,0.00026550842449069023,0.041586823761463165,0.0068689435720443726
1761468903374494000,1.437493896484375,0.0012665907852351665,0.04285874962806702,0.005806342698633671
1761468903384477200,1.447477294921875,-0.002496455330401659,0.03718115761876106,-0.0005852445028722286
1761468903394459100,1.457459228515625,0.0005179410800337791,0.03135056793689728,-0.003427396295592189
1761468903404442000,1.467442138671875,0.0021784219425171614,0.0367589145898819,0.0011039725504815578
1761468903414425000,1.477425048828125,0.0010003107599914074,0.04821929335594177,0.0009394416119903326
1761468903424403500,1.487403564453125,-0.00005110539495944977,0.05073944106698036,0.00190217443741858
1761468903434386400,1.497386474609375,0.001633625477552414,0.05228324979543686,-0.0027975121047347784
1761468903444369700,1.50736962890625,0.003391844453290105,0.060268741101026535,-0.004817786160856485
1761468903454351400,1.517351318359375,0.0033378112129867077,0.06481405347585678,-0.010393839329481125
1761468903464334600,1.52733447265625,0.0018528327345848083,0.0546780601143837,-0.013459136709570885
1761468903474317600,1.537317626953125,0.00223249732516706,0.04575823247432709,-0.008259975351393223
1761468903484299800,1.5472998046875,-0.00040056975558400154,0.038835346698760986,-0.0030556260608136654
1761468903494282500,1.557282470703125,0.0002469751052558422,0.033922385424375534,-0.004430236294865608
1761468903504265500,1.567265380859375,0.004265951924026012,0.03630857542157173,-0.002316485159099102
1761468903514247700,1.57724755859375,0.006779042538255453,0.03852899372577667,-0.0089359600096941
1761468903524230400,1.58723046875,0.011752761900424957,0.03397871553897858,-0.01856914535164833
1761468903534213600,1.597213623046875,0.008885908871889114,0.029777269810438156,-0.019534174352884293
1761468903544195600,1.607195556640625,0.0043047391809523106,0.03029578924179077,-0.014185215346515179
1761468903554178600,1.617178466796875,0.0006258855573832989,0.04372571408748627,-0.008689489215612411
1761468903564161500,1.62716162109375,-0.0021216976456344128,0.05208510905504227,-0.0045109898783266544
1761468903574144500,1.63714453125,-0.005436992738395929,0.046695150434970856,-0.0018019677372649312
1761468903584126500,1.64712646484375,0.00228457641787827,0.04636465385556221,0.0014572087675333023
1761468903594109400,1.657109375,0.00406501442193985,0.04031641036272049,-0.0032293025869876146
1761468903604092700,1.6670927734375,0.005931890569627285,0.0438498929142952,-0.001454838435165584
1761468903614074400,1.677074462890625,0.0047991531901061535,0.04868815094232559,0.0035366371739655733
1761468903624057600,1.6870576171875,0.004871325101703405,0.04268192499876022,0.00046468107029795647
1761468903634040600,1.69704052734375,0.007784691639244556,0.024656012654304504,-0.009641064330935478
1761468903644022500,1.7070224609375,0.007907463237643242,0.019358985126018524,-0.009780880063772202
1761468903654005500,1.717005615234375,0.010524798184633255,0.025419112294912338,-0.0056825741194188595
1761468903663988500,1.726988525390625,0.008860588073730469,0.01886880211532116,-0.00871325097978115
1761468903673970400,1.736970458984375,0.012454251758754253,0.016769662499427795,-0.013433657586574554
1761468903683953400,1.746953369140625,0.006014462094753981,0.025858499109745026,-0.012495691888034344
1761468903693936600,1.7569365234375,0.0037086387164890766,0.03559418022632599,-0.0076613156124949455
1761468903703918300,1.76691845703125,0.00649776728823781,0.0229196660220623,-0.01066962257027626
1761468903713901600,1.776901611328125,0.00905180349946022,0.002028835704550147,-0.01744096353650093
1761468903723884500,1.786884521484375,0.012492340989410877,-0.0041297245770692825,-0.010057082399725914
1761468903733866500,1.796866455078125,0.011286712251603603,0.01180426124483347,0.006488078273832798
1761468903743849500,1.806849365234375,0.00801688339561224,0.01899239979684353,0.01116378977894783
1761468903753832700,1.816832763671875,0.00528955552726984,0.004387597553431988,0.006354647222906351
1761468903763814400,1.826814453125,0.01061641052365303,0.0009057803545147181,-0.0014641270972788334
1761468903773797600,1.836797607421875,0.009532243944704533,-0.0028773131780326366,-0.001535460352897644
1761468903783780600,1.846780517578125,0.010038510896265507,-0.006624647416174412,-0.004619933664798737
1761468903793763600,1.856763671875,0.009539484977722168,0.00039741559885442257,-0.0047613270580768585
1761468903803745500,1.86674560546875,0.0060392930172383785,0.0040821656584739685,0.0009703284595161676
1761468903813728500,1.876728515625,0.007406406570225954,-0.0026661334559321404,0.007501546293497086
1761468903823711700,1.886711669921875,0.004529393743723631,-0.008124016225337982,0.012745044194161892
1761468903833693400,1.896693359375,-0.0003968258388340473,-0.018453003838658333,0.016361741349101067
1761468903843676700,1.9066767578125,-0.0064179664477705956,-0.023833921179175377,0.020547430962324142
1761468903853659600,1.91665966796875,-0.010907430201768875,-0.021456345915794373,0.03168831765651703
1761468903863641600,1.9266416015625,-0.00870898924767971,-0.017844833433628082,0.03765113651752472
1761468903873624600,1.93662451171875,-0.012531748972833157,-0.007930981926620007,0.04219070076942444
1761468903883607600,1.946607666015625,-0.01236902829259634,-0.007121913600713015,0.04250521957874298
1761468903893589500,1.956589599609375,-0.009357469156384468,-0.015117757022380829,0.03740213066339493
1761468903903572500,1.966572509765625,-0.013732777908444405,-0.022606298327445984,0.03044009767472744
1761468903913555700,1.9765556640625,-0.0159694142639637,-0.027305511757731438,0.026131249964237213
1761468903923537400,1.986537353515625,-0.02235780470073223,-0.029519397765398026,0.02928869239985943
1761468903933520600,1.996520751953125,-0.0227984432131052,-0.03327891603112221,0.036185070872306824
1761468903943503600,2.006503662109375,-0.01948041096329689,-0.03373138979077339,0.03508225083351135
1761468903953485600,2.016485595703125,-0.020878588780760765,-0.03404739871621132,0.03638637065887451
1761468903963468500,2.026468505859375,-0.023119639605283737,-0.03249770402908325,0.037643913179636
1761468903973451500,2.036451416015625,-0.02442331239581108,-0.02657601609826088,0.03746093437075615
1761468903983433500,2.04643359375,-0.025875534862279892,-0.025577597320079803,0.04136326536536217
1761468903993416400,2.05641650390625,-0.019077645614743233,-0.03396637365221977,0.04196368157863617
1761468904003399700,2.066399658203125,-0.012914558872580528,-0.04745342209935188,0.03659874200820923
1761468904013381400,2.07638134765625,-0.01599024422466755,-0.05502638593316078,0.03800249472260475
1761468904023364600,2.086364501953125,-0.021035335958003998,-0.056843459606170654,0.04167819023132324
1761468904033347600,2.09634765625,-0.019525853917002678,-0.050180669873952866,0.04101422801613808
1761468904043329500,2.10632958984375,-0.01778681017458439,-0.04323035106062889,0.03463755548000336
1761468904053312500,2.1163125,-0.01677744835615158,-0.047483429312705994,0.0285403560847044
1761468904063295500,2.12629541015625,-0.016547616571187973,-0.045031722635030746,0.028537960723042488
1761468904073277400,2.13627734375,-0.012375285848975182,-0.055528368800878525,0.02175668627023697
1761468904083260400,2.146260498046875,-0.012934548780322075,-0.06441480666399002,0.02289918251335621
1761468904093243600,2.15624365234375,-0.01538749411702156,-0.061383068561553955,0.02422868274152279
1761468904103226600,2.1662265625,-0.018763050436973572,-0.05041057989001274,0.026931526139378548
1761468904113208600,2.17620849609375,-0.013301381841301918,-0.04452585056424141,0.02181595377624035
1761468904123191600,2.186191650390625,-0.006576633546501398,-0.04278600960969925,0.018083002418279648
1761468904133174800,2.1961748046875,-0.00441916985437274,-0.038731206208467484,0.014205733314156532
1761468904143156500,2.206156494140625,0.0016059656627476215,-0.029469531029462814,0.011188638396561146
1761468904153139700,2.2161396484375,0.006729223765432835,-0.024598117917776108,0.008562380447983742
1761468904163122700,2.226122802734375,0.0068075209856033325,-0.040404777973890305,0.003277870360761881
1761468904173104600,2.236104736328125,0.00683143176138401,-0.05453554168343544,-0.0012719336664304137
1761468904183087600,2.246087646484375,0.005227410234510899,-0.04972933605313301,-0.0005986865144222975
1761468904193070600,2.256070556640625,0.0014541083946824074,-0.0381900854408741,0.0017061270773410797
1761468904203052500,2.266052490234375,-0.001962194684892893,-0.02843466028571129,0.005155719816684723
1761468904213035500,2.276035400390625,-0.0048034642823040485,-0.026264948770403862,0.00017966306768357754
1761468904223018800,2.286018798828125,-0.002651363145560026,-0.025980256497859955,0.0003439800348132849
1761468904233000400,2.29600048828125,-0.0009491811506450176,-0.01734456792473793,-0.002815941581502557
1761468904242983700,2.305983642578125,0.004399777855724096,-0.024184631183743477,-0.0067808558233082294
1761468904252966700,2.315966552734375,0.009076744318008423,-0.03746289014816284,-0.010975232347846031
1761468904262948600,2.325948486328125,0.011134568601846695,-0.03762055188417435,-0.010220225900411606
1761468904272931600,2.335931640625,0.010495983995497227,-0.030112961307168007,-0.006596325431019068
1761468904282914600,2.34591455078125,0.005712946876883507,-0.02862398885190487,-0.0025405974593013525
1761468904292896500,2.355896484375,0.008362519554793835,-0.030904021114110947,-0.002129747299477458
1761468904302879500,2.36587939453125,0.0070586358197033405,-0.019761089235544205,-0.0008524951990693808
1761468904312862700,2.37586279296875,0.0027119379956275225,-0.017853405326604843,0.0038616855163127184
1761468904322844400,2.385844482421875,0.007067537866532803,-0.020633213222026825,-0.002088082954287529
1761468904332827600,2.39582763671875,0.006578222848474979,-0.03916960582137108,-0.013423878699541092
1761468904342810600,2.405810546875,0.006730289198458195,-0.0461159273982048,-0.009151901118457317
1761468904352792600,2.41579248046875,-0.00042800046503543854,-0.04057345911860466,0.005598848685622215
1761468904362775600,2.425775634765625,-0.001095921266824007,-0.03341727703809738,0.014846143312752247
1761468904372758500,2.435758544921875,0.002674395451322198,-0.03099759668111801,0.012052579782903194
1761468904382741500,2.445741455078125,0.006758619099855423,-0.031622108072042465,0.006720931269228458
1761468904392723500,2.455723388671875,0.006066341884434223,-0.03223586827516556,0.005184357985854149
1761468904402706700,2.465706787109375,0.013319727033376694,-0.03489396721124649,0.0013978758361190557
1761468904412689400,2.475689453125,0.015248103067278862,-0.02680167369544506,-0.0007283876184374094
1761468904422670800,2.4856708984375,0.01235111616551876,-0.015811339020729065,0.0016042750794440508
1761468904432653800,2.49565380859375,0.00927615724503994,-0.01412590779364109,0.00761303910985589
1761468904442636800,2.50563671875,0.005358115304261446,-0.02440917119383812,0.003732813522219658
1761468904452618800,2.51561865234375,0.004669723566621542,-0.033017802983522415,0.0013842342887073755
1761468904462602000,2.52560205078125,0.00613366300240159,-0.030656110495328903,0.006906830705702305
1761468904472584700,2.535584716796875,0.013497112318873405,-0.027357066050171852,0.004975863732397556
1761468904482567000,2.54556689453125,0.020945973694324493,-0.028119796887040138,0.0006666034460067749
1761468904492550000,2.5555498046875,0.01522875763475895,-0.026586584746837616,-0.0027570966631174088
1761468904502532600,2.56553271484375,0.009138640016317368,-0.021821655333042145,0.0020041028037667274
1761468904512514800,2.575514892578125,0.007388962898403406,-0.023289430886507034,0.008789070881903172
1761468904522497800,2.585497802734375,0.007236630190163851,-0.03498976305127144,0.0030656708404421806
1761468904532480800,2.595480712890625,0.009915009140968323,-0.0419311560690403,0.0030563774053007364
1761468904542462700,2.605462646484375,0.007559177000075579,-0.048355765640735626,0.006483865901827812
1761468904552446000,2.615446044921875,0.012308487668633461,-0.043521687388420105,0.013722690753638744
1761468904562428700,2.6254287109375,0.014910661615431309,-0.03572235256433487,0.008443506434559822
1761468904572411000,2.635410888671875,0.016398873180150986,-0.03483457863330841,0.0066813211888074875
1761468904582393900,2.645393798828125,0.00629058014601469,-0.03248593956232071,0.010474993847310543
1761468904592376800,2.655376953125,0.005618608091026545,-0.03220110386610031,0.015434043481945992
1761468904602358800,2.66535888671875,0.003942414186894894,-0.04358239099383354,0.013789540156722069
1761468904612341800,2.675341796875,-0.0008833296597003937,-0.043792594224214554,0.015997711569070816
1761468904622324700,2.68532470703125,-0.002147798426449299,-0.035445183515548706,0.01752982847392559
1761468904632306700,2.695306640625,0.004045807756483555,-0.02796192653477192,0.015647994354367256
1761468904642290000,2.7052900390625,0.012805743142962456,-0.01960998773574829,0.00859913881868124
1761468904652272600,2.715272705078125,0.013755116611719131,-0.020940212532877922,0.00026307487860322
1761468904662254800,2.7252548828125,0.012947379611432552,-0.015429865568876266,-0.00011456129141151905
1761468904672237800,2.73523779296875,0.014455831609666348,-0.018123244866728783,-0.0000428943894803524
1761468904682220800,2.745220703125,0.012074965983629227,-0.02111450769007206,0.0043353429064154625
1761468904692202800,2.75520263671875,0.00904710404574871,-0.03171554580330849,0.007061767857521772
1761468904702186000,2.76518603515625,0.010233541950583458,-0.037317242473363876,0.004868654999881983
1761468904712168700,2.775168701171875,0.009642742574214935,-0.03117436356842518,0.0005260594189167023
1761468904722151700,2.785151611328125,0.011306153610348701,-0.028085362166166306,-0.006940911523997784
1761468904732134000,2.7951337890625,0.014589693397283554,-0.027369912713766098,-0.015405426733195782
1761468904742116600,2.80511669921875,0.01853223703801632,-0.01823580265045166,-0.012580878101289272
1761468904752099800,2.815099853515625,0.015105534344911575,-0.004918992053717375,-0.006071003153920174
1761468904762081800,2.825081787109375,0.0130250733345747,-0.0027256126049906015,-0.005267261527478695
1761468904772064800,2.835064697265625,0.018621206283569336,-0.01663348823785782,-0.009496105834841728
1761468904782047700,2.8450478515625,0.017486698925495148,-0.030999377369880676,-0.01342213898897171
1761468904792030000,2.855030029296875,0.017510240897536278,-0.02864139713346958,-0.0076303971000015736
1761468904802012700,2.8650126953125,0.010066172108054161,-0.02092915028333664,0.0019061164930462837
1761468904811995600,2.87499560546875,0.00745013915002346,-0.020393699407577515,0.0033518688287585974
1761468904821977900,2.884977783203125,0.004223719239234924,-0.018957190215587616,0.006909319199621677
1761468904831960600,2.894960693359375,0.0057095736265182495,-0.0045189401134848595,0.009320637211203575
1761468904841943800,2.90494384765625,0.0007800622843205929,0.012981490232050419,0.008468958549201488
1761468904851925800,2.91492578125,0.0007927124388515949,-0.0009862114675343037,-0.0020413582678884268
1761468904861908700,2.92490869140625,0.005093983840197325,-0.022020123898983,-0.008585011586546898
1761468904871891700,2.9348916015625,0.0029177642427384853,-0.01816663332283497,-0.007757216691970825
1761468904881874000,2.9448740234375,0.0032871447037905455,-0.013392116874456406,0.005570839159190655
1761468904891857000,2.95485693359375,0.006099556107074022,-0.00469417218118906,0.011127377860248089
1761468904901839600,2.964839599609375,0.007648983038961887,0.007702575996518135,0.007147549651563168
1761468904911821800,2.97482177734375,0.008461683988571167,0.016139201819896698,0.01567147672176361
1761468904921804800,2.9848046875,0.0062539237551391125,0.010336172766983509,0.015133785083889961
1761468904931787800,2.994787841796875,0.004733486566692591,-0.009169133380055428,-0.0011347306426614523
1761468904941769700,3.004769775390625,0.00229216692969203,-0.022519294172525406,-0.004614949692040682
1761468904951753000,3.0147529296875,0.0012447275221347809,-0.013848462142050266,0.002157970331609249
1761468904961735700,3.024735595703125,-0.0005265409126877785,-0.0025052595883607864,0.009709630161523819
1761468904971718000,3.0347177734375,0.000849665142595768,0.008389306254684925,0.010812893509864807
1761468904981700900,3.044700927734375,0.0031397175043821335,0.0026443353854119778,0.002268673852086067
1761468904991683800,3.054683837890625,0.0024870180059224367,-0.0010058153420686722,-0.004776459187269211
1761468905001665800,3.064665771484375,0.002946413354948163,0.0019431030377745628,-0.000828589079901576
1761468905011648800,3.074648681640625,0.005535575095564127,-0.010580731555819511,-0.006563873961567879
1761468905021631700,3.0846318359375,0.005032237619161606,-0.028161855414509773,-0.012955993413925171
1761468905031614000,3.094614013671875,0.0012089256197214127,-0.018666278570890427,-0.0012839828850701451
1761468905041597000,3.104596923828125,-0.0028622490353882313,-0.004178683273494244,0.007407509256154299
1761468905051579600,3.11457958984375,-0.0026336535811424255,0.0043409401550889015,0.004102081060409546
1761468905061561900,3.124561767578125,0.0006385720334947109,-0.001976876286789775,0.007523710839450359
1761468905071544800,3.134544921875,0.005538998171687126,-0.007121602073311806,0.0072914231568574905
1761468905081527800,3.14452783203125,0.005808776244521141,-0.01292090117931366,0.009357237257063389
1761468905091509800,3.154509765625,0.003403199603781104,-0.0316104032099247,0.009289652109146118
1761468905101493000,3.164492919921875,-0.0011052656918764114,-0.033516958355903625,0.007847550325095654
1761468905111475700,3.174475830078125,-0.0010754559189081192,-0.029025785624980927,0.01175308134406805
1761468905121458000,3.1844580078125,-0.002748986706137657,-0.01181031297892332,0.007864866405725479
1761468905131441000,3.19444091796875,-0.0038323048502206802,0.001035034190863371,0.005785759538412094
1761468905141423600,3.204423583984375,-0.0034466786310076714,-0.0025714184157550335,0.0003025773912668228
1761468905151405800,3.21440576171875,-0.0008980338461697102,-0.005054549779742956,-0.005948660895228386
1761468905161388800,3.224388916015625,-0.004060537554323673,-0.006632206030189991,-0.0180687066167593
1761468905171371800,3.234371826171875,-0.003811853937804699,-0.0061204694211483,-0.01060095988214016
1761468905181354800,3.244354736328125,-0.0009553474374115467,-0.006064542569220066,0.0038626680616289377
1761468905191337000,3.2543369140625,-0.0015763198025524616,-0.005658297799527645,0.011539249680936337
1761468905201319700,3.264319580078125,0.0035286934580653906,-0.005507562309503555,0.010340294800698757
1761468905211302700,3.274302734375,0.0004987376742064953,-0.013767644762992859,0.006323657929897308
1761468905221284900,3.284284912109375,0.0030335341580212116,-0.006869524717330933,0.005334294401109219
1761468905231267600,3.294267578125,0.0029444354586303234,0.0017363817896693945,-0.002380265621468425
1761468905241250800,3.304250732421875,-0.001156033482402563,-0.0022860567551106215,-0.005101217422634363
1761468905251232800,3.314232666015625,0.004227961879223585,0.000527671305462718,-0.006735684350132942
1761468905261215700,3.3242158203125,0.0010036728344857693,0.00851662177592516,-0.0078970892354846
1761468905271198700,3.33419873046875,-0.004161033779382706,0.013963444158434868,-0.007999648340046406
1761468905281181000,3.344180908203125,0.001550914254039526,0.006575035862624645,-0.013533431105315685
1761468905291163600,3.35416357421875,0.002300653140991926,-0.0035496368072927,-0.007853948511183262
1761468905301146600,3.364146728515625,0.004554486367851496,0.008506759069859982,0.0007597797084599733
1761468905311128800,3.37412890625,0.006512193940579891,0.0067713288590312,0.0017667519859969616
1761468905321111600,3.384111572265625,0.006671451032161713,-0.001250910572707653,-0.00064287637360394
1761468905331094800,3.3940947265625,0.00822970550507307,-0.01242139469832182,0.0022962165530771017
1761468905341076700,3.40407666015625,0.00532419653609395,-0.006415434181690216,0.004969497211277485
1761468905351059700,3.414059814453125,0.004730558022856712,-0.0016961278161033988,0.01036590151488781
1761468905361042700,3.424042724609375,0.006538578309118748,0.0007459910120815039,-0.001418853411450982
1761468905371025000,3.43402490234375,0.009962115436792374,-0.0024071126244962215,-0.012060088105499744
1761468905381008000,3.4440078125,0.007259538862854242,-0.012185974046587944,-0.013582883402705193
1761468905390990800,3.453990966796875,0.0025480967015028,-0.015712253749370575,-0.0009549674578011036
1761468905400972800,3.463972900390625,0.007119678892195225,-0.004161059390753508,0.005404395051300526
1761468905410956000,3.4739560546875,0.00464577367529273,-0.0053117177449166775,0.0018979895394295454
1761468905420938800,3.483938720703125,0.006383752450346947,-0.004594528581947088,0.0008782653603702784
1761468905430921200,3.493921142578125,0.01097291149199009,0.0030119919683784246,-0.00027355202473700047
1761468905440904400,3.503904541015625,0.011504212394356728,0.0012543059419840574,-0.010064130648970604
1761468905450887400,3.513887451171875,0.013146850280463696,0.008511153981089592,-0.01562667451798916
1761468905460869400,3.523869384765625,0.01119129080325365,0.00952235609292984,-0.016213636845350266
1761468905470852400,3.533852294921875,0.007082261145114899,0.007266517728567123,-0.021044904366135597
1761468905480835300,3.54383544921875,0.0038180246483534575,0.013058892451226711,-0.01884433440864086
1761468905490817300,3.5538173828125,0.003674366744235158,0.02303236722946167,-0.014928808435797691
1761468905500800300,3.56380029296875,0.002513494808226824,0.025403115898370743,-0.011348720639944077
1761468905510783500,3.573783447265625,0.002165059093385935,0.023608336225152016,-0.009358130395412445
1761468905520765200,3.58376513671875,0.003506759647279978,0.022383281961083412,-0.006522396579384804
1761468905530748400,3.59374853515625,-0.0005164211615920067,0.028914352878928185,-0.004969411995261908
1761468905540731400,3.6037314453125,0.0014601768925786018,0.028964417055249214,-0.008784123696386814
1761468905550713300,3.61371337890625,0.0012961444444954395,0.024381102994084358,-0.013105373829603195
1761468905560696300,3.6236962890625,0.0010399487800896168,0.02637874148786068,-0.01103077083826065
1761468905570679600,3.633679443359375,0.001976810395717621,0.03794124349951744,-0.006801699288189411
1761468905580661200,3.6436611328125,-0.0016932915896177292,0.03991970792412758,-0.00402428861707449
1761468905590644500,3.65364453125,-0.004200581461191177,0.042221665382385254,-0.006790155544877052
1761468905600627500,3.66362744140625,0.00010175537317991257,0.0460616797208786,-0.012319410219788551
1761468905610609400,3.673609375,-0.0027421386912465096,0.04185521975159645,-0.012826690450310707
1761468905620592400,3.68359228515625,0.0018624668009579182,0.03139032796025276,-0.015129526145756245
1761468905630575400,3.693575439453125,0.0010304376482963562,0.026827670633792877,-0.01728750951588154
1761468905640557300,3.703557373046875,0.001990240765735507,0.0271507129073143,-0.00953291729092598
1761468905650540300,3.713540283203125,0.004801894072443247,0.026081226766109467,-0.008033446036279202
1761468905660523500,3.7235234375,0.0036162547767162323,0.021204711869359016,-0.007084295153617859
1761468905670505200,3.733505126953125,-0.001263665035367012,0.02359306439757347,-0.006957735400646925
1761468905680488400,3.743488525390625,-0.001274583861231804,0.03158707544207573,-0.005491931457072496
1761468905690471400,3.753471435546875,-0.008663903921842575,0.04191635176539421,-0.00819702260196209
1761468905700453400,3.763453369140625,-0.010969667695462704,0.05148375779390335,-0.006345060653984547
1761468905710436400,3.773436279296875,-0.0018506082706153393,0.05124019458889961,-0.012302632443606853
1761468905720419300,3.78341943359375,0.0017111035995185375,0.04996081069111824,-0.02333131432533264
1761468905730401300,3.7934013671875,0.001608933787792921,0.04161367192864418,-0.02976013347506523
1761468905740384300,3.80338427734375,-0.000478984322398901,0.033761873841285706,-0.026229314506053925
1761468905750367500,3.813367431640625,0.0011738697066903114,0.03319958969950676,-0.01822056993842125
1761468905760349200,3.82334912109375,0.0008212672546505928,0.029302585870027542,-0.016935594379901886
1761468905770332400,3.83333251953125,0.00215353025123477,0.03671852871775627,-0.009670308791100979
1761468905780315400,3.8433154296875,-0.0004318663850426674,0.045640915632247925,-0.007798106409609318
1761468905790298000,3.853298095703125,-0.0019794669933617115,0.05465104430913925,-0.01730668544769287
1761468905800280300,3.8632802734375,-0.006286597810685635,0.05548541247844696,-0.019151723012328148
1761468905810263300,3.87326318359375,-0.016034148633480072,0.05416228994727135,-0.020573437213897705
1761468905820246300,3.883246337890625,-0.013413331471383572,0.05088979750871658,-0.020870113745331764
1761468905830228200,3.893228271484375,-0.00775892473757267,0.052050426602363586,-0.01608254387974739
1761468905840211500,3.90321142578125,-0.006695524789392948,0.05043495073914528,-0.01794116385281086
1761468905850194200,3.913194091796875,-0.0036003789864480495,0.0477229505777359,-0.016583185642957687
1761468905860176400,3.92317626953125,-0.004066965077072382,0.05269773304462433,-0.014395665377378464
1761468905870159400,3.933159423828125,0.005941496696323156,0.054456181824207306,-0.016364550217986107
1761468905880142300,3.943142333984375,-0.004640307277441025,0.05364471673965454,-0.019773662090301514
1761468905890124300,3.953124267578125,-0.004217546433210373,0.05724627524614334,-0.01484912633895874
1761468905900107300,3.963107177734375,-0.006919589824974537,0.043310221284627914,-0.012544959783554077
1761468905910090500,3.973090576171875,-0.004922098945826292,0.04257483407855034,-0.013597619719803333
1761468905920072200,3.983072265625,-0.0006301482208073139,0.042487483471632004,-0.017591562122106552
1761468905930055400,3.993055419921875,-0.0019083269871771336,0.04575950652360916,-0.015872374176979065
1761468905940038400,4.003038330078125,-0.0013192356564104557,0.04772651940584183,-0.011084277182817459
1761468905950020400,4.013020263671875,-0.00007688580080866814,0.04649314284324646,-0.010893760249018669
1761468905960002300,4.023002197265625,-0.0033043702132999897,0.035752616822719574,-0.012339591048657894
1761468905969985300,4.0329853515625,0.004170078784227371,0.026825521141290665,-0.017432926222682
1761468905979967200,4.04296728515625,0.0022880230098962784,0.02636852115392685,-0.017568480223417282
1761468905989950500,4.052950439453125,0.002125414786860347,0.0331808440387249,-0.012108580209314823
1761468905999933200,4.06293310546875,0.0029696370474994183,0.03312092274427414,-0.011687002144753933
1761468906009915400,4.072915283203125,0.0057250987738370895,0.023934390395879745,-0.015481360256671906
1761468906019898400,4.0828984375,0.005159975960850716,0.02558448538184166,-0.010303908959031105
1761468906029881300,4.09288134765625,0.002211111830547452,0.038081564009189606,-0.002949229907244444
1761468906039863300,4.10286328125,0.00034583406522870064,0.04466063529253006,-0.0009851485956460238
1761468906049846500,4.112846435546875,0.00115975271910429,0.049583252519369125,0.0004495559260249138
1761468906059829200,4.122829345703125,-0.004203854128718376,0.04543724283576012,-0.004524163901805878
1761468906069811500,4.1328115234375,-0.0010861451737582684,0.018240049481391907,-0.015804076567292213
1761468906079794400,4.14279443359375,-0.0011511263437569141,0.003769232425838709,-0.019789764657616615
1761468906089777200,4.152777099609375,0.005953139625489712,0.011731436476111412,-0.021340757608413696
1761468906099759400,4.16275927734375,0.011025662533938885,0.030448397621512413,-0.01344634871929884
1761468906109742300,4.172742431640625,0.012511933222413063,0.035163380205631256,-0.00939331203699112
1761468906119725300,4.182725341796875,0.01255587674677372,0.041422341018915176,-0.015065579675137997
1761468906129707300,4.192707275390625,0.007634240668267012,0.04332724213600159,-0.013089367188513279
1761468906139690500,4.2026904296875,0.007561536505818367,0.03706641495227814,-0.014155962504446507
1761468906149673200,4.212673095703125,0.008247222751379013,0.020948680117726326,-0.01806607097387314
1761468906159655400,4.222655517578125,0.00546129047870636,0.007502378895878792,-0.017686836421489716
1761468906169638400,4.232638427734375,0.007178477942943573,0.010943293571472168,-0.00937088206410408
1761468906179621000,4.24262109375,0.002773343352600932,0.014403538778424263,-0.0050983726978302
1761468906189603300,4.252603271484375,0.010976763442158699,0.03889064863324165,-0.0020769922994077206
1761468906199586300,4.26258642578125,0.008806020021438599,0.05541955679655075,0.0009590114932507277
1761468906209569300,4.2725693359375,0.010353822261095047,0.043970782309770584,-0.011145020835101604
1761468906219551200,4.28255126953125,0.0074760098941624165,0.03581804782152176,-0.019947832450270653
1761468906229534500,4.292534423828125,0.0021047964692115784,0.031171604990959167,-0.018975622951984406
1761468906239517400,4.302517333984375,0.004066214431077242,0.02643464133143425,-0.022047046571969986
1761468906249499400,4.31249951171875,0.002161177573725581,0.02403440698981285,-0.01754213497042656
1761468906259482400,4.322482421875,0.008074460551142693,0.031827881932258606,-0.014682167209684849
1761468906269465300,4.33246533203125,0.012356240302324295,0.03347522392868996,-0.0145557951182127
1761468906279447300,4.342447265625,0.012976756319403648,0.03371943533420563,-0.013442328199744225
1761468906289430300,4.35243017578125,0.018196184188127518,0.02140815556049347,-0.015752941370010376
1761468906299413500,4.36241357421875,0.015714650973677635,0.004231031984090805,-0.019239550456404686
1761468906309395200,4.372395263671875,0.01814010925590992,0.002021309919655323,-0.01568334735929966
1761468906319378400,4.38237841796875,0.01827113702893257,0.005258115474134684,-0.012043604627251625
1761468906329361400,4.392361328125,0.016236726194620132,0.005214349366724491,-0.005918562412261963
1761468906339343400,4.40234326171875,0.014361860230565071,0.012579853646457195,-0.0003765244036912918
1761468906349326300,4.412326416015625,0.010667562484741211,0.006773871369659901,0.001525231869891286
1761468906359309300,4.422309326171875,0.008343422785401344,-0.011245609261095524,-0.0034985553938895464
1761468906369291300,4.432291259765625,0.013386344537138939,-0.015387502498924732,-0.00984223373234272
1761468906379274500,4.4422744140625,0.009897338226437569,-0.01817796193063259,-0.014694780111312866
1761468906389257500,4.452257568359375,0.016307080164551735,-0.02348005399107933,-0.012959467247128487
1761468906399239400,4.462239501953125,0.016124654561281204,-0.026816194877028465,-0.004028024151921272
1761468906409222400,4.472222412109375,0.010793530382215977,-0.027596086263656616,0.0024959540460258722
1761468906419205400,4.482205322265625,0.007786022499203682,-0.03934329003095627,0.0034733337815850973
1761468906429188000,4.49218798828125,0.003114820923656225,-0.04774145036935806,0.0035409473348408937
1761468906439170000,4.502170166015625,0.004967581946402788,-0.040422819554805756,0.00810933392494917
1761468906449153000,4.512153076171875,0.0018186208326369524,-0.033799152821302414,0.014016196131706238
1761468906459135000,4.522135009765625,-0.0006642439402639866,-0.028449393808841705,0.01841627061367035
1761468906469118200,4.5321181640625,-0.0038571814075112343,-0.015847494825720787,0.0255366750061512
1761468906479101000,4.542100830078125,-0.0013143951073288918,-0.013954253867268562,0.02602722868323326
1761468906489084000,4.552083984375,-0.0011630309745669365,-0.02017788216471672,0.02484806999564171
1761468906499066000,4.562066162109375,-0.004697844851762056,-0.0223438311368227,0.020537210628390312
1761468906509048800,4.572048828125,-0.004707907792180777,-0.028099425137043,0.027082255110144615
1761468906519032000,4.582031982421875,-0.00704190181568265,-0.03762848302721977,0.019633393734693527
1761468906529014000,4.592013916015625,-0.012901794165372849,-0.04130646958947182,0.015420989133417606
1761468906538997000,4.6019970703125,-0.010734779760241508,-0.028359511867165565,0.019037028774619102
1761468906548979000,4.61197900390625,-0.008683402091264725,-0.0177402775734663,0.021284714341163635
1761468906558962200,4.621962158203125,-0.010022174566984177,-0.01864069141447544,0.02174277976155281
1761468906568945000,4.63194482421875,-0.0124623142182827,-0.026224322617053986,0.02407415583729744
1761468906578927900,4.641927978515625,-0.010264405980706215,-0.024308444932103157,0.02539614960551262
1761468906588910000,4.65191015625,-0.011134913191199303,-0.02737904153764248,0.025641484186053276
1761468906598892800,4.661892822265625,-0.008150842040777206,-0.02479364350438118,0.023473937064409256
1761468906608876000,4.6718759765625,-0.004467220511287451,-0.007263795472681522,0.0246299896389246
1761468906618858000,4.68185791015625,-0.003812615294009447,-0.0045510996133089066,0.019948685541749
1761468906628841200,4.69184130859375,-0.006020297296345234,-0.00674046017229557,0.015731358900666237
1761468906638823000,4.701822998046875,-0.004954766482114792,-0.013930462300777435,0.012405072338879108
1761468906648806100,4.71180615234375,-0.00484110601246357,-0.026991168037056923,0.005083183757960796
1761468906658789000,4.7217890625,-0.009839327074587345,-0.03351697698235512,0.005697575397789478
1761468906668772000,4.731772216796875,-0.013760201632976532,-0.025162462145090103,0.01967659592628479
1761468906678754000,4.741754150390625,-0.01632615737617016,-0.016322366893291473,0.029532156884670258
1761468906688737300,4.7517373046875,-0.015703776851296425,-0.013407536782324314,0.03376737982034683
1761468906698720000,4.761719970703125,-0.011361492797732353,-0.01840229518711567,0.03193459287285805
1761468906708702200,4.7717021484375,-0.01382843591272831,-0.02678009681403637,0.03218407183885574
1761468906718685200,4.781685302734375,-0.010927986353635788,-0.029659505933523178,0.035632066428661346
1761468906728668000,4.79166796875,-0.005760678555816412,-0.02454809844493866,0.03107513301074505
1761468906738650000,4.801650146484375,-0.006502368953078985,-0.02695426531136036,0.021020369604229927
1761468906748633000,4.811633056640625,-0.005864846985787153,-0.022414784878492355,0.011119773611426353
1761468906758616000,4.821615966796875,-0.0040746708400547504,-0.027582915499806404,0.009930938482284546
1761468906768598000,4.831597900390625,-0.004706228617578745,-0.03175777941942215,0.007239898666739464
1761468906778581200,4.841581298828125,-0.00105183944106102,-0.03562815114855766,0.0032448910642415285
1761468906788564000,4.85156396484375,0.0007158289663493633,-0.03931083157658577,0.003997116349637508
1761468906798546200,4.861546142578125,0.0029904351104050875,-0.036338478326797485,0.0036615580320358276
1761468906808529200,4.871529052734375,0.006127309985458851,-0.036992959678173065,0.001123272581025958
1761468906818511000,4.881510986328125,0.005589085165411234,-0.04026491940021515,-0.0009281602688133717
1761468906828494000,4.891494140625,0.006145256105810404,-0.043175194412469864,0.00375666213221848
1761468906838477000,4.90147705078125,0.0054546985775232315,-0.04006142541766167,0.005805431865155697
1761468906848460000,4.9114599609375,0.010338153690099716,-0.03628784790635109,0.011073727160692215
1761468906858442000,4.92144189453125,0.009289667010307312,-0.03666388615965843,0.005599066615104675
1761468906868425200,4.93142529296875,0.0043225884437561035,-0.022523978725075722,0.005272800102829933
1761468906878408000,4.941407958984375,-0.0009696451015770435,-0.02108081243932247,0.010917901992797852
1761468906888390100,4.95139013671875,-0.004122569691389799,-0.028808724135160446,0.0021742787212133408
1761468906898373000,4.961373046875,-0.005614739377051592,-0.033253807574510574,0.001366275828331709
1761468906908355000,4.97135498046875,0.0006796102970838547,-0.021608266979455948,0.0039885942824184895
1761468906918338000,4.981338134765625,0.004844794049859047,-0.005775774363428354,0.003310021013021469
1761468906928321000,4.991321044921875,0.014309815131127834,-0.019443556666374207,-0.00992597546428442
1761468906938304000,5.001303955078125,0.012370767071843147,-0.038254264742136,-0.009746212512254715
1761468906948286000,5.011285888671875,0.014899318106472492,-0.04321208968758583,0.0021190543193370104
1761468906958269200,5.021269287109375,0.005290366243571043,-0.0358780100941658,0.004492197185754776
1761468906968252000,5.031251953125,0.006608295254409313,-0.025011245161294937,0.007407831028103828
1761468906978234000,5.041234130859375,0.0016534840688109398,-0.019298763945698738,0.014055081643164158
1761468906988217000,5.051217041015625,-0.004926939029246569,-0.018396638333797455,0.011668858118355274
1761468906998199000,5.061198974609375,-0.004046497400850058,-0.018748441711068153,0.012726666405797005
1761468907008182000,5.07118212890625,-0.002369220368564129,-0.023811757564544678,0.009503738954663277
1761468907018165000,5.0811650390625,-0.004336231388151646,-0.03579678013920784,0.006919940002262592
1761468907028148000,5.09114794921875,0.003938391804695129,-0.040749408304691315,0.007661744020879269
1761468907038130000,5.1011298828125,0.003672342048957944,-0.035036131739616394,0.006387154571712017
1761468907048113200,5.111113037109375,0.006290125194936991,-0.018878761678934097,0.015428796410560608
1761468907058095900,5.121095947265625,0.008943965658545494,-0.01034652628004551,0.008988208137452602
1761468907068078000,5.131078125,0.005173734854906797,-0.009231609292328358,-0.0054789138957858086
1761468907078061000,5.14106103515625,0.0033063264563679695,-0.009834283031523228,-0.0008777708280831575
1761468907088043000,5.15104296875,-0.0014916881918907166,-0.01565343700349331,-0.004147361032664776
1761468907098026000,5.16102587890625,-0.0016829031519591808,-0.014149816706776619,-0.0011156185064464808
1761468907108009200,5.17100927734375,-0.00544113339856267,-0.02174621820449829,0.006215529982000589
1761468907117992000,5.180991943359375,-0.0030184551142156124,-0.02240348607301712,0.008845668286085129
1761468907127974100,5.19097412109375,-0.0013645417056977749,-0.009474577382206917,0.015394235029816628
1761468907137957000,5.20095703125,0.00104082515463233,-0.013831508345901966,0.016769224777817726
1761468907147940000,5.210940185546875,0.0018050461076200008,-0.024778639897704124,0.013964498415589333
1761468907157922000,5.220922119140625,0.0021491264924407005,-0.02873370051383972,0.009227002039551735
1761468907167905000,5.230905029296875,0.0016965349204838276,-0.04540420323610306,-0.002220150316134095
1761468907177887000,5.240886962890625,-0.0003125537186861038,-0.04459060728549957,-0.0007045452948659658
1761468907187870000,5.250869873046875,0.0016366536729037762,-0.03500547632575035,0.002106716390699148
1761468907197853200,5.260853271484375,-0.002457689493894577,-0.02815129980444908,0.004754697438329458
1761468907207836200,5.270836181640625,0.004553250968456268,-0.023977771401405334,0.0069703590124845505
1761468907217818000,5.280818115234375,0.009167443960905075,-0.017190171405673027,0.003289870684966445
1761468907227801000,5.290801025390625,0.00629917997866869,-0.02347404509782791,-0.004241044633090496
1761468907237784000,5.3007841796875,0.009525599889457226,-0.036080650985240936,-0.007229111157357693
1761468907247766000,5.31076611328125,0.013763325288891792,-0.0398215651512146,-0.001133612124249339
1761468907257749000,5.3207490234375,0.014363335445523262,-0.03447473421692848,0.00038092746399343014
1761468907267731000,5.33073095703125,0.011975481174886227,-0.031091606244444847,0.0051966942846775055
1761468907277714000,5.3407138671875,0.009087815880775452,-0.02833976224064827,0.00449788011610508
1761468907287697200,5.350697265625,0.003491134848445654,-0.030529318377375603,0.003568346844986081
1761468907297680100,5.36068017578125,0.001087365671992302,-0.027010483667254448,0.005794483236968517
1761468907307662000,5.370662109375,0.0025742354337126017,-0.015119191259145737,0.00523761659860611
1761468907317645000,5.38064501953125,0.0005829897709190845,-0.009015758521854877,0.006275716237723827
1761468907327628000,5.3906279296875,0.0007438492029905319,-0.009587793610990047,0.004355370532721281
1761468907337610000,5.40060986328125,0.0023854216560721397,-0.0041280472651124,-0.0001448388211429119
1761468907347593000,5.410593017578125,0.00819411501288414,0.0004559638909995556,0.0007098594214767218
1761468907357575000,5.420574951171875,0.012699385173618793,-0.005915382876992226,-0.007258851081132889
1761468907367558000,5.430557861328125,0.012519855052232742,-0.008435561321675777,-0.006445316132158041
1761468907377541000,5.440541015625,0.011431154794991016,-0.00809014867991209,-0.004613860510289669
1761468907387524000,5.450524169921875,0.006709831301122904,-0.012691997922956944,-0.0013273422373458743
1761468907397506000,5.460506103515625,0.009064864367246628,-0.015176993794739246,-0.0005542265716940165
1761468907407489000,5.470489013671875,0.0041646226309239864,-0.021406399086117744,-0.00015448546037077904
1761468907417471000,5.480470947265625,0.009191605262458324,-0.018594367429614067,0.0012961383908987045
1761468907427454500,5.490454345703125,0.01315205916762352,-0.011894495226442814,0.0015142802149057388
1761468907437437400,5.5004375,0.008343189023435116,-0.004854429047554731,-0.0016412994591519237
1761468907447419600,5.510419677734375,0.0074980854988098145,-0.00835359375923872,-0.00885453075170517
1761468907457402400,5.52040234375,0.009001439437270164,-0.010142705403268337,-0.014042900875210762
1761468907467385600,5.530385498046875,0.00929398462176323,-0.004909921903163195,-0.00621279189363122
1761468907477367600,5.540367431640625,0.007050537504255772,-0.0030198765452951193,-0.004850318655371666
1761468907487350800,5.550350830078125,0.0056166513822972775,-0.0026019075885415077,-0.004923584405332804
1761468907497333500,5.56033349609375,0.0015601245686411858,-0.0027600994799286127,0.0031359398271888494
1761468907507315700,5.570315673828125,-0.0016637220978736877,-0.005779916420578957,0.0006220045033842325
1761468907517298700,5.580298583984375,0.0023675046395510435,-0.0037884043995290995,-0.001233153510838747
1761468907527281400,5.590281494140625,0.0016460479237139225,-0.0037102254573255777,-0.0024394758511334658
1761468907537263600,5.600263671875,0.0010937084443867207,-0.0053134486079216,-0.002889550058171153
1761468907547246600,5.61024658203125,0.0019860605243593454,-0.0034246472641825676,-0.005664654076099396
1761468907557229600,5.6202294921875,0.001702966634184122,-0.004025190137326717,-0.002428913488984108
1761468907567211500,5.63021142578125,-0.0010987920686602592,-0.0061166295781731606,-0.00568314827978611
1761468907577194800,5.64019482421875,0.0028338979464024305,-0.012623265385627747,-0.004034651909023523
1761468907587177500,5.650177490234375,0.007387637160718441,-0.007373641710728407,-0.005573692731559277
1761468907597159700,5.66015966796875,0.004440583288669586,0.009884973987936974,-0.007030707783997059
1761468907607142700,5.670142578125,0.006307056173682213,-0.002993066096678376,-0.008461741730570793
1761468907617125600,5.680125732421875,0.0045392499305307865,-0.004545422736555338,-0.014270095154643059
1761468907627107600,5.690107666015625,0.005762343294918537,-0.0038273439276963472,-0.010912470519542694
1761468907637090600,5.700090576171875,0.011795202270150185,-0.004885417874902487,-0.01413569413125515
1761468907647073500,5.710073486328125,0.008561881259083748,-0.006066799163818359,-0.012088524177670479
1761468907657055700,5.7200556640625,0.009860438294708729,-0.010360613465309143,-0.009158514440059662
1761468907667038700,5.730038818359375,0.007568731904029846,-0.008578455075621605,-0.0003190096467733383
1761468907677021400,5.740021484375,0.0027436167001724243,-0.002875562524423003,0.003926601726561785
1761468907687003600,5.750003662109375,0.0022481249179691076,0.004212093539535999,-0.0023541091941297054
1761468907696986600,5.759986572265625,0.001724014524370432,0.002210727659985423,-0.0071169063448905945
1761468907706969600,5.769969482421875,0.0022038344759494066,-0.01864132657647133,-0.020321182906627655
1761468907716951600,5.77995166015625,0.0017580213025212288,-0.028116321191191673,-0.023443739861249924
1761468907726934800,5.789934814453125,0.002712990390136838,-0.017287258058786392,-0.012016145512461662
1761468907736917500,5.79991748046875,-0.005597936455160379,0.0028387820348143578,0.0034158076159656048
1761468907746899700,5.809899658203125,-0.013459337875247002,0.0074799926951527596,0.00925715547055006
1761468907756882700,5.819882568359375,-0.010721342638134956,0.010811340995132923,0.005961493588984013
1761468907766865400,5.829865478515625,-0.007715189829468727,0.0018348884768784046,0.004708743654191494
1761468907776847600,5.83984765625,-0.00006179744377732277,-0.01391504518687725,-0.0015667291590943933
1761468907786830600,5.84983056640625,0.0015085390768945217,-0.013502728193998337,-0.002297649858519435
1761468907796813600,5.8598134765625,-0.00006565544754266739,-0.0168876051902771,-0.0006480878219008446
1761468907806795500,5.86979541015625,-0.0030029118061065674,-0.021078918129205704,0.004847018979489803
1761468907816778800,5.87977880859375,-0.0085252420976758,-0.01875983737409115,0.012701480649411678
1761468907826761500,5.889761474609375,-0.010633311234414577,-0.013967952691018581,0.014400962740182877
1761468907836743700,5.89974365234375,-0.013400069437921047,-0.012411069124937057,0.013311197981238365
1761468907846726700,5.9097265625,-0.01750839501619339,-0.008715087547898293,0.013333892449736595
1761468907856709400,5.91970947265625,-0.015474007464945316,-0.0031570701394230127,0.007424870505928993
1761468907866691600,5.929691650390625,-0.01338229887187481,0.002392732072621584,0.0036523554008454084
1761468907876674600,5.939674560546875,-0.010106878355145454,0.004876395687460899,-0.0002600944135338068
1761468907886657500,5.949657470703125,-0.008280329406261444,0.007914205081760883,-0.0003393087536096573
1761468907896639500,5.959639404296875,0.0012870770879089832,0.006072629243135452,-0.001096445368602872
1761468907906622700,5.969622802734375,0.0029206443578004837,0.0029347469098865986,-0.003846988547593355
1761468907916605400,5.97960546875,0.006866383831948042,-0.0035356690641492605,-0.006749567575752735
1761468907926587600,5.989587646484375,0.007715319283306599,-0.007949091494083405,-0.006591966841369867
1761468907936570600,5.999570556640625,0.0014454387128353119,-0.011601616628468037,-0.0031018941663205624
1761468907946553300,6.00955322265625,0.0009674415923655033,-0.013555163517594337,-0.00031566619873046875
1761468907956535600,6.01953564453125,-0.004287241958081722,-0.004893764853477478,-0.0006701329257339239
1761468907966518500,6.0295185546875,-0.003916699439287186,0.008751918561756611,0.0014205372426658869
1761468907976501800,6.039501708984375,-0.0022061504423618317,0.01568412594497204,0.00513298436999321
1761468907986483500,6.0494833984375,0.004718473181128502,0.004119415767490864,-0.00046752579510211945
1761468907996466700,6.059466796875,0.006654324941337109,-0.019779792055487633,-0.009853837080299854
1761468908006449700,6.06944970703125,0.010575225576758385,-0.023483887314796448,-0.008294378407299519
1761468908016431600,6.079431640625,0.012320129200816154,-0.020444951951503754,-0.003366997931152582
1761468908026414600,6.08941455078125,0.014319434762001038,-0.016709966585040092,-0.005592779256403446
1761468908036397600,6.0993974609375,0.015853416174650192,-0.01040706317871809,-0.011912194080650806
1761468908046379500,6.109379638671875,0.01353780459612608,-0.00791831687092781,-0.01584562100470066
1761468908056362800,6.11936279296875,0.01688486710190773,-0.005914820358157158,-0.017559899017214775
1761468908066344400,6.129344482421875,0.018308190628886223,-0.007077077403664589,-0.0196820218116045
1761468908076327700,6.13932763671875,0.019747361540794373,-0.00786350853741169,-0.017538176849484444
1761468908086310700,6.149310546875,0.02182350680232048,-0.018978405743837357,-0.003021970158442855
1761468908096292600,6.159292724609375,0.007660017814487219,0.0005138032138347626,0.010403291322290897
1761468908106275600,6.169275634765625,0.003653352614492178,0.02791270986199379,0.013383753597736359
1761468908116258600,6.179258544921875,-0.0029006865806877613,0.02712787687778473,0.0074118804186582565
1761468908126240500,6.189240478515625,-0.006136483978480101,0.025952061638236046,0.001958732958883047
1761468908136223500,6.199223388671875,-0.005040327552706003,0.018915724009275436,0.0006053145043551922
1761468908146206700,6.209206787109375,0.00022797845304012299,0.017113178968429565,-0.009935980662703514
1761468908156188400,6.2191884765625,0.0037713143974542618,0.015420207753777504,-0.020823782309889793
1761468908166171600,6.229171630859375,0.00003736419603228569,0.008741960860788822,-0.02404377982020378
1761468908176154600,6.239154541015625,-0.0036124978214502335,0.013311146758496761,-0.019133443012833595
1761468908186136600,6.249136474609375,-0.003950408659875393,0.027949638664722443,-0.0004001476336270571
1761468908196119600,6.25911962890625,-0.009034116752445698,0.036078937351703644,0.010817619040608406
1761468908206102500,6.2691025390625,-0.011962389573454857,0.030698884278535843,0.01143532432615757
1761468908216084500,6.27908447265625,-0.006685868836939335,0.027655424550175667,0.004824027419090271
1761468908226067500,6.2890673828125,-0.0021334467455744743,0.03430281952023506,0.006360701285302639
1761468908236050700,6.29905078125,-0.008207583799958229,0.04289364442229271,0.001895911293104291
1761468908246032400,6.309032470703125,-0.00567977549508214,0.04240826889872551,-0.0034504118375480175
1761468908256015600,6.319015625,-0.0020269835367798805,0.033165499567985535,-0.011020979844033718
1761468908265998600,6.32899853515625,-0.0018628430552780628,0.029901953414082527,-0.013500621542334557
1761468908275980500,6.33898046875,-0.00243409164249897,0.03889677673578262,-0.0021470338106155396
1761468908285963500,6.348963623046875,-0.0048898328095674515,0.03767024353146553,-0.0005667435470968485
1761468908295946500,6.358946533203125,-0.007225158624351025,0.036371152848005295,0.0012982680927962065
1761468908305928400,6.368928466796875,-0.009569006972014904,0.03856373205780983,-0.0027372196782380342
1761468908315911400,6.378911376953125,-0.012312328442931175,0.03779487684369087,0.0006761536933481693
1761468908325894700,6.388894775390625,-0.010411323979496956,0.03425329178571701,0.004820062313228846
1761468908335876600,6.398876708984375,-0.00968641135841608,0.03436034917831421,0.0021824673749506474
1761468908345859600,6.408859619140625,-0.007553429808467627,0.04014769569039345,0.003390802536159754
1761468908355842600,6.418842529296875,-0.00782773457467556,0.038792677223682404,0.0018573543056845665
1761468908365824800,6.42882470703125,-0.006247512996196747,0.028436530381441116,-0.001767030218616128
1761468908375807500,6.438807373046875,0.01136557012796402,0.03388642147183418,-0.0013113633031025529
1761468908385790500,6.44879052734375,-0.008160719648003578,0.021949095651507378,-0.0003344537690281868
1761468908395772700,6.458772705078125,-0.008859267458319664,0.01678922027349472,-0.004420275334268808
1761468908405755400,6.46875537109375,-0.010090917348861694,0.03452947735786438,-0.004408056382089853
1761468908415738600,6.478738525390625,-0.009559350088238716,0.050269026309251785,-0.00608611386269331
1761468908425720600,6.488720458984375,-0.005779651924967766,0.057417284697294235,-0.011043146252632141
1761468908435703300,6.498703369140625,-0.003841669298708439,0.06517400592565536,-0.00965270958840847
1761468908445686300,6.508686279296875,-0.0024810750037431717,0.05769917368888855,-0.005185285583138466
1761468908455668500,6.51866845703125,0.00034294137731194496,0.04233832657337189,-0.006094489246606827
1761468908465651200,6.528651123046875,0.004311685916036367,0.03183874115347862,-0.0071702576242387295
1761468908475634400,6.538634521484375,-0.002238625194877386,0.033912014216184616,-0.004525472410023212
1761468908485616400,6.548616455078125,-0.005499972030520439,0.04445026069879532,0.000597355654463172
1761468908495599400,6.558599365234375,-0.008558080531656742,0.05275000259280205,-0.0015131996478885412
1761468908505581300,6.568581298828125,-0.012910239398479462,0.05104408785700798,-0.006395662669092417
1761468908515564500,6.578564453125,-0.014069778844714165,0.0549437552690506,-0.012023987248539925
1761468908525547300,6.58854736328125,-0.008180168457329273,0.05480555444955826,-0.016214147210121155
1761468908535529500,6.598529541015625,-0.00041359197348356247,0.04820730537176132,-0.01888955757021904
1761468908545512400,6.608512451171875,0.0017967191524803638,0.0348869152367115,-0.020976530387997627
1761468908555495200,6.6184951171875,0.0013181488029658794,0.027272671461105347,-0.014110366813838482
1761468908565477400,6.628477294921875,0.0016956222243607044,0.032940346747636795,-0.0022303888108581305
1761468908575460400,6.63846044921875,0.002552361460402608,0.03475901857018471,-0.00023355078883469105
1761468908585443300,6.648443359375,0.00544792041182518,0.038153838366270065,-0.0048715341836214066
1761468908595425300,6.65842529296875,0.000011343508958816528,0.043207719922065735,-0.0004962265957146883
1761468908605408500,6.668408447265625,-0.007295341696590185,0.04525298997759819,0.000483963405713439
1761468908615391200,6.67839111328125,-0.008642634376883507,0.04900458827614784,-0.006820288486778736
1761468908625373400,6.68837353515625,-0.00887933000922203,0.04899130389094353,-0.005548511631786823
1761468908635356400,6.6983564453125,-0.007513927295804024,0.05033433809876442,-0.009264154359698296
1761468908645339100,6.708339111328125,-0.006861370988190174,0.04421229660511017,-0.006203323602676392
1761468908655321300,6.7183212890625,-0.007876834832131863,0.037746675312519073,-0.004473866894841194
1761468908665304300,6.72830419921875,-0.004648616071790457,0.040142569690942764,-0.0011377534829080105
1761468908675287300,6.738287353515625,-0.000007525552064180374,0.04336925223469734,-0.0007292246446013451
1761468908685269200,6.748269287109375,0.0034765435848385096,0.0414263978600502,-0.006068299524486065
1761468908695252500,6.75825244140625,0.02750411443412304,0.04510475695133209,-0.019405676051974297
1761468908705235200,6.768235107421875,0.008628218434751034,0.027475984767079353,-0.02719530649483204
1761468908715217400,6.778217529296875,0.006573056802153587,0.03244118019938469,-0.023369941860437393
1761468908725200400,6.788200439453125,0.013843486085534096,0.039572592824697495,-0.022825593128800392
1761468908735183400,6.798183349609375,0.013032021000981331,0.03475067391991615,-0.02600354328751564
1761468908745165300,6.808165283203125,0.019123848527669907,0.030711252242326736,-0.029634909704327583
1761468908755148300,6.818148193359375,0.014414580538868904,0.02940656989812851,-0.02649184688925743
1761468908765131300,6.82813134765625,0.01449647918343544,0.03318619355559349,-0.020762737840414047
1761468908775113500,6.838113525390625,0.014725243672728539,0.04558027908205986,-0.015499797649681568
1761468908785096400,6.848096435546875,0.009406296536326408,0.04048534855246544,-0.014946451410651207
1761468908795079200,6.8580791015625,0.008829455822706223,0.036724165081977844,-0.02145308628678322
1761468908805061400,6.868061279296875,0.01853499934077263,0.03391529992222786,-0.027178674936294556
1761468908815044400,6.87804443359375,0.02216142602264881,0.03498242795467377,-0.028786158189177513
1761468908825027300,6.88802734375,0.02149895392358303,0.030620349571108818,-0.026780178770422935
1761468908835009300,6.89800927734375,0.023610573261976242,0.019891006872057915,-0.030678778886795044
1761468908844992500,6.907992431640625,0.01796087995171547,0.01881573535501957,-0.02867824025452137
1761468908854975200,6.917975341796875,0.015705447643995285,0.023595044389367104,-0.015764573588967323
1761468908864957400,6.92795751953125,0.010079140774905682,0.023773685097694397,-0.002655282150954008
1761468908874940400,6.9379404296875,0.004492095205932856,0.03347664698958397,0.007943300530314445
1761468908884922400,6.94792236328125,0.0010058879852294922,0.036795005202293396,0.00672661978751421
1761468908894905300,6.9579052734375,0.0009329174645245075,0.03296058624982834,0.001913754502311349
1761468908904888300,6.967888427734375,0.00267333397641778,0.024171505123376846,-0.00862967036664486
1761468908914870300,6.977870361328125,0.004054715856909752,0.02876545675098896,-0.014458265155553818
1761468908924853200,6.987853271484375,-0.003882891498506069,0.02894359454512596,-0.009188993833959103
1761468908934836500,6.99783642578125,-0.002547049894928932,0.03423476591706276,-0.00610425416380167
1761468908944818200,7.007818115234375,-0.0008922601118683815,0.030928004533052444,-0.006868403870612383
1761468908954801400,7.017801513671875,-0.0020267670042812824,0.030000954866409302,-0.012658381834626198
1761468908964784400,7.027784423828125,-0.004737864714115858,0.028595075011253357,-0.009668717160820961
1761468908974766300,7.037766357421875,-0.013163840398192406,0.020695339888334274,-0.0007415355648845434
1761468908984749300,7.047749267578125,-0.007938900962471962,0.01697254553437233,0.004636244848370552
1761468908994732300,7.057732177734375,-0.00997888296842575,0.016474001109600067,0.01160041056573391
1761468909004714200,7.06771435546875,-0.005922882817685604,0.008519422262907028,0.011903539299964905
1761468909014697200,7.077697265625,-0.0009688702411949635,0.016329143196344376,0.020616604015231133
1761468909024680400,7.087680419921875,-0.002558669075369835,0.028485722839832306,0.022813180461525917
1761468909034662100,7.097662109375,-0.0015935390256345272,0.02430802211165428,0.021134857088327408
1761468909044645400,7.107645263671875,-0.005851193331182003,0.020071692764759064,0.018357975408434868
1761468909054628400,7.11762841796875,-0.006267445161938667,0.028759723529219627,0.019068241119384766
1761468909064610300,7.1276103515625,-0.0035120551474392414,0.02058572694659233,0.00531387235969305
1761468909074593300,7.13759326171875,0.0034366650506854057,0.006070699542760849,-0.006474610418081284
1761468909084576300,7.147576171875,0.00868686381727457,-0.0018485853215679526,-0.010089763440191746
1761468909094558200,7.15755810546875,0.007986718788743019,-0.014765448868274689,-0.009876711294054985
1761468909104541200,7.167541259765625,0.0025080638006329536,-0.027867402881383896,-0.0013420783216133714
1761468909114524400,7.1775244140625,-0.003251821268349886,-0.029196320101618767,0.009258633479475975
1761468909124506000,7.187506103515625,-0.008784578181803226,-0.026322919875383377,0.01835836097598076
1761468909134489300,7.1974892578125,-0.005249498412013054,-0.021752137690782547,0.026749182492494583
1761468909144472300,7.207472412109375,-0.00449075223878026,-0.01691650226712227,0.031140971928834915
1761468909154454300,7.217454345703125,-0.0009325030259788036,-0.019470473751425743,0.03232954069972038
1761468909164437200,7.227437255859375,0.0037520830519497395,-0.028030358254909515,0.014713380485773087
1761468909174420500,7.23742041015625,0.005452245008200407,-0.03377852588891983,0.004914279095828533
1761468909184402200,7.247402099609375,0.0025651806499809027,-0.031183909624814987,0.0064445603638887405
1761468909194385400,7.257385498046875,0.003506874432787299,-0.03831372410058975,0.007873879745602608
1761468909204368400,7.267368408203125,0.0048027122393250465,-0.04143631085753441,0.004693740047514439
1761468909214350300,7.277350341796875,0.0048117670230567455,-0.045332517474889755,-0.0009175403974950314
1761468909224333300,7.287333251953125,0.0038715593982487917,-0.050867147743701935,-0.0020766661036759615
1761468909234315500,7.2973154296875,0.00021370779722929,-0.03850608691573143,0.0020059600938111544
1761468909244298200,7.30729833984375,-0.0015765796415507793,-0.03606295585632324,0.009290444664657116
1761468909254281200,7.31728125,-0.007168685086071491,-0.04200020805001259,0.009089642204344273
1761468909264263400,7.327263427734375,-0.00835607573390007,-0.048566706478595734,0.010972881689667702
1761468909274246100,7.33724609375,-0.007679366506636143,-0.04792861267924309,0.016426503658294678
1761468909284229400,7.3472294921875,-0.01219882257282734,-0.04937035217881203,0.0234065018594265
1761468909294211300,7.35721142578125,-0.013761831447482109,-0.053204502910375595,0.02563956193625927
1761468909304194600,7.367194580078125,-0.010499265044927597,-0.04781737178564072,0.03471717983484268
1761468909314177300,7.37717724609375,-0.00575990229845047,-0.04396830499172211,0.03289158642292023
1761468909324159500,7.387159423828125,0.00048507098108530045,-0.04829387739300728,0.02376507967710495
1761468909334142500,7.397142578125,-0.00023238454014062881,-0.047493599355220795,0.022418851032853127
1761468909344125200,7.407125244140625,-0.004565387964248657,-0.04165530204772949,0.01995806209743023
1761468909354107400,7.417107421875,-0.010726344771683216,-0.04748868942260742,0.013978465460240841
1761468909364090400,7.42709033203125,-0.015211629681289196,-0.04185890033841133,0.011582656763494015
1761468909374073300,7.4370732421875,-0.01916935294866562,-0.0392141155898571,0.012944331392645836
1761468909384055300,7.44705517578125,-0.01884433440864086,-0.037879813462495804,0.02125750668346882
1761468909394038500,7.45703857421875,-0.02004515379667282,-0.04822646081447601,0.0242032278329134
1761468909404021200,7.467021240234375,-0.02577137015759945,-0.05837837606668472,0.025638258084654808
1761468909414003500,7.47700341796875,-0.02048712782561779,-0.05388855189085007,0.034454651176929474
1761468909423986400,7.486986328125,-0.019153190776705742,-0.04115453362464905,0.03158213943243027
1761468909433969200,7.49696923828125,-0.015305189415812492,-0.04088102653622627,0.023262156173586845
1761468909443951000,7.506951171875,-0.015649257227778435,-0.03762437030673027,0.01858268864452839
1761468909453934000,7.51693408203125,-0.012626303359866142,-0.04555046930909157,0.020373931154608727
1761468909463917300,7.526917236328125,-0.013899600133299828,-0.05574626475572586,0.01221909373998642
1761468909473899000,7.53689892578125,-0.013841010630130768,-0.053426649421453476,0.006710877176374197
1761468909483882200,7.54688232421875,-0.005130301229655743,-0.03965103253722191,0.011853470467031002
1761468909493864200,7.5568642578125,-0.002804030664265156,-0.04103374481201172,0.004911941476166248
1761468909503847200,7.56684716796875,-0.0015764134004712105,-0.04873819276690483,0.004219638183712959
1761468909513830100,7.576830078125,0.007987530902028084,-0.044184718281030655,0.003026009537279606
1761468909523812400,7.586812255859375,0.005478385835886002,-0.03311551362276077,0.002467395970597863
1761468909533795000,7.596795166015625,0.006113549694418907,-0.04566432908177376,-0.005797990597784519
1761468909543778300,7.6067783203125,0.0052739521488547325,-0.04641595855355263,-0.0017469677841290832
1761468909553760300,7.61676025390625,0.0055019184947013855,-0.037014201283454895,0.002775345928966999
1761468909563743200,7.6267431640625,0.008930349722504616,-0.04402169585227966,-0.0016096365870907903
1761468909573726200,7.636726318359375,0.00823153555393219,-0.0390959158539772,-0.005975356325507164
1761468909583708200,7.646708251953125,0.008256902918219566,-0.02869131788611412,-0.005118322558701038
1761468909593691100,7.656691162109375,0.01215497124940157,-0.01803228259086609,-0.007133536506444216
1761468909603674000,7.666674072265625,0.017688389867544174,-0.02462911233305931,-0.026100657880306244
1761468909613656300,7.67665625,0.013810827396810055,-0.0386677011847496,-0.038079023361206055
1761468909623639000,7.68663916015625,0.016024770215153694,-0.03544631227850914,-0.0346008762717247
1761468909633622300,7.696622314453125,0.015722502022981644,-0.03823357820510864,-0.024532796815037727
1761468909643604200,7.706604248046875,0.01960625872015953,-0.032865010201931,-0.016251932829618454
1761468909653587200,7.716587158203125,0.018229937180876732,-0.02394954487681389,-0.008635291829705238
1761468909663570200,7.726570068359375,0.016668666154146194,-0.011425693519413471,-0.00316045549698174
1761468909673552400,7.736552490234375,0.019853007048368454,-0.004705472849309444,-0.000479717506095767
1761468909683535000,7.74653515625,0.023833170533180237,-0.023865947499871254,-0.015041051432490349
1761468909693518000,7.75651806640625,0.01199648529291153,-0.040966372936964035,-0.019574550911784172
1761468909703500300,7.766500244140625,0.006195589900016785,-0.03899935632944107,-0.0064001018181443214
1761468909713483000,7.77648291015625,0.0048706671223044395,-0.030717460438609123,-0.008616384118795395
1761468909723466200,7.78646630859375,0.0073293233290314674,-0.022220902144908905,-0.008571909740567207
1761468909733448200,7.7964482421875,0.008669160306453705,-0.013265490531921387,-0.005312466993927956
1761468909743431200,7.80643115234375,0.014733051881194115,-0.004380581434816122,-0.006524352356791496
1761468909753414100,7.8164140625,0.020320629701018333,-0.00688129011541605,-0.014087196439504623
1761468909763396400,7.826396240234375,0.014021022245287895,-0.01357682328671217,-0.019443199038505554
1761468909773379300,7.83637939453125,0.008201216347515583,-0.010816456750035286,-0.010249967686831951
1761468909783361300,7.846361328125,0.0033646347001194954,-0.003468139795586467,-0.00702038174495101
1761468909793344300,7.85634423828125,0.0036210971884429455,0.0027175843715667725,-0.006492276675999165
1761468909803327200,7.8663271484375,0.006333485245704651,0.0011459016241133213,-0.002727395622059703
1761468909813309200,7.87630908203125,0.010457123629748821,-0.006450498476624489,-0.008716578595340252
1761468909823292200,7.886292236328125,0.014449509792029858,-0.01062165666371584,-0.009436934255063534
1761468909833275400,7.896275390625,0.01454911194741726,-0.02424692176282406,-0.005241923034191132
1761468909843257000,7.906257080078125,0.012930315919220448,-0.028727088123559952,-0.004679344594478607
1761468909853240300,7.916240234375,0.006829546298831701,-0.01566801220178604,-0.004155767150223255
1761468909863223300,7.926223388671875,0.006676864344626665,-0.017883531749248505,-0.010366640985012054
1761468909873205200,7.936205322265625,0.0012048673816025257,-0.014755116775631905,-0.0160644743591547
1761468909883188200,7.946188232421875,-0.009834833443164825,-0.014567282982170582,-0.01068631000816822
1761468909893171200,7.956171142578125,-0.008638540282845497,-0.008724573999643326,-0.007388783618807793
1761468909903153200,7.966153076171875,-0.008279392495751381,-0.0013545977417379618,-0.005135011859238148
1761468909913136000,7.97613623046875,-0.009194187819957733,-0.011308162473142147,-0.0010912679135799408
1761468909923119400,7.986119384765625,-0.007583650294691324,-0.011427011340856552,0.00425351969897747
1761468909933101000,7.99610107421875,-0.002988897729665041,-0.011200111359357834,0.005827980116009712
1761468909943084300,8.006084228515626,-0.005630207248032093,-0.022061405703425407,-0.0029090233147144318
1761468909953067300,8.0160673828125,-0.0058895982801914215,-0.017437361180782318,0.001427668146789074
1761468909963049200,8.02604931640625,-0.01076444424688816,-0.010379280894994736,0.012214891612529755
1761468909973032200,8.0360322265625,-0.016995443031191826,-0.008855685591697693,0.018409138545393944
1761468909983015400,8.046015380859375,-0.01967461034655571,-0.010558261536061764,0.024203317239880562
1761468909992997000,8.0559970703125,-0.02678738161921501,-0.007474320940673351,0.027529606595635414
1761468910002980400,8.06598046875,-0.022983964532613754,-0.019395209848880768,0.025229640305042267
1761468910012963300,8.07596337890625,-0.02104278653860092,-0.03395257890224457,0.01502067968249321
1761468910022945300,8.0859453125,-0.006663243751972914,-0.010198608972132206,0.016261152923107147
1761468910032928300,8.09592822265625,0.0002346094697713852,0.06563063710927963,0.1944977343082428
1761468910042910200,8.10591015625,-0.031612370163202286,-0.050405602902173996,0.08831661939620972
1761468910052893200,8.11589306640625,-0.016672302037477493,-0.08071263879537582,-0.030959712341427803
1761468910062876200,8.125876220703125,-0.015468553639948368,-0.01365345623344183,-0.025337189435958862
1761468910072858000,8.135858154296875,-0.029801953583955765,0.014339563436806202,0.006612221710383892
1761468910082841000,8.145841064453125,-0.02466055192053318,-0.0023599700070917606,-0.0033661990892142057
1761468910092824300,8.15582421875,-0.014635348692536354,-0.000808412441983819,-0.014971721917390823
1761468910102806000,8.165805908203126,-0.00926135666668415,0.004366646055132151,-0.019921530038118362
1761468910112789200,8.175789306640626,-0.007820319384336472,-0.008250612765550613,-0.030295075848698616
1761468910122772200,8.185772216796876,-0.002996311988681555,-0.009140266105532646,-0.03599187359213829
1761468910132754400,8.19575439453125,-0.003993666265159845,0.00524826068431139,-0.03452500328421593
1761468910142737200,8.205737060546875,-0.004798193462193012,0.013642949052155018,-0.01949835568666458
1761468910152720100,8.21572021484375,-0.007440315559506416,0.002489896724000573,-0.009729082696139812
1761468910162702300,8.225702392578125,-0.014179550111293793,-0.0008398857899010181,0.0015015625394880772
1761468910172685000,8.23568505859375,-0.00731924781575799,-0.005425049923360348,0.0010786522179841995
