time,seconds_elapsed,z,y,x
1761468943703064300,0.119064208984375,0.007686045952141285,-0.0019996818155050278,0.0036333685275167227
1761468943713047000,0.129047119140625,0.006431963760405779,-0.017631372436881065,0.0049654822796583176
1761468943723029200,0.139029296875,0.0008001355454325676,-0.01949271745979786,0.007382881827652454
1761468943733012200,0.14901220703125,0.0013591330498456955,-0.007427265867590904,0.008646285161376
1761468943742994200,0.158994140625,-0.003509062808007002,-0.0008137868717312813,0.007302725687623024
1761468943752977200,0.16897705078125,-0.002698130439966917,0.0036126533523201942,0.0029519200325012207
1761468943762960100,0.178960205078125,0.0008132155053317547,0.006514404900372028,0.00017184275202453136
1761468943772942000,0.188942138671875,0.0018630335107445717,0.0070214709267020226,0.0008205887861549854
1761468943782925000,0.198925048828125,-0.004839944653213024,0.0037408294156193733,0.0044778212904930115
1761468943792908300,0.208908203125,-0.003358694724738598,-0.008984019979834557,0.001997885759919882
1761468943802890000,0.218889892578125,-0.007496980018913746,-0.005713658407330513,0.006637644488364458
1761468943812873200,0.228873291015625,-0.0074120257049798965,0.001500844955444336,0.00964675098657608
1761468943822856200,0.238856201171875,-0.0025473404675722122,0.005243333056569099,0.008822384290397167
1761468943832838100,0.248838134765625,-0.0016341423615813255,0.004251305013895035,-0.000549013027921319
1761468943842821000,0.258821044921875,0.0008449070155620575,0.006380714476108551,-0.0023203431628644466
1761468943852804000,0.26880419921875,0.003256133059039712,0.002918604528531432,-0.0058362483978271484
1761468943862786000,0.2787861328125,0.001275145448744297,0.003031583270058036,-0.0021595796570181847
1761468943872769000,0.28876904296875,-0.0015427451580762863,-0.004551767837256193,-0.0004314545076340437
1761468943882752300,0.298752197265625,-0.0003876597620546818,-0.018924668431282043,0.0008980280254036188
1761468943892734000,0.30873388671875,-0.004352041520178318,-0.010043825954198837,0.009977809153497219
1761468943902717200,0.31871728515625,-0.00250935647636652,0.0047864122316241264,0.0122002474963665
1761468943912699100,0.32869921875,0.0007626032456755638,0.00024519069120287895,0.0031665395945310593
1761468943922682000,0.33868212890625,-0.0030804602429270744,0.0036589147057384253,0.0026827643159776926
1761468943932665000,0.3486650390625,-0.00465012714266777,0.00940788071602583,0.010329232551157475
1761468943942647300,0.358647216796875,-0.007852908223867416,0.0005911639891564846,0.008795778267085552
1761468943952630000,0.368630126953125,-0.0041630989871919155,-0.01711219921708107,-0.009403465315699577
1761468943962613000,0.378613037109375,-0.005254555027931929,-0.014207915402948856,-0.008513047359883785
1761468943972595200,0.38859521484375,-0.009784059599041939,-0.007903946563601494,0.004279446788132191
1761468943982578000,0.398577880859375,-0.010530364699661732,-0.003309517167508602,0.015604477375745773
1761468943992561200,0.40856103515625,-0.005405910313129425,-0.00882865209132433,0.01407608948647976
1761468944002543000,0.418543212890625,-0.006350389216095209,-0.00640482734888792,0.01061969343572855
1761468944012526000,0.428526123046875,-0.009116081520915031,-0.00019460171461105347,0.020664604380726814
1761468944022509000,0.438509033203125,-0.004614430479705334,-0.0014291908591985703,0.020619714632630348
1761468944032491300,0.4484912109375,-0.0011975951492786407,-0.015249665826559067,0.010641115717589855
1761468944042474000,0.458473876953125,-0.0026854239404201508,-0.02402964048087597,0.0034295781515538692
1761468944052457200,0.468457275390625,-0.008503366261720657,-0.02265944518148899,0.018632233142852783
1761468944062439200,0.478439208984375,-0.014679181389510632,-0.01694321073591709,0.027751754969358444
1761468944072422100,0.488422119140625,-0.019046496599912643,-0.013124238699674606,0.027689170092344284
1761468944082404000,0.498404052734375,-0.018452979624271393,0.0077638085931539536,0.02570182830095291
1761468944092387000,0.508386962890625,-0.014907513745129108,0.012648845091462135,0.023129479959607124
1761468944102370000,0.5183701171875,-0.013574611395597458,0.012400869280099869,0.01608014479279518
1761468944112352300,0.528352294921875,-0.012225721031427383,0.007091059815138578,0.010713876225054264
1761468944122335200,0.538335205078125,-0.0143574895337224,0.005625501275062561,0.015327787958085537
1761468944132318000,0.54831787109375,-0.013358804397284985,0.012438932433724403,0.018535567447543144
1761468944142300200,0.558300048828125,-0.01003502868115902,0.009890308603644371,0.010236049070954323
1761468944152283100,0.568283203125,-0.007968948222696781,0.016853144392371178,0.0030084962490946054
1761468944162266000,0.57826611328125,-0.00674221757799387,0.01236485131084919,0.0037225261330604553
1761468944172248000,0.588248046875,-0.0034305769950151443,0.00604916550219059,0.004028523340821266
1761468944182231300,0.598231201171875,-0.0028154593892395496,-0.0035291635431349277,0.0016563346143811941
1761468944192214000,0.608214111328125,-0.002973384689539671,-0.006799259223043919,-0.0024939358700066805
1761468944202196200,0.6181962890625,0.0007581007666885853,0.0036974477116018534,0.001445661298930645
1761468944212179200,0.62817919921875,0.0006124256178736687,0.01771552860736847,0.0044630225747823715
1761468944222162000,0.638161865234375,0.0009412341751158237,0.017670096829533577,0.005508969537913799
1761468944232144100,0.64814404296875,-0.0013573402538895607,0.014426632784307003,0.007859209552407265
1761468944242127000,0.658127197265625,-0.003000953234732151,0.013771025463938713,0.006496266461908817
1761468944252109000,0.668109130859375,-0.003571135923266411,0.01110786385834217,0.004754559136927128
1761468944262092000,0.678092041015625,-0.0030693751759827137,0.0017029005102813244,0.0013492293655872345
1761468944272075300,0.6880751953125,-0.0011830581352114677,0.008042821660637856,0.0008512185886502266
1761468944282057000,0.698056884765625,0.0007127691060304642,0.023667573928833008,0.003482575062662363
1761468944292040200,0.708040283203125,0.003274730173870921,0.027755793184041977,0.00006920145824551582
1761468944302023200,0.718023193359375,0.005980212241411209,0.020089976489543915,-0.0039678611792624
1761468944312005000,0.728005126953125,0.003222775412723422,0.01602519303560257,-0.005404636729508638
1761468944321988000,0.737988037109375,-0.0005382397212088108,0.012116016820073128,0.0020715652499347925
1761468944331971000,0.74797119140625,-0.004268795717507601,0.029620444402098656,0.01089408528059721
1761468944341953000,0.757953125,-0.008193526417016983,0.02741106040775776,0.007123046554625034
1761468944351936000,0.76793603515625,-0.01190410926938057,0.016561342403292656,-0.0020025409758090973
1761468944361919200,0.777919189453125,-0.00629472965374589,0.009328063577413559,-0.0056189317256212234
1761468944371901000,0.78790087890625,-0.003575375769287348,0.005742915906012058,-0.0029589661862701178
1761468944381884200,0.79788427734375,-0.0007166387513279915,0.01298876665532589,0.0003210729919373989
1761468944391866000,0.8078662109375,0.0034229790326207876,0.018607504665851593,-0.00466782646253705
1761468944401849000,0.81784912109375,0.006239548325538635,0.04072971269488335,-0.00460015470162034
1761468944411832000,0.82783203125,-0.0015243650414049625,0.04582221060991287,-0.004987910855561495
1761468944421814300,0.837814208984375,0.005007493309676647,0.04848508909344673,-0.009246950969099998
1761468944431797000,0.847796875,-0.001601140946149826,0.04899534955620766,-0.014714154414832592
1761468944441780000,0.857780029296875,-0.000500023365020752,0.04113590717315674,-0.017146244645118713
1761468944451762200,0.86776220703125,0.0017633968964219093,0.036953411996364594,-0.010141330771148205
1761468944461745000,0.877744873046875,0.009144648909568787,0.041592229157686234,-0.009251220151782036
1761468944471727900,0.887727783203125,0.0032364255748689175,0.04652174189686775,-0.008744686841964722
1761468944481709800,0.897709716796875,0.008230273611843586,0.04522446542978287,-0.011421547271311283
1761468944491692800,0.90769287109375,-0.0012588356621563435,0.059821516275405884,-0.011335261166095734
1761468944501675800,0.91767578125,-0.001536038238555193,0.05951208621263504,-0.009971985593438148
1761468944511657700,0.92765771484375,-0.0056162672117352486,0.06273557245731354,-0.008558645844459534
1761468944521640700,0.937640625,-0.008062858134508133,0.05486409738659859,-0.010894179344177246
1761468944531622700,0.94762255859375,-0.000058727338910102844,0.04981660842895508,-0.013880648650228977
1761468944541605600,0.957605712890625,-0.0010005761869251728,0.04557530954480171,-0.016197748482227325
1761468944551588900,0.9675888671875,0.002151807537302375,0.04061117768287659,-0.020288895815610886
1761468944561570600,0.977570556640625,0.0017015780322253704,0.03858616203069687,-0.019430972635746002
1761468944571553800,0.9875537109375,-0.0002728896215558052,0.03393974527716637,-0.014870310202240944
1761468944581536800,0.997536865234375,0.0001511857844889164,0.03075665608048439,-0.007866106927394867
1761468944591518700,1.007518798828125,-0.006951198447495699,0.03646807000041008,-0.002451634034514427
1761468944601501700,1.017501708984375,-0.011590024456381798,0.03896909952163696,0.0057942187413573265
1761468944611484700,1.027484619140625,-0.017701447010040283,0.038199447095394135,0.01204678788781166
1761468944621466600,1.037466552734375,-0.01396133005619049,0.032963745296001434,0.007725918665528297
1761468944631449600,1.04744970703125,-0.008466962724924088,0.03368733078241348,0.0014874644111841917
1761468944641432800,1.057432861328125,-0.010032463818788528,0.022379014641046524,-0.014989236369729042
1761468944651414500,1.06741455078125,0.011206245049834251,0.01453653909265995,-0.03154344484210014
1761468944661397800,1.077397705078125,0.0001645013689994812,0.02010800689458847,-0.025103949010372162
1761468944671379700,1.087379638671875,-0.010890012606978416,0.02378476783633232,-0.01441402081400156
1761468944681362700,1.09736279296875,-0.016122370958328247,0.02854527346789837,0.0003957867156714201
1761468944691345700,1.107345703125,-0.023157909512519836,0.023935073986649513,0.011162148788571358
1761468944701328000,1.117327880859375,-0.018049489706754684,0.02889171987771988,0.007242981810122728
1761468944711310600,1.127310546875,-0.018120862543582916,0.03791823983192444,0.0026192013174295425
1761468944721293600,1.13729345703125,-0.014717373996973038,0.04920007288455963,0.00011068815365433693
1761468944731275800,1.14727587890625,-0.010429952293634415,0.03991469368338585,-0.002399873686954379
1761468944741258500,1.157258544921875,-0.008248802274465561,0.04207876697182655,-0.01320239994674921
1761468944751241700,1.16724169921875,0.0006099371239542961,0.04742719233036041,-0.016147855669260025
1761468944761223700,1.1772236328125,0.004186045844107866,0.04724029824137688,-0.01953757554292679
1761468944771206700,1.18720654296875,0.003996428567916155,0.040192507207393646,-0.02472754381597042
1761468944781189600,1.197189697265625,-0.0013512596487998962,0.03387686610221863,-0.02365347370505333
1761468944791171800,1.207171875,-0.006853616796433926,0.03213409334421158,-0.017010485753417015
1761468944801154800,1.21715478515625,-0.010884154587984085,0.03267333284020424,-0.007430945988744497
1761468944811136800,1.22713671875,-0.014797935262322426,0.04218374565243721,-0.0013922285288572311
1761468944821119700,1.23711962890625,-0.015286040492355824,0.048865724354982376,0.003425121773034334
1761468944831103000,1.24710302734375,-0.01249797735363245,0.05814657360315323,0.003567867446690798
1761468944841084700,1.257084716796875,-0.003582722507417202,0.0586669035255909,0.003935010172426701
1761468944851068000,1.26706787109375,-0.0029643364250659943,0.05441835895180702,0.004255920648574829
1761468944861051000,1.27705078125,-0.0014070412144064903,0.05162345990538597,0.0008732951246201992
1761468944871032800,1.28703271484375,-0.009026611223816872,0.049131542444229126,0.0012352187186479568
1761468944881015800,1.297015869140625,-0.013712122105062008,0.04571472853422165,-0.001499522477388382
1761468944890998800,1.306998779296875,-0.015323600731790066,0.05558600276708603,0.0019412816036492586
1761468944900980700,1.316980712890625,-0.018314074724912643,0.06420999020338058,0.009046035818755627
1761468944910963700,1.326963623046875,-0.014356616884469986,0.05281751602888107,0.011056455783545971
1761468944920947000,1.336947021484375,-0.004929459188133478,0.026605281978845596,-0.0013255545636639
1761468944930928600,1.3469287109375,-0.0031944098882377148,0.029805336147546768,-0.004592187702655792
1761468944940911900,1.356911865234375,-0.00524328975006938,0.032675374299287796,-0.0034788374323397875
1761468944950894800,1.366894775390625,-0.0020871772430837154,0.03594041243195534,-0.006651727482676506
1761468944960876800,1.376876708984375,-0.008240857161581516,0.03749450668692589,-0.0035684460308402777
1761468944970859800,1.38685986328125,-0.00980253517627716,0.018825747072696686,-0.005029189866036177
1761468944980841700,1.396841796875,0.00010928604751825333,0.023327181115746498,-0.008589217439293861
1761468944990824700,1.40682470703125,-0.0005594338290393353,0.034020837396383286,-0.003316957037895918
1761468945000807700,1.4168076171875,-0.00404640007764101,0.03180893138051033,-0.002347707748413086
1761468945010789600,1.42678955078125,-0.00009133946150541306,0.02987387776374817,-0.0019050902919843793
1761468945020772600,1.436772705078125,-0.002543698064982891,0.031025253236293793,-0.009345307014882565
1761468945030755800,1.446755859375,-0.001298404298722744,0.03433716297149658,-0.011002859100699425
1761468945040737500,1.456737548828125,-0.0059120445512235165,0.037318289279937744,-0.007540429476648569
1761468945050720800,1.466720703125,-0.006772778462618589,0.04783165082335472,0.0026256549172103405
1761468945060703700,1.476703857421875,-0.010808697901666164,0.051096875220537186,0.013820342719554901
1761468945070685700,1.486685791015625,-0.008670446462929249,0.04349381849169731,0.014922626316547394
1761468945080668700,1.496668701171875,-0.010107377544045448,0.03602290526032448,0.01686818152666092
1761468945090651000,1.50665087890625,-0.012592906132340431,0.024426167830824852,0.012420437298715115
1761468945100633600,1.516633544921875,-0.010157999582588673,0.0318109467625618,0.014159771613776684
1761468945110616600,1.526616455078125,-0.012051240541040897,0.046952348202466965,0.019858136773109436
1761468945120598800,1.536598876953125,-0.007477761711925268,0.007303502410650253,0.009981274604797363
1761468945130581500,1.54658154296875,0.021422863006591797,-0.0013922511134296656,-0.013823922723531723
1761468945140564700,1.556564697265625,-0.004649484064429998,0.05375782027840614,0.005913563072681427
1761468945150546700,1.566546630859375,-0.019988492131233215,0.07200659811496735,0.026308048516511917
1761468945160530000,1.576530029296875,-0.01952406018972397,0.05955659970641136,0.0312577486038208
1761468945170512600,1.5865126953125,-0.02651405707001686,0.054265428334474564,0.03679712489247322
1761468945180494800,1.596494873046875,-0.02594701573252678,0.03989157825708389,0.0321132130920887
1761468945190477800,1.606477783203125,-0.021156255155801773,0.040502239018678665,0.0419250950217247
1761468945200460800,1.616460693359375,-0.02770877443253994,0.02578141540288925,0.04997393116354942
1761468945210442800,1.62644287109375,-0.019311828538775444,0.013362298719584942,0.049806684255599976
1761468945220425700,1.63642578125,-0.01590108498930931,0.022224001586437225,0.05437267944216728
1761468945230407700,1.64640771484375,-0.013438193127512932,0.031108837574720383,0.060228437185287476
1761468945240390700,1.656390625,-0.014138903468847275,0.015595625154674053,0.05921962857246399
1761468945250374000,1.666373779296875,-0.014722935855388641,0.0028888843953609467,0.05604567378759384
1761468945260355600,1.67635546875,-0.02090434543788433,-0.0025194534100592136,0.0512627512216568
1761468945270338800,1.6863388671875,-0.02758914791047573,-0.004921891260892153,0.04850132018327713
1761468945280321800,1.69632177734375,-0.027835436165332794,-0.006119934841990471,0.0473581925034523
1761468945290303700,1.7063037109375,-0.02492832951247692,-0.0006793627981096506,0.04825887456536293
1761468945300286700,1.71628662109375,-0.014527369290590286,-0.003643257776275277,0.04229610040783882
1761468945310270000,1.72627001953125,-0.0035636690445244312,-0.017024843022227287,0.03411833196878433
1761468945320251600,1.736251708984375,0.004493369720876217,-0.021129634231328964,0.030925141647458076
1761468945330235000,1.74623486328125,0.00469204131513834,-0.026732124388217926,0.030077191069722176
1761468945340216600,1.756216552734375,0.010327457450330257,-0.04126118868589401,0.024867158383131027
1761468945350199800,1.76619970703125,0.003918293863534927,-0.037662193179130554,0.024793921038508415
1761468945360182800,1.776182861328125,-0.0018044738098978996,-0.04602779448032379,0.024098128080368042
1761468945370164700,1.786164794921875,-0.004134473390877247,-0.06398148834705353,0.016230884939432144
1761468945380147700,1.796147705078125,-0.01625901274383068,-0.053055040538311005,0.024743681773543358
1761468945390130700,1.806130615234375,-0.01427069678902626,-0.053837478160858154,0.026068605482578278
1761468945400112600,1.816112548828125,-0.01952299475669861,-0.01958668977022171,0.04360762611031532
1761468945410095600,1.826095703125,-0.013819835148751736,-0.03510146588087082,0.04055830463767052
1761468945420078800,1.836078857421875,-0.005856194533407688,-0.03703416511416435,0.028342967852950096
1761468945430060500,1.846060546875,-0.0017645140178501606,-0.02985934168100357,0.02324621193110943
1761468945440043800,1.856043701171875,0.0007334752008318901,-0.026591671630740166,0.0225601214915514
1761468945450026800,1.86602685546875,-0.0035899002104997635,-0.04260312765836716,0.02179020084440708
1761468945460008700,1.8760087890625,-0.0009597749449312687,-0.050436150282621384,0.02653352916240692
1761468945469992000,1.885991943359375,-0.0051369434222579,-0.04751652479171753,0.030727209523320198
1761468945479974700,1.895974609375,-0.006422172300517559,-0.04208700358867645,0.029628684744238853
1761468945489956900,1.905956787109375,-0.007977725006639957,-0.03453747555613518,0.031002076342701912
1761468945499939800,1.91593994140625,-0.008818840608000755,-0.02572602406144142,0.02515975758433342
1761468945509921800,1.925921875,-0.013574445620179176,-0.028318878263235092,0.028510548174381256
1761468945519904800,1.93590478515625,-0.008252530358731747,-0.03370893746614456,0.023382775485515594
1761468945529888000,1.945887939453125,-0.004004522226750851,-0.0293128564953804,0.023404613137245178
1761468945539869700,1.95586962890625,0.001955389278009534,-0.030186910182237625,0.02367471344769001
1761468945549853000,1.96585302734375,0.0033857731614261866,-0.03581630066037178,0.01801842637360096
1761468945559836000,1.9758359375,-0.00288035674020648,-0.03863988071680069,0.012173828668892384
1761468945569817900,1.98581787109375,-0.004644168075174093,-0.04002206400036812,0.015098778530955315
1761468945579800800,1.99580078125,-0.010114200413227081,-0.038393083959817886,0.01298085693269968
1761468945589783800,2.00578369140625,-0.00678285351023078,-0.0458880215883255,0.013172869570553303
1761468945599765800,2.015765869140625,-0.004589779768139124,-0.04981410875916481,0.011934017762541771
1761468945609748700,2.025748779296875,0.0018143232446163893,-0.05491859093308449,0.009074581786990166
1761468945619731000,2.03573095703125,0.0019388776272535324,-0.057094424962997437,0.008093356154859066
1761468945629713700,2.045713623046875,-0.00006834696978330612,-0.05968514829874039,0.0014287957455962896
1761468945639697000,2.05569677734375,-0.0011195302940905094,-0.06814800202846527,-0.0033130450174212456
1761468945649678800,2.065678955078125,-0.006300443783402443,-0.07666851580142975,-0.00782497227191925
1761468945659661800,2.075661865234375,-0.0037861978635191917,-0.07341908663511276,-0.0076279304921627045
1761468945669644800,2.085644775390625,0.003046408062800765,-0.07764632254838943,-0.008793861605226994
1761468945679627000,2.095626953125,0.004203063435852528,-0.08089468628168106,-0.012591231614351273
1761468945689609700,2.105609619140625,0.008231094107031822,-0.07501363009214401,-0.010815702378749847
1761468945699592700,2.1155927734375,0.005596740171313286,-0.06629587709903717,-0.010044950991868973
1761468945709575000,2.125574951171875,0.009911860339343548,-0.06573048233985901,-0.01126387994736433
1761468945719558000,2.135557861328125,0.008204462938010693,-0.060525499284267426,-0.011362450197339058
1761468945729540900,2.145540771484375,0.014812031760811806,-0.06289704144001007,-0.016147084534168243
1761468945739522800,2.155522705078125,0.022383343428373337,-0.057404033839702606,-0.019358647987246513
1761468945749505800,2.165505859375,0.003638683818280697,-0.0777476504445076,-0.024540361016988754
1761468945759488800,2.17548876953125,0.012837620452046394,-0.08727213740348816,-0.02849370613694191
1761468945769471000,2.185470947265625,0.01383390836417675,-0.0757925808429718,-0.031899359077215195
1761468945779453700,2.19545361328125,0.018228957429528236,-0.05429301783442497,-0.02250896953046322
1761468945789436000,2.205435791015625,0.021287864074110985,-0.05042078346014023,-0.01295035146176815
1761468945799419000,2.2154189453125,0.02077706903219223,-0.06529161334037781,-0.01594720594584942
1761468945809401900,2.22540185546875,0.022438883781433105,-0.056593723595142365,-0.020135825499892235
1761468945819383800,2.2353837890625,0.02285311371088028,-0.0517595037817955,-0.02048351615667343
1761468945829367000,2.245366943359375,0.030307302251458168,-0.054063934832811356,-0.02239992842078209
1761468945839349800,2.255349853515625,0.03164780139923096,-0.025776686146855354,-0.02109168842434883
1761468945849332000,2.26533203125,0.023640211671590805,-0.03217439725995064,-0.017328377813100815
1761468945859315000,2.27531494140625,0.022075602784752846,-0.04951637238264084,-0.02523450180888176
1761468945869297700,2.285297607421875,0.018200702965259552,-0.04027333855628967,-0.020499400794506073
1761468945879279900,2.29527978515625,0.017758198082447052,-0.027511682361364365,-0.012272514402866364
1761468945889262800,2.305262939453125,0.01763036474585533,-0.016503240913152695,-0.004459864925593138
1761468945899244800,2.315244873046875,0.024744436144828796,-0.000617514131590724,0.0029591659549623728
1761468945909227800,2.325227783203125,0.026252584531903267,-0.020797085016965866,-0.00678241066634655
1761468945919211000,2.3352109375,0.030304262414574623,-0.04330969601869583,-0.013164812698960304
1761468945929192700,2.345192626953125,0.03612406924366951,-0.01862885057926178,-0.005474402569234371
1761468945939176000,2.355176025390625,0.04237953573465347,-0.017909571528434753,-0.010156777687370777
1761468945949159000,2.365158935546875,0.038233526051044464,-0.003810796421021223,-0.019846688956022263
1761468945959140900,2.375140869140625,0.027037328109145164,-0.008920337073504925,-0.013536062091588974
1761468945969123800,2.385123779296875,0.02159915305674076,-0.01698225736618042,-0.013044176623225212
1761468945979106800,2.39510693359375,0.003093867329880595,-0.02852349542081356,-0.01112433522939682
1761468945989088800,2.4050888671875,0.000904216431081295,-0.032296665012836456,-0.004487738013267517
1761468945999071700,2.41507177734375,0.00039031822234392166,-0.002193198073655367,0.003518132958561182
1761468946009055000,2.425054931640625,0.003760548308491707,0.013604407198727131,-0.000157827977091074
1761468946019036700,2.43503662109375,0.0038318526931107044,0.02274448052048683,0.004640035331249237
1761468946029020000,2.44502001953125,0.00008931243792176247,0.04252111539244652,0.017569683492183685
1761468946039001900,2.455001953125,-0.0016321782022714615,0.029627690091729164,0.016474269330501556
1761468946048984800,2.46498486328125,-0.005964608862996101,0.023926928639411926,0.022974779829382896
1761468946058967800,2.4749677734375,-0.012743871659040451,0.011497893370687962,0.018131058663129807
1761468946068950000,2.484949951171875,-0.01700040139257908,-0.012594127096235752,0.012435887940227985
1761468946078932700,2.4949326171875,-0.015792405232787132,-0.019680846482515335,0.0042397934012115
1761468946088915700,2.504915771484375,-0.014499440789222717,-0.02355494722723961,0.002393689937889576
1761468946098898000,2.51489794921875,-0.008621333166956902,-0.000900493934750557,0.003350775456055999
1761468946108880600,2.524880615234375,-0.010748134925961494,0.016857199370861053,0.009360997937619686
1761468946118864000,2.53486376953125,-0.011465389281511307,0.03371734544634819,0.018927862867712975
1761468946128845800,2.544845703125,-0.02345227636396885,0.033986326307058334,0.029103802517056465
1761468946138828800,2.554828857421875,-0.026348164305090904,0.014705062843859196,0.022915685549378395
1761468946148811800,2.564811767578125,-0.02380378171801567,0.005542990751564503,0.01506202295422554
1761468946158794000,2.5747939453125,-0.012427068315446377,-0.005513282958418131,0.007218982093036175
1761468946168776700,2.584776611328125,-0.002918783575296402,0.011340798810124397,0.011685369536280632
1761468946178759000,2.594759033203125,-0.007996620610356331,-0.01225920207798481,0.0037632922176271677
1761468946188742000,2.604741943359375,-0.009055759757757187,-0.008691098541021347,-0.004461348056793213
1761468946198724900,2.614724853515625,-0.008055456914007664,-0.003734527388587594,-0.002145754173398018
1761468946208706800,2.624706787109375,-0.010025663301348686,0.0018330772873014212,0.006468240171670914
1761468946218689800,2.634689697265625,-0.016313839703798294,0.0011276283767074347,0.006558369379490614
1761468946228672800,2.6446728515625,-0.01247436087578535,-0.015754682943224907,-0.0014303148491308093
1761468946238655000,2.654655029296875,-0.01973152905702591,0.006901867687702179,0.0006785835139453411
1761468946248638000,2.664637939453125,-0.006975254975259304,-0.006239766720682383,-0.01182628981769085
1761468946258621000,2.674620849609375,0.0059563880786299706,0.0018103886395692825,-0.017524296417832375
1761468946268603000,2.684602783203125,-0.000545186921954155,-0.021752461791038513,-0.0245241466909647
1761468946278585900,2.6945859375,0.005686409771442413,-0.013789188116788864,-0.028371797874569893
1761468946288569000,2.704569091796875,-0.009061377495527267,-0.006067885085940361,-0.017734065651893616
1761468946298550800,2.71455078125,-0.01525243278592825,-0.012598508968949318,-0.01894362084567547
1761468946308534000,2.724533935546875,-0.026632118970155716,-0.0052425917237997055,-0.014625038020312786
1761468946318517000,2.73451708984375,-0.03131399676203728,0.0032548815943300724,-0.0032028253190219402
1761468946328499000,2.7444990234375,-0.03006470762193203,0.046387702226638794,0.023337438702583313
1761468946338482000,2.75448193359375,-0.03163417428731918,0.12784965336322784,0.07291077077388763
1761468946348463900,2.7644638671875,-0.029526282101869583,0.10551638156175613,0.08183474838733673
1761468946358446800,2.77444677734375,-0.011986680328845978,0.037043578922748566,0.03891024366021156
1761468946368429800,2.784429931640625,0.0019933173898607492,0.007314444985240698,0.0009884268511086702
1761468946378411800,2.794411865234375,-0.003956817090511322,-0.0007576083298772573,-0.00506537314504385
1761468946388394800,2.804394775390625,-0.012291978113353252,-0.0005671922117471695,0.005684209987521172
1761468946398378000,2.8143779296875,-0.025019526481628418,-0.005387285258620977,0.01951080560684204
1761468946408359700,2.824359619140625,-0.03562796115875244,0.0024440062697976828,0.030734697356820107
1761468946418343000,2.834343017578125,-0.037882670760154724,0.0026217158883810043,0.027468297630548477
1761468946428326000,2.844325927734375,-0.03050864487886429,0.012433066964149475,0.017960544675588608
1761468946438307800,2.854307861328125,-0.02024618536233902,0.02123734913766384,0.007478526793420315
1761468946448290800,2.864290771484375,-0.014476449228823185,0.01935635879635811,-0.0009455850813537836
1761468946458273800,2.874273681640625,-0.013585930690169334,0.01955327019095421,-0.0012617335887625813
1761468946468255500,2.88425537109375,-0.01800811104476452,0.004665134474635124,-0.0036921342834830284
1761468946478238500,2.894238525390625,-0.012217966839671135,0.020365078002214432,-0.004562279209494591
1761468946488220700,2.904220703125,-0.016959991306066513,0.00618960615247488,0.0012836260721087456
1761468946498203400,2.914203369140625,-0.012664919719099998,0.013117634691298008,0.0008436385542154312
1761468946508186600,2.9241865234375,-0.013173848390579224,0.009623567573726177,0.003977912478148937
1761468946518168600,2.93416845703125,-0.008452522568404675,0.0019178958609700203,-0.000571798300370574
1761468946528151600,2.944151611328125,-0.0024217944592237473,-0.005074233748018742,-0.008628658950328827
1761468946538134500,2.954134521484375,-0.000563428271561861,-0.003956638742238283,-0.007896528579294682
1761468946548116700,2.96411669921875,0.0006488426588475704,-0.010808419436216354,-0.01146889291703701
1761468946558099500,2.974099365234375,0.0038849373813718557,-0.011256307363510132,-0.018744055181741714
1761468946568082700,2.984082763671875,0.002904361579567194,-0.003314228728413582,-0.01804790273308754
1761468946578064600,2.994064697265625,0.0069890557788312435,0.008082184940576553,-0.015887286514043808
1761468946588047600,3.004047607421875,0.003012157278135419,0.009482474997639656,-0.022899122908711433
1761468946598029600,3.014029541015625,0.004590519238263369,0.007129409350454807,-0.025017280131578445
1761468946608012800,3.0240126953125,0.008388719521462917,-0.00416692066937685,-0.022009238600730896
1761468946617995500,3.03399560546875,0.012238847091794014,-0.012928741052746773,-0.017895132303237915
1761468946627977700,3.043977783203125,0.01077011413872242,-0.006591483019292355,-0.014507059939205647
1761468946637960700,3.053960693359375,0.010549100115895271,-0.0018526341300457716,-0.008277392014861107
1761468946647943400,3.063943359375,0.01722724363207817,0.0009918883442878723,-0.01163377333432436
1761468946657925600,3.073925537109375,0.01778785139322281,-0.008990834467113018,-0.01702105440199375
1761468946667908600,3.08390869140625,0.025888388976454735,-0.02322729490697384,-0.023604920133948326
1761468946677891600,3.0938916015625,0.026785649359226227,-0.013283786363899708,-0.02693232148885727
1761468946687873500,3.10387353515625,0.02470358833670616,-0.009524734690785408,-0.02284250408411026
1761468946697856800,3.113856689453125,0.02039710246026516,-0.019172783941030502,-0.014739188365638256
1761468946707839700,3.12383984375,0.015721390023827553,-0.010663717985153198,-0.00910527165979147
1761468946717821700,3.13382177734375,0.011536743491888046,-0.009890241548418999,-0.006667390465736389
1761468946727804700,3.1438046875,0.014376470819115639,-0.003380144014954567,-0.01052471250295639
1761468946737786600,3.15378662109375,0.018971949815750122,-0.030942179262638092,-0.020343288779258728
1761468946747769600,3.16376953125,0.01641877554357052,-0.01846500299870968,-0.021040502935647964
1761468946757752600,3.173752685546875,0.022798489779233932,-0.012684822082519531,-0.02337224781513214
1761468946767734500,3.183734619140625,0.023913288488984108,0.003596678376197815,-0.026336614042520523
1761468946777717500,3.193717529296875,0.024764496833086014,-0.008390693925321102,-0.03483129292726517
1761468946787700700,3.20370068359375,0.026828447356820107,-0.03904074802994728,-0.043835438787937164
1761468946797682400,3.213682373046875,0.029608292505145073,-0.0345957949757576,-0.0365619957447052
1761468946807665700,3.223665771484375,0.0294096190482378,-0.029896650463342667,-0.03408019617199898
1761468946817648600,3.233648681640625,0.030331846326589584,0.0027758057694882154,-0.027042318135499954
1761468946827630600,3.243630615234375,0.030444763600826263,0.01168727595359087,-0.02592405676841736
1761468946837613600,3.253613525390625,0.015571022406220436,0.0006331605836749077,-0.03043142892420292
1761468946847596500,3.263596435546875,0.014836257323622704,-0.002228938974440098,-0.03457131236791611
1761468946857578500,3.27357861328125,0.007653865963220596,0.012830384075641632,-0.034972235560417175
1761468946867561500,3.2835615234375,0.020506015047430992,0.0015297927893698215,-0.0403670035302639
1761468946877543700,3.293543701171875,0.026912584900856018,0.004844525828957558,-0.04644265025854111
1761468946887526400,3.3035263671875,0.034295666962862015,0.005066633224487305,-0.04675370827317238
1761468946897509600,3.313509521484375,0.03533896058797836,-0.03626894950866699,-0.060422901064157486
1761468946907491600,3.32349169921875,0.035534437745809555,-0.02386421337723732,-0.0654754489660263
1761468946917474600,3.333474609375,0.019964274019002914,-0.03270711749792099,-0.060888126492500305
1761468946927457500,3.34345751953125,0.020621541887521744,-0.021852873265743256,-0.054927438497543335
1761468946937439700,3.353439697265625,0.009302574209868908,0.015405634418129921,-0.03442448377609253
1761468946947422500,3.36342236328125,0.006497732829302549,0.06247034668922424,-0.010454703122377396
1761468946957405400,3.373405517578125,0.0076525346376001835,0.06893333792686462,0.0020419734064489603
1761468946967387600,3.3833876953125,0.01568116620182991,0.03476311266422272,-0.012550018727779388
1761468946977370600,3.39337060546875,0.008917957544326782,0.025364499539136887,-0.02187199890613556
1761468946987353600,3.403353515625,0.011677525006234646,0.024796446785330772,-0.029244692996144295
1761468946997335600,3.41333544921875,0.005959926173090935,0.015136856585741043,-0.03848453611135483
1761468947007318500,3.423318603515625,0.0064259790815413,0.008339936845004559,-0.04986156150698662
1761468947017301500,3.433301513671875,-0.0024783960543572903,0.005860891658812761,-0.052426327019929886
1761468947027283700,3.44328369140625,0.0035648487973958254,0.046669039875268936,-0.0409528985619545
1761468947037266400,3.453266357421875,-0.01319403387606144,0.08148233592510223,-0.01454191654920578
1761468947047248600,3.46324853515625,-0.014663832262158394,0.08185385167598724,-0.002115340903401375
1761468947057231600,3.473231689453125,-0.016593273729085922,0.06481963396072388,-0.006575895007699728
1761468947067214800,3.48321484375,-0.013898953795433044,0.042945753782987595,-0.02712271548807621
1761468947077196500,3.493196533203125,-0.013157617300748825,0.0450139120221138,-0.02740214392542839
1761468947087179800,3.5031796875,-0.009351160377264023,0.055091314017772675,-0.020638246089220047
1761468947097162800,3.513162841796875,-0.008418923243880272,0.05457860603928566,-0.01820002868771553
1761468947107144700,3.523144775390625,-0.007584288250654936,0.0545802041888237,-0.013749887235462666
1761468947117127700,3.533127685546875,-0.011748481541872025,0.05379677936434746,-0.02171303890645504
1761468947127110700,3.543110595703125,-0.01997152529656887,0.06054922938346863,-0.016406957060098648
1761468947137092600,3.553092529296875,-0.021233731880784035,0.05332348495721817,-0.013081640936434269
1761468947147075600,3.56307568359375,-0.02343190461397171,0.039574380964040756,-0.016893424093723297
1761468947157058800,3.573058837890625,-0.023227673023939133,0.047619763761758804,-0.0110818762332201
1761468947167040500,3.58304052734375,-0.02363433688879013,0.05817360430955887,-0.011124487966299057
1761468947177023700,3.593023681640625,-0.027574673295021057,0.07885190844535828,-0.005087066907435656
1761468947187005400,3.60300537109375,-0.02470831200480461,0.08787895739078522,0.003711750963702798
1761468947196988700,3.61298876953125,-0.02536177635192871,0.07684071362018585,0.00009715650230646133
1761468947206971600,3.6229716796875,-0.021838944405317307,0.05600014701485634,-0.00788593478500843
1761468947216953600,3.63295361328125,-0.022433597594499588,0.050500478595495224,-0.01554704736918211
1761468947226936600,3.6429365234375,-0.02569463849067688,0.05443556606769562,-0.017788629978895187
1761468947236919600,3.65291943359375,-0.019314102828502655,0.05230535566806793,-0.02146068960428238
1761468947246901500,3.662901611328125,-0.013719066977500916,0.030642405152320862,-0.0367853157222271
1761468947256884500,3.672884521484375,-0.016460146754980087,0.01758808270096779,-0.05570943281054497
1761468947266867700,3.68286767578125,-0.005178465042263269,0.03537320718169212,-0.0592823326587677
1761468947276849400,3.692849365234375,-0.0030319681391119957,0.0469810850918293,-0.049188099801540375
1761468947286832600,3.70283251953125,-0.004733461886644363,0.05227784439921379,-0.04120927304029465
1761468947296815600,3.712815673828125,-0.011933628469705582,0.06584303081035614,-0.03144801780581474
1761468947306797600,3.722797607421875,-0.015359785407781601,0.0818566158413887,-0.021034259349107742
1761468947316780500,3.732780517578125,-0.012056311592459679,0.06792008131742477,-0.025544792413711548
1761468947326762800,3.7427626953125,-0.005976848304271698,0.05677315220236778,-0.03549622744321823
1761468947336745500,3.752745361328125,-0.004544996190816164,0.03557870537042618,-0.044950272887945175
1761468947346728400,3.762728515625,0.0034926901571452618,0.033696651458740234,-0.04521392658352852
1761468947356710700,3.772710693359375,0.00041072582826018333,0.03851223364472389,-0.03892022743821144
1761468947366693400,3.782693359375,0.0026035725604742765,0.038474150002002716,-0.026561561971902847
1761468947376676600,3.792676513671875,-0.014941846951842308,0.000369267538189888,-0.04017433524131775
1761468947386658600,3.802658447265625,-0.014997240155935287,0.012527662329375744,-0.04812254011631012
1761468947396641500,3.8126416015625,-0.006983597297221422,0.04005178064107895,-0.04123137518763542
1761468947406624500,3.82262451171875,0.004946565721184015,0.05089857056736946,-0.029337964951992035
1761468947416606700,3.832606689453125,0.013787257485091686,0.0426018126308918,-0.02292080782353878
1761468947426589700,3.842589599609375,0.021630799397826195,0.023735979571938515,-0.024105381220579147
1761468947436572700,3.85257275390625,0.022946085780858994,0.01182134635746479,-0.030723314732313156
1761468947446554600,3.8625546875,0.024090711027383804,0.01528132613748312,-0.031070856377482414
1761468947456537600,3.87253759765625,0.0206618532538414,0.039110347628593445,-0.029845621436834335
1761468947466521000,3.88252099609375,0.005269581917673349,0.06705889105796814,-0.015380395576357841
1761468947476502800,3.892502685546875,-0.007058122660964727,0.07299204915761948,-0.0018903323216363788
1761468947486486000,3.902486083984375,-0.012422528117895126,0.0556359589099884,-0.0018162964843213558
1761468947496468000,3.912468017578125,-0.010543703101575375,0.03447594866156578,-0.01048763282597065
1761468947506451000,3.922450927734375,-0.0029856516048312187,0.024286162108182907,-0.02173895575106144
1761468947516434000,3.932433837890625,0.005009416490793228,0.02591545693576336,-0.019420886412262917
1761468947526416100,3.942416015625,0.013909701257944107,0.04783433675765991,-0.013764599338173866
1761468947536398800,3.95239892578125,0.012105517089366913,0.06474695354700089,-0.0067758942022919655
1761468947546381800,3.9623818359375,0.015114355832338333,0.0512378104031086,-0.0038309709634631872
1761468947556364000,3.972364013671875,0.010100011713802814,0.024764038622379303,-0.01737646386027336
1761468947566347000,3.982346923828125,0.005978770088404417,0.01596735045313835,-0.020050808787345886
1761468947576330000,3.992330078125,0.0026388675905764103,0.026635412126779556,-0.013900507241487503
1761468947586312000,4.00231201171875,-0.0009508072398602962,0.034458182752132416,-0.005375995300710201
1761468947596295000,4.012294921875,0.0040212590247392654,0.041054803878068924,0.0009316424839198589
1761468947606278000,4.02227783203125,0.009887670166790485,0.04338826611638069,-0.004863395821303129
1761468947616260000,4.032260009765625,0.023866968229413033,0.048625290393829346,-0.010549421422183514
1761468947626242800,4.042242919921875,0.03391028195619583,0.04017294943332672,-0.02151472121477127
1761468947636225000,4.05222509765625,0.041917506605386734,0.038828667253255844,-0.03063533827662468
1761468947646208000,4.0622080078125,0.06668810546398163,0.004744201898574829,-0.04220890253782272
1761468947656191000,4.07219091796875,0.0648358091711998,0.00018124841153621674,-0.0464564673602581
1761468947666173000,4.0821728515625,0.06598789244890213,-0.014094892889261246,-0.05365259572863579
1761468947676156200,4.09215625,0.050581540912389755,-0.026308279484510422,-0.059599876403808594
1761468947686139000,4.102138916015625,0.04237687215209007,-0.01757337711751461,-0.05356328934431076
1761468947696121000,4.11212109375,0.010900136083364487,0.024702835828065872,-0.019196348264813423
1761468947706104000,4.12210400390625,-0.0033981092274188995,0.04309915378689766,0.0038471845909953117
1761468947716087000,4.132087158203125,-0.00681302510201931,0.04237852990627289,0.01888344995677471
1761468947726069000,4.142069091796875,0.004059596452862024,0.018886785954236984,0.015170205384492874
1761468947736052000,4.152052001953125,0.011833037249743938,0.008333698846399784,0.004375610500574112
1761468947746035200,4.16203515625,0.01016110461205244,0.01138195302337408,0.0066238511353731155
1761468947756017000,4.172016845703125,0.002587989205494523,0.027820119634270668,0.017921043559908867
1761468947766000000,4.182000244140625,0.003782949410378933,0.02836553566157818,0.029704999178647995
1761468947775981800,4.19198193359375,0.002060764469206333,0.01774274744093418,0.025422485545277596
1761468947785965000,4.201965087890625,0.0011963024735450745,0.014437763951718807,0.024569740518927574
1761468947795948000,4.211947998046875,0.0026877420023083687,0.010817629285156727,0.024728819727897644
1761468947805930000,4.221929931640625,0.0027718977071344852,-0.0005285025108605623,0.023729069158434868
1761468947815913000,4.231912841796875,-0.001086279284209013,-0.018623111769557,0.024905327707529068
1761468947825896000,4.24189599609375,0.0019167009741067886,-0.026174770668148994,0.027774350717663765
1761468947835878000,4.2518779296875,-0.0022186688147485256,-0.0036128750070929527,0.03689431771636009
1761468947845860900,4.26186083984375,-0.006029652897268534,0.00046522379852831364,0.04813338816165924
1761468947855844000,4.271843994140625,-0.003824625164270401,-0.010634735226631165,0.04400306195020676
1761468947865825800,4.28182568359375,-0.004204392433166504,-0.029306689277291298,0.04089275747537613
1761468947875809000,4.29180908203125,-0.002491213846951723,-0.03423552215099335,0.03820069134235382
1761468947885792000,4.3017919921875,-0.0013471199199557304,-0.03594527021050453,0.04498616233468056
1761468947895774000,4.31177392578125,0.0013646138831973076,-0.03658413887023926,0.044903773814439774
1761468947905757000,4.3217568359375,0.003053590888157487,-0.030185628682374954,0.03870686516165733
1761468947915740000,4.331739990234375,-0.00027066562324762344,-0.015026568435132504,0.040065519511699677
1761468947925721900,4.341721923828125,0.0008515906520187855,-0.018970709294080734,0.036440689116716385
1761468947935704800,4.351704833984375,-0.004998368676751852,-0.029546519741415977,0.03071768395602703
1761468947945687000,4.36168701171875,-0.007006658706814051,-0.03421184420585632,0.030443111434578896
1761468947955669800,4.371669677734375,-0.005410678219050169,-0.03202531486749649,0.03535293787717819
1761468947965653000,4.381653076171875,-0.006451175082474947,-0.03809865191578865,0.03988004848361015
1761468947975635000,4.391635009765625,-0.0017403517849743366,-0.048376213759183884,0.03333636373281479
1761468947985618000,4.401617919921875,-0.005433357320725918,-0.051631927490234375,0.03236057981848717
1761468947995601000,4.411600830078125,0.0011262479238212109,-0.04532290995121002,0.03861309215426445
1761468948005583000,4.4215830078125,0.0006548687815666199,-0.037446875125169754,0.04060940071940422
1761468948015565800,4.43156591796875,-0.007557310629636049,-0.02768108993768692,0.04610051214694977
1761468948025549000,4.441549072265625,-0.011132605373859406,-0.02173052355647087,0.049813758581876755
1761468948035531000,4.451531005859375,-0.011701510287821293,-0.024480262771248817,0.044843439012765884
1761468948045514000,4.461513916015625,-0.019090451300144196,-0.03477231413125992,0.03810298070311546
1761468948055497000,4.4714970703125,-0.013299964368343353,-0.04237137734889984,0.03505493700504303
1761468948065479200,4.481479248046875,-0.008833309635519981,-0.043584179133176804,0.03433455154299736
1761468948075462100,4.491462158203125,-0.0015853270888328552,-0.04947395250201225,0.04014559090137482
1761468948085444900,4.50144482421875,0.000760385300964117,-0.0371650867164135,0.03939671069383621
1761468948095427000,4.511427001953125,0.0010716845281422138,-0.034382615238428116,0.03657205030322075
1761468948105410000,4.52141015625,0.0010351990349590778,-0.04139471799135208,0.032523248344659805
1761468948115392000,4.53139208984375,-0.0027837734669446945,-0.04109404608607292,0.03276985511183739
1761468948125375000,4.541375,-0.010567128658294678,-0.02903871424496174,0.033599428832530975
1761468948135358200,4.551358154296875,-0.015324277803301811,-0.030392106622457504,0.027730679139494896
1761468948145340000,4.56133984375,-0.015841197222471237,-0.04591354355216026,0.010258745402097702
1761468948155323100,4.5713232421875,-0.01120164804160595,-0.03919755667448044,0.009802870452404022
1761468948165306000,4.58130615234375,-0.008416513912379742,-0.02103639580309391,0.02598476968705654
1761468948175288000,4.5912880859375,-0.0039272671565413475,-0.004994738847017288,0.03975088521838188
1761468948185273900,4.60127392578125,-0.0032401718199253082,-0.008072820492088795,0.039889369159936905
1761468948195256000,4.611256103515625,0.00008167093619704247,-0.012602558359503746,0.031094128265976906
1761468948205239000,4.621239013671875,0.0008388073183596134,-0.018671102821826935,0.031514376401901245
1761468948215221000,4.631220947265625,0.0017918930388987064,-0.028617873787879944,0.02025359310209751
1761468948225204000,4.641203857421875,-0.0027096481062471867,-0.03631201386451721,0.008207050152122974
1761468948235187000,4.65118701171875,-0.013497603125870228,-0.03603494539856911,0.0025204254779964685
1761468948245169000,4.6611689453125,-0.009246132336556911,-0.03022845648229122,0.01154348161071539
1761468948255151900,4.67115185546875,-0.0037564472295343876,-0.028118381276726723,0.019611112773418427
1761468948265135000,4.681135009765625,-0.0028166179545223713,-0.04238200560212135,0.025207746773958206
1761468948275116800,4.69111669921875,-0.0030742567032575607,-0.053341496735811234,0.029412226751446724
1761468948285100000,4.70110009765625,0.0029660589061677456,-0.04503003880381584,0.04052639752626419
1761468948295083000,4.7110830078125,0.0008276985026896,-0.040671639144420624,0.04648076742887497
1761468948305065000,4.72106494140625,0.005668792873620987,-0.051814571022987366,0.03253565728664398
1761468948315048000,4.7310478515625,0.003922932781279087,-0.05540997534990311,0.015347274951636791
1761468948325031200,4.74103125,0.0035761890467256308,-0.04610169306397438,0.006144721060991287
1761468948335012900,4.751012939453125,0.005940853618085384,-0.04223382845520973,0.004368423949927092
1761468948344996000,4.76099609375,0.005862290505319834,-0.04468713328242302,0.003191306721419096
1761468948354978000,4.77097802734375,0.004120305180549622,-0.039326850324869156,0.004114064853638411
1761468948364961000,4.7809609375,0.0019793896935880184,-0.03816864266991615,0.007436891086399555
1761468948374944000,4.790944091796875,0.00489072548225522,-0.040658727288246155,0.008624390698969364
1761468948384926200,4.80092626953125,0.00842314213514328,-0.0504240058362484,-0.0030655546579509974
1761468948394909000,4.810908935546875,0.014949610456824303,-0.04784134775400162,-0.0033921205904334784
1761468948404892000,4.820891845703125,0.01372828520834446,-0.045533984899520874,0.0006782547570765018
1761468948414874000,4.8308740234375,0.014887433499097824,-0.038066137582063675,-0.000658057164400816
1761468948424856800,4.84085693359375,0.014391019940376282,-0.030839918181300163,-0.00006230780854821205
1761468948434840000,4.850840087890625,0.012809591367840767,-0.022151514887809753,0.004648793488740921
1761468948444822000,4.860822021484375,0.013270584866404533,-0.029924215748906136,-0.002974771661683917
1761468948454805000,4.870804931640625,0.015522133558988571,-0.035872865468263626,-0.011823538690805435
1761468948464787500,4.880787353515625,0.016944793984293938,-0.031585972756147385,-0.016403377056121826
1761468948474769400,4.890769287109375,0.013604726642370224,-0.021633842960000038,-0.015043479390442371
1761468948484752400,4.90075244140625,0.018051672726869583,-0.014093102887272835,-0.006486476399004459
1761468948494734300,4.910734375,0.017094828188419342,-0.03601489216089249,-0.007888362742960453
1761468948504717300,4.92071728515625,0.013316601514816284,-0.043226733803749084,-0.006234806030988693
1761468948514700300,4.9307001953125,0.0045996299013495445,-0.03434876352548599,0.004673829767853022
1761468948524682200,4.94068212890625,0.003171909134835005,-0.019034523516893387,0.014528591185808182
1761468948534665500,4.95066552734375,-0.0007300102151930332,-0.009002044796943665,0.01879349909722805
1761468948544648400,4.9606484375,0.008173735812306404,-0.005438735708594322,0.006536300294101238
1761468948554630400,4.97063037109375,0.012376338243484497,-0.018793640658259392,-0.0058818478137254715
1761468948564613400,4.98061328125,0.011835450306534767,-0.028371166437864304,-0.008629697374999523
1761468948574596400,4.990596435546875,0.013269266113638878,-0.029879072681069374,-0.004204590804874897
1761468948584578600,5.00057861328125,0.006715226918458939,-0.026518696919083595,0.0024437245447188616
1761468948594561300,5.010561279296875,0.00830792635679245,-0.018999317660927773,0.008941397070884705
1761468948604544500,5.02054443359375,0.0049866982735693455,-0.010622077621519566,0.007647100370377302
1761468948614526500,5.0305263671875,0.009441778063774109,-0.011339982971549034,0.003972059115767479
1761468948624509400,5.040509521484375,0.0036278311163187027,0.0001499592326581478,0.007100475020706654
1761468948634492400,5.050492431640625,0.0017689247615635395,-0.006355506833642721,0.013053730130195618
1761468948644474600,5.060474609375,0.007123742718249559,-0.026865841820836067,0.0047164373099803925
1761468948654457300,5.070457275390625,0.0051705799996852875,-0.029027801007032394,-0.00851728580892086
1761468948664439600,5.080439453125,0.012357652187347412,-0.026555588468909264,-0.006893821991980076
1761468948674422500,5.090422607421875,0.011806199327111244,-0.019921062514185905,-0.0036732570733875036
1761468948684405200,5.1004052734375,0.013715419918298721,-0.0038227878976613283,0.0012317528016865253
1761468948694387500,5.110387451171875,0.009005019441246986,0.011534173972904682,0.008299429900944233
1761468948704370400,5.120370361328125,-0.0015869047492742538,0.012320338748395443,0.009839535690844059
1761468948714353400,5.130353515625,0.0025147409178316593,0.0004650633782148361,0.0008051455952227116
1761468948724335400,5.14033544921875,-0.0006064837798476219,-0.010374801233410835,-0.010840591043233871
1761468948734318600,5.150318603515625,0.0011064056307077408,-0.013082996010780334,-0.010007879696786404
1761468948744301300,5.16030126953125,0.009499091655015945,-0.02743450365960598,-0.008099458180367947
1761468948754283500,5.170283447265625,0.013338947668671608,-0.02779584378004074,-0.005204218439757824
1761468948764266500,5.1802666015625,0.009447271004319191,-0.018808208405971527,0.005596230737864971
1761468948774249200,5.190249267578125,0.004260200075805187,-0.006426667328923941,0.01560119166970253
1761468948784231400,5.2002314453125,0.0018793342169374228,-0.006402965169399977,0.017257411032915115
1761468948794214400,5.21021435546875,-0.0012141615152359009,-0.01127439085394144,0.012783571146428585
1761468948804197400,5.220197265625,-0.0053343381732702255,-0.023315075784921646,0.003552787471562624
1761468948814179300,5.230179443359375,0.0002625170163810253,-0.022697648033499718,0.0027141273021698
1761468948824162600,5.24016259765625,-0.0003220471553504467,-0.01821235381066799,0.004281131085008383
1761468948834144300,5.250144287109375,0.000486067496240139,-0.021721813827753067,0.006701796315610409
1761468948844127500,5.26012744140625,-0.002521973103284836,-0.020156674087047577,0.007601678371429443
1761468948854110500,5.2701103515625,-0.0013761436566710472,-0.02821134589612484,0.006326465401798487
1761468948864092400,5.280092529296875,-0.0013404572382569313,-0.024470137432217598,0.01011614315211773
1761468948874075400,5.290075439453125,-0.004157664254307747,-0.014661871828138828,0.01143660582602024
1761468948884058400,5.300058349609375,-0.002618357539176941,-0.008733674883842468,0.0083052609115839
1761468948894040300,5.310040283203125,0.0017651962116360664,-0.010970499366521835,0.001547009451314807
1761468948904023300,5.320023193359375,0.00035611772909760475,-0.009092703461647034,-0.003997691906988621
1761468948914006500,5.330006591796875,-0.0012981626205146313,-0.008230715990066528,-0.0022357101552188396
1761468948923988200,5.33998828125,0.0009601982310414314,-0.0044471630826592445,-0.003238922916352749
1761468948933971500,5.349971435546875,0.007977750152349472,-0.011143764480948448,-0.007915289141237736
1761468948943954400,5.359954345703125,0.01067553274333477,-0.017629360780119896,-0.010403214022517204
1761468948953936400,5.369936279296875,0.011266909539699554,-0.0174856036901474,-0.0026316947769373655
1761468948963919400,5.37991943359375,0.006220485549420118,-0.010308650322258472,0.003718346357345581
1761468948973901600,5.389901611328125,0.002943654777482152,-0.005395135842263699,-0.002231801627203822
1761468948983884300,5.39988427734375,-0.00031552184373140335,-0.0028608718421310186,-0.010437266901135445
1761468948993867500,5.409867431640625,0.0012443019077181816,0.006730097346007824,-0.009933103807270527
1761468949003849500,5.419849365234375,0.005337047856301069,0.004182783886790276,-0.015351837500929832
1761468949013832400,5.42983251953125,0.004962773993611336,-0.008226935751736164,-0.018920298665761948
1761468949023815400,5.4398154296875,0.0053049903362989426,-0.009124953299760818,-0.007335013709962368
1761468949033797400,5.44979736328125,0.008822438307106495,-0.010782265104353428,0.000021111220121383667
1761468949043780400,5.4597802734375,0.007431202568113804,-0.004849541001021862,-0.00022576400078833103
1761468949053763300,5.469763427734375,0.0041063688695430756,-0.0010117418132722378,0.005149971693754196
1761468949063745500,5.47974560546875,0.005845412611961365,-0.0009022857993841171,0.00025454931892454624
1761468949073728300,5.489728271484375,0.0046506887301802635,-0.0021281626541167498,-0.0045740301720798016
1761468949083711500,5.49971142578125,-0.0013012103736400604,0.001117431791499257,-0.002016596496105194
1761468949093693400,5.509693359375,-0.00313342222943902,0.004237216431647539,0.0011637809220701456
1761468949103676400,5.519676513671875,-0.008316466584801674,0.006431927438825369,0.006306078284978867
1761468949113659400,5.529659423828125,-0.008340856060385704,0.007094043307006359,0.003968207631260157
1761468949123641600,5.5396416015625,-0.006770922336727381,-0.0038406297098845243,0.0010459208860993385
1761468949133624300,5.549624267578125,-0.003466806374490261,0.004975336603820324,0.006197185255587101
1761468949143606500,5.5596064453125,-0.004514493979513645,0.0009478388819843531,0.009364216588437557
1761468949153589500,5.569589599609375,0.0007002293132245541,-0.001969254110008478,0.0054908874444663525
1761468949163572200,5.579572265625,0.0015993122942745686,-0.000023815082386136055,0.0037728827446699142
1761468949173554400,5.589554443359375,-0.000652767252177,0.004797520115971565,-0.0012901707086712122
1761468949183537400,5.599537353515625,-0.0018445318564772606,0.011010941118001938,0.00015352899208664894
1761468949193520400,5.609520263671875,-0.006288314703851938,0.008593561127781868,0.0019034889992326498
1761468949203502300,5.61950244140625,-0.005378844682127237,0.00020087533630430698,-0.0023842002265155315
1761468949213485600,5.629485595703125,-0.005166248418390751,-0.0058874525129795074,0.00009816652163863182
1761468949223468300,5.63946826171875,-0.005610196851193905,0.003496994497254491,0.008101232349872589
1761468949233450500,5.649450439453125,-0.00940710213035345,0.0052538369782269,0.01123848743736744
1761468949243433500,5.65943359375,-0.007949020713567734,0.009582538157701492,0.011802544817328453
1761468949253416200,5.669416259765625,-0.008626172319054604,0.023427851498126984,0.021619763225317
1761468949263398400,5.6793984375,-0.004807465709745884,0.016335321590304375,0.01739412546157837
1761468949273381400,5.68938134765625,-0.0018959864974021912,0.010387469083070755,0.003974840044975281
1761468949283363300,5.69936328125,0.0035802717320621014,-0.0005466716829687357,-0.0007219107355922461
1761468949293346300,5.70934619140625,-0.0017985589802265167,-0.011283100582659245,-0.005685541778802872
1761468949303329500,5.71932958984375,-0.001975392922759056,-0.0063008591532707214,-0.0008521706331521273
1761468949313311200,5.729311279296875,-0.003391327802091837,0.00678420951589942,-0.002046511508524418
1761468949323294500,5.73929443359375,-0.004607859533280134,0.020661940798163414,-0.002529076300561428
1761468949333277400,5.74927734375,-0.004167693667113781,0.02337346225976944,-0.004147882107645273
1761468949343259400,5.75925927734375,-0.0007255584932863712,0.0165211483836174,-0.004866403061896563
1761468949353242400,5.769242431640625,-0.001130383461713791,0.009485696442425251,-0.005424579605460167
1761468949363225300,5.779225341796875,0.0009348979219794273,0.002783585572615266,-0.003108161734417081
1761468949373207300,5.789207275390625,-0.002184833399951458,0.006342425011098385,-0.0029745069332420826
1761468949383190300,5.799190185546875,0.0033164583146572113,0.015954572707414627,0.0021310390438884497
1761468949393173500,5.809173583984375,0.004385721869766712,0.012426703236997128,-0.0020746791269630194
1761468949403155200,5.8191552734375,0.0026522704865783453,0.015815043821930885,-0.010040992870926857
1761468949413138400,5.829138427734375,-0.0016038771718740463,0.02305961772799492,-0.002920989878475666
1761468949423121400,5.839121337890625,-0.005856412462890148,0.02855105511844158,-0.003799034282565117
1761468949433103400,5.849103271484375,-0.009099515154957771,0.038185302168130875,-0.004240154288709164
1761468949443086300,5.85908642578125,-0.01110141258686781,0.0493660531938076,-0.010572618804872036
1761468949453068500,5.869068603515625,-0.00987248308956623,0.04657258838415146,-0.01202117558568716
1761468949463052800,5.879052734375,-0.004496092442423105,0.0384422242641449,-0.01370802242308855
1761468949473035800,5.889035888671875,0.0037508802488446236,0.03312481567263603,-0.01556885801255703
1761468949483018000,5.89901806640625,0.007654275745153427,0.032957568764686584,-0.014147793874144554
1761468949493000700,5.909000732421875,0.01170257106423378,0.04068153724074364,-0.010218776762485504
1761468949502984000,5.91898388671875,0.009772045537829399,0.03572113439440727,-0.01278686337172985
1761468949512966000,5.9289658203125,0.009243984706699848,0.03972002863883972,-0.017558950930833817
1761468949522948900,5.938948974609375,0.009042915888130665,0.039915770292282104,-0.019763782620429993
1761468949532931800,5.948931884765625,0.0005830391310155392,0.04367346689105034,-0.021459797397255898
1761468949542913800,5.958913818359375,0.0009987582452595234,0.04601225629448891,-0.019697051495313644
1761468949552897000,5.96889697265625,-0.004320309963077307,0.04956026002764702,-0.021080154925584793
1761468949562879700,5.978879638671875,-0.003280345816165209,0.0448794886469841,-0.014135164208710194
1761468949572862000,5.988862060546875,0.0034662005491554737,0.030414652079343796,-0.014766685664653778
1761468949582845000,5.998844970703125,0.00714402599260211,0.03639211505651474,-0.011691267602145672
1761468949592827000,6.008826904296875,0.005599392578005791,0.0442122220993042,-0.008025159128010273
1761468949602809900,6.018809814453125,0.010722249746322632,0.04119858890771866,-0.01351659744977951
1761468949612793000,6.02879296875,0.008572966791689396,0.027021996676921844,-0.012077276594936848
1761468949622774800,6.03877490234375,0.004576893523335457,0.017618907615542412,-0.012159568257629871
1761468949632758000,6.048758056640625,-0.0021234089508652687,0.016661740839481354,-0.014220114797353745
1761468949642741000,6.058740966796875,0.0008260416798293591,0.030518168583512306,-0.021857528015971184
1761468949652723000,6.068722900390625,0.003011332591995597,0.02266511879861355,-0.03406954184174538
1761468949662706000,6.078705810546875,-0.00047820713371038437,0.031481511890888214,-0.033816009759902954
1761468949672689000,6.08868896484375,0.002981771482154727,0.0315755233168602,-0.027975164353847504
1761468949682670800,6.0986708984375,-0.00016315514221787453,0.019744429737329483,-0.025835048407316208
1761468949692653800,6.10865380859375,-0.00047960691154003143,0.01908593811094761,-0.021463025361299515
1761468949702637000,6.118636962890625,-0.005536417476832867,0.022381067276000977,-0.011695082299411297
1761468949712618800,6.12861865234375,-0.004121944308280945,0.02080223709344864,-0.009408671408891678
1761468949722602000,6.13860205078125,-0.0036846529692411423,0.022424370050430298,-0.010067271068692207
1761468949732585000,6.1485849609375,-0.004994696006178856,0.03146993741393089,-0.0046574086882174015
1761468949742567000,6.15856689453125,-0.0056722043082118034,0.036296382546424866,0.0005032646004110575
1761468949752550000,6.1685498046875,-0.001361289992928505,0.030109621584415436,-0.0027824845165014267
1761468949762531800,6.17853173828125,0.0011434131301939487,0.028438221663236618,-0.009631602093577385
1761468949772514800,6.188514892578125,-0.0022430401295423508,0.029123177751898766,-0.00946616567671299
1761468949782497800,6.198497802734375,-0.004481960088014603,0.03130483627319336,-0.00407859031111002
1761468949792479700,6.208479736328125,-0.00439442927017808,0.03388432413339615,-0.0029867556877434254
1761468949802462700,6.218462646484375,-0.0014702780172228813,0.03239268809556961,-0.011355473659932613
1761468949812446000,6.228446044921875,-0.004356835037469864,0.01749539002776146,-0.014625005424022675
1761468949822427600,6.238427734375,-0.002721654251217842,0.012680127285420895,-0.014048697426915169
1761468949832411000,6.248410888671875,-0.0015925969928503036,0.013741479255259037,-0.009083379060029984
1761468949842393900,6.258393798828125,-0.008365015499293804,0.014186759479343891,-0.009875403717160225
1761468949852375800,6.268375732421875,-0.003982283640652895,0.017011811956763268,-0.014249115251004696
1761468949862358800,6.27835888671875,0.00013256678357720375,0.036745835095644,-0.011191007681190968
1761468949872341800,6.288341796875,-0.002372290473431349,0.0424376018345356,-0.0038331083487719297
1761468949882323700,6.29832373046875,-0.0024697626940906048,0.03714882954955101,-0.0022405381314456463
1761468949892306700,6.308306640625,0.001165861263871193,-0.003403579816222191,-0.011291703209280968
1761468949902289000,6.318288818359375,0.0019192693289369345,-0.004968719556927681,-0.023665281012654305
1761468949912272000,6.32827197265625,-0.0009525944478809834,0.0077236974611878395,-0.014219786040484905
1761468949922254800,6.3382548828125,0.0009198738262057304,0.010335193015635014,-0.012626150622963905
1761468949932236800,6.34823681640625,0.002478530164808035,0.020245809108018875,-0.0162882711738348
1761468949942220000,6.358219970703125,0.0011514769867062569,0.005108400713652372,-0.018125852569937706
1761468949952202800,6.36820263671875,0.005429186392575502,0.008819054812192917,-0.016014644876122475
1761468949962185000,6.37818505859375,0.0029692244715988636,0.022719422355294228,-0.012224966660141945
1761468949972168000,6.38816796875,0.0009419014677405357,0.03706248477101326,-0.010243454948067665
1761468949982151000,6.39815087890625,-0.002048029564321041,0.03892643377184868,-0.007087875157594681
1761468949992132900,6.4081328125,-0.0019024335779249668,0.037145018577575684,-0.011442524380981922
1761468950002115800,6.41811572265625,0.0014038807712495327,0.03505896404385567,-0.017564065754413605
1761468950012098800,6.428098876953125,0.004939749371260405,0.030213750898838043,-0.02228933945298195
1761468950022081000,6.4380810546875,0.007899319753050804,0.021963277831673622,-0.022011838853359222
1761468950032064000,6.44806396484375,0.01782098226249218,0.027166586369276047,-0.027521861717104912
1761468950042046000,6.4580458984375,0.012781748548150063,0.03150567412376404,-0.021030405536293983
1761468950052029000,6.46802880859375,0.011740375310182571,0.02395009435713291,-0.016081754118204117
1761468950062012000,6.478011962890625,0.008699045516550541,0.02362758480012417,-0.019334271550178528
1761468950071993900,6.487993896484375,0.008769885636866093,0.01959928870201111,-0.025525322183966637
1761468950081976800,6.497976806640625,0.00745854526758194,0.019761208444833755,-0.026767155155539513
1761468950091960000,6.5079599609375,0.007198863662779331,0.016979007050395012,-0.03160138055682182
1761468950101941800,6.517941650390625,0.011571774259209633,0.01613451912999153,-0.03283655643463135
1761468950111925000,6.527925048828125,0.006281305104494095,0.018278706818819046,-0.03553043305873871
1761468950121908000,6.537907958984375,0.006481042131781578,0.024546723812818527,-0.030035264790058136
1761468950131890000,6.547889892578125,0.006885687354952097,0.02777079865336418,-0.02139398828148842
1761468950141873000,6.557872802734375,0.009237791411578655,0.015489897690713406,-0.01725889928638935
1761468950151855900,6.56785595703125,0.008783412165939808,0.0024940434377640486,-0.01853937841951847
1761468950161837800,6.577837890625,0.003270935034379363,-0.0005163939204066992,-0.017079966142773628
1761468950171820800,6.58782080078125,0.0031888424418866634,-0.003954160027205944,-0.011551330797374249
1761468950181802800,6.597802734375,0.004708708263933659,-0.00020629377104341984,-0.01360595878213644
1761468950191785700,6.60778564453125,0.000781212467700243,0.001251480309292674,-0.011170935817062855
1761468950201769000,6.61776904296875,-0.0023099184036254883,0.0032930595334619284,-0.0039005063008517027
1761468950211750700,6.627750732421875,0.0006195241585373878,0.002642944222316146,-0.0005979251582175493
1761468950221734000,6.63773388671875,0.0017111538909375668,-0.013813527300953865,0.00045349099673330784
1761468950231716900,6.647716796875,0.0006859716959297657,-0.017713410779833794,0.00014127534814178944
1761468950241698800,6.65769873046875,-0.00013614632189273834,-0.027831025421619415,0.0017436991911381483
1761468950251681800,6.667681884765625,-0.00012831250205636024,-0.02609015256166458,0.00652411300688982
1761468950261664800,6.677664794921875,-0.0035427515394985676,-0.019869275391101837,0.016220148652791977
1761468950271647000,6.68764697265625,-0.006857666186988354,-0.021418903023004532,0.026054367423057556
1761468950281629700,6.697629638671875,-0.00951470248401165,-0.03362949937582016,0.026955846697092056
1761468950291613000,6.707613037109375,-0.009231231175363064,-0.03573707118630409,0.026276594027876854
1761468950301595000,6.717594970703125,-0.010938582941889763,-0.03187522292137146,0.026480060070753098
1761468950311577900,6.727577880859375,-0.011428020894527435,-0.026038361713290215,0.029316972941160202
1761468950321560800,6.737560791015625,-0.006380531471222639,-0.018153807148337364,0.03245630860328674
1761468950331543000,6.74754296875,-0.0031296629458665848,-0.02789699286222458,0.02823268435895443
1761468950341525800,6.75752587890625,0.0013348604552447796,-0.04148736968636513,0.016130216419696808
1761468950351508000,6.767508056640625,-0.002869171556085348,-0.0390167199075222,0.016406124457716942
1761468950361491000,6.777490966796875,-0.00513498904183507,-0.02866261638700962,0.028084618970751762
1761468950371473700,6.7874736328125,-0.005299562122672796,-0.024581991136074066,0.03597345948219299
1761468950381456000,6.797455810546875,-0.0079874899238348,-0.026449400931596756,0.03759186342358589
1761468950391438800,6.80743896484375,-0.004161215387284756,-0.02177923172712326,0.03355223312973976
1761468950401421800,6.817421875,-0.004747377708554268,-0.026613134890794754,0.02976015955209732
1761468950411403800,6.82740380859375,-0.004953117109835148,-0.03260932117700577,0.028046293184161186
1761468950421387000,6.837386962890625,-0.00433366559445858,-0.0262472964823246,0.02801460027694702
1761468950431369700,6.84736962890625,0.0002817036584019661,-0.02526586875319481,0.02540375478565693
1761468950441352000,6.85735205078125,0.0014875833876430988,-0.035233281552791595,0.020743755623698235
1761468950451335000,6.8673349609375,0.009429520927369595,-0.05529308691620827,0.003690350102260709
1761468950461318000,6.87731787109375,0.004814795218408108,-0.03684776648879051,0.007835560478270054
1761468950471298300,6.88729833984375,0.001061027403920889,-0.05704107508063316,0.009110119193792343
1761468950481281300,6.89728125,0.0103533286601305,-0.051455624401569366,0.010433976538479328
1761468950491263200,6.90726318359375,-0.005756770726293325,-0.034264687448740005,0.018376149237155914
1761468950501246200,6.91724609375,-0.010576559230685234,-0.03271472826600075,0.021515218541026115
1761468950511229200,6.927229248046875,-0.005336670204997063,-0.03974849730730057,0.020821399986743927
1761468950521211100,6.937211181640625,-0.005977426655590534,-0.03423522040247917,0.020752690732479095
1761468950531194000,6.947194091796875,-0.006413246039301157,-0.03319704905152321,0.026469551026821136
1761468950541177300,6.95717724609375,-0.0011199475266039371,-0.03284391388297081,0.02606448344886303
1761468950551159000,6.967158935546875,0.002024421701207757,-0.006279239431023598,0.02682654559612274
1761468950561142300,6.977142333984375,0.0049080923199653625,-0.009656127542257309,0.019508978351950645
1761468950571125200,6.987125244140625,0.010712649673223495,-0.022107280790805817,0.00855911523103714
1761468950581107200,6.997107177734375,0.014864251017570496,-0.044415250420570374,0.000091595109552145
1761468950591090200,7.007090087890625,0.016633324325084686,-0.03137443587183952,0.002782366471365094
1761468950601073200,7.0170732421875,0.008435314521193504,-0.03040424734354019,0.008804040029644966
1761468950611055000,7.02705517578125,0.0073855966329574585,-0.02161748893558979,0.015117686241865158
1761468950621038000,7.0370380859375,0.004497398156672716,-0.032426461577415466,0.01656884327530861
1761468950631021300,7.047021240234375,0.007624051999300718,-0.030194178223609924,0.01814107596874237
1761468950641003000,7.0570029296875,0.008174527436494827,-0.03016248717904091,0.014360187575221062
1761468950650986200,7.066986328125,0.01537132915109396,-0.04148324206471443,0.0031185715924948454
1761468950660968200,7.07696826171875,0.016948454082012177,-0.05025489255785942,-0.0079167690128088
1761468950670951200,7.086951171875,0.021568693220615387,-0.04237861931324005,-0.014743363484740257
1761468950680934100,7.09693408203125,0.017935343086719513,-0.03862569481134415,-0.011379258707165718
1761468950690916400,7.106916259765625,0.01574225164949894,-0.03541898354887962,0.000702759250998497
1761468950700899000,7.116899169921875,0.01523492019623518,-0.041618287563323975,-0.0008216339629143476
1761468950710882300,7.12688232421875,0.009139515459537506,-0.03613576665520668,0.004122343845665455
1761468950720864300,7.1368642578125,0.0069767627865076065,-0.03713817894458771,0.00764437485486269
1761468950730847200,7.14684716796875,0.011478197760879993,-0.0347733236849308,0.00035619549453258514
1761468950740830200,7.156830322265625,0.01226862333714962,-0.02520725131034851,-0.0039858222007751465
1761468950750812400,7.1668125,0.009465192444622517,-0.02230393886566162,-0.0023032010067254305
1761468950760795100,7.176795166015625,0.009564261883497238,-0.019012004137039185,0.0012755547650158405
1761468950770778000,7.186778076171875,0.008763005025684834,-0.018581226468086243,0.0022799731232225895
1761468950780760300,7.19676025390625,0.007299331948161125,-0.027570193633437157,0.005128223914653063
1761468950790743300,7.206743408203125,0.007186636328697205,-0.02479986846446991,0.0030471987556666136
1761468950800725200,7.216725341796875,0.01005193218588829,-0.023524479940533638,0.001655164873227477
1761468950810708200,7.226708251953125,0.008834248408675194,-0.022080831229686737,-0.005137288942933083
1761468950820691500,7.23669140625,0.011118708178400993,-0.015520134940743446,-0.0038571073673665524
1761468950830673200,7.246673095703125,0.013549105264246464,-0.01735595054924488,-0.0016923036891967058
1761468950840656400,7.256656494140625,0.010925624519586563,-0.019614310935139656,0.002306166337803006
1761468950850639400,7.266639404296875,0.012478325515985489,-0.012693803757429123,0.0030895154923200607
1761468950860621300,7.276621337890625,0.009275075048208237,-0.01216782908886671,0.0012282324023544788
1761468950870604300,7.286604248046875,0.006750931032001972,-0.012545465491712093,-0.0034533387515693903
1761468950880587300,7.296587158203125,0.0028225022833794355,-0.007805305533111095,0.0023986916057765484
1761468950890569200,7.3065693359375,0.0017971673514693975,-0.0009171958081424236,0.0032554559875279665
1761468950900552200,7.31655224609375,-0.0010169949382543564,-0.00596468523144722,0.0054975710809230804
1761468950910535400,7.326535400390625,0.0034662564285099506,-0.011741031892597675,-0.001738708931952715
1761468950920517000,7.33651708984375,0.008923339657485485,-0.019470324739813805,-0.0003445441834628582
1761468950930500400,7.346500244140625,0.007261862978339195,-0.015557443723082542,0.0037568691186606884
1761468950940483300,7.3564833984375,0.003907877951860428,-0.011361101642251015,0.0004891704302281141
1761468950950465300,7.36646533203125,0.0010464522056281567,-0.015535264275968075,-0.0025755329988896847
1761468950960448300,7.3764482421875,-0.003503025509417057,-0.01433178223669529,-0.001380039961077273
1761468950970431200,7.38643115234375,-0.005497867241501808,-0.010191146284341812,0.0002280701883137226
1761468950980413200,7.3964130859375,-0.002765198238193989,-0.01206974033266306,-0.0042681447230279446
1761468950990396200,7.406396240234375,0.0007001981139183044,-0.019337618723511696,-0.000035174423828721046
1761468951000378000,7.416378173828125,0.0036155607085675,-0.02188786119222641,0.004270091652870178
1761468951010361000,7.426361083984375,0.00834854319691658,-0.02443104423582554,0.0071047889068722725
1761468951020344300,7.43634423828125,0.007564508821815252,-0.02769048698246479,0.004248548299074173
1761468951030326000,7.446325927734375,0.006152419839054346,-0.02782181091606617,0.006889490410685539
1761468951040309200,7.456309326171875,0.0023486269637942314,-0.030792301520705223,0.013295191340148449
1761468951050292200,7.466292236328125,-0.0016053682193160057,-0.032354243099689484,0.014675241895020008
1761468951060274200,7.476274169921875,-0.007745552342385054,-0.04284949600696564,0.00864185020327568
1761468951070257200,7.486257080078125,-0.0030268956907093525,-0.028592636808753014,0.016352053731679916
1761468951080240000,7.496240234375,-0.006105510052293539,-0.0039027356542646885,0.020513776689767838
1761468951090222000,7.50622216796875,0.0010478398762643337,0.00877862423658371,0.00961701013147831
1761468951100205000,7.516205078125,0.010346533730626106,-0.0006961040198802948,-0.003868438769131899
1761468951110188300,7.526188232421875,0.011783896014094353,0.005887522827833891,-0.0031764907762408257
1761468951120170200,7.536170166015625,0.009493045508861542,0.004503212403506041,0.00355891021899879
1761468951130153200,7.5461533203125,0.0036153695546090603,-0.00929651316255331,0.0033870218321681023
1761468951140135200,7.55613525390625,0.0024310618173331022,-0.02411780320107937,0.005405697971582413
1761468951150118400,7.566118408203125,-0.005382697097957134,-0.02809113636612892,0.014615677297115326
1761468951160101000,7.57610107421875,-0.010344166308641434,-0.022696904838085175,0.014296896755695343
1761468951170083300,7.586083251953125,-0.011061089113354683,-0.023368019610643387,0.013371981680393219
1761468951180066300,7.59606640625,-0.008412575349211693,-0.017109058797359467,0.009952748194336891
1761468951190049300,7.60604931640625,-0.0017306236550211906,-0.007091017439961433,0.013361708261072636
1761468951200031200,7.61603125,0.0021828918252140284,-0.005723751150071621,0.005945337936282158
1761468951210014500,7.626014404296875,0.011098734103143215,-0.0006735441274940968,0.007510062772780657
1761468951219997200,7.6359970703125,0.006893336307257414,-0.0008756779134273529,0.004879924934357405
1761468951229979400,7.6459794921875,-0.000853266566991806,-0.008015879429876804,0.004317465703934431
1761468951239962400,7.65596240234375,-0.006992917973548174,-0.013341402634978294,0.010501058772206306
1761468951249945000,7.665945068359375,-0.013768192380666733,-0.012214700691401958,0.008052581921219826
1761468951259927300,7.67592724609375,-0.01754455454647541,0.001412693876773119,0.00850052572786808
1761468951269910300,7.68591015625,-0.013190019875764847,0.006479358300566673,0.009745819494128227
1761468951279892200,7.695892333984375,-0.00945253949612379,0.0076223863288760185,0.010776730254292488
1761468951289875200,7.705875244140625,-0.001019615214318037,0.003719524946063757,0.009856663644313812
1761468951299858400,7.7158583984375,0.006374917924404144,0.00041427556425333023,0.002965201623737812
1761468951309840100,7.725840087890625,-0.0012718592770397663,-0.030181076377630234,-0.010650506243109703
1761468951319823400,7.7358232421875,0.009108343161642551,-0.013203422538936138,-0.012879039160907269
1761468951329806300,7.745806396484375,0.0005397405475378036,0.019834499806165695,0.0016333889216184616
1761468951339788300,7.755788330078125,0.004806923680007458,0.0017199446447193623,-0.0031448546797037125
1761468951349771300,7.765771240234375,0.0005500391125679016,0.002290338044986129,-0.0004918756894767284
1761468951359754200,7.775754150390625,0.002086416818201542,-0.004547061398625374,-0.0013235809747129679
1761468951369736200,7.785736083984375,0.001561435405164957,-0.0038883741945028305,-0.00709894485771656
1761468951379719200,7.79571923828125,0.010011911392211914,0.0031096141319721937,-0.00727631151676178
1761468951389702400,7.805702392578125,0.007811903487890959,-0.007406656630337238,-0.015462067909538746
1761468951399684000,7.81568408203125,0.011609837412834167,-0.03206326812505722,-0.02489551715552807
1761468951409667300,7.825667236328125,0.005677436012774706,-0.00605454295873642,-0.009764974936842918
1761468951419650300,7.835650390625,0.006095551885664463,-0.0042206901125609875,0.003277324140071869
1761468951429632300,7.84563232421875,0.0036890211049467325,-0.010470515117049217,0.004474858287721872
1761468951439615200,7.855615234375,-0.0005107838660478592,-0.010555469430983067,-0.001567587722092867
1761468951449597200,7.86559716796875,0.00007467763498425484,-0.003235054202377796,0.0023675882257521152
1761468951459580200,7.875580078125,0.0009314166381955147,0.002887286711484194,0.008614566177129745
1761468951469567700,7.885567626953125,0.002709467662498355,-0.0017916952492669225,0.006147559732198715
1761468951479549700,7.8955498046875,0.00414650933817029,-0.005823987536132336,0.004066565539687872
1761468951489532700,7.90553271484375,-0.0001679491251707077,-0.009050999768078327,0.011829771101474762
1761468951499515600,7.915515625,-0.001954664010554552,-0.008309043012559414,0.011741354130208492
1761468951509497600,7.92549755859375,0.002544170944020152,-0.020165862515568733,0.0063364384695887566
1761468951519480800,7.935480712890625,0.002437111921608448,-0.02333076298236847,0.007307160645723343
1761468951529463800,7.9454638671875,0.0075211175717413425,-0.01930190622806549,0.010640641674399376
1761468951539445800,7.95544580078125,0.009663097560405731,-0.022888649255037308,0.006337507162243128
1761468951549428700,7.9654287109375,0.01104796677827835,-0.023120611906051636,0.0066121346317231655
1761468951559411700,7.97541162109375,0.009207189083099365,-0.016566039994359016,0.0015017949044704437
1761468951569393700,7.9853935546875,0.0060463701374828815,-0.008708064444363117,0.0005076981615275145
1761468951579376600,7.995376708984375,-0.003409449476748705,-0.015387005172669888,0.0021687117405235767
1761468951589358800,8.00535888671875,-0.0025442875921726227,-0.019662097096443176,0.003174764337018132
1761468951599341600,8.015341552734375,-0.0007764813490211964,-0.018764879554510117,0.0035294971894472837
1761468951609324800,8.02532470703125,0.0005431026220321655,-0.0113555658608675,0.003026398364454508
1761468951619306800,8.035306640625,0.005858239717781544,-0.007631401065737009,0.001177365891635418
1761468951629289700,8.045289794921874,0.008304966613650322,-0.0024784228298813105,-0.0016582530224695802
1761468951639272700,8.055272705078124,0.012160424143075943,-0.00347710819914937,-0.00107422168366611
1761468951649255000,8.0652548828125,0.011525161564350128,0.0009659251663833857,0.002003503730520606
1761468951659237600,8.075237548828126,0.009115533903241158,-0.0009550126269459724,0.0014453053008764982
1761468951669220600,8.085220703125,0.008581854403018951,-0.017150603234767914,-0.007677378598600626
1761468951679202800,8.095202880859375,0.005708836484700441,-0.012575026601552963,-0.0072861602529883385
1761468951689185500,8.105185546875,0.0019516486208885908,0.005884141661226749,0.0006098460871726274
1761468951699168800,8.115168701171875,0.0031343584414571524,0.006547801196575165,-0.0067572565749287605
1761468951709150700,8.125150634765625,0.007739856839179993,0.008360779844224453,-0.014868302270770073
1761468951719133700,8.1351337890625,0.0040290080942213535,0.007032661698758602,-0.018609510734677315
1761468951729116700,8.14511669921875,0.002831917256116867,0.014070862904191017,-0.014869101345539093
1761468951739099000,8.155098876953126,-0.000030714552849531174,0.022003620862960815,-0.0062617650255560875
1761468951749081900,8.165081787109376,-0.0008507398888468742,0.03346306458115578,0.003469873685389757
1761468951759063800,8.175063720703125,0.0031176365446299314,0.03407026454806328,0.0048608421348035336
1761468951769046800,8.185046875,0.004515679553151131,0.025753675028681755,-0.004665081389248371
1761468951779029800,8.19502978515625,0.004679730627685785,0.020088598132133484,-0.010296868160367012
1761468951789011700,8.20501171875,0.0015987921506166458,0.022842485457658768,-0.006434720009565353
1761468951798994700,8.21499462890625,0.0013947938568890095,0.02772672101855278,-0.004920979030430317
1761468951808978000,8.22497802734375,-0.0004039611667394638,0.025056876242160797,-0.0080345394089818
1761468951818959600,8.234959716796874,-0.004583526402711868,0.031311046332120895,-0.008827894926071167
1761468951828942800,8.24494287109375,-0.00525706959888339,0.033837296068668365,-0.005486162845045328
1761468951838925800,8.25492578125,-0.002516677137464285,0.02754078432917595,-0.007747186813503504
1761468951848907800,8.26490771484375,-0.0020472980104386806,0.03198900446295738,-0.0030095973052084446
1761468951858890800,8.274890869140625,-0.0055152662098407745,0.0387108214199543,0.001148928888142109
1761468951868873700,8.284873779296875,-0.008534999564290047,0.03723090514540672,0.0001974375918507576
1761468951878855700,8.294855712890625,-0.009442072361707687,0.03318476676940918,-0.004826349206268787
1761468951888838700,8.304838623046875,-0.009184136986732483,0.03560086339712143,-0.00219689030200243
1761468951898820600,8.314820556640624,-0.01009786780923605,0.03793805465102196,-0.008049719035625458
1761468951908803600,8.324803466796874,-0.009201280772686005,0.026987748220562935,-0.013861359097063541
1761468951918786800,8.334786865234374,-0.003969233948737383,0.025048701092600822,-0.012869597412645817
1761468951928768500,8.3447685546875,-0.008561519905924797,0.031599707901477814,-0.0024770572781562805
1761468951938751700,8.354751708984375,-0.010585788637399673,0.03472492843866348,0.0055230786092579365
1761468951948734700,8.364734619140625,-0.006758385803550482,0.042042866349220276,0.004639298655092716
1761468951958716700,8.374716552734375,-0.008409811183810234,0.04643867909908295,-0.004604266956448555
1761468951968699600,8.38469970703125,-0.004840909969061613,0.0387117825448513,-0.0049917567521333694
1761468951978683000,8.394682861328125,-0.0014445804990828037,0.03603450953960419,-0.009332442656159401
1761468951988664600,8.40466455078125,0.0016331346705555916,0.03355038911104202,-0.010977301746606827
1761468951998647800,8.414647705078124,-0.0011698422022163868,0.031349554657936096,-0.010242268443107605
1761468952008630800,8.424630859375,-0.003949414473026991,0.027558516710996628,-0.007468589581549168
1761468952018612700,8.43461279296875,-0.00817398726940155,0.006870283279567957,-0.012764818035066128
1761468952028595700,8.444595703125,-0.009983886033296585,0.01686950959265232,-0.018066877499222755
1761468952038578700,8.45457861328125,-0.010813994333148003,0.024229153990745544,-0.005545227322727442
1761468952048560600,8.464560546875,-0.010277951136231422,0.028400180861353874,0.0018973944243043661
1761468952058543600,8.474543701171875,-0.012744838371872902,0.02049352414906025,0.008706565015017986
1761468952068525800,8.48452587890625,-0.01014262530952692,0.012846929021179676,0.0022586046252399683
1761468952078508500,8.494508544921874,-0.007543379440903664,0.009991754777729511,0.0001214176882058382
1761468952088491800,8.50449169921875,-0.004156960640102625,0.016039233654737473,-0.0010389804374426603
1761468952098473700,8.5144736328125,0.0061630550771951675,0.017612628638744354,-0.01419526245445013
1761468952108457000,8.52445703125,0.002130391076207161,0.022543707862496376,-0.015314494259655476
1761468952118439700,8.534439697265626,-0.012822724878787994,0.009493153542280197,-0.018424268811941147
1761468952128422000,8.544421875,-0.01446993462741375,-0.018429987132549286,-0.03158937022089958
1761468952138404900,8.55440478515625,-0.0029267296195030212,-0.01563393324613571,-0.040328532457351685
1761468952148387600,8.5643876953125,-0.004875953309237957,0.03832994028925896,-0.023919790983200073
1761468952158369800,8.574369873046875,-0.007643244229257107,0.05933242291212082,0.0067909834906458855
1761468952168352800,8.584352783203125,0.002851753495633602,0.102251797914505,0.10499028116464615
1761468952178335700,8.594335693359374,-0.01202146802097559,0.08298542350530624,0.13042773306369781
1761468952188317700,8.604317626953126,-0.01323026604950428,0.035502996295690536,0.08680465072393417
1761468952198301000,8.614301025390626,-0.0028572524897754192,-0.009486852213740349,0.011099235154688358
1761468952208283600,8.62428369140625,0.005967151839286089,0.018098067492246628,-0.01033790409564972
1761468952218265900,8.634265869140625,-0.00315843615680933,0.01561120618134737,-0.021188687533140182
1761468952228248800,8.644248779296875,0.00008365185931324959,0.0004384841304272413,-0.05254264548420906
1761468952238230800,8.654230712890625,-0.0028679296374320984,-0.0032326835207641125,-0.08788013458251953
1761468952248213800,8.6642138671875,-0.0016817329451441765,-0.011694345623254776,-0.1043168380856514
1761468952258196700,8.67419677734375,-0.0032609873451292515,0.0012217187322676182,-0.10895127058029175
1761468952268178700,8.6841787109375,-0.000054541509598493576,0.012492747977375984,-0.09803497791290283
1761468952278161700,8.69416162109375,0.010314742103219032,0.012876510620117188,-0.08448188006877899
1761468952288145000,8.704144775390626,0.016410309821367264,0.005809738300740719,-0.06904152035713196
1761468952298126600,8.714126708984375,0.019006626680493355,0.010629260912537575,-0.04013344645500183
1761468952308109800,8.72410986328125,0.007005975116044283,0.017423298209905624,-0.013775014318525791
1761468952318092800,8.7340927734375,-0.007351925130933523,0.023154422640800476,0.0014803716912865639
