time,seconds_elapsed,z,y,x
1761469015791288800,0.114288818359375,0.0021248965058475733,0.01461697556078434,0.01259937696158886
1761469015801271800,0.124271728515625,-0.00277771707624197,0.020976871252059937,0.006185419391840696
1761469015811254800,0.1342548828125,-0.003744198940694332,0.02606375515460968,0.0006178279872983694
1761469015821237800,0.14423779296875,-0.0005151159130036831,0.022192850708961487,0.006698623765259981
1761469015831221000,0.154220947265625,-0.0032257908023893833,0.02441355027258396,0.017886681482195854
1761469015841202700,0.16420263671875,-0.002771455328911543,0.026288414373993874,0.018597744405269623
1761469015851186000,0.17418603515625,-0.0008887364529073238,0.029940007254481316,0.015957091003656387
1761469015861169000,0.1841689453125,-0.0021476130932569504,0.03958410769701004,0.013289667665958405
1761469015871151900,0.19415185546875,0.001570289023220539,0.043567266315221786,0.009729157201945782
1761469015881134800,0.204134765625,0.0017292797565460205,0.04729622229933739,0.0031380995642393827
1761469015891117800,0.214117919921875,0.005148019175976515,0.04798096790909767,0.004774859175086021
1761469015901100800,0.224100830078125,0.007954725064337254,0.049441445618867874,0.004346356727182865
1761469015911084000,0.234083984375,0.005460178013890982,0.054511867463588715,0.0077358428388834
1761469015921066800,0.244066650390625,-0.002045142464339733,0.05783842131495476,0.018786361441016197
1761469015931049700,0.2540498046875,-0.005080924369394779,0.0594320148229599,0.015252271667122841
1761469015941033000,0.264032958984375,-0.00857712235301733,0.06369653344154358,0.01831091195344925
1761469015951016000,0.274015869140625,-0.01036684401333332,0.06820226460695267,0.015300413593649864
1761469015960998700,0.28399853515625,-0.009568959474563599,0.057171981781721115,0.015847958624362946
1761469015970982000,0.29398193359375,-0.0038748024962842464,0.04383917897939682,0.01262081228196621
1761469015980964900,0.30396484375,-0.003560017328709364,0.03283340111374855,0.009722494520246983
1761469015990947800,0.31394775390625,-0.0010866094380617142,0.024897843599319458,0.0009504440240561962
1761469016000930800,0.323930908203125,-0.0014517288655042648,0.02821933664381504,-0.008547453209757805
1761469016010913800,0.333913818359375,-0.0017249896191060543,0.0384162962436676,-0.005282139405608177
1761469016020897000,0.34389697265625,-0.0017782528884708881,0.04196042940020561,-0.00616870541125536
1761469016030878700,0.353878662109375,-0.0032471283338963985,0.04496300593018532,-0.005320881027728319
1761469016040862000,0.363862060546875,-0.0035485983826220036,0.047829631716012955,-0.0079291807487607
1761469016050845000,0.373844970703125,-0.00286992359906435,0.046505074948072433,-0.005124562419950962
1761469016060828000,0.383827880859375,-0.007352822460234165,0.04112255945801735,-0.004668629262596369
1761469016070811000,0.393810791015625,-0.0058226995170116425,0.032230935990810394,-0.007057619746774435
1761469016080793900,0.4037939453125,-0.009086403995752335,0.026764528825879097,-0.0034447754733264446
1761469016090776800,0.41377685546875,-0.010881578549742699,0.027546493336558342,-0.006296419072896242
1761469016100759800,0.423759765625,-0.013588415458798409,0.027084967121481895,-0.005674837157130241
1761469016110742800,0.43374267578125,-0.005490535404533148,0.02568149007856846,-0.007728138007223606
1761469016120725800,0.443725830078125,-0.0034484234638512135,0.01942758820950985,-0.019062818959355354
1761469016130709000,0.453708984375,-0.00027817999944090843,0.022660687565803528,-0.029913876205682755
1761469016140691700,0.463691650390625,0.0023431696463376284,0.030819812789559364,-0.03464684635400772
1761469016150675000,0.473675048828125,0.001921757822856307,0.03902943432331085,-0.03818543627858162
1761469016160658000,0.483657958984375,-0.00018347101286053658,0.049755048006772995,-0.033577367663383484
1761469016170641000,0.493640869140625,-0.0013512670993804932,0.05338839814066887,-0.034011196345090866
1761469016180624000,0.503623779296875,-0.005201932042837143,0.052633658051490784,-0.03673534467816353
1761469016190606800,0.51360693359375,-0.0022076969034969807,0.05086323991417885,-0.02884618006646633
1761469016200589800,0.52358984375,-0.004255667794495821,0.04111500456929207,-0.029361503198742867
1761469016210571800,0.53357177734375,-0.00639741774648428,0.04084944725036621,-0.02441716566681862
1761469016220554800,0.5435546875,-0.004178738221526146,0.04326679930090904,-0.020066624507308006
1761469016230538000,0.5535380859375,-0.0048185731284320354,0.045332469046115875,-0.02612970396876335
1761469016240521000,0.56352099609375,-0.003317615482956171,0.03887190669775009,-0.030665067955851555
1761469016250503700,0.573503662109375,-0.003331114538013935,0.03905361518263817,-0.029371514916419983
1761469016260487000,0.58348681640625,-0.0023207105696201324,0.04609634727239609,-0.01971382647752762
1761469016270470000,0.593469970703125,-0.007393363397568464,0.0514928475022316,-0.015121339820325375
1761469016280452900,0.603452880859375,-0.010481830686330795,0.06204055994749069,-0.007511356845498085
1761469016290435800,0.613435791015625,-0.010185640305280685,0.05443648621439934,-0.007355484180152416
1761469016300418800,0.623418701171875,-0.011070875450968742,0.04116062819957733,-0.00900398101657629
1761469016310401800,0.63340185546875,-0.0073250168934464455,0.032569125294685364,-0.006506861187517643
1761469016320384800,0.643384765625,0.000053270719945430756,0.030824489891529083,-0.006162781268358231
1761469016330367700,0.65336767578125,0.00021139439195394516,0.023938819766044617,-0.014591751620173454
1761469016340351000,0.66335107421875,0.004343555308878422,0.02473403885960579,-0.012766154482960701
1761469016350334000,0.673333984375,0.00012210430577397346,0.029669607058167458,-0.006313908379524946
1761469016360316700,0.683316650390625,-0.0034313518553972244,0.025066064670681953,-0.0013817340368404984
1761469016370300000,0.6932998046875,-0.0031627556309103966,0.024285104125738144,-0.006179829128086567
1761469016380283000,0.703282958984375,-0.008527161553502083,0.02649579383432865,0.0031031512189656496
1761469016390264800,0.713264892578125,-0.011145491153001785,0.028358500450849533,0.009148846380412579
1761469016400247800,0.723247802734375,-0.01021471619606018,0.02334802784025669,0.005438529886305332
1761469016410230800,0.733230712890625,-0.004487152211368084,0.01774277538061142,0.0006064416375011206
1761469016420214000,0.743214111328125,-0.004215775988996029,0.011527491733431816,-0.00345940631814301
1761469016430196700,0.75319677734375,-0.001070433296263218,0.007504669018089771,-0.00660447683185339
1761469016440179700,0.7631796875,-0.0014086547307670116,0.008262870833277702,-0.00618476327508688
1761469016450163000,0.773162841796875,-0.0026301173493266106,0.012766138650476933,-0.0065252454951405525
1761469016460146000,0.78314599609375,-0.0012442083097994328,0.00323069142177701,-0.00798519141972065
1761469016470129000,0.79312890625,0.0017910394817590714,-0.0007682633586227894,-0.009564894251525402
1761469016480111900,0.80311181640625,0.005716006271541119,0.000586753012612462,-0.009323345497250557
1761469016490094800,0.8130947265625,0.006648131646215916,-0.005631980951875448,-0.007880991324782372
1761469016500078000,0.823078125,0.0034824321046471596,-0.013141828589141369,-0.010014716535806656
1761469016510060800,0.833060791015625,0.0024158500600606203,-0.01903245970606804,-0.00551851000636816
1761469016520043800,0.843043701171875,0.0005521699786186218,-0.021048206835985184,0.00339855276979506
1761469016530027000,0.853027099609375,-0.0058322264812886715,-0.020027684047818184,0.011912145651876926
1761469016540010800,0.8630107421875,-0.008744126185774803,-0.01905163563787937,0.021312572062015533
1761469016549993500,0.872993408203125,-0.011475485749542713,-0.024423783645033836,0.028030142188072205
1761469016559975700,0.8829755859375,-0.013642233796417713,-0.03286280855536461,0.026704154908657074
1761469016569958700,0.892958740234375,-0.01275127474218607,-0.0354912169277668,0.024096788838505745
1761469016579941600,0.902941650390625,-0.016444280743598938,-0.03446643427014351,0.01035088300704956
1761469016589924600,0.912924560546875,-0.0153505215421319,-0.039977844804525375,0.00006575463339686394
1761469016599907600,0.922907470703125,-0.012867390178143978,-0.048820339143276215,0.0036903168074786663
1761469016609890800,0.932890869140625,-0.010680912993848324,-0.049151353538036346,0.004040775820612907
1761469016619873500,0.94287353515625,-0.010697691701352596,-0.046181127429008484,0.014212720096111298
1761469016629856500,0.9528564453125,-0.00791262648999691,-0.04155528545379639,0.019734986126422882
1761469016639839700,0.96283984375,-0.0041224155575037,-0.04917485639452934,0.01719672605395317
1761469016649822700,0.97282275390625,-0.003233117051422596,-0.052273910492658615,0.009119158610701561
1761469016659805400,0.982805419921875,0.0012599015608429909,-0.060454607009887695,0.0032641980797052383
1761469016669788700,0.99278857421875,-0.00027612224221229553,-0.06033146008849144,-0.0011516872327774763
1761469016679771600,1.002771728515625,0.00021017063409090042,-0.06071548908948898,0.0040468028746545315
1761469016689754400,1.01275439453125,-0.0011171819642186165,-0.04188060015439987,0.020442994311451912
1761469016699737600,1.022737548828125,-0.005312725901603699,-0.03472628444433212,0.026288632303476334
1761469016709720600,1.032720458984375,-0.00528297945857048,-0.030104978010058403,0.03272703289985657
1761469016719703600,1.04270361328125,-0.00014840485528111458,-0.02497226744890213,0.033735040575265884
1761469016729685500,1.052685546875,0.004273152910172939,-0.02666264958679676,0.03276799991726875
1761469016739668500,1.06266845703125,-0.0009189462289214134,-0.03063608519732952,0.02884836122393608
1761469016749651700,1.072651611328125,0.003862451994791627,-0.03135839104652405,0.02499733865261078
1761469016759634400,1.082634521484375,0.003000386757776141,-0.026679752394557,0.020197521895170212
1761469016769617700,1.09261767578125,0.006327774841338396,-0.029521044343709946,0.01261148788034916
1761469016779600600,1.1026005859375,0.009975505992770195,-0.02534627355635166,0.010258318856358528
1761469016789583600,1.11258349609375,0.013668018393218517,-0.02559550665318966,0.008995529264211655
1761469016799566600,1.122566650390625,0.016946902498602867,-0.026814701035618782,0.007322532590478659
1761469016809549600,1.132549560546875,0.02030266635119915,-0.015459327958524227,0.014183849096298218
1761469016819532500,1.142532470703125,0.018544446676969528,-0.007297804579138756,0.012369703501462936
1761469016829515800,1.152515869140625,0.020647414028644562,0.0018468257039785385,0.00998311024159193
1761469016839498500,1.16249853515625,0.020258858799934387,-0.0044648656621575356,0.011494187638163567
1761469016849481500,1.1724814453125,0.018553314730525017,-0.013054685667157173,0.009249333292245865
1761469016859464700,1.182464599609375,0.01514367014169693,-0.02073018252849579,0.00906690675765276
1761469016869447700,1.19244775390625,0.011980157345533371,-0.0184246227145195,0.0022359739523380995
1761469016879430700,1.2024306640625,0.008490883745253086,-0.019951414316892624,-0.0045412383042275906
1761469016889412600,1.21241259765625,0.005207065027207136,-0.012841975316405296,-0.004161597229540348
1761469016899395600,1.2223955078125,0.007181532680988312,-0.015469448640942574,-0.0029605114832520485
1761469016909378600,1.232378662109375,0.0070114415138959885,-0.020456943660974503,-0.0011172869708389044
1761469016919361500,1.242361572265625,0.012679181061685085,-0.018060896545648575,-0.0006315263453871012
1761469016929344800,1.2523447265625,0.014148999936878681,-0.018434254452586174,-0.0008903988637030125
1761469016939327700,1.26232763671875,0.015028375200927258,-0.010532921180129051,-0.0018488704226911068
1761469016949310500,1.272310546875,0.013622096739709377,-0.004761181306093931,-0.0052096485160291195
1761469016959293700,1.282293701171875,0.010581832379102707,-0.0005808174610137939,-0.007829133421182632
1761469016969276700,1.292276611328125,0.011747386306524277,-0.007272905670106411,-0.005523402243852615
1761469016979259400,1.30225927734375,0.009986238554120064,-0.012903360649943352,-0.010507774539291859
1761469016989242600,1.31224267578125,0.007398846559226513,-0.014096589758992195,-0.011327630840241909
1761469016999225600,1.3222255859375,0.00948303658515215,-0.009589988738298416,-0.01301953662186861
1761469017009208600,1.33220849609375,0.010159310884773731,-0.006421539932489395,-0.00638263113796711
1761469017019191600,1.342191650390625,0.005283862352371216,-0.0031525096856057644,0.0007578360382467508
1761469017029174500,1.352174560546875,0.0035614462103694677,0.0015225238166749477,0.004129808396100998
1761469017039156700,1.36215673828125,-0.003571830689907074,0.010890725068747997,0.01942487433552742
1761469017049139500,1.372139404296875,-0.0035180281847715378,0.010111754760146141,0.026359209790825844
1761469017059122700,1.382122802734375,0.003169169183820486,0.0069239516742527485,0.021435290575027466
1761469017069105700,1.392105712890625,-0.001669023185968399,0.005614730529487133,0.01597796566784382
1761469017079088600,1.402088623046875,-0.0009915148839354515,0.0014996135141700506,0.008890761062502861
1761469017089071600,1.412071533203125,-0.0013524931855499744,-0.000857414910569787,0.004908391274511814
1761469017099054600,1.4220546875,0.002182586584240198,-0.0001460844650864601,0.0003163022920489311
1761469017109037600,1.43203759765625,0.003252730704843998,0.006982744671404362,0.0015872141811996698
1761469017119020800,1.442020751953125,0.004782184027135372,0.015438546426594257,0.004768626764416695
1761469017129003500,1.45200341796875,0.002797917928546667,0.01442633755505085,0.007039045915007591
1761469017138986500,1.461986572265625,-0.002469281665980816,0.009212135337293148,0.011186120100319386
1761469017148969700,1.4719697265625,-0.007209033705294132,0.008739563636481762,0.016879551112651825
1761469017158952700,1.48195263671875,-0.006254290230572224,0.004213787615299225,0.021444741636514664
1761469017168935400,1.491935302734375,-0.006451976951211691,-0.008536703884601593,0.019097909331321716
1761469017178918700,1.501918701171875,-0.012110128998756409,-0.017378931865096092,0.020335480570793152
1761469017188901600,1.511901611328125,-0.013050955720245838,-0.01658977009356022,0.018531519919633865
1761469017198884600,1.521884521484375,-0.01579774171113968,-0.008837307803332806,0.017441488802433014
1761469017208866600,1.531866455078125,-0.018928568810224533,0.0007990689482539892,0.009195824153721333
1761469017218849500,1.541849609375,-0.017238525673747063,0.009755279868841171,0.011464038863778114
1761469017228832500,1.55183251953125,-0.013215889222919941,0.015464764088392258,0.011963581666350365
1761469017238815500,1.5618154296875,-0.005585933104157448,0.013938240706920624,-0.0009053449612110853
1761469017248798700,1.571798828125,-0.002982755657285452,0.010144234634935856,-0.0028527185786515474
1761469017258781700,1.58178173828125,0.007203302811831236,0.0046176426112651825,-0.010329009965062141
1761469017268764400,1.591764404296875,0.01108822226524353,-0.004746677819639444,-0.017866449430584908
1761469017278747600,1.60174755859375,0.014051254838705063,-0.007903588935732841,-0.02312352880835533
1761469017288730600,1.611730712890625,0.011932945810258389,-0.003664388321340084,-0.013982204720377922
1761469017298713600,1.621713623046875,0.008772306144237518,0.0017791127320379019,-0.00015906686894595623
1761469017308696600,1.631696533203125,0.0024504270404577255,0.002629659604281187,0.003267556894570589
1761469017318679600,1.641679443359375,-0.008343365043401718,0.006830529775470495,0.008744347840547562
1761469017328662500,1.65166259765625,-0.013697031885385513,0.007161103188991547,0.0041038403287529945
1761469017338645800,1.661645751953125,-0.015222489833831787,0.01650746539235115,-0.000304223969578743
1761469017348627500,1.67162744140625,-0.016543671488761902,0.019583161920309067,0.00042147864587605
1761469017358610700,1.681610595703125,-0.012088203802704811,0.012850157916545868,0.00047660619020462036
1761469017368593700,1.69159375,-0.0015142038464546204,0.006097369361668825,0.00012794183567166328
1761469017378576600,1.70157666015625,0.004064852371811867,-0.0003046034835278988,-0.0003540904726833105
1761469017388559600,1.7115595703125,0.007646933663636446,0.001548821572214365,0.00231879367493093
1761469017398542600,1.72154248046875,0.005031176842749119,0.003684144001454115,0.0056637246161699295
1761469017408525800,1.73152587890625,0.0012217857874929905,0.004866051487624645,-0.0024916694965213537
1761469017418508500,1.741508544921875,0.003163762856274843,0.004859127104282379,-0.006477356422692537
1761469017428491500,1.751491455078125,-0.0006695855408906937,0.0009272396564483643,-0.00807871948927641
1761469017438474800,1.761474853515625,-0.0012219254858791828,-0.0016815928975120187,-0.0063721658661961555
1761469017448457700,1.771457763671875,-0.0007270583882927895,0.00033181742765009403,-0.0032458011992275715
1761469017458440400,1.7814404296875,-0.0006426363252103329,0.010273397900164127,-0.0034175750333815813
1761469017468423700,1.791423583984375,0.002084941603243351,0.016090229153633118,0.0012612389400601387
1761469017478406700,1.80140673828125,-0.0016895565204322338,0.01274077221751213,-0.0010565102566033602
1761469017488389400,1.811389404296875,-0.0028553041629493237,0.009091628715395927,-0.00024962914176285267
1761469017498371600,1.82137158203125,0.002724285004660487,0.011804590933024883,0.001954403007403016
1761469017508354600,1.8313544921875,0.0025568611454218626,0.009756973013281822,-0.007216406054794788
1761469017518337500,1.841337646484375,0.00022739404812455177,0.009891727939248085,-0.015302028506994247
1761469017528320500,1.851320556640625,0.001453939825296402,0.005459068343043327,-0.013609361834824085
1761469017538307300,1.861307373046875,0.004609252791851759,0.0009324939455837011,-0.015277033671736717
1761469017548290300,1.871290283203125,0.007688593119382858,-0.00037997891195118427,-0.01731467805802822
1761469017558273300,1.881273193359375,0.0022858385927975178,0.002468538237735629,-0.008794426918029785
1761469017568256300,1.89125634765625,0.001447402872145176,0.008587085641920567,-0.0012862368021160364
1761469017578239500,1.901239501953125,-0.0029119253158569336,0.008634756319224834,0.007501661777496338
1761469017588222200,1.91122216796875,-0.0011808709241449833,0.003163557965308428,0.0016315223183482885
1761469017598205400,1.921205322265625,-0.005230206996202469,-0.0003131988923996687,0.0010821123141795397
1761469017608188400,1.9311884765625,-0.00034523801878094673,-0.0059956517070531845,0.0023944531567394733
1761469017618171400,1.94117138671875,-0.0004536285996437073,-0.002937277778983116,-0.0018050855724141002
1761469017628154400,1.951154296875,-0.0025756098330020905,-0.005791649222373962,-0.003533236449584365
1761469017638137300,1.961137451171875,-0.0047708535566926,-0.002932213246822357,-0.0016333373496308923
1761469017648119600,1.97111962890625,-0.0003925543278455734,-0.004885311238467693,-0.002048720372840762
1761469017658102300,1.981102294921875,0.002981670433655381,-0.010683812201023102,-0.0029323571361601353
1761469017668085200,1.991085205078125,0.004067645408213139,-0.022164497524499893,-0.004166269674897194
1761469017678068500,2.001068359375,0.008097806945443153,-0.02815607748925686,-0.0020410672295838594
1761469017688051500,2.011051513671875,0.01276925764977932,-0.02930682897567749,-0.009199378080666065
1761469017698034200,2.0210341796875,0.011186541058123112,-0.02569611556828022,-0.009161827154457569
1761469017708017400,2.031017333984375,0.01057374756783247,-0.021884065121412277,0.001027160556986928
1761469017718000400,2.04100048828125,0.01668516919016838,-0.026032472029328346,0.011313620023429394
1761469017727983400,2.0509833984375,0.01926295831799507,-0.03427349776029587,0.016734901815652847
1761469017737966300,2.06096630859375,0.019592389464378357,-0.041279472410678864,0.013490637764334679
1761469017747949300,2.07094921875,0.023802760988473892,-0.03658176586031914,0.008604634553194046
1761469017757932500,2.0809326171875,0.028224941343069077,-0.03962362930178642,0.005008568521589041
1761469017767915300,2.090915283203125,0.02457283064723015,-0.03299165144562721,-0.009758953005075455
1761469017777898200,2.100898193359375,0.02566206455230713,-0.018498461693525314,-0.0135869812220335
1761469017787880400,2.11088037109375,0.03146911412477493,-0.016691764816641808,-0.009544327855110168
1761469017797863200,2.12086328125,0.023235952481627464,-0.010353442281484604,-0.003065655706450343
1761469017807846400,2.130846435546875,0.01947375386953354,-0.0005966259632259607,0.002539845881983638
1761469017817829400,2.140829345703125,0.01684414967894554,-0.001758030615746975,-0.0012154775904491544
1761469017827812400,2.150812255859375,0.014788126572966576,-0.007723044138401747,0.00025398447178304195
1761469017837795300,2.16079541015625,0.010499904863536358,-0.010732149705290794,-0.0023849420249462128
1761469017847778300,2.1707783203125,0.010592044331133366,-0.006213299930095673,-0.0020621616858989
1761469017857761300,2.18076123046875,0.013762271031737328,0.002013471210375428,-0.0071538593620061874
1761469017867744500,2.19074462890625,0.011029988527297974,0.009792165830731392,-0.0017152720829471946
1761469017877727200,2.200727294921875,0.009496008045971394,0.01308969222009182,-0.0003490704111754894
1761469017887710200,2.210710205078125,0.007898609153926373,0.01378818228840828,-0.011422056704759598
1761469017897693400,2.220693359375,0.01014365442097187,0.011955659836530685,-0.0139017254114151
1761469017907676400,2.230676513671875,0.010366673581302166,0.012939289212226868,-0.009624272584915161
1761469017917659400,2.240659423828125,0.014077255502343178,0.006209481041878462,-0.007435687351971865
1761469017927642400,2.250642333984375,0.009517141617834568,0.004060050938278437,-0.005136861465871334
1761469017937624600,2.26062451171875,0.006742128171026707,0.010582398623228073,-0.006602665409445763
1761469017947607300,2.270607177734375,0.0007639606483280659,0.012016910128295422,-0.006859754212200642
1761469017957590300,2.28059033203125,0.00044997408986091614,0.009705551899969578,-0.007338057272136211
1761469017967573500,2.290573486328125,0.002979545621201396,0.002451700624078512,-0.005316157825291157
1761469017977556500,2.300556396484375,0.0016482314094901085,0.006688523106276989,-0.001793594448827207
1761469017987539200,2.310539306640625,0.006676253397017717,0.007711437530815601,-0.002611425705254078
1761469017997522400,2.3205224609375,0.014782116748392582,0.004291673190891743,-0.0023246032651513815
1761469018007505400,2.33050537109375,0.01367119699716568,-0.00028350367210805416,0.0030966426711529493
1761469018017488100,2.340488037109375,0.014188649132847786,-0.008041026070713997,0.009236826561391354
1761469018027471400,2.350471435546875,0.016913454979658127,-0.01675289310514927,0.012025030329823494
1761469018037454300,2.360454345703125,0.015512632206082344,-0.019092479720711708,0.01016214955598116
1761469018047437300,2.370437255859375,0.010589193552732468,-0.02117699757218361,0.011790060438215733
1761469018057420300,2.380420166015625,0.004871120676398277,-0.015569711104035378,0.012929360382258892
1761469018067402200,2.39040234375,0.001960332738235593,-0.01213017851114273,0.010244445875287056
1761469018077385500,2.400385498046875,-0.006322897505015135,-0.016312140971422195,0.008252667263150215
1761469018087368200,2.4103681640625,-0.0016798065043985844,-0.01751415804028511,0.005729986354708672
1761469018097351400,2.420351318359375,-0.0019527804106473923,-0.014788146130740643,0.011651791632175446
1761469018107334400,2.43033447265625,0.0020967493765056133,-0.014655587263405323,0.020278507843613625
1761469018117317400,2.4403173828125,0.0007209605537354946,-0.01141265593469143,0.025331057608127594
1761469018127300400,2.45030029296875,0.004941814113408327,-0.013864895328879356,0.023786146193742752
1761469018137283300,2.460283447265625,0.001319116447120905,-0.018660981208086014,0.01811787486076355
1761469018147266300,2.470266357421875,-0.003597363829612732,-0.01796136423945427,0.01763613149523735
1761469018157249500,2.48024951171875,0.0011550472117960453,-0.01832328736782074,0.013561761938035488
1761469018167232300,2.490232177734375,0.0052752369083464146,-0.020588312298059464,0.008258325979113579
1761469018177215200,2.50021533203125,0.008847867138683796,-0.02526828460395336,0.005176249425858259
1761469018187198500,2.510198486328125,0.011205245740711689,-0.02163366600871086,0.016526294872164726
1761469018197181400,2.520181396484375,0.004175832029432058,-0.012812476605176926,0.01599925570189953
1761469018207163400,2.530163330078125,0.002544459654018283,-0.008073306642472744,0.008230072446167469
1761469018217146400,2.540146484375,-0.002958962693810463,-0.0026138261891901493,0.012749988585710526
1761469018227129300,2.55012939453125,-0.002430366352200508,-0.007267174310982227,0.008479918353259563
1761469018237112300,2.5601123046875,0.0016549224965274334,-0.013436387293040752,0.008354749530553818
1761469018247095300,2.57009521484375,0.004716163035482168,-0.016887646168470383,0.008239364251494408
1761469018257078500,2.58007861328125,0.0036306583788245916,-0.024258211255073547,0.00951208733022213
1761469018267061200,2.590061279296875,-0.00033884216099977493,-0.031332969665527344,0.014390124008059502
1761469018277044200,2.600044189453125,-0.006717113312333822,-0.030179286375641823,0.017837852239608765
1761469018287027500,2.61002734375,-0.006207076832652092,-0.02173944190144539,0.014880910515785217
1761469018297010400,2.620010498046875,-0.0092055294662714,-0.00833069160580635,0.013909656554460526
1761469018306993200,2.6299931640625,-0.010636219754815102,-0.0008456322830170393,0.01968502067029476
1761469018316976400,2.639976318359375,-0.009578412398695946,0.002332317642867565,0.022236062213778496
1761469018326959400,2.64995947265625,-0.007748680654913187,0.004930098075419664,0.02480294182896614
1761469018336942300,2.6599423828125,-0.002244992647320032,-0.0036916194949299097,0.021321125328540802
1761469018346924300,2.66992431640625,0.002743641147390008,-0.012388437986373901,0.022232457995414734
1761469018356907300,2.6799072265625,0.0037215538322925568,-0.009454167447984219,0.025978460907936096
1761469018366890500,2.689890380859375,-0.0025097671896219254,-0.011765055358409882,0.021391358226537704
1761469018376873200,2.699873291015625,-0.009767680428922176,-0.010266760364174843,0.025979718193411827
1761469018386856200,2.709856201171875,-0.017788296565413475,-0.011995665729045868,0.02311999723315239
1761469018396839400,2.71983935546875,-0.016872702166438103,-0.019271153956651688,0.01579204387962818
1761469018406822400,2.729822509765625,-0.009980681352317333,-0.023245081305503845,0.011383544653654099
1761469018416805400,2.739805419921875,-0.0001608077436685562,-0.02598787099123001,0.008959535509347916
1761469018426788400,2.749788330078125,0.0024563029874116182,-0.012686971575021744,0.01122746430337429
1761469018436771300,2.759771240234375,0.00728594558313489,0.0027452483773231506,0.011341181583702564
1761469018446754600,2.769754638671875,0.0042457180097699165,0.011062627658247948,0.018277745693922043
1761469018456737300,2.7797373046875,0.0018720424268394709,0.00683246273547411,0.026109570637345314
1761469018466720300,2.78972021484375,-0.002838688902556896,-0.004430978558957577,0.028683912009000778
1761469018476702500,2.799702392578125,-0.010293674655258656,-0.014044457115232944,0.023177826777100563
1761469018486685200,2.809685302734375,-0.010738956741988659,-0.017736397683620453,0.023356791585683823
1761469018496668400,2.81966845703125,-0.011275050230324268,-0.012316065840423107,0.029998447746038437
1761469018506651400,2.8296513671875,-0.005398713052272797,-0.011612660251557827,0.03347500041127205
1761469018516634400,2.83963427734375,-0.0073233796283602715,-0.012799098156392574,0.03258204087615013
1761469018526617300,2.849617431640625,-0.006529625970870256,-0.012936649844050407,0.0251543540507555
1761469018536596200,2.85959619140625,-0.002129285130649805,-0.007778905797749758,0.015613580122590065
1761469018546579500,2.869579345703125,-0.0009802784770727158,-0.0008433598559349775,0.007645289413630962
1761469018556562400,2.8795625,-0.0003666863776743412,0.0012834405060857534,0.003767459886148572
1761469018566545400,2.88954541015625,0.0013740509748458862,0.007936342619359493,0.004611981101334095
1761469018576528400,2.8995283203125,0.004344807006418705,0.007573087699711323,0.0012081947643309832
1761469018586511400,2.909511474609375,0.011675268411636353,-0.004663204308599234,0.007974645122885704
1761469018596494300,2.919494384765625,0.005342804826796055,0.0019920351915061474,0.0044363695196807384
1761469018606476300,2.929476318359375,0.0031058890745043755,0.012905798852443695,0.005190434865653515
1761469018616459300,2.939459228515625,-0.005981349386274815,0.019167955964803696,0.006283928640186787
1761469018626442500,2.9494423828125,-0.0038371076807379723,0.02025332860648632,-0.0022313925437629223
1761469018636425500,2.959425537109375,-0.004860294051468372,0.027872631326317787,-0.00593185517936945
1761469018646408200,2.969408203125,-0.0005500935949385166,0.03707185387611389,0.003879888216033578
1761469018656391400,2.979391357421875,0.0050111194141209126,0.028362786397337914,0.004320109263062477
1761469018666374400,2.98937451171875,0.0025852893013507128,0.02217767760157585,0.006887761875987053
1761469018676357600,2.999357666015625,-0.0008275513537228107,0.021014409139752388,0.0019992634188383818
1761469018686340400,3.00934033203125,-0.0019075646996498108,0.02534322999417782,-0.0007668707985430956
1761469018696323300,3.0193232421875,-0.0035712411627173424,0.03502302244305611,0.0005766940303146839
1761469018706306600,3.029306640625,-0.0030898875556886196,0.04705691337585449,0.008139152079820633
1761469018716289300,3.039289306640625,-0.0054776775650680065,0.04691203683614731,0.01395602896809578
1761469018726272300,3.049272216796875,-0.0029937471263110638,0.045622002333402634,0.015371764078736305
1761469018736255500,3.05925537109375,-0.0010328618809580803,0.0491030178964138,0.014882275834679604
1761469018746237200,3.0692373046875,-0.0005908398889005184,0.054064419120550156,0.011216364800930023
1761469018756220400,3.079220458984375,0.0037133609876036644,0.06676424294710159,0.0035336774308234453
1761469018766203400,3.089203369140625,0.0038387328386306763,0.06545150279998779,-0.013811028562486172
1761469018776186400,3.099186279296875,0.002458416623994708,0.0731927752494812,-0.012638172134757042
1761469018786169300,3.10916943359375,0.0016271034255623817,0.07296095043420792,-0.008088286966085434
1761469018796152300,3.11915234375,0.00682106614112854,0.05505944415926933,-0.017111076042056084
1761469018806135300,3.12913525390625,0.00963742658495903,0.03446262329816818,-0.03028140962123871
1761469018816118500,3.139118408203125,0.012304583564400673,0.017445024102926254,-0.024650420993566513
1761469018826101200,3.149101318359375,0.007951704785227776,0.009428179822862148,-0.015878690406680107
1761469018836084500,3.15908447265625,0.006736238021403551,0.01407406385987997,-0.011133735999464989
1761469018846067500,3.1690673828125,0.0034003714099526405,0.021276580169796944,-0.007654327899217606
1761469018856050400,3.179050537109375,-0.0025496631860733032,0.023673957213759422,-0.00792037695646286
1761469018866033400,3.189033447265625,-0.004521655384451151,0.02690284326672554,0.0012308319564908743
1761469018876015400,3.199015380859375,-0.0031778239645063877,0.030954308807849884,0.005475112237036228
1761469018885998600,3.20899853515625,0.0041437819600105286,0.03579307720065117,0.012169858440756798
1761469018895981300,3.218981201171875,0.01251409761607647,0.039267703890800476,0.010548258200287819
1761469018905964300,3.22896435546875,0.0199618898332119,0.038420554250478745,0.012460147961974144
1761469018915947500,3.238947509765625,0.023357952013611794,0.0294283889234066,0.019037356600165367
1761469018925930500,3.248930419921875,-0.007181911263614893,0.031102385371923447,0.020396828651428223
1761469018935913200,3.258913330078125,-0.015596168115735054,0.03718318045139313,0.0043624695390462875
1761469018945896400,3.268896484375,-0.013995405286550522,0.03993096202611923,-0.011790206655859947
1761469018955879400,3.27887939453125,-0.008236320689320564,0.03312605246901512,-0.016044072806835175
1761469018965862400,3.2888623046875,-0.002022962551563978,0.028656931594014168,-0.01776694320142269
1761469018975845400,3.298845458984375,0.0076517690904438496,0.03158268332481384,-0.02383868396282196
1761469018985828400,3.308828369140625,0.00703890435397625,0.04499243199825287,-0.025353282690048218
1761469018995811600,3.3188115234375,0.00980326533317566,0.05770609900355339,-0.015693198889493942
1761469019005793300,3.328793212890625,0.0009904042817652225,0.05371275544166565,-0.004681766964495182
1761469019015776500,3.338776611328125,-0.006070966832339764,0.05202191323041916,0.008264657109975815
1761469019025759500,3.348759521484375,-0.008613955229520798,0.05129893124103546,0.005432190839201212
1761469019035742200,3.3587421875,-0.008219541981816292,0.053174592554569244,-0.0049304356798529625
1761469019045725400,3.368725341796875,-0.0026468769647181034,0.05352373421192169,-0.015751924365758896
1761469019055708400,3.37870849609375,0.008202042430639267,0.0469430647790432,-0.023333145305514336
1761469019065691400,3.38869140625,0.007187437731772661,0.045593179762363434,-0.02684737555682659
1761469019075674400,3.39867431640625,0.010467919521033764,0.04203493148088455,-0.03281765058636665
1761469019085657300,3.4086572265625,0.00823419913649559,0.04307209700345993,-0.03286279737949371
1761469019095640300,3.418640380859375,0.007003019563853741,0.0432414710521698,-0.03304309397935867
1761469019105623600,3.42862353515625,0.012563103809952736,0.04210316762328148,-0.03813672810792923
1761469019115606300,3.438606201171875,0.012826223857700825,0.04177000746130943,-0.03950532525777817
1761469019125589200,3.44858935546875,0.010062646120786667,0.04793550446629524,-0.02880898304283619
1761469019135571500,3.458571533203125,0.005101444199681282,0.0458662286400795,-0.015676669776439667
1761469019145554400,3.468554443359375,0.003357901470735669,0.04847850650548935,-0.015345145016908646
1761469019155537400,3.478537353515625,-0.001764422282576561,0.046283796429634094,-0.024252885952591896
1761469019165520400,3.488520263671875,-0.005245445761829615,0.040869589895009995,-0.027308059856295586
1761469019175503600,3.498503662109375,-0.0025950674898922443,0.03552275896072388,-0.0293874554336071
1761469019185486300,3.508486328125,-0.0031729782931506634,0.029751691967248917,-0.017602697014808655
1761469019195469300,3.51846923828125,-0.002996410708874464,0.029932253062725067,-0.006519152782857418
1761469019205452500,3.52845263671875,0.0009049945510923862,0.0318559892475605,-0.0005282463971525431
1761469019215435500,3.538435546875,-0.002785880584269762,0.03327704966068268,0.0021170713007450104
1761469019225418200,3.548418212890625,-0.0011964687146246433,0.03003208339214325,0.0052842143923044205
1761469019235401500,3.5584013671875,-0.0020145918242633343,0.025136392563581467,0.007945244200527668
1761469019245384400,3.568384521484375,0.0015763561241328716,0.017499428242444992,0.007968597114086151
1761469019255366400,3.578366455078125,0.004030458629131317,0.011931290850043297,0.005156299099326134
1761469019265349400,3.588349365234375,-0.00444757891818881,0.011848331429064274,0.00563606433570385
1761469019275332400,3.598332275390625,-0.009358182549476624,-0.0005851683672517538,0.0028016616124659777
1761469019285315300,3.6083154296875,-0.011487912386655807,-0.0036097203847020864,0.008667807094752789
1761469019295298300,3.61829833984375,-0.014926852658390999,0.0006992742419242859,0.014715046621859074
1761469019305281300,3.62828125,-0.021075095981359482,-0.001304815523326397,0.019221320748329163
1761469019315264500,3.638264404296875,-0.02149747498333454,-0.013594504445791245,0.027174584567546844
1761469019325247200,3.648247314453125,-0.016485508531332016,-0.02626011148095131,0.031751856207847595
1761469019335230500,3.65823046875,-0.013464952819049358,-0.03244450315833092,0.02745431661605835
1761469019345213400,3.66821337890625,-0.010859988629817963,-0.036268141120672226,0.024275973439216614
1761469019355196400,3.678196533203125,-0.00590917281806469,-0.02857746183872223,0.02672208659350872
1761469019365179400,3.688179443359375,-0.006115179508924484,-0.03389326110482216,0.02684660255908966
1761469019375162400,3.698162353515625,-0.008458495140075684,-0.04016181081533432,0.01824459247291088
1761469019385145300,3.708145263671875,-0.005381402559578419,-0.03757048770785332,0.017693905159831047
1761469019395127300,3.718127197265625,-0.008221929892897606,-0.034732360392808914,0.013100484386086464
1761469019405110300,3.7281103515625,-0.015438652597367764,-0.032491352409124374,0.007998370565474033
1761469019415093500,3.738093505859375,-0.012645530514419079,-0.02915547974407673,0.013261577114462852
1761469019425076500,3.748076416015625,-0.0037299846298992634,-0.030337341129779816,0.015337018296122551
1761469019435059200,3.75805908203125,0.0036616185680031776,-0.03217918425798416,0.018064627423882484
1761469019445042400,3.76804248046875,0.005532489158213139,-0.03517124801874161,0.023142743855714798
1761469019455025400,3.778025390625,0.007803632877767086,-0.035932376980781555,0.01919327676296234
1761469019465008400,3.78800830078125,0.005603055469691753,-0.033510226756334305,0.015477645210921764
1761469019474991400,3.797991455078125,0.01139117032289505,-0.02771145850419998,0.008908692747354507
1761469019484974300,3.807974365234375,0.00685548409819603,-0.023336758837103844,0.0014954351354390383
1761469019494957600,3.81795751953125,0.010124780237674713,-0.020705023780465126,-0.0024420488625764847
1761469019504940500,3.8279404296875,0.009442795068025589,-0.020124634727835655,-0.006711534224450588
1761469019514922500,3.837922607421875,0.0076859076507389545,-0.020046871155500412,-0.0069120703265070915
1761469019524905500,3.847905517578125,0.005933088716119528,-0.015231555327773094,-0.014133177697658539
1761469019534891800,3.857891845703125,0.008533665910363197,-0.008598685264587402,-0.01046760380268097
1761469019544875000,3.867875,0.0113951675593853,-0.013897646218538284,-0.005637499038130045
1761469019554858000,3.87785791015625,0.012857243418693542,-0.02260245569050312,0.001704836031422019
1761469019564840700,3.8878408203125,0.01628260500729084,-0.028456617146730423,0.006526750046759844
1761469019574824000,3.897823974609375,0.015898577868938446,-0.028465405106544495,0.006739004049450159
1761469019584807000,3.907806884765625,0.017378026619553566,-0.026622164994478226,0.0009869127534329891
1761469019594789600,3.91778955078125,0.014666661620140076,-0.026270894333720207,-0.005573518108576536
1761469019604772900,3.92777294921875,0.012811386957764626,-0.02788384258747101,-0.007564915809780359
1761469019614755800,3.937755859375,0.01145211048424244,-0.02837652713060379,-0.002235397696495056
1761469019624738800,3.94773876953125,0.012537071481347084,-0.024013735353946686,-0.00849008746445179
1761469019634720800,3.957720703125,0.010658744722604752,-0.016913747414946556,-0.011225154623389244
1761469019644703700,3.967703857421875,0.015597518533468246,-0.025434866547584534,-0.01250407937914133
1761469019654687000,3.97768701171875,0.018915817141532898,-0.040965624153614044,-0.019186750054359436
1761469019664669700,3.987669677734375,0.017895672470331192,-0.044255275279283524,-0.015302632004022598
1761469019674653000,3.99765283203125,0.018397942185401917,-0.031930167227983475,-0.0022787083871662617
1761469019684633900,4.0076337890625,0.02170705795288086,-0.026051115244627,-0.000999201787635684
1761469019694616800,4.017616943359375,0.014842761680483818,-0.02490196004509926,-0.0044205645099282265
1761469019704599800,4.027599853515625,0.008709306828677654,-0.022376155480742455,-0.002431656699627638
1761469019714583000,4.0375830078125,0.0037944428622722626,-0.02331412024796009,-0.0019400371238589287
1761469019724565800,4.047565673828125,0.005979570094496012,-0.02926948294043541,-0.003680685069411993
1761469019734548700,4.057548828125,0.0034932431299239397,-0.03119414858520031,-0.0025576299522072077
1761469019744532000,4.067531982421875,0.002133704489096999,-0.02880263328552246,0.0006685180123895407
1761469019754515000,4.077514892578125,0.003088181372731924,-0.02549205720424652,0.007000449579209089
1761469019764497700,4.08749755859375,0.007475786842405796,-0.031390078365802765,0.009143322706222534
1761469019774481000,4.09748095703125,0.00924146268516779,-0.0415915846824646,0.003321652766317129
1761469019784464000,4.1074638671875,0.008029728196561337,-0.04406779631972313,0.0025258942041546106
1761469019794445800,4.11744580078125,0.004817422945052385,-0.042841676622629166,-0.0025199970696121454
1761469019804428800,4.1274287109375,-0.000829869881272316,-0.04216744005680084,-0.0018891707295551896
1761469019814411800,4.137411865234375,-0.011664408259093761,-0.02830701507627964,0.009312883019447327
1761469019824395000,4.14739501953125,-0.013107642531394958,-0.004016655031591654,0.012875860556960106
1761469019834377700,4.157377685546875,-0.016441121697425842,0.01112767681479454,0.014198387041687965
1761469019844360700,4.167360595703125,-0.008402152918279171,0.007438063621520996,0.014714154414832592
1761469019854344000,4.177343994140625,-0.0014385194517672062,-0.02226071059703827,0.005002139136195183
1761469019864327000,4.187326904296875,0.0036354484036564827,-0.03907230868935585,-0.0022617413196712732
1761469019874310000,4.197309814453125,0.0009592380374670029,-0.04158073663711548,-0.0012353591155260801
1761469019884292900,4.20729296875,0.0037614195607602596,-0.03780172020196915,-0.0009626569226384163
1761469019894275800,4.21727587890625,-0.0010730167850852013,-0.030968844890594482,-0.00191393808927387
1761469019904259000,4.227259033203125,-0.00464564748108387,-0.027493152767419815,0.0014698742888867855
1761469019914241800,4.23724169921875,-0.004253895953297615,-0.024782054126262665,-0.0003485321067273617
1761469019924224000,4.24722412109375,-0.004064545035362244,-0.02083418518304825,0.0015489701181650162
1761469019934207000,4.25720703125,-0.004722612909972668,-0.019298072904348373,0.011976577341556549
1761469019944189700,4.267189697265625,-0.009310566820204258,-0.0067597804591059685,0.015510981902480125
1761469019954173000,4.2771728515625,-0.010678633116185665,-0.0035482747480273247,0.02041439525783062
1761469019964156000,4.287156005859375,-0.010856595821678638,-0.0005594759713858366,0.017241166904568672
1761469019974138600,4.297138671875,-0.008227788843214512,0.0044989315792918205,0.0048223151825368404
1761469019984121900,4.307121826171875,-0.006124844774603844,-0.00010712095536291599,-0.009734624065458775
1761469019994104800,4.317104736328125,-0.0037479735910892487,-0.009363203309476376,-0.01574830897152424
1761469020004087800,4.327087890625,-0.001934556756168604,-0.015853799879550934,-0.014776994474232197
1761469020014070800,4.33707080078125,0.0007531051523983479,-0.014228472486138344,-0.01552028302103281
1761469020024053800,4.3470537109375,0.00006682006642222404,-0.007976710796356201,-0.0027616280131042004
1761469020034037000,4.357037109375,-0.004047497175633907,-0.001950776786543429,0.005915483459830284
1761469020044018700,4.367018798828125,-0.00685149198397994,0.0009130130056291819,-0.002935165073722601
1761469020054002000,4.377001953125,-0.010708548128604889,0.009901448152959347,-0.006611925549805164
1761469020063985000,4.38698486328125,-0.00832015834748745,0.021825283765792847,-0.006839560344815254
1761469020073967900,4.3969677734375,-0.006268192548304796,0.015721052885055542,-0.006396676879376173
1761469020083950800,4.406950927734375,-0.00300254812464118,0.002591716591268778,0.003017111448571086
1761469020093933800,4.416933837890625,-0.000601442065089941,-0.005617477465420961,0.003549743676558137
1761469020103916800,4.426916748046875,-0.0071480958722531796,-0.009003480896353722,0.0056610386818647385
1761469020113900000,4.436900146484375,-0.008000839501619339,-0.0010089382994920015,-0.00805450789630413
1761469020123882800,4.4468828125,-0.0076111555099487305,0.0017147476319223642,-0.017154723405838013
1761469020133865700,4.45686572265625,-0.00561884418129921,-0.0041466038674116135,-0.020548922941088676
1761469020143849000,4.466848876953125,0.0012345449067652225,-0.011289481073617935,-0.016728369519114494
1761469020153832000,4.47683203125,-0.00029890332370996475,-0.01144394464790821,-0.013285700231790543
1761469020163814000,4.48681396484375,0.0002140258438885212,-0.011064446531236172,-0.009727990254759789
1761469020173796900,4.496796875,-0.001029403880238533,-0.005974613130092621,-0.008262718096375465
1761469020183779800,4.50677978515625,-0.007552551105618477,0.0013810377568006516,-0.0037776888348162174
1761469020193762800,4.5167626953125,-0.011707614175975323,0.004034611862152815,-0.00882970541715622
1761469020203745800,4.526745849609375,-0.007010466884821653,-0.0024034460075199604,-0.0192614383995533
1761469020213729000,4.53672900390625,0.0003377273678779602,-0.014800993725657463,-0.02378481812775135
1761469020223712000,4.5467119140625,0.002799074165523052,-0.016762861981987953,-0.024785811081528664
1761469020233694700,4.55669482421875,0.0048734103329479694,-0.007432210724800825,-0.012344054877758026
1761469020243678000,4.566677978515625,-0.0018093842081725597,-0.00021492340601980686,-0.005187223665416241
1761469020253661000,4.576660888671875,-0.0021433448418974876,0.0048277718015015125,-0.005864199250936508
1761469020263643600,4.5866435546875,-0.0035295160487294197,0.0043236324563622475,-0.011495726183056831
1761469020273627000,4.596626953125,-0.0028674546629190445,0.0038088434375822544,-0.013423588126897812
1761469020283609900,4.60660986328125,-0.0011252248659729958,0.0016575544141232967,-0.013169504702091217
1761469020293592800,4.6165927734375,-0.00020137429237365723,-0.004740423522889614,-0.005232219118624926
1761469020303575800,4.626575927734375,-0.00621066614985466,-0.009125715121626854,0.00971144624054432
1761469020313558800,4.636558837890625,-0.011043238453567028,-0.004714987240731716,0.008433395996689796
1761469020323541800,4.646541748046875,-0.016466565430164337,0.0039860280230641365,0.009610181674361229
1761469020333525000,4.65652490234375,-0.02069753035902977,0.005616947077214718,0.0067552728578448296
1761469020343507700,4.6665078125,-0.01639951951801777,-0.013284377753734589,0.0035050795413553715
1761469020353491000,4.676490966796875,-0.0102689228951931,-0.019825100898742676,0.0007732091471552849
1761469020363474000,4.686473876953125,-0.0007133777253329754,-0.011687109246850014,0.004556125961244106
1761469020373457000,4.696456787109375,0.004308012779802084,0.002289426513016224,0.004187810234725475
1761469020383440000,4.70643994140625,0.00668495474383235,0.005724417045712471,0.007561820559203625
1761469020393421800,4.716421875,0.009161162190139294,0.005470084957778454,0.0021966162603348494
1761469020403405000,4.726405029296875,0.007610411383211613,-0.004523713141679764,-0.007280527614057064
1761469020413387800,4.7363876953125,0.002341080689802766,-0.023196199908852577,-0.01023157685995102
1761469020423370800,4.746370849609375,-0.0020626606419682503,-0.04746098071336746,-0.005131811834871769
1761469020433354000,4.75635400390625,-0.0035417797043919563,-0.04925941303372383,-0.007065000478178263
1761469020443337000,4.7663369140625,-0.008994934149086475,-0.03710082545876503,-0.015737123787403107
1761469020453319700,4.776319580078125,-0.006028172560036182,-0.008765856735408306,-0.011020664125680923
1761469020463303000,4.786302978515625,-0.010011797770857811,-0.00037935422733426094,0.000053232768550515175
1761469020473286000,4.796285888671875,-0.010137233883142471,-0.0042643737979233265,0.0024213155265897512
1761469020483268900,4.806268798828125,-0.0064803739078342915,-0.009275857359170914,-0.0001901276409626007
1761469020493251800,4.816251953125,-0.003969013225287199,-0.0035244948230683804,-0.00406609196215868
1761469020503234800,4.82623486328125,-0.004837927408516407,-0.0014719385653734207,-0.0020444330293685198
1761469020513216800,4.836216796875,-0.0035971608012914658,0.0006854883395135403,-0.004131019581109285
1761469020523199700,4.84619970703125,0.0007121539674699306,-0.00025505642406642437,-0.00876882579177618
1761469020533183000,4.856182861328125,-0.004165424965322018,-0.001655346481129527,-0.009098258800804615
1761469020543162600,4.86616259765625,-0.00624209176748991,-0.004473172593861818,-0.008682740852236748
1761469020553145600,4.8761455078125,-0.002677449956536293,0.00006165821105241776,-0.012370952405035496
1761469020563128800,4.88612890625,-0.005225029774010181,0.007289211265742779,-0.014996030367910862
1761469020573111600,4.896111572265625,0.0015854714438319206,0.010348650626838207,-0.02121051587164402
1761469020583094500,4.906094482421875,0.0016354182735085487,0.011901923455297947,-0.02141573466360569
1761469020593077800,4.916077880859375,0.007123926654458046,0.016018105670809746,-0.018800510093569756
1761469020603060500,4.926060546875,0.008382206782698631,0.019984282553195953,-0.006249368656426668
1761469020613043500,4.93604345703125,0.0017346907407045364,0.017410073429346085,0.0012865778990089893
1761469020623026700,4.946026611328125,0.0007812036201357841,0.022550977766513824,-0.0026205996982753277
1761469020633008600,4.956008544921875,-0.0028406959027051926,0.021396230906248093,-0.006418000906705856
1761469020642991600,4.96599169921875,-0.010298604145646095,0.013923395425081253,-0.014658898115158081
1761469020652974600,4.975974609375,-0.009497525170445442,0.009096682071685791,-0.010676140896975994
1761469020662957600,4.98595751953125,-0.007759947329759598,0.008418508805334568,-0.0018625390948727727
1761469020672940500,4.9959404296875,-0.003273586742579937,0.008023295551538467,0.0020704171620309353
1761469020682923500,5.005923583984375,-0.0010258271358907223,0.007814595475792885,-0.008609296754002571
1761469020692906500,5.015906494140625,0.005326877348124981,0.013572083786129951,-0.004762093536555767
1761469020702889700,5.0258896484375,0.0012465291656553745,0.010287716053426266,-0.0023592838551849127
1761469020712872400,5.03587255859375,0.0017139138653874397,0.010795580223202705,-0.008205188438296318
1761469020722855700,5.045855712890625,-0.003564013633877039,0.007604789454489946,-0.014101481065154076
1761469020732838700,5.055838623046875,-0.006038089748471975,0.0026228143833577633,-0.009603934362530708
1761469020742820600,5.065820556640625,0.00034250272437930107,0.01243465393781662,-0.007580243982374668
1761469020752803600,5.075803466796875,-0.0032018981873989105,0.009785342961549759,-0.006352793425321579
1761469020762786600,5.08578662109375,0.0028316350653767586,0.015272894874215126,-0.0052248332649469376
1761469020772769800,5.095769775390625,-0.002488561440259218,0.017738716676831245,-0.004138263873755932
1761469020782752500,5.10575244140625,0.00005563488230109215,0.009158865548670292,-0.025077054277062416
1761469020792735500,5.115735595703125,0.0034005651250481606,0.008919181302189827,-0.03400636464357376
1761469020802718700,5.12571875,0.004325329326093197,0.012491968460381031,-0.03965183347463608
1761469020812701700,5.13570166015625,0.011206937953829765,0.01649629883468151,-0.03978419303894043
1761469020822684400,5.145684326171875,0.01111279334872961,0.01798088103532791,-0.0264434851706028
1761469020832667600,5.155667724609375,0.0015152934938669205,0.022078953683376312,-0.01119875255972147
1761469020842650600,5.165650634765625,-0.009295749478042126,0.029242441058158875,-0.0033077073749154806
1761469020852633600,5.175633544921875,-0.015508105978369713,0.026464497670531273,-0.007566900923848152
1761469020862615600,5.185615478515625,-0.016243522986769676,0.014477675780653954,-0.01005181297659874
1761469020872598500,5.1955986328125,-0.009082281962037086,0.0058168089017271996,-0.008989743888378143
1761469020882581800,5.205581787109375,0.0007041068747639656,-0.008191889151930809,-0.005946490913629532
1761469020892564500,5.215564453125,-0.0006333324126899242,-0.006858444772660732,-0.006266603246331215
1761469020902547700,5.225547607421875,-0.004871496930718422,0.008695229887962341,-0.0009000487625598907
1761469020912530700,5.23553076171875,-0.00955013744533062,0.0257842019200325,-0.006963001564145088
1761469020922513400,5.245513427734375,-0.01458836905658245,0.01932303048670292,-0.019792325794696808
1761469020932496600,5.25549658203125,-0.008870827034115791,0.002090780297294259,-0.028133343905210495
1761469020942479600,5.265479736328125,0.005817574914544821,-0.007363179698586464,-0.026525868102908134
1761469020952462600,5.275462646484375,0.008821354247629642,-0.019701339304447174,-0.0172980148345232
1761469020962445600,5.285445556640625,0.01653459295630455,-0.02883976511657238,-0.017926041036844254
1761469020972428500,5.295428466796875,0.013864508830010891,-0.03443692997097969,-0.020955918356776237
1761469020982410800,5.30541064453125,0.011022306978702545,-0.026531899347901344,-0.02449955977499485
1761469020992393500,5.3153935546875,0.0048600188456475735,-0.012232854962348938,-0.026098521426320076
1761469021002376400,5.32537646484375,-0.003276796080172062,0.0029068493749946356,-0.017124291509389877
1761469021012359700,5.335359619140625,-0.005620110780000687,0.0008892386686056852,-0.012787867337465286
1761469021022342700,5.3453427734375,-0.002754536457359791,0.007585472427308559,-0.011209435760974884
1761469021032325600,5.35532568359375,-0.002784896641969681,-0.0014719385653734207,-0.015051044523715973
1761469021042308600,5.36530859375,0.002803281880915165,-0.006755850277841091,-0.016872849315404892
1761469021052291600,5.37529150390625,0.0021348283626139164,-0.0008745254017412663,-0.020667320117354393
1761469021062274800,5.38527490234375,0.009728148579597473,0.004683653824031353,-0.02361287549138069
1761469021072257500,5.395257568359375,0.007928650826215744,0.006602461449801922,-0.010746613144874573
1761469021082240500,5.405240478515625,0.01089768297970295,0.0035977326333522797,-0.0006405981257557869
1761469021092223700,5.4152236328125,0.011480381712317467,0.004077634308487177,0.0030308356508612633
1761469021102205400,5.425205322265625,0.006513452157378197,0.009013673290610313,-0.000877749640494585
1761469021112188700,5.435188720703125,0.004382390528917313,0.01043526828289032,-0.01636110246181488
1761469021122171600,5.445171630859375,-0.0010053827427327633,0.006926885340362787,-0.028602521866559982
1761469021132154600,5.455154541015625,0.0019757598638534546,0.009257417172193527,-0.03356878459453583
1761469021142137600,5.4651376953125,0.0033452860079705715,0.01560973096638918,-0.030014121904969215
1761469021152120600,5.47512060546875,0.0019857424777001143,0.01889340952038765,-0.020041117444634438
1761469021162103600,5.485103515625,0.0011582286097109318,0.013770762830972672,-0.0011455146595835686
1761469021172086800,5.495086669921875,-0.0024610068649053574,0.018302664160728455,0.016701659187674522
1761469021182069500,5.505069580078125,-0.010747893713414669,0.02374701388180256,0.023994246497750282
1761469021192052500,5.515052490234375,-0.022594965994358063,0.0182755496352911,0.010061652399599552
1761469021202035700,5.52503564453125,-0.02587917260825634,0.011803263798356056,-0.007317610550671816
1761469021212017700,5.535017578125,-0.015243306756019592,0.006444982718676329,-0.011882801540195942
1761469021222000600,5.545000732421875,-0.007498304359614849,-0.0009993452113121748,-0.015065005980432034
1761469021231983600,5.554983642578125,0.003503213869407773,-0.008328097872436047,-0.012762436643242836
1761469021241966600,5.564966552734375,0.00950651802122593,-0.006522218696773052,-0.01091874297708273
1761469021251949600,5.574949462890625,0.014133760705590248,-0.008576314896345139,-0.008675828576087952
1761469021261932500,5.5849326171875,0.0075488220900297165,-0.006259621120989323,-0.005935956723988056
1761469021271915800,5.594915771484375,0.0017095748335123062,-0.002647575456649065,-0.0005656923167407513
1761469021281898500,5.6048984375,-0.005006179679185152,0.004328232258558273,0.0009391827043145895
1761469021291881500,5.614881591796875,-0.00937695987522602,0.006054227240383625,-0.0036739446222782135
1761469021301864700,5.62486474609375,-0.01054137572646141,0.00919540785253048,-0.0089504923671484
1761469021311847700,5.63484765625,-0.012422632426023483,0.003571610664948821,-0.009427463635802269
1761469021321829600,5.64482958984375,-0.008871497586369514,0.0013995657209306955,-0.007632188964635134
1761469021331812600,5.6548125,-0.008272020146250725,0.003348999423906207,-0.0013324812753126025
1761469021341795600,5.664795654296875,-0.007697844412177801,0.003727707779034972,0.00950978696346283
1761469021351778600,5.674778564453125,-0.010021453723311424,0.008630321361124516,0.015208418481051922
1761469021361761500,5.684761474609375,-0.01473112590610981,0.0019848246593028307,0.009409801103174686
1761469021371744500,5.69474462890625,-0.01720520108938217,0.0011946649756282568,0.007657174952328205
1761469021381727700,5.704727783203125,-0.017904330044984818,0.0008773703593760729,0.008120723068714142
1761469021391710500,5.71471044921875,-0.01497458666563034,0.00446731224656105,0.0096091628074646
1761469021401693700,5.724693603515625,-0.011384922079741955,-0.006063878536224365,0.0022729712072759867
1761469021411676700,5.7346767578125,-0.004890803247690201,-0.004022565670311451,0.006481298245489597
1761469021421659600,5.74465966796875,-0.003428930416703224,-0.007873425260186195,0.008616158738732338
1761469021431641600,5.7546416015625,0.00005847914144396782,-0.013219187967479229,0.014623984694480896
1761469021441624600,5.76462451171875,-0.00242649856954813,-0.002858448075130582,0.011594610288739204
1761469021451607800,5.77460791015625,-0.0033378321677446365,0.011586004868149757,0.004093816038221121
1761469021461590500,5.784590576171875,-0.005483361892402172,0.010885026305913925,0.0002963859587907791
1761469021471573500,5.794573486328125,-0.00435950793325901,-0.0013178444933146238,0.001549669774249196
1761469021481556700,5.804556640625,-0.005517509765923023,-0.013453954830765724,0.0023748991079628468
1761469021491539700,5.814539794921875,-0.0041230786591768265,-0.018201040104031563,0.0028318976983428
1761469021501522400,5.8245224609375,0.00030703330412507057,-0.014653520658612251,-0.002083048690110445
1761469021511505700,5.834505615234375,-0.0020112483762204647,-0.013669482432305813,-0.006917218677699566
1761469021521488600,5.844488525390625,0.000028450507670640945,-0.01976436749100685,-0.00849191565066576
1761469021531471600,5.8544716796875,-0.0019449517130851746,-0.015436996705830097,-0.009463436901569366
1761469021541453800,5.864453857421875,-0.005250256042927504,-0.00731098186224699,-0.0009589879773557186
1761469021551435800,5.874435791015625,-0.006913666147738695,0.00037836330011487007,0.0010498345363885164
1761469021561418800,5.884418701171875,-0.010904032737016678,0.006272144615650177,-0.0024624201469123363
1761469021571401700,5.894401611328125,-0.011854248121380806,0.020321384072303772,-0.007729886099696159
1761469021581384700,5.904384765625,-0.014339093118906021,0.03235173970460892,-0.00913196336477995
1761469021591367700,5.91436767578125,-0.015574799850583076,0.03634834662079811,-0.014707024209201336
1761469021601351000,5.924350830078125,-0.015653103590011597,0.04209253191947937,-0.01708707958459854
1761469021611334000,5.934333984375,-0.01353935245424509,0.040604621171951294,-0.01392457541078329
1761469021621316600,5.944316650390625,-0.0027907751500606537,0.027905967086553574,-0.016840646043419838
1761469021631299800,5.9542998046875,0.0017246142961084843,0.01970290020108223,-0.028751900419592857
1761469021641282800,5.96428271484375,0.008339977823197842,0.022438544780015945,-0.02646952122449875
1761469021651265800,5.974265869140625,0.006826236844062805,0.027681244537234306,-0.021745871752500534
1761469021661247700,5.984247802734375,-0.006258678622543812,0.0364537239074707,-0.014549989253282547
1761469021671230700,5.994230712890625,-0.015637267380952835,0.0484805591404438,-0.010838341899216175
1761469021681214000,6.0042138671875,-0.021571122109889984,0.06064847856760025,-0.02362743765115738
1761469021691196700,6.01419677734375,-0.024333886802196503,0.07006222009658813,-0.03283851221203804
1761469021701179600,6.0241796875,-0.017925383523106575,0.06719543784856796,-0.03726110979914665
1761469021711163000,6.034162841796875,-0.0098615987226367,0.0533941350877285,-0.03402004390954971
1761469021721145900,6.044145751953125,0.005752313882112503,0.04382174462080002,-0.021322552114725113
1761469021731128600,6.054128662109375,0.012991052120923996,0.0314316563308239,-0.01191600039601326
1761469021741111800,6.06411181640625,0.022288281470537186,0.026194674894213676,-0.005216156132519245
1761469021751094800,6.0740947265625,0.01712707430124283,0.020647842437028885,-0.007303009741008282
1761469021761076700,6.08407666015625,0.01580248773097992,0.026438411325216293,-0.010899016633629799
1761469021771059700,6.094059814453125,0.00023391516879200935,0.021202370524406433,-0.023557554930448532
1761469021781042700,6.104042724609375,-0.004252782091498375,0.028060484677553177,-0.02356533519923687
1761469021791026000,6.11402587890625,-0.009469647891819477,0.0359162800014019,-0.021749060600996017
1761469021801008600,6.124008544921875,-0.011273808777332306,0.04434613138437271,-0.023534832522273064
1761469021810991900,6.133991943359375,-0.008071358315646648,0.04348193481564522,-0.02189778722822666
1761469021820974800,6.143974853515625,-0.0038768062368035316,0.03824859485030174,-0.02375582978129387
1761469021830957600,6.15395751953125,-0.0019180509261786938,0.028288105502724648,-0.02659182995557785
1761469021840940800,6.16394091796875,-0.0012257611379027367,0.02061806619167328,-0.025533093139529228
1761469021850923800,6.173923828125,0.0017939973622560501,0.020599955692887306,-0.024313099682331085
1761469021860906800,6.18390673828125,0.0031414225231856108,0.021776942536234856,-0.019869478419423103
1761469021870888700,6.193888671875,0.006851471960544586,0.021365217864513397,-0.021168302744627
1761469021880871700,6.20387158203125,0.0034026685170829296,0.023752005770802498,-0.0299761351197958
1761469021890855000,6.21385498046875,0.006024284288287163,0.03152364119887352,-0.02636302448809147
1761469021900837600,6.223837646484375,0.0023167114704847336,0.031735893338918686,-0.020888611674308777
1761469021910820600,6.233820556640625,-0.000463895034044981,0.030445057898759842,-0.01995144411921501
1761469021920803800,6.243803955078125,-0.0004876670427620411,0.03401710093021393,-0.019030584022402763
1761469021930786800,6.253786865234375,-0.0021412232890725136,0.0356416292488575,-0.016866764053702354
1761469021940769800,6.263769775390625,-0.005252405069768429,0.03208204358816147,-0.018481995910406113
1761469021950752800,6.273752685546875,-0.005318451672792435,0.024358876049518585,-0.022717488929629326
1761469021960735700,6.28373583984375,-0.0066858381032943726,0.025543244555592537,-0.016724493354558945
1761469021970719000,6.293718994140625,-0.006963073275983334,0.01919453591108322,-0.011010413989424706
1761469021980700700,6.30370068359375,-0.006859945133328438,0.01743825152516365,-0.010976787656545639
1761469021990684000,6.313683837890625,-0.012876025401055813,0.03513868525624275,-0.008589264005422592
1761469022000667000,6.3236669921875,-0.017492085695266724,0.050323236733675,-0.016489524394273758
1761469022010649600,6.333649658203125,-0.020043127238750458,0.049798328429460526,-0.028852984309196472
1761469022020632800,6.3436328125,-0.015259151346981525,0.04320365935564041,-0.03816354274749756
1761469022030615800,6.35361572265625,-0.011774138547480106,0.03285728022456169,-0.04418548569083214
1761469022040598800,6.363598876953125,-0.007662623655050993,0.021979747340083122,-0.04217810928821564
1761469022050581800,6.373581787109375,-0.0034785312600433826,0.034161847084760666,-0.03606295958161354
1761469022060564700,6.383564697265625,-0.005068712402135134,0.044956471771001816,-0.03761981800198555
1761469022070547700,6.393547607421875,-0.007233862299472094,0.05336993187665939,-0.037592384964227676
1761469022080531000,6.403531005859375,-0.00987984612584114,0.05571870133280754,-0.03975074738264084
1761469022090512600,6.4135126953125,-0.016628028824925423,0.06564509868621826,-0.04584459215402603
1761469022100496000,6.423495849609375,-0.01934751309454441,0.0750427171587944,-0.054839830845594406
1761469022110478800,6.433478759765625,-0.020458851009607315,0.08334432542324066,-0.0604495145380497
1761469022120461800,6.4434619140625,-0.025078171864151955,0.08670306205749512,-0.059523314237594604
1761469022130444800,6.45344482421875,-0.010582586750388145,0.09027888625860214,-0.05979149788618088
1761469022140427800,6.463427734375,-0.0030189459212124348,0.09058279544115067,-0.056231360882520676
1761469022150410800,6.47341064453125,0.0038442867808043957,0.08720537275075912,-0.04989037290215492
1761469022160393700,6.483393798828125,0.007319115102291107,0.08709526807069778,-0.03926711902022362
1761469022170376700,6.493376708984375,0.0021086405031383038,0.07803305983543396,-0.030287738889455795
1761469022180360000,6.50335986328125,-0.0006060507148504257,0.07354389131069183,-0.030656730756163597
1761469022190342700,6.5133427734375,-0.006358212325721979,0.07516096532344818,-0.02701113000512123
1761469022200324900,6.523324951171875,-0.014779256656765938,0.08091138303279877,-0.03290697932243347
1761469022210307800,6.533307861328125,-0.011690789833664894,0.0839628279209137,-0.027522331103682518
1761469022220290600,6.54329052734375,-0.014177186414599419,0.08881931006908417,-0.02414070814847946
1761469022230273800,6.553273681640625,-0.014697033911943436,0.08344584703445435,-0.021710840985178947
1761469022240256800,6.5632568359375,-0.014857359230518341,0.08524402976036072,-0.020061803981661797
1761469022250239700,6.57323974609375,-0.012217633426189423,0.08190175890922546,-0.02887074276804924
1761469022260222700,6.58322265625,-0.008894274942576885,0.0691010132431984,-0.030284879729151726
1761469022270205700,6.593205810546875,-0.0030579576268792152,0.05491594970226288,-0.034610118716955185
1761469022280188700,6.603188720703125,0.005734799429774284,0.03709815815091133,-0.03702766075730324
1761469022290172000,6.613171875,0.0009626811370253563,0.033391837030649185,-0.03342227265238762
1761469022300153900,6.62315380859375,0.00013923458755016327,0.0406622439622879,-0.0317186638712883
1761469022310136800,6.63313671875,-0.0031210072338581085,0.04560107737779617,-0.03477597236633301
1761469022320119800,6.643119873046875,-0.0014855600893497467,0.05635412037372589,-0.03484947606921196
1761469022330102800,6.653102783203125,-0.008372494950890541,0.05609526112675667,-0.03251148387789726
1761469022340085800,6.663085693359375,-0.009445472620427608,0.05704544484615326,-0.025075698271393776
1761469022350068700,6.67306884765625,-0.010981850326061249,0.05628324672579765,-0.02251586690545082
1761469022360052000,6.683052001953125,-0.010649100877344608,0.05448209494352341,-0.02193831093609333
1761469022370034700,6.69303466796875,-0.010252556763589382,0.0476396344602108,-0.01910816878080368
1761469022380017700,6.703017578125,-0.007205101661384106,0.03414328396320343,-0.015218881890177727
1761469022390001000,6.7130009765625,-0.005868460983037949,0.023568667471408844,-0.011273941025137901
1761469022399983900,6.72298388671875,-0.005170907825231552,0.020453304052352905,-0.01329738274216652
1761469022409965800,6.7329658203125,-0.005395412445068359,0.024767357856035233,-0.013604709878563881
1761469022419948800,6.74294873046875,-0.004372095689177513,0.02668391726911068,-0.013955838978290558
1761469022429931800,6.752931884765625,0.0008500972762703896,0.013126829639077187,-0.012257806956768036
1761469022439914800,6.762914794921875,0.0070342919789254665,-0.00030263839289546013,-0.005745520815253258
1761469022449897700,6.772897705078125,0.009721687994897366,-0.006675316486507654,-0.0047790599055588245
1761469022459880700,6.782880615234375,0.009362362325191498,-0.002987178275361657,-0.003539430210366845
1761469022469863700,6.79286376953125,-0.0028298553079366684,0.002692012581974268,-0.006422301754355431
1761469022479846700,6.8028466796875,-0.012349579483270645,-0.0003325655125081539,-0.0031921789050102234
1761469022489830000,6.812829833984375,-0.01550702378153801,-0.008523384109139442,-0.002607614966109395
1761469022499812900,6.822812744140625,-0.017454540356993675,-0.012154493480920792,0.0027659486513584852
1761469022509795600,6.832795654296875,-0.014027584344148636,-0.017992408946156502,0.006697572767734528
1761469022519777800,6.84277783203125,-0.005412721075117588,-0.021338626742362976,0.005311449058353901
1761469022529760800,6.8527607421875,0.002398064360022545,-0.0378374420106411,0.008199913427233696
1761469022539744500,6.86274462890625,0.00032173004001379013,-0.040173694491386414,0.0032452389132231474
1761469022549727700,6.872727783203125,-0.0002447245642542839,-0.03275599330663681,-0.004461949225515127
1761469022559710500,6.88271044921875,-0.0017896280623972416,-0.03531207516789436,-0.0037620568182319403
1761469022569693400,6.892693359375,-0.008357781916856766,-0.03868257254362106,0.007223216351121664
1761469022579676700,6.9026767578125,-0.006922867149114609,-0.04468482360243797,0.014690706506371498
1761469022589659600,6.91265966796875,-0.008927960880100727,-0.05405595526099205,0.016589807346463203
1761469022599642600,6.922642578125,-0.00837056152522564,-0.049277178943157196,0.01214126218110323
1761469022609625600,6.93262548828125,-0.003452502191066742,-0.05512867495417595,0.015524009242653847
1761469022619607800,6.94260791015625,0.0017508454620838165,-0.06190873309969902,0.0076760184019804
1761469022629590500,6.952590576171875,0.010627428069710732,-0.06198330223560333,-0.0018945832271128893
1761469022639573500,6.962573486328125,0.010558448731899261,-0.057245753705501556,-0.008400922641158104
1761469022649556700,6.972556640625,0.011664992198348045,-0.04587218910455704,-0.004500191193073988
1761469022659539700,6.982539794921875,0.001715890597552061,-0.04555564746260643,-0.004375908523797989
1761469022669522400,6.9925224609375,-0.004450658801943064,-0.038969650864601135,-0.003982825670391321
1761469022679505700,7.002505615234375,-0.0043805488385260105,-0.04135872796177864,-0.0022410673554986715
1761469022689488600,7.012488525390625,0.0017567058093845844,-0.03906548023223877,0.006352154538035393
1761469022699471600,7.0224716796875,0.0037365639582276344,-0.037314366549253464,0.00872590858489275
1761469022709454600,7.03245458984375,0.011168114840984344,-0.04580133035778999,0.007123217917978764
1761469022719437600,7.0424375,0.011225582100450993,-0.0440078005194664,0.0009192863944917917
1761469022729419800,7.052419677734375,0.01488423254340887,-0.03905298933386803,-0.0017523968126624823
1761469022739402500,7.062402587890625,0.010769771412014961,-0.03132031485438347,-0.006001566536724567
1761469022749385500,7.072385498046875,0.006936950143426657,-0.035095613449811935,-0.006141382735222578
1761469022759368700,7.08236865234375,-0.0012694443576037884,-0.037789296358823776,0.0027986986096948385
1761469022769351700,7.0923515625,-0.0015842299908399582,-0.04025911167263985,0.004269829019904137
1761469022779334700,7.102334716796875,-0.0069419750943779945,-0.034658756107091904,0.0005824095569550991
1761469022789317600,7.112317626953125,-0.00800004880875349,-0.023493720218539238,0.0018452804069966078
1761469022799300600,7.122300537109375,-0.00394359091296792,-0.02213263511657715,0.0019378997385501862
1761469022809283600,7.13228369140625,0.0015798048116266727,-0.02660141885280609,0.007871689274907112
1761469022819266600,7.1422666015625,0.002319434192031622,-0.037372786551713943,0.01852385886013508
1761469022829248800,7.152248779296875,0.0019692284986376762,-0.0371892936527729,0.017723578959703445
1761469022839231500,7.1622314453125,0.00032185763120651245,-0.0331672802567482,0.014565163291990757
1761469022849214500,7.17221435546875,-0.005729643162339926,-0.025083521381020546,0.00982739869505167
1761469022859197700,7.18219775390625,-0.0030623511411249638,-0.020965104922652245,0.008865314535796642
1761469022869180700,7.1921806640625,-0.005880774464458227,-0.02135845273733139,0.004948071204125881
1761469022879163400,7.202163330078125,-0.00417389115318656,-0.021614817902445793,-0.0005829622969031334
1761469022889146600,7.212146728515625,-0.00098768575116992,-0.021681929007172585,-0.0034269520547240973
1761469022899129600,7.222129638671875,0.004635912366211414,-0.015502266585826874,0.00344966072589159
1761469022909112600,7.232112548828125,0.00219592428766191,-0.01018473319709301,0.020921330899000168
1761469022919095600,7.242095458984375,-0.0041664354503154755,-0.013227430172264576,0.02922128699719906
1761469022929077500,7.252077392578125,-0.011409434489905834,-0.01117679663002491,0.03729492425918579
1761469022939060700,7.262060791015625,-0.010989714413881302,-0.016844596713781357,0.03358643874526024
1761469022949043500,7.27204345703125,-0.008720170706510544,-0.019051559269428253,0.030783459544181824
1761469022959026700,7.282026611328125,-0.005751748103648424,-0.017784301191568375,0.02673289366066456
1761469022969009700,7.292009765625,-0.004509649705141783,-0.010007872246205807,0.019713332876563072
1761469022978992600,7.30199267578125,-0.0081635732203722,-0.00032897014170885086,0.02005706913769245
1761469022988975600,7.3119755859375,-0.01261584460735321,-0.0016866495134308934,0.024050746113061905
1761469022998958600,7.32195849609375,-0.018912019208073616,-0.0010860760230571032,0.023273678496479988
1761469023008941600,7.331941650390625,-0.022835921496152878,-0.000018947524949908257,0.022416673600673676
1761469023018924800,7.3419248046875,-0.023637136444449425,-0.0032305715139955282,0.024986766278743744
1761469023028907500,7.351907470703125,-0.02415805123746395,-0.000486982986330986,0.029088299721479416
1761469023038889700,7.3618896484375,-0.01594153419137001,-0.0019875098951160908,0.035005729645490646
1761469023048872700,7.371872802734375,-0.010540378279983997,-0.004055188037455082,0.021473675966262817
1761469023058855400,7.38185546875,-0.003973022103309631,-0.0071668257005512714,0.01817135512828827
1761469023068838700,7.391838623046875,-0.0032486431300640106,-0.01352432370185852,0.017600640654563904
1761469023078821600,7.401821533203125,-0.00535266287624836,-0.015272888354957104,0.01665184460580349
1761469023088804600,7.4118046875,-0.004503380507230759,-0.01365235447883606,0.005999200977385044
1761469023098787600,7.42178759765625,-0.007845855318009853,-0.0077618760988116264,0.008003320544958115
1761469023108770600,7.4317705078125,-0.010699698701500893,-0.0055469246581196785,0.011050243861973286
1761469023118753800,7.44175390625,-0.006372194737195969,-0.003921469673514366,0.015536468476057053
1761469023128736500,7.451736572265625,-0.0004000556655228138,-0.005060503724962473,0.00998271256685257
1761469023138718700,7.46171875,0.0035389564000070095,-0.002198978327214718,0.001950567588210106
1761469023148701700,7.47170166015625,0.011597415432333946,-0.0049470942467451096,-0.010453904047608376
1761469023158684400,7.481684326171875,0.0147471372038126,-0.01581653207540512,-0.017144303768873215
1761469023168667600,7.491667724609375,0.016100022941827774,-0.025160498917102814,-0.01657385565340519
1761469023178650600,7.501650634765625,0.01640608347952366,-0.020660188049077988,-0.01630265824496746
1761469023188633600,7.511633544921875,0.010866176337003708,-0.00815451517701149,-0.005898487754166126
1761469023198616600,7.521616455078125,0.00010853959247469902,-0.0026482657995074987,0.0009196505416184664
1761469023208599600,7.531599609375,-0.002478721085935831,0.004637343809008598,0.0013580068480223417
1761469023218582500,7.54158251953125,0.0022559838835150003,0.007902488112449646,-0.008268937468528748
1761469023228565800,7.551565673828125,0.003471184289082885,0.005128538701683283,-0.01078482624143362
1761469023238547500,7.56154736328125,0.012713488191366196,0.0009455683175474405,-0.01322475541383028
1761469023248530700,7.57153076171875,0.017899194732308388,-0.006752565037459135,-0.008067278191447258
1761469023258513700,7.581513671875,0.024143368005752563,-0.010419294238090515,-0.00905301608145237
1761469023268496600,7.59149658203125,0.02310899645090103,-0.008513269945979118,-0.006452706176787615
1761469023278479600,7.601479736328125,0.024968018755316734,-0.00946630910038948,-0.009061955846846104
1761469023288462600,7.611462646484375,0.02591796964406967,-0.0073783909901976585,-0.022759659215807915
1761469023298445800,7.62144580078125,0.02366366609930992,0.0005123862065374851,-0.0322771780192852
1761469023308428500,7.631428466796875,0.021986939013004303,-0.0023015099577605724,-0.02427064999938011
1761469023318411500,7.64141162109375,0.01880793273448944,0.002291594399139285,-0.017084676772356033
1761469023328394800,7.651394775390625,0.01627020537853241,0.003497474128380418,-0.01857764460146427
1761469023338377700,7.661377685546875,0.012223202735185623,0.008549685589969158,-0.01989651285111904
1761469023348359700,7.671359619140625,0.015235237777233124,0.004937107674777508,-0.026607412844896317
1761469023358342700,7.6813427734375,0.01769312471151352,-0.001614653505384922,-0.03253016248345375
1761469023368325600,7.69132568359375,0.021992264315485954,0.00025808135978877544,-0.014444902539253235
1761469023378308600,7.70130859375,0.01595381461083889,0.000745678786188364,-0.011058707721531391
1761469023388291600,7.71129150390625,0.01348852552473545,0.006765222176909447,-0.017185043543577194
1761469023398274600,7.721274658203125,0.005569086410105228,0.004715629853308201,-0.006660245358943939
1761469023408257500,7.731257568359375,0.002218297217041254,0.006629643961787224,0.00762628298252821
1761469023418240500,7.741240478515625,0.0030671136919409037,-0.003468465991318226,0.007978150621056557
1761469023428223500,7.751223388671875,0.004208278376609087,-0.014482500962913036,0.006426061037927866
1761469023438206700,7.761206787109375,0.0066924747079610825,-0.012803911231458187,-0.0003130685072392225
1761469023448188400,7.7711884765625,0.009061623364686966,-0.0158644150942564,-0.0006390393245965242
1761469023458171600,7.781171630859375,0.010456649586558342,-0.00677015446126461,-0.001172651071101427
1761469023468154600,7.791154541015625,0.01189049519598484,-0.0007170559838414192,0.006487665697932243
1761469023478137600,7.8011376953125,0.00783556792885065,-0.008259140886366367,0.008363055996596813
1761469023488120600,7.81112060546875,0.0033018027897924185,-0.014374025166034698,0.005950498394668102
1761469023498103600,7.821103515625,0.003229430876672268,-0.01488368958234787,-0.005681591108441353
1761469023508086800,7.831086669921875,0.008909421041607857,-0.0206086877733469,-0.008694158867001534
1761469023518069500,7.841069580078125,0.009511761367321014,-0.01841803453862667,-0.0015066186897456646
1761469023528052500,7.851052490234375,0.0156807079911232,-0.009503369219601154,0.008277835324406624
1761469023538035700,7.86103564453125,0.012393302284181118,-0.007632764987647533,0.011461111716926098
1761469023548017400,7.871017333984375,0.007847818545997143,0.002018796978518367,0.01036069355905056
1761469023558000600,7.881000732421875,-0.0049911485984921455,0.00011825142428278923,0.01860012486577034
1761469023567983600,7.890983642578125,-0.008300126530230045,-0.008438484743237495,0.02269233763217926
1761469023577966300,7.90096630859375,-0.006012336350977421,-0.00842586625367403,0.017155475914478302
1761469023587949600,7.910949462890625,-0.007167881354689598,-0.008678866550326347,0.016431627795100212
1761469023597932500,7.9209326171875,-0.0049209087155759335,-0.008665152825415134,0.018928444012999535
1761469023607915500,7.93091552734375,-0.00014319736510515213,-0.011151480488479137,0.02352479286491871
1761469023617898500,7.9408984375,-0.004242401570081711,-0.00583698321133852,0.022158503532409668
1761469023627881500,7.950881591796875,-0.002864215523004532,-0.007109974045306444,0.02469569817185402
1761469023637864700,7.96086474609375,-0.0010667117312550545,-0.009071022272109985,0.021660342812538147
1761469023647846400,7.970846435546875,-0.0077397944405674934,-0.00885583832859993,0.01746479794383049
1761469023657829600,7.98082958984375,-0.004188866354525089,-0.0022854353301227093,0.007667152211070061
1761469023667812600,7.9908125,-0.0005581784062087536,-0.001451866002753377,0.010640837252140045
1761469023677795300,8.00079541015625,0.002660385798662901,-0.009377038106322289,0.013016772456467152
1761469023687777500,8.010777587890624,0.003305935999378562,-0.018211275339126587,0.012854586355388165
1761469023697760500,8.020760498046876,0.004589239601045847,-0.022992191836237907,0.013349371962249279
1761469023707743500,8.030743408203126,0.0057541062124073505,-0.02709532342851162,0.015448209829628468
1761469023717726500,8.0407265625,0.0018828015308827162,-0.023065287619829178,0.018446266651153564
1761469023727709400,8.05070947265625,0.0022236863151192665,-0.01785055175423622,0.01480599120259285
1761469023737692700,8.060692626953125,0.010218430310487747,0.001102555776014924,0.039209529757499695
1761469023747675400,8.07067529296875,0.014135940000414848,-0.015225018374621868,0.08667238801717758
1761469023757658400,8.080658447265625,0.015282897278666496,-0.06249621510505676,0.024452077224850655
1761469023767640600,8.090640625,0.029777152463793755,-0.06600067019462585,-0.03227032721042633
1761469023777623300,8.100623291015625,0.025768427178263664,-0.0477309376001358,-0.05302870646119118
1761469023787606500,8.1106064453125,0.02117420732975006,-0.0362979881465435,-0.06366057693958282
1761469023797589500,8.120589599609374,0.014741343446075916,-0.022829091176390648,-0.061193183064460754
1761469023807572500,8.130572509765624,0.011102933436632156,-0.008900493383407593,-0.04962414503097534
1761469023817555500,8.140555419921874,0.007227899972349405,0.0034303481224924326,-0.018371013924479485
1761469023827538400,8.150538330078126,0.0012493696995079517,0.006410958245396614,0.0032096453942358494
1761469023837521700,8.160521728515626,-0.0026281927712261677,0.003336382331326604,0.022717589512467384
1761469023847504600,8.170504638671876,-0.00673638517037034,-0.01812656596302986,0.03370339423418045
