time,seconds_elapsed,z,y,x
1761468921517352700,0.115352783203125,-0.004776492714881897,-0.01699846237897873,0.010196701623499393
1761468921527335400,0.12533544921875,-0.005476904101669788,-0.016734275966882706,0.005414996296167374
1761468921537317600,0.135317626953125,-0.001032655593007803,-0.008400221355259418,0.0071369921788573265
1761468921547300600,0.145300537109375,0.004116566386073828,-0.005197504535317421,-0.0002333067823201418
1761468921557283300,0.155283447265625,-0.005090293008834124,0.012056506238877773,0.001314924331381917
1761468921567265500,0.165265625,-0.01270054280757904,0.015217413194477558,-0.006560042500495911
1761468921577248500,0.17524853515625,-0.01772445999085903,0.019733477383852005,-0.010120761580765247
1761468921587230500,0.18523046875,-0.020344743505120277,0.012506989762187004,-0.0117277130484581
1761468921597213400,0.19521337890625,-0.015479236841201782,0.009445185773074627,-0.0078079672530293465
1761468921607196700,0.20519677734375,-0.011330563575029373,0.0017041752580553293,0.0027304275427013636
1761468921617178400,0.215178466796875,-0.014483903534710407,0.02494376339018345,-0.0005472742486745119
1761468921627161600,0.22516162109375,-0.009210046380758286,0.018475478515028954,-0.004399537108838558
1761468921637144600,0.23514453125,-0.0036119474098086357,0.02999325655400753,-0.0077195060439407825
1761468921647126500,0.24512646484375,0.004008421674370766,0.01812887191772461,-0.011928632855415344
1761468921657109500,0.255109619140625,0.003993664402514696,0.014413181692361832,-0.019068950787186623
1761468921667091700,0.265091796875,-0.00019735191017389297,0.01073455810546875,-0.019212495535612106
1761468921677074400,0.275074462890625,0.0010493746958673,0.019740231335163116,-0.02166357822716236
1761468921687057400,0.285057373046875,-0.0008156369440257549,0.022972242906689644,-0.02298823371529579
1761468921697039600,0.29503955078125,-0.003960665315389633,0.022012244910001755,-0.01820635236799717
1761468921707022300,0.305022216796875,-0.019732169806957245,0.03994277864694595,-0.009973722510039806
1761468921717005600,0.315005615234375,-0.015165491960942745,0.06356204301118851,-0.010670522227883339
1761468921726987500,0.324987548828125,-0.020379427820444107,0.07090597599744797,-0.013707591220736504
1761468921736970500,0.334970458984375,-0.013379521667957306,0.06683908402919769,-0.012381545267999172
1761468921746953500,0.344953369140625,-0.013246629387140274,0.06673761457204819,-0.012602587230503559
1761468921756935700,0.354935791015625,-0.014640215784311295,0.06340350955724716,-0.014658781699836254
1761468921766918400,0.36491845703125,-0.014987757429480553,0.06017042696475983,-0.010651788674294949
1761468921776900600,0.374900634765625,-0.015584384091198444,0.05522856116294861,-0.007659595925360918
1761468921786883600,0.384883544921875,-0.014615259133279324,0.053524937480688095,-0.006065160967409611
1761468921796866300,0.3948662109375,-0.0064352648332715034,0.05612506717443466,-0.006852471269667149
1761468921806848500,0.4048486328125,-0.00010839290916919708,0.052167344838380814,-0.015168458223342896
1761468921816831500,0.41483154296875,-0.001403322909027338,0.04898893088102341,-0.02078154683113098
1761468921826814500,0.424814453125,-0.00008825398981571198,0.05181054770946503,-0.02311873808503151
1761468921836796400,0.43479638671875,-0.004040082450956106,0.04519930109381676,-0.027098173275589943
1761468921846779600,0.444779541015625,-0.005973005201667547,0.050001513212919235,-0.02925480157136917
1761468921856761300,0.45476123046875,0.0011137682013213634,0.05526011437177658,-0.027016855776309967
1761468921866744600,0.46474462890625,0.00008552148938179016,0.05380310118198395,-0.027243224903941154
1761468921876727600,0.4747275390625,0.0023915069177746773,0.04768964648246765,-0.027823027223348618
1761468921886709500,0.48470947265625,0.007376678287982941,0.05188066512346268,-0.023063426837325096
1761468921896692500,0.4946923828125,0.0033386533614248037,0.05734548717737198,-0.01995094120502472
1761468921906675500,0.504675537109375,0.0016965484246611595,0.04742281511425972,-0.022589068859815598
1761468921916657400,0.514657470703125,0.00619895663112402,0.043438978493213654,-0.02613282948732376
1761468921926640400,0.524640380859375,0.0007709013298153877,0.04641585797071457,-0.025233212858438492
1761468921936623600,0.53462353515625,0.0017458000220358372,0.04448617994785309,-0.026682810857892036
1761468921946605600,0.54460546875,0.0006661545485258102,0.05250176042318344,-0.02856513299047947
1761468921956588500,0.554588623046875,-0.00002636527642607689,0.060071609914302826,-0.0254097618162632
1761468921966570500,0.564570556640625,-0.000240216962993145,0.06217603385448456,-0.020804092288017273
1761468921976553500,0.574553466796875,0.0004124809056520462,0.04597942531108856,-0.023423053324222565
1761468921986536400,0.584536376953125,0.0037116047460585833,0.04902688041329384,-0.029262300580739975
1761468921996518700,0.5945185546875,0.007814235053956509,0.03881732374429703,-0.033094488084316254
1761468922006501400,0.60450146484375,0.005221115425229073,0.035313673317432404,-0.03559546172618866
1761468922016484600,0.614484619140625,0.007340817712247372,0.03822750970721245,-0.029589436948299408
1761468922026466600,0.624466552734375,-0.0011432142928242683,0.04521244764328003,-0.022936858236789703
1761468922036449500,0.634449462890625,0.0033092626836150885,0.048814766108989716,-0.023196067661046982
1761468922046431500,0.644431396484375,0.0035303051117807627,0.04060503840446472,-0.022919367998838425
1761468922056414700,0.654414794921875,0.00039972877129912376,0.045421428978443146,-0.02351429872214794
1761468922066397400,0.6643974609375,0.001943829469382763,0.04823799431324005,-0.023176876828074455
1761468922076379600,0.674379638671875,-0.0034431894309818745,0.056148726493120193,-0.02055130898952484
1761468922086362600,0.684362548828125,-0.004288476426154375,0.059180207550525665,-0.02192683145403862
1761468922096345300,0.694345458984375,-0.004330963362008333,0.05129086971282959,-0.02133331261575222
1761468922106327600,0.70432763671875,-0.00037057651206851006,0.041705887764692307,-0.020560728386044502
1761468922116310500,0.714310546875,0.00836526695638895,0.026804953813552856,-0.02126290649175644
1761468922126292500,0.72429248046875,0.00971522368490696,0.019329994916915894,-0.02795037068426609
1761468922136275500,0.734275390625,0.01115643884986639,0.02354474924504757,-0.026571959257125854
1761468922146258700,0.7442587890625,0.004450332839041948,0.03504161909222603,-0.02340546064078808
1761468922156240400,0.754240478515625,-0.004926657769829035,0.04237676411867142,-0.02077478915452957
1761468922166223600,0.7642236328125,-0.011371241882443428,0.049228277057409286,-0.019300462678074837
1761468922176206600,0.77420654296875,-0.01096600852906704,0.04997669532895088,-0.021067295223474503
1761468922186188500,0.7841884765625,-0.01127333752810955,0.03956054151058197,-0.02423805557191372
1761468922196171500,0.794171630859375,-0.006951091345399618,0.03419359773397446,-0.027234727516770363
1761468922206153500,0.804153564453125,-0.0038242735899984837,0.039963334798812866,-0.02518169768154621
1761468922216136400,0.814136474609375,-0.006774005014449358,0.0440281480550766,-0.02210952527821064
1761468922226119400,0.824119384765625,-0.006925805006176233,0.04696881026029587,-0.01886206679046154
1761468922236101600,0.8341015625,-0.011564593762159348,0.04358731582760811,-0.017710315063595772
1761468922246084400,0.84408447265625,-0.013702047988772392,0.037799470126628876,-0.011588506400585175
1761468922256067600,0.854067626953125,-0.013152957893908024,0.04045328497886658,-0.00645585497841239
1761468922266049500,0.864049560546875,-0.008535036817193031,0.03910066559910774,-0.006256384309381247
1761468922276032500,0.874032470703125,-0.006553590297698975,0.04209035262465477,-0.009281943552196026
1761468922286014500,0.884014404296875,-0.007706472650170326,0.053918518126010895,-0.008422275073826313
1761468922295997700,0.893997802734375,-0.007334420923143625,0.060115545988082886,-0.009023324586451054
1761468922305980400,0.90398046875,-0.009908366948366165,0.06482241302728653,-0.012300344184041023
1761468922315962600,0.913962646484375,-0.008032724261283875,0.07323605567216873,-0.009087316691875458
1761468922325945600,0.923945556640625,-0.008593053556978703,0.06992308795452118,-0.01370284054428339
1761468922335928300,0.93392822265625,-0.004034028388559818,0.058323364704847336,-0.019983647391200066
1761468922345910500,0.94391064453125,-0.0012456988915801048,0.0461370050907135,-0.023417795076966286
1761468922355893500,0.9538935546875,-0.006449325475841761,0.04107556492090225,-0.020565295591950417
1761468922365875500,0.96387548828125,-0.005536127369850874,0.03963373228907585,-0.013652262277901173
1761468922375858400,0.9738583984375,-0.006988770328462124,0.04016800597310066,-0.012015219777822495
1761468922385841700,0.983841552734375,-0.01009588036686182,0.052106957882642746,-0.015512216836214066
1761468922395823400,0.9938232421875,-0.006437913980334997,0.05626377835869789,-0.0150398975238204
1761468922405806600,1.003806640625,-0.0007446082308888435,0.0479872040450573,-0.023774532601237297
1761468922415789600,1.01378955078125,0.000493932981044054,0.037495601922273636,-0.028994129970669746
1761468922425771500,1.023771484375,0.003946721088141203,0.02422826550900936,-0.0305201206356287
1761468922435754500,1.03375439453125,0.003867771476507187,0.028359364718198776,-0.023963728919625282
1761468922445733400,1.0437333984375,0.004410523921251297,0.03920748457312584,-0.014852255582809448
1761468922455715000,1.053715087890625,0.006083265878260136,0.04655402898788452,-0.0071917446330189705
1761468922465698300,1.0636982421875,0.0017697438597679138,0.045911941677331924,-0.010130010545253754
1761468922475680300,1.07368017578125,0.0050336201675236225,0.03581875190138817,-0.013333326205611229
1761468922485663200,1.083663330078125,-0.002829096745699644,0.030442893505096436,-0.012481381185352802
1761468922495646200,1.093646240234375,-0.009265228174626827,0.02935020439326763,-0.009342421777546406
1761468922505628400,1.10362841796875,-0.004484854638576508,0.025213783606886864,-0.004282415844500065
1761468922515611100,1.113611083984375,-0.005279370117932558,0.02440091036260128,-0.0017769801197573543
1761468922525594000,1.123593994140625,-0.002894509118050337,0.021540675312280655,-0.002460080897435546
1761468922535576300,1.133576416015625,-0.0036075939424335957,0.013031389564275742,-0.00019281520508229733
1761468922545559000,1.14355908203125,-0.003260850440710783,0.006282140035182238,0.002387255197390914
1761468922555541200,1.153541259765625,-0.004849283955991268,0.005671197082847357,0.012463691644370556
1761468922565524200,1.163524169921875,-0.011031546629965305,-0.0046839723363518715,0.019166067242622375
1761468922575507200,1.173507080078125,-0.008673200383782387,-0.006842568516731262,0.01816832274198532
1761468922585489200,1.1834892578125,-0.008414873853325844,-0.00881863385438919,0.01851906068623066
1761468922595472400,1.193472412109375,-0.005743532441556454,-0.02043357491493225,0.014755736105144024
1761468922605455000,1.203455078125,-0.003438299521803856,-0.025348171591758728,0.01806178316473961
1761468922615437300,1.213437255859375,-0.010397139005362988,-0.02018776535987854,0.020617354661226273
1761468922625420300,1.223420166015625,-0.014648609794676304,-0.01657811738550663,0.024411026388406754
1761468922635402200,1.23340234375,-0.01747823692858219,-0.01850595884025097,0.030295493081212044
1761468922645385200,1.24338525390625,-0.014737578108906746,-0.03067314252257347,0.028031541034579277
1761468922655368400,1.253368408203125,-0.014993147924542427,-0.044349994510412216,0.0217681173235178
1761468922665350100,1.26335009765625,-0.007447347044944763,-0.056017037481069565,0.022878389805555344
1761468922675333400,1.27333349609375,0.00023389887064695358,-0.06266140192747116,0.018432125449180603
1761468922685316400,1.28331640625,0.00022218097001314163,-0.05678780376911163,0.02281382493674755
1761468922695298300,1.29329833984375,-0.0029856041073799133,-0.043303802609443665,0.030181435868144035
1761468922705281300,1.30328125,-0.0019666780717670918,-0.032411206513643265,0.03863084688782692
1761468922715263500,1.313263427734375,-0.0022535957396030426,-0.03286881744861603,0.03838923200964928
1761468922725246200,1.32324609375,-0.004662957042455673,-0.042363788932561874,0.03255930542945862
1761468922735229200,1.333229248046875,-0.00938532967120409,-0.04424639791250229,0.03771299496293068
1761468922745211400,1.34321142578125,-0.012704160064458847,-0.05082334205508232,0.03762005269527435
1761468922755194000,1.353194091796875,-0.011827127076685429,-0.055369868874549866,0.03827311843633652
1761468922765177300,1.36317724609375,-0.006442481651902199,-0.05174370855093002,0.040052108466625214
1761468922775159300,1.3731591796875,-0.002590353600680828,-0.05161930248141289,0.03265043720602989
1761468922785142300,1.383142333984375,0.0026297084987163544,-0.055218297988176346,0.028021596372127533
1761468922795124200,1.393124267578125,0.005942235700786114,-0.05900951474905014,0.02761111967265606
1761468922805107500,1.403107421875,0.008854668587446213,-0.062460701912641525,0.027287544682621956
1761468922815090200,1.413090087890625,0.0097423754632473,-0.049456484615802765,0.02994457259774208
1761468922825072400,1.423072265625,0.008925584144890308,-0.037240564823150635,0.030795451253652573
1761468922835055400,1.433055419921875,0.007400772999972105,-0.028794193640351295,0.023097991943359375
1761468922845038000,1.4430380859375,-0.0025445353239774704,-0.028480738401412964,0.0204263087362051
1761468922855020300,1.453020263671875,-0.00403763959184289,-0.037791818380355835,0.023683547973632812
1761468922865003300,1.463003173828125,-0.003953483421355486,-0.0472649522125721,0.013200280256569386
1761468922874985200,1.472985107421875,-0.0045171258971095085,-0.0430474653840065,0.009912998415529728
1761468922884968200,1.48296826171875,0.001186299603432417,-0.028699422255158424,0.010479452088475227
1761468922894951400,1.492951416015625,0.010101169347763062,-0.024838775396347046,0.007575192488729954
1761468922904933000,1.50293310546875,0.012007726356387138,-0.026035599410533905,0.0033910998608917
1761468922914916400,1.512916259765625,0.013893572613596916,-0.025973675772547722,0.008078612387180328
1761468922924899300,1.5228994140625,0.014217945747077465,-0.03157403692603111,0.006470330059528351
1761468922934881300,1.53288134765625,0.012374797835946083,-0.04653584957122803,0.001492426497861743
1761468922944864300,1.5428642578125,0.007246081717312336,-0.05644147843122482,0.000615980476140976
1761468922954846200,1.55284619140625,0.007060011383146048,-0.05508970469236374,0.00898260623216629
1761468922964829200,1.5628291015625,0.0049630384892225266,-0.05616908147931099,0.007143693510442972
1761468922974812200,1.572812255859375,0.0039239609614014626,-0.037506479769945145,0.00941807497292757
1761468922984794000,1.582794189453125,-0.004262063652276993,-0.039324354380369186,0.01702592708170414
1761468922994777000,1.592777099609375,-0.005003438796848059,-0.03241007775068283,0.021704601123929024
1761468923004760300,1.60276025390625,-0.00039643608033657074,-0.03970580920577049,0.018525319173932076
1761468923014742300,1.6127421875,0.0005100006237626076,-0.044203020632267,0.015634100884199142
1761468923024725200,1.622725341796875,0.007248330861330032,-0.04843078926205635,0.016026385128498077
1761468923034707200,1.632707275390625,0.011937255039811134,-0.0538337416946888,0.009094617329537868
1761468923044690400,1.6426904296875,0.013680027797818184,-0.049255501478910446,0.00747727882117033
1761468923054673200,1.652673095703125,0.011797869578003883,-0.04548679664731026,0.008816225454211235
1761468923064655400,1.6626552734375,0.009508882649242878,-0.04614726081490517,0.013289003632962704
1761468923074638300,1.672638427734375,0.00793182011693716,-0.04713808000087738,0.011047771200537682
1761468923084621300,1.682621337890625,0.00888869445770979,-0.05221300199627876,0.017150936648249626
1761468923094603300,1.692603271484375,0.00808869767934084,-0.05408070236444473,0.020874621346592903
1761468923104586200,1.702586181640625,0.008064729161560535,-0.05160849541425705,0.01718507707118988
1761468923114568200,1.712568115234375,0.006656637415289879,-0.048185642808675766,0.02022360824048519
1761468923124551400,1.722551513671875,0.0080156484618783,-0.04231657087802887,0.021875035017728806
1761468923134534400,1.732534423828125,0.006728440523147583,-0.03913135826587677,0.01613609679043293
1761468923144516400,1.742516357421875,0.007638442330062389,-0.04124937206506729,0.011894214898347855
1761468923154499300,1.752499267578125,0.007332930341362953,-0.04436224699020386,0.008182002231478691
1761468923164482300,1.762482421875,0.008907124400138855,-0.041284698992967606,0.014084632508456707
1761468923174464300,1.77246435546875,0.007574774324893951,-0.03166152909398079,0.014179134741425514
1761468923184447200,1.782447265625,0.0059811389073729515,-0.035014450550079346,0.006493783090263605
1761468923194430500,1.792430419921875,0.003935003187507391,-0.03521668538451195,0.004879149608314037
1761468923204412200,1.802412109375,0.005425041541457176,-0.03697676956653595,0.010979119688272476
1761468923214395400,1.8123955078125,-0.0014694174751639366,-0.04981132596731186,0.01055556908249855
1761468923224377000,1.822377197265625,0.00467902235686779,-0.05708708241581917,0.015184941701591015
1761468923234360300,1.8323603515625,0.006355254445225,-0.04598723724484444,0.013010065071284771
1761468923244343300,1.84234326171875,0.010456256568431854,-0.040509384125471115,0.018917223438620567
1761468923254325200,1.8523251953125,0.0036298457998782396,-0.040173836052417755,0.018330784514546394
1761468923264308200,1.86230810546875,0.003977654501795769,-0.037043023854494095,0.022613946348428726
1761468923274290400,1.87229052734375,0.0006067412905395031,-0.03499515727162361,0.024773912504315376
1761468923284273200,1.882273193359375,-0.005331575404852629,-0.037554189562797546,0.02352515608072281
1761468923294256000,1.892256103515625,-0.0035784468054771423,-0.03934270143508911,0.018199384212493896
1761468923304238300,1.90223828125,-0.007024843245744705,-0.040261223912239075,0.02033497393131256
1761468923314221000,1.912220947265625,-0.006096262950450182,-0.034479111433029175,0.015924960374832153
1761468923324204300,1.922204345703125,0.0010247635655105114,-0.038951627910137177,0.013605081476271152
1761468923334186200,1.932186279296875,0.002346866764128208,-0.03464285284280777,0.011783329769968987
1761468923344169200,1.942169189453125,-0.0005016503855586052,-0.048263322561979294,0.016894999891519547
1761468923354151200,1.952151123046875,0.00034978054463863373,-0.05748134106397629,0.01705937087535858
1761468923364134400,1.962134521484375,0.0017103892751038074,-0.05287167429924011,0.024702109396457672
1761468923374117400,1.972117431640625,0.0003553316928446293,-0.0478048138320446,0.02171764150261879
1761468923384099300,1.982099365234375,-0.005416003987193108,-0.036024853587150574,0.025367503985762596
1761468923394082300,1.992082275390625,-0.00838744267821312,-0.029306065291166306,0.023187048733234406
1761468923404065300,2.002065185546875,-0.0042672669515013695,-0.029165983200073242,0.01869083382189274
1761468923414047200,2.012047119140625,0.0008395174518227577,-0.02862703613936901,0.01732829585671425
1761468923424030200,2.0220302734375,-0.0057107931934297085,-0.019271085038781166,0.02882729284465313
1761468923434013400,2.032013427734375,-0.0023538595996797085,-0.018405845388770103,0.031087715178728104
1761468923443996200,2.04199609375,0.005909929051995277,-0.03371848911046982,0.024377616122364998
1761468923453979100,2.051979248046875,0.0007992489263415337,-0.03084627166390419,0.024870043620467186
1761468923463961000,2.061961181640625,0.0009494512341916561,-0.01880212500691414,0.025577113032341003
1761468923473944000,2.071944091796875,-0.0017563910223543644,-0.01878427527844906,0.02751338854432106
1761468923483927300,2.08192724609375,-0.005803597159683704,-0.02403203397989273,0.030972035601735115
1761468923493909200,2.0919091796875,-0.006185343489050865,-0.02694675885140896,0.0328797809779644
1761468923503892200,2.101892333984375,-0.00787005852907896,-0.026399744674563408,0.034947462379932404
1761468923513875200,2.111875244140625,-0.008346613496541977,-0.025731978937983513,0.035155314952135086
1761468923523857200,2.121857177734375,-0.00022530322894454002,-0.021059462800621986,0.03571164980530739
1761468923533840100,2.131840087890625,0.0017477567307651043,-0.026983138173818588,0.033724408596754074
1761468923543822000,2.141822021484375,0.005558740347623825,-0.03248762711882591,0.031869515776634216
1761468923553805000,2.15180517578125,0.009366451762616634,-0.027150223031640053,0.03550832346081734
1761468923563788300,2.161788330078125,0.007103564217686653,-0.01961134746670723,0.03749663755297661
1761468923573770000,2.17177001953125,0.009343397803604603,-0.018266024067997932,0.0389346219599247
1761468923583753200,2.181753173828125,0.006815792061388493,-0.030574355274438858,0.023393744602799416
1761468923593736200,2.191736083984375,0.01082532573491335,-0.024540437385439873,0.013966522179543972
1761468923603718100,2.20171826171875,0.006381841376423836,-0.017100363969802856,0.013804336078464985
1761468923613701000,2.211701171875,0.008061313070356846,-0.02182779088616371,0.007286672480404377
1761468923623683300,2.221683349609375,0.014440914615988731,-0.017918003723025322,0.006752708926796913
1761468923633666000,2.231666015625,0.007844414561986923,-0.006705995183438063,0.011469291523098946
1761468923643649000,2.24164892578125,0.005897377151995897,-0.006247664801776409,0.009715067222714424
1761468923653631200,2.25163134765625,0.009112987667322159,-0.010577918030321598,0.007164142094552517
1761468923663614000,2.261614013671875,0.008780092000961304,-0.017385490238666534,0.007476530969142914
1761468923673596200,2.27159619140625,0.005808305460959673,-0.015034238807857037,0.017299585044384003
1761468923683579100,2.2815791015625,-0.00019765552133321762,-0.0055299499072134495,0.02173428051173687
1761468923693562000,2.29156201171875,0.0034726164303719997,-0.0037390596698969603,0.02235952392220497
1761468923703544000,2.3015439453125,0.008101723156869411,-0.01982082426548004,0.011317790485918522
1761468923713527300,2.31152734375,0.009707119315862656,-0.028338082134723663,0.012668288312852383
1761468923723510000,2.321510009765625,0.0017221630550920963,-0.030806301161646843,0.018609266728162766
1761468923733492200,2.3314921875,-0.0021981471218168736,-0.027377357706427574,0.021202845498919487
1761468923743475200,2.34147509765625,-0.0005483189597725868,-0.03295081853866577,0.01706935279071331
1761468923753457200,2.35145703125,0.0014663622714579105,-0.03445657342672348,0.016982534900307655
1761468923763440000,2.361440185546875,0.0017617070116102695,-0.0243512075394392,0.024853507056832314
1761468923773423000,2.371423095703125,0.008546761237084866,-0.020039914175868034,0.024615297093987465
1761468923783405000,2.381405029296875,0.013156427070498466,-0.032508302479982376,0.011737847700715065
1761468923793388000,2.391387939453125,0.015535609796643257,-0.03879038989543915,0.006436132825911045
1761468923803371300,2.401371337890625,0.007345058023929596,-0.040943291038274765,0.008497686125338078
1761468923813353000,2.41135302734375,0.004972853232175112,-0.038944073021411896,0.012901173904538155
1761468923823336200,2.421336181640625,-0.002155096735805273,-0.024456210434436798,0.017769966274499893
1761468923833319200,2.431319091796875,-0.0034772707149386406,-0.005201864987611771,0.028366990387439728
1761468923843301000,2.441301025390625,-0.0034165503457188606,-0.007407494820654392,0.02946288138628006
1761468923853284000,2.4512841796875,0.006453492678701878,-0.0199997890740633,0.01801670715212822
1761468923863266300,2.461266357421875,0.01407652534544468,-0.0287229735404253,-0.0014398163184523582
1761468923873249000,2.4712490234375,0.019748900085687637,-0.02775833010673523,-0.007133271545171738
1761468923883232000,2.48123193359375,0.01887671649456024,-0.021416543051600456,0.001188573893159628
1761468923893214200,2.491214111328125,0.02125229686498642,-0.01762360706925392,-0.0008809599094092846
1761468923903197000,2.501197021484375,0.02064829133450985,-0.013720212504267693,-0.002095094881951809
1761468923913180200,2.51118017578125,0.011555694043636322,-0.0005233963020145893,0.008595649152994156
1761468923923162000,2.521162109375,0.01040174625813961,-0.005338658113032579,0.003725792746990919
1761468923933145000,2.53114501953125,0.005572471302002668,-0.017154375091195107,-0.007758998312056065
1761468923943127000,2.541126953125,0.0055674114264547825,-0.015204142779111862,-0.002487536985427141
1761468923953110300,2.5511103515625,0.0038323381450027227,-0.003628094680607319,0.0057926662266254425
1761468923963093000,2.561093017578125,0.0021271160803735256,0.001585841877385974,0.003568393411114812
1761468923973075200,2.5710751953125,0.01036408543586731,0.006015149410814047,-0.0012275371700525284
1761468923983058200,2.58105810546875,0.014206760562956333,0.010130265727639198,-0.009234596975147724
1761468923993041200,2.591041259765625,0.016388244926929474,0.009205852635204792,-0.00268237991258502
1761468924003023000,2.601023193359375,0.0164196714758873,0.00024804449640214443,0.0073044742457568645
1761468924013006300,2.61100634765625,0.015655677765607834,-0.005106523633003235,0.014728941954672337
1761468924022988000,2.620988037109375,0.011517924256622791,-0.009601673111319542,0.01463333424180746
1761468924032971300,2.63097119140625,0.0053319488652050495,-0.01737680286169052,0.021057995036244392
1761468924042954200,2.640954345703125,0.004365221597254276,-0.021186454221606255,0.018047558143734932
1761468924052936200,2.650936279296875,0.006512494292110205,-0.016727298498153687,0.014689985662698746
1761468924062919200,2.660919189453125,0.011797537095844746,-0.008043529465794563,0.012595675885677338
1761468924072902100,2.670902099609375,0.012399014085531235,0.0031864577904343605,0.008097280748188496
1761468924082884000,2.680884033203125,0.014001438394188881,0.005748685449361801,0.005309750325977802
1761468924092867000,2.6908671875,0.012979740276932716,0.0049092089757323265,0.0012778735253959894
1761468924102849300,2.700849365234375,0.009958118200302124,-0.004215845838189125,-0.003355760360136628
1761468924112832000,2.71083203125,0.00692155584692955,-0.009881909005343914,0.003365159733220935
1761468924122815200,2.720815185546875,0.008171643130481243,-0.011978616006672382,0.006399831734597683
1761468924132797200,2.730797119140625,0.008323093876242638,-0.015240313485264778,0.007636054418981075
1761468924142780200,2.7407802734375,0.012280019000172615,-0.01687043532729149,0.003769676433876157
1761468924152763100,2.75076318359375,0.01387981977313757,-0.0073058996349573135,0.005905806086957455
1761468924162745300,2.760745361328125,0.017927559092640877,-0.002323924098163843,0.0051894159987568855
1761468924172728000,2.77072802734375,0.014233987778425217,-0.0038264202885329723,0.0011472876649349928
1761468924182710300,2.780710205078125,0.013032369315624237,-0.008304258808493614,-0.00020186998881399632
1761468924192693200,2.790693359375,0.00855922233313322,-0.006826931610703468,-0.002343142405152321
1761468924202676000,2.800676025390625,0.001861638855189085,-0.0011719756294041872,0.0005791441071778536
1761468924212658200,2.810658203125,-0.002073722891509533,-0.0009611728601157665,-0.0029074919875711203
1761468924222641200,2.82064111328125,-0.0035472498275339603,-0.0005742155481129885,-0.003682738170027733
1761468924232624000,2.8306240234375,-0.0028281789273023605,0.004451144021004438,0.003664708696305752
1761468924242606000,2.840606201171875,0.0016741612926125526,0.006106032524257898,0.0012992890551686287
1761468924252589300,2.85058935546875,0.008095134980976582,0.012307541444897652,-0.001384846051223576
1761468924262571000,2.860571044921875,0.011106105521321297,0.008759945631027222,0.0045223115012049675
1761468924272554200,2.87055419921875,0.012518277391791344,0.010774699039757252,0.004166156053543091
1761468924282537200,2.880537109375,0.01153131015598774,0.01687280461192131,0.00194907421246171
1761468924292519200,2.890519287109375,0.009898703545331955,0.02861754782497883,-0.00305678672157228
1761468924302502100,2.900502197265625,0.0059905145317316055,0.030883895233273506,-0.01154667790979147
1761468924312485000,2.910485107421875,0.0062665073201060295,0.036152757704257965,-0.01563205011188984
1761468924322467000,2.920467041015625,0.011742765083909035,0.01880253106355667,-0.019237171858549118
1761468924332450000,2.930449951171875,0.014412663877010345,0.004064976703375578,-0.016186237335205078
1761468924342432000,2.940431884765625,0.012975621968507767,0.0009948844090104103,-0.009985067881643772
1761468924352415000,2.9504150390625,0.012902610003948212,-0.005162403453141451,-0.011867664754390717
1761468924362398200,2.960398193359375,0.005782383028417826,0.0005040043033659458,-0.007936839014291763
1761468924372380000,2.9703798828125,-0.000903756357729435,0.015243686735630035,0.0011844628024846315
1761468924382363100,2.980363037109375,0.0028379850555211306,0.021487733349204063,-0.000819832319393754
1761468924392346000,2.99034619140625,0.002031235955655575,0.03041054680943489,-0.004134683404117823
1761468924402328300,3.000328369140625,0.0058566005900502205,0.03625618666410446,-0.0049789054319262505
1761468924412311000,3.01031103515625,0.010017499327659607,0.03343873843550682,-0.011524499393999577
1761468924422293200,3.020293212890625,0.011472649872303009,0.03423235937952995,-0.016795428469777107
1761468924432276200,3.030276123046875,0.014597173780202866,0.03375372290611267,-0.022104347124695778
1761468924442257700,3.040257568359375,0.010674603283405304,0.030417313799262047,-0.018649429082870483
1761468924452239600,3.050239501953125,0.011313283815979958,0.026177849620580673,-0.013560069724917412
1761468924462222600,3.06022265625,0.004521956201642752,0.0312943160533905,-0.0054725827649235725
1761468924472205600,3.07020556640625,0.0035640723071992397,0.03343232348561287,-0.002448771381750703
1761468924482187500,3.0801875,0.0005041002295911312,0.03128847852349281,-0.0023861872032284737
1761468924492170500,3.09017041015625,-0.0031222468242049217,0.033513665199279785,-0.008596809580922127
1761468924502152400,3.10015234375,-0.00016587181016802788,0.04164056479930878,-0.010635459795594215
1761468924512135400,3.110135498046875,-0.0026552206836640835,0.04735643416643143,-0.00880525354295969
1761468924522118700,3.12011865234375,0.0010638842359185219,0.0469372533261776,-0.009383692406117916
1761468924532100400,3.130100341796875,0.004442437551915646,0.04192916303873062,-0.009176656603813171
1761468924542083600,3.14008349609375,0.007304803468286991,0.04624428227543831,-0.01013033464550972
1761468924552066600,3.150066650390625,0.012749862857162952,0.04378479719161987,-0.008403548039495945
1761468924562048500,3.160048583984375,0.012441469356417656,0.03220217674970627,-0.008139362558722496
1761468924572031500,3.170031494140625,0.0128250103443861,0.04157295078039169,-0.010415001772344112
1761468924582013700,3.180013671875,0.01173338107764721,0.03945226967334747,-0.014404150657355785
1761468924591996400,3.189996337890625,0.008835879154503345,0.027078667655587196,-0.013604617677628994
1761468924601979400,3.1999794921875,0.008125348016619682,0.015466220676898956,-0.013703154399991035
1761468924611961600,3.209961669921875,0.005271486937999725,0.027866458520293236,-0.01577647775411606
1761468924621944600,3.219944580078125,0.004669612273573875,0.03222765028476715,-0.018393298611044884
1761468924631927600,3.229927490234375,0.008763927966356277,0.03933703154325485,-0.014318110421299934
1761468924641909500,3.239909423828125,0.005196889862418175,0.040732793509960175,-0.013825692236423492
1761468924651892700,3.249892822265625,0.0025441839825361967,0.035750001668930054,-0.008135860785841942
1761468924661874400,3.25987451171875,0.005093095358461142,0.03164740279316902,-0.007208014838397503
1761468924671857700,3.269857666015625,0.00477683637291193,0.022131942212581635,-0.005650963634252548
1761468924681840600,3.279840576171875,0.009592629969120026,0.01199408806860447,-0.012147745117545128
1761468924691822600,3.289822509765625,0.015595349483191967,0.018114129081368446,-0.0131733613088727
1761468924701805600,3.2998056640625,0.017918424680829048,0.03004482202231884,-0.008742660284042358
1761468924711788500,3.30978857421875,0.015674756839871407,0.03450179472565651,-0.009289640933275223
1761468924721770500,3.3197705078125,0.010182520374655724,0.03526798635721207,-0.008964735083281994
1761468924731753500,3.32975341796875,0.007914572954177856,0.03782355412840843,-0.010006563737988472
1761468924741736700,3.33973681640625,0.006295370869338512,0.03836071491241455,-0.00836871936917305
1761468924751718400,3.349718505859375,0.005088301841169596,0.033898573368787766,-0.0022601280361413956
1761468924761701600,3.35970166015625,0.0018291252199560404,0.028074240311980247,-0.008904182352125645
1761468924771683300,3.369683349609375,0.002812856575474143,0.02831253595650196,-0.010349754244089127
1761468924781666600,3.37966650390625,0.0037273860070854425,0.030616438016295433,-0.004020485561341047
1761468924791649500,3.3896494140625,0.005801926366984844,0.03944707289338112,-0.004714055918157101
1761468924801631500,3.399631591796875,0.006508995778858662,0.04181595519185066,-0.009640637785196304
1761468924811614500,3.409614501953125,0.00490756006911397,0.03792177513241768,-0.013100097887217999
1761468924821597700,3.41959765625,0.003975720144808292,0.04474798962473869,-0.008679250255227089
1761468924831579400,3.429579345703125,0.0011848025023937225,0.050459153950214386,-0.007133440114557743
1761468924841562600,3.439562744140625,-0.0029726577922701836,0.056937023997306824,-0.0030361663084477186
1761468924851544600,3.449544677734375,-0.0013930806890130043,0.05998033657670021,0.00239823991432786
1761468924861527600,3.459527587890625,-0.0008090496994554996,0.05222414433956146,0.00031431647948920727
1761468924871510500,3.469510498046875,-0.002032195683568716,0.04118648171424866,0.0036300821229815483
1761468924881492700,3.47949267578125,-0.005962221883237362,0.03415094316005707,0.01263902336359024
1761468924891475500,3.489475341796875,-0.002207110170274973,0.032573312520980835,0.012129087001085281
1761468924901458400,3.49945849609375,-0.00236849719658494,0.04383635148406029,0.009725584648549557
1761468924911440600,3.509440673828125,0.002778378315269947,0.0523531474173069,-0.0006403019651770592
1761468924921423400,3.51942333984375,0.00090058334171772,0.05433320626616478,-0.011528369970619678
1761468924931405600,3.529405517578125,-0.0002561332657933235,0.05334274470806122,-0.014477549120783806
1761468924941388500,3.539388427734375,-0.004649017937481403,0.060297057032585144,-0.01010570302605629
1761468924951371500,3.54937158203125,-0.004038970451802015,0.060225293040275574,-0.007079424802213907
1761468924961353500,3.559353515625,0.004053310491144657,0.0564635768532753,-0.017207160592079163
1761468924971336700,3.569336669921875,0.0018983741756528616,0.04228276386857033,-0.025062521919608116
1761468924981319700,3.579319580078125,0.0038320955354720354,0.02784843184053898,-0.023259028792381287
1761468924991301600,3.589301513671875,0.004036440048366785,0.035803765058517456,-0.014259371906518936
1761468925001284600,3.59928466796875,0.00726871844381094,0.035800036042928696,-0.008687772788107395
1761468925011267600,3.609267578125,0.006817248649895191,0.02444363944232464,-0.007547225337475538
1761468925021249500,3.61924951171875,0.009654846973717213,0.020259279757738113,-0.007279311306774616
1761468925031232500,3.629232421875,0.003904879791662097,0.014946420677006245,-0.0010349131189286709
1761468925041214500,3.63921435546875,0.003259329590946436,0.009739408269524574,-0.0013369156513363123
1761468925051197400,3.649197509765625,0.00007619243115186691,0.010531675070524216,-0.0015248371055349708
1761468925061180700,3.6591806640625,0.0010248101316392422,0.00878650601953268,0.0007036959286779165
1761468925071162400,3.669162353515625,0.0027767010033130646,0.005487258546054363,0.00676327059045434
1761468925081145600,3.6791455078125,0.005172480829060078,0.0015713463071733713,0.004867898765951395
1761468925091128600,3.689128662109375,0.010248694568872452,-0.002414652146399021,-0.0027908259071409702
1761468925101110500,3.699110595703125,0.009722454473376274,-0.00774923013523221,-0.006591422948986292
1761468925111093500,3.709093505859375,0.008675813674926758,-0.02650372125208378,-0.009184062480926514
1761468925121076500,3.719076416015625,0.0075255949050188065,-0.031043611466884613,-0.008266603574156761
1761468925131058400,3.729058349609375,-0.0027946485206484795,-0.025562860071659088,0.0037366359028965235
1761468925141041400,3.73904150390625,-0.006360621191561222,-0.018282843753695488,0.010081883519887924
1761468925151023600,3.749023681640625,-0.0027670389972627163,-0.01957985945045948,0.006921447813510895
1761468925161006300,3.75900634765625,-0.0009241318330168724,-0.016049306839704514,0.007989375852048397
1761468925170989600,3.768989501953125,0.0027620450127869844,-0.02367527224123478,0.010767573490738869
1761468925180971500,3.778971435546875,0.002689873334020376,-0.04126012697815895,0.011317250318825245
1761468925190954500,3.78895458984375,0.007720593363046646,-0.05099359527230263,0.015240645036101341
1761468925200937500,3.7989375,0.00714348629117012,-0.0510878711938858,0.009829102084040642
1761468925210919700,3.808919677734375,0.005624437239021063,-0.04233487695455551,0.007199815474450588
1761468925220902400,3.81890234375,0.007206088863313198,-0.02627415396273136,0.013171686790883541
1761468925230884600,3.828884521484375,0.002732742577791214,-0.024658983573317528,0.013802586123347282
1761468925240867600,3.83886767578125,0.0035950741730630398,-0.03839477151632309,0.010129820555448532
1761468925250850600,3.8488505859375,0.004521909635514021,-0.040884267538785934,0.004334574565291405
1761468925260832500,3.85883251953125,0.0027035032398998737,-0.042923714965581894,0.004793170839548111
1761468925270815500,3.8688154296875,0.0006035906262695789,-0.04199359938502312,0.010322132147848606
1761468925280798500,3.878798583984375,0.0014371597208082676,-0.03378920257091522,0.01561782881617546
1761468925290780700,3.88878076171875,0.0020339081529527903,-0.03000713139772415,0.015360215678811073
1761468925300763600,3.898763671875,-0.001182657666504383,-0.030273180454969406,0.01606861501932144
1761468925310746400,3.908746337890625,-0.00015329057350754738,-0.039891429245471954,0.013968772254884243
1761468925320728600,3.918728515625,-0.0009778053499758244,-0.0536985881626606,0.010474171489477158
1761468925330711600,3.928711669921875,0.0013409745879471302,-0.04771716520190239,0.013466229662299156
1761468925340693500,3.938693603515625,0.0015249992720782757,-0.05498306825757027,0.007383302785456181
1761468925350676500,3.948676513671875,-0.0030503002926707268,-0.05809351056814194,0.0032016346231102943
1761468925360659700,3.95865966796875,-0.005043143406510353,-0.04703500121831894,0.003823482431471348
1761468925370641400,3.968641357421875,-0.006975499447435141,-0.03614077344536781,0.003298044903203845
1761468925380624600,3.978624755859375,-0.012266669422388077,-0.03132551163434982,0.009617459960281849
1761468925390607600,3.988607666015625,-0.015558612532913685,-0.02180377021431923,0.013335206545889378
1761468925400589600,3.998589599609375,-0.012605699710547924,-0.02656124159693718,0.0058181677013635635
1761468925410570500,4.008570556640625,-0.010882477276027203,-0.03996817767620087,-0.0021911405492573977
1761468925420553500,4.018553466796875,-0.004467189311981201,-0.042829740792512894,-0.007232770789414644
1761468925430536400,4.028536376953125,-0.0020327502861618996,-0.04284147918224335,-0.011422346346080303
1761468925440518700,4.0385185546875,-0.0037896372377872467,-0.04695712774991989,-0.0155566381290555
1761468925450502100,4.048502197265625,-0.00474914163351059,-0.03661258518695831,-0.009421244263648987
1761468925460484000,4.058484130859375,-0.004128092899918556,-0.03448231890797615,-0.0032198072876781225
1761468925470467000,4.068467041015625,-0.0057109203189611435,-0.033086344599723816,-0.0021237675100564957
1761468925480450000,4.078449951171875,-0.00902682263404131,-0.02046508900821209,0.003708555130288005
1761468925490432000,4.088431884765625,-0.01028398983180523,-0.015205028466880322,0.007079169154167175
1761468925500415000,4.0984150390625,-0.016110453754663467,-0.025352470576763153,0.005045313388109207
1761468925510398200,4.108398193359375,-0.018124014139175415,-0.027086429297924042,0.0011310577392578125
1761468925520380000,4.1183798828125,-0.015289612114429474,-0.03399360552430153,0.000051146140322089195
1761468925530363100,4.128363037109375,-0.018900135532021523,-0.04316208139061928,-0.003679522778838873
1761468925540346000,4.13834619140625,-0.01724950782954693,-0.034608274698257446,-0.008797852322459221
1761468925550328000,4.148328125,-0.007413479499518871,-0.025571433827280998,-0.0088626304641366
1761468925560311000,4.15831103515625,-0.0018946104682981968,-0.016358228400349617,-0.014148471876978874
1761468925570293000,4.16829296875,-0.0036820024251937866,-0.009736629202961922,-0.012418869882822037
1761468925580276000,4.17827587890625,0.00036813318729400635,-0.013522312976419926,-0.009675813838839531
1761468925590259200,4.18825927734375,-0.003188229165971279,-0.021645046770572662,-0.010307272896170616
1761468925600241000,4.198240966796875,-0.007927058264613152,-0.02011905610561371,-0.01177813671529293
1761468925610224000,4.20822412109375,-0.010664023458957672,-0.010939709842205048,-0.004225150682032108
1761468925620207000,4.21820703125,-0.009752422571182251,0.0016602377872914076,-0.0008613117970526218
1761468925630189000,4.22818896484375,-0.01084825024008751,-0.003352934028953314,-0.012230094522237778
1761468925640172000,4.238172119140625,-0.004459593910723925,-0.004258941393345594,-0.01730980910360813
1761468925650155000,4.248155029296875,-0.001772015355527401,-0.008345511741936207,-0.018385497853159904
1761468925660137000,4.258136962890625,-0.0036021401174366474,-0.02067222073674202,-0.019525330513715744
1761468925670120000,4.268119873046875,-0.003270263783633709,-0.01676146686077118,-0.013476461172103882
1761468925680102100,4.27810205078125,-0.004153634421527386,-0.007389003410935402,-0.002504770178347826
1761468925690084900,4.2880849609375,-0.005925481673330069,-0.005352118983864784,0.0004244085866957903
1761468925700068000,4.298068115234375,-0.0034324959851801395,-0.0016846796497702599,-0.00009464146569371223
1761468925710050000,4.308050048828125,-0.005034065805375576,-0.008360400795936584,-0.009781565517187119
1761468925720033300,4.318033203125,-0.010443477891385555,-0.012445422820746899,-0.01033097505569458
1761468925730016000,4.32801611328125,-0.020898018032312393,-0.008729818277060986,0.005649584345519543
1761468925739998200,4.337998291015625,-0.011593999341130257,-0.004245854448527098,0.009858444333076477
1761468925749981200,4.347981201171875,-0.005716124549508095,-0.0013521998189389706,0.0042045810259878635
1761468925759964000,4.3579638671875,-0.0012947446666657925,-0.009936632588505745,-0.009378605522215366
1761468925769946000,4.367946044921875,-0.0025748261250555515,-0.000613783486187458,-0.013863812200725079
1761468925779929000,4.37792919921875,-0.0073882234282791615,-0.004253792110830545,-0.008336421102285385
1761468925789912000,4.387912109375,-0.01684108003973961,-0.011633642017841339,-0.0021003587171435356
1761468925799894000,4.39789404296875,-0.015185393393039703,-0.0020710292737931013,0.0023748173844069242
1761468925809877200,4.407877197265625,-0.015641693025827408,0.004924105480313301,0.007753780111670494
1761468925819859000,4.41785888671875,-0.014495201408863068,0.004642343148589134,0.011550914496183395
1761468925829842200,4.42784228515625,-0.015435141511261463,0.0056087542325258255,0.014861639589071274
1761468925839825200,4.4378251953125,-0.01481569092720747,-0.007289468310773373,0.014563364908099174
1761468925849807000,4.44780712890625,-0.014168515801429749,-0.013651572167873383,0.010416536591947079
1761468925859790000,4.4577900390625,-0.019809091463685036,-0.010969236493110657,0.009756072424352169
1761468925869773000,4.46777294921875,-0.018307272344827652,-0.016274556517601013,0.007885895669460297
1761468925879755000,4.477755126953125,-0.01708275079727173,-0.011011885479092598,-0.0004332861863076687
1761468925889738000,4.487738037109375,-0.008345255628228188,-0.003962579183280468,-0.0011024598497897387
1761468925899721200,4.49772119140625,-0.0024159937165677547,-0.001284770667552948,0.0005761305801570415
1761468925909703000,4.507702880859375,0.0024596690200269222,-0.018266785889863968,-0.0026619648560881615
1761468925919686100,4.51768603515625,-0.0026908842846751213,-0.022287894040346146,-0.001482717227190733
1761468925929667800,4.527667724609375,-0.012496243230998516,-0.011798807419836521,0.0020250268280506134
1761468925939651000,4.537651123046875,-0.01748780533671379,0.006626006215810776,0.011650489643216133
1761468925949634000,4.547634033203125,-0.015020230785012245,-0.0029094035271555185,0.0024361801333725452
1761468925959616000,4.557615966796875,-0.016606677323579788,-0.013808656483888626,-0.009714758023619652
1761468925969599000,4.567598876953125,-0.010544291697442532,-0.014508397318422794,-0.004998649936169386
1761468925979582000,4.57758203125,-0.0033249948173761368,-0.01644052006304264,-0.0018665060633793473
1761468925989564000,4.58756396484375,-0.0004411875270307064,-0.003117559477686882,-0.0018778621451929212
1761468925999548000,4.5975478515625,-0.004433798603713512,-0.003917839378118515,-0.004472846165299416
1761468926009530000,4.607530029296875,-0.006431727670133114,-0.02069513499736786,-0.004613972268998623
1761468926019513000,4.61751318359375,-0.008163580670952797,-0.024394264444708824,0.0011014381889253855
1761468926029496000,4.62749609375,-0.015841707587242126,-0.02296490967273712,0.009204909205436707
1761468926039478000,4.63747802734375,-0.018911000341176987,-0.015506726689636707,0.01644551008939743
1761468926049461200,4.647461181640625,-0.015472892671823502,-0.012525889091193676,0.003886838210746646
1761468926059444000,4.65744384765625,-0.010914891958236694,-0.007603834383189678,-0.0019228477030992508
1761468926069426200,4.66742626953125,-0.008542681112885475,-0.0036276851315051317,-0.010234134271740913
1761468926079409200,4.6774091796875,-0.0034677605144679546,0.00024348590523004532,-0.012323915958404541
1761468926089391900,4.687391845703125,-0.003963930997997522,-0.0019802511669695377,-0.013997236266732216
1761468926099374000,4.6973740234375,-0.006180479656904936,-0.00575261889025569,-0.009825926274061203
1761468926109357000,4.707357177734375,-0.0058318390510976315,-0.00875183567404747,-0.004227691795676947
1761468926119339000,4.717339111328125,-0.010495299473404884,-0.008554228581488132,-0.004660455510020256
1761468926129322000,4.727322021484375,-0.014744339510798454,-0.0008415926713496447,0.002435619244351983
1761468926139305200,4.73730517578125,-0.015597349032759666,0.005889014340937138,-0.0007636360824108124
1761468926149287000,4.747286865234375,-0.014758029021322727,0.01807764358818531,-0.006831842008978128
1761468926159270100,4.757270263671875,-0.01835835725069046,0.015866687521338463,-0.010067849420011044
1761468926169253000,4.767253173828125,-0.018581878393888474,0.006745150312781334,-0.013690585270524025
1761468926179235000,4.777235107421875,-0.02047644928097725,0.006668184883892536,-0.008469457738101482
1761468926189218000,4.787218017578125,-0.015433521941304207,0.0003426100593060255,-0.003251263638958335
1761468926199201000,4.797200927734375,-0.01311284489929676,-0.004120847675949335,-0.001978805288672447
1761468926209183000,4.807182861328125,-0.014585892669856548,0.005764779634773731,0.002004425972700119
1761468926219166000,4.817166015625,-0.012986664660274982,0.009405320510268211,-0.0016635459614917636
1761468926229149200,4.827149169921875,-0.010672155767679214,0.01113887783139944,-0.003945373464375734
1761468926239131000,4.837130859375,-0.009224994108080864,0.008297551423311234,-0.002149870153516531
1761468926249114000,4.847114013671875,-0.01572844386100769,0.00960370060056448,0.004245683550834656
1761468926259096000,4.857095947265625,-0.01470765471458435,0.00866839848458767,0.007355456240475178
1761468926269079000,4.8670791015625,-0.013353780843317509,0.011733150109648705,0.0025310274213552475
1761468926279062000,4.87706201171875,-0.009586473926901817,0.009596762247383595,-0.0011214977130293846
1761468926289044200,4.887044189453125,-0.01226689014583826,0.00753816356882453,0.005525011569261551
1761468926299027000,4.89702685546875,-0.010863137431442738,0.004757023882120848,0.00879590678960085
1761468926309010000,4.907010009765625,-0.009631836786866188,-0.012251608073711395,0.007726258598268032
1761468926318992100,4.9169921875,-0.01009203027933836,-0.020132699981331825,0.00967489369213581
1761468926328974800,4.926974853515625,-0.014584951102733612,-0.016962017863988876,0.013422584161162376
1761468926338958000,4.9369580078125,-0.01492663286626339,-0.00622788118198514,0.015632208436727524
1761468926348940000,4.94693994140625,-0.008862338960170746,-0.0017661589663475752,0.0019204188138246536
1761468926358923000,4.956923095703125,-0.0027642329223454,0.010134176351130009,-0.006596370134502649
1761468926368906000,4.966906005859375,0.0026834974996745586,0.011101139709353447,-0.010723474435508251
1761468926378888200,4.97688818359375,-0.0038809282705187798,0.010386347770690918,-0.005415794439613819
1761468926388871000,4.986870849609375,-0.008866555988788605,-0.002803296782076359,0.002467196900397539
1761468926398853000,4.99685302734375,-0.008516348898410797,-0.006332783959805965,0.004388401284813881
1761468926408836000,5.006836181640625,-0.012027078308165073,-0.0017128379549831152,0.009488021023571491
1761468926418819000,5.016819091796875,-0.010633711703121662,0.004435068927705288,0.017661528661847115
1761468926428801000,5.026801025390625,-0.0015990999527275562,-0.0017352662980556488,0.009238253347575665
1761468926438784000,5.036783935546875,0.0046393550001084805,-0.010825167410075665,-0.005528176203370094
1761468926448766700,5.0467666015625,0.003195524215698242,-0.008865030482411385,-0.0032928118016570807
1761468926458749000,5.0567490234375,-0.0011193291284143925,-0.004949118476361036,0.003035125322639942
1761468926468732000,5.06673193359375,-0.005190546158701181,-0.012186150066554546,0.000744776101782918
1761468926478714600,5.076714599609375,-0.00949874147772789,-0.013066858053207397,0.003461999585852027
1761468926488696800,5.08669677734375,-0.006330979987978935,-0.016653582453727722,0.006965755484998226
1761468926498679800,5.0966796875,0.00010987510904669762,-0.027787193655967712,0.0021526243072003126
1761468926508662800,5.106662841796875,0.0017757578752934933,-0.03335878252983093,0.004868095740675926
1761468926518644700,5.116644775390625,0.00036721210926771164,-0.01993218995630741,0.007938187569379807
1761468926528628000,5.1266279296875,-0.0025754901580512524,-0.00781305506825447,0.01620584726333618
1761468926538609700,5.136609619140625,-0.00325193302705884,-0.005830065347254276,0.01493072509765625
1761468926548593000,5.146593017578125,-0.007444282528012991,-0.007673596031963825,0.009925768710672855
1761468926558575900,5.156575927734375,-0.010248590260744095,-0.00821208767592907,0.013570304960012436
1761468926568557800,5.166557861328125,-0.00717984139919281,-0.01201805379241705,0.013615895062685013
1761468926578540800,5.176540771484375,-0.008550836704671383,-0.013839921914041042,0.011532237753272057
1761468926588523800,5.186523681640625,-0.0022394340485334396,-0.009990585036575794,0.004270274192094803
1761468926598505700,5.196505615234375,0.000536112580448389,-0.0015656747855246067,0.0009596992749720812
1761468926608488700,5.20648876953125,0.008117634803056717,0.001561005599796772,-0.005201706662774086
1761468926618472000,5.216471923828125,0.007673152722418308,-0.0036875521764159203,-0.01199809368699789
1761468926628453600,5.22645361328125,0.009622374549508095,0.00033908127807080746,-0.005917318165302277
1761468926638436900,5.236436767578125,0.009098797105252743,-0.0009863737504929304,-0.0011124429292976856
1761468926648418800,5.246418701171875,0.004036327358335257,-0.00520781846717,-0.004526357166469097
1761468926658401800,5.25640185546875,0.0016293623484671116,0.00185595010407269,-0.00040058838203549385
1761468926668384800,5.266384765625,0.00059115095064044,0.0036149148363620043,-0.0015378758544102311
1761468926678367000,5.276366943359375,-0.004576979670673609,0.018297987058758736,0.0014714961871504784
1761468926688349700,5.286349609375,-0.0011994591914117336,0.014101033098995686,-0.0009068830404430628
1761468926698332700,5.296332763671875,-0.002607472240924835,0.017936784774065018,-0.0031359486747533083
1761468926708315000,5.30631494140625,0.0049538086168468,0.007825860753655434,-0.008778117597103119
1761468926718297600,5.316297607421875,0.007871568202972412,0.013905856758356094,-0.012895630672574043
1761468926728280800,5.32628076171875,0.010186398401856422,0.013952589593827724,-0.01149052008986473
1761468926738262800,5.3362626953125,0.007460652384907007,0.02359003759920597,-0.0072574252262711525
1761468926748245800,5.346245849609375,0.0058195018209517,0.02478707768023014,-0.011007806286215782
1761468926758228700,5.356228759765625,0.0006780028343200684,0.026095222681760788,-0.008931872434914112
1761468926768211000,5.3662109375,-0.004995495080947876,0.023588312789797783,-0.006593793164938688
1761468926778193700,5.376193603515625,-0.003065235912799835,0.0241750068962574,-0.007262246683239937
1761468926788176000,5.38617578125,-0.0027925176545977592,0.0189561378210783,-0.011499840766191483
1761468926798158800,5.396158935546875,-0.011357244104146957,0.02183528244495392,-0.004690937232226133
1761468926808141800,5.406141845703125,-0.016912030056118965,0.03685883805155754,0.0006597032770514488
1761468926818123800,5.416123779296875,-0.01458815485239029,0.04413193091750145,-0.001791470218449831
1761468926828107000,5.42610693359375,-0.012035871855914593,0.041788455098867416,-0.005241471342742443
1761468926838089700,5.43608984375,-0.008942344225943089,0.04405347257852554,-0.00546437781304121
1761468926848072000,5.446072021484375,-0.00954426359385252,0.043246373534202576,0.0013373037800192833
1761468926858055000,5.456054931640625,-0.00575378630310297,0.04026869311928749,0.0034731589257717133
1761468926868037600,5.46603759765625,-0.0033068591728806496,0.035732850432395935,0.0017596327234059572
1761468926878019800,5.476019775390625,-0.0067665716633200645,0.03576294332742691,-0.005545950960367918
1761468926888002800,5.4860029296875,-0.0014472994953393936,0.030102824792265892,-0.00929788127541542
1761468926897985800,5.49598583984375,-0.007022094447165728,0.045037832111120224,-0.009561533108353615
1761468926907967700,5.5059677734375,-0.008022155612707138,0.039471663534641266,-0.014372298493981361
1761468926917951000,5.515950927734375,-0.009446414187550545,0.05278027802705765,-0.014298796653747559
1761468926927932700,5.5259326171875,-0.010092618875205517,0.06159089505672455,-0.0078040240332484245
1761468926937916000,5.535916015625,-0.013771510683000088,0.05593594163656235,-0.0064314305782318115
1761468926947899000,5.54589892578125,-0.015344328247010708,0.041711363941431046,-0.004721116740256548
1761468926957880800,5.555880859375,-0.018295109272003174,0.04679720103740692,-0.00046272226609289646
1761468926967863800,5.56586376953125,-0.02005864307284355,0.05253777280449867,0.005738209001719952
1761468926977846800,5.5758466796875,-0.01583966612815857,0.042263563722372055,0.0010808731894940138
1761468926987828700,5.585828857421875,-0.010231222957372665,0.04292524978518486,-0.0018785555148497224
1761468926997811700,5.595811767578125,-0.010362250730395317,0.05128518119454384,0.0020551998168230057
1761468927007795000,5.605794921875,-0.008669647388160229,0.053751248866319656,0.00026192376390099525
1761468927017776600,5.615776611328125,-0.008428631350398064,0.0384037159383297,-0.007278550416231155
1761468927027759900,5.625759765625,-0.008132144808769226,0.035852160304784775,-0.005373211577534676
1761468927037742800,5.635742919921875,-0.008621100336313248,0.04029298201203346,-0.006023022811859846
1761468927047724800,5.645724853515625,-0.005951825529336929,0.03588079288601875,-0.00799432210624218
1761468927057707800,5.655707763671875,-0.006591782905161381,0.030132891610264778,-0.007107489742338657
1761468927067690000,5.66568994140625,-0.006520298775285482,0.03076064959168434,-0.005544628947973251
1761468927077672700,5.675672607421875,-0.0091717429459095,0.03170740231871605,-0.003292127512395382
1761468927087655700,5.68565576171875,-0.00899464264512062,0.027350474148988724,-0.00650017149746418
1761468927097638000,5.695637939453125,-0.008011136204004288,0.028673265129327774,-0.0022883820347487926
1761468927107620600,5.70562060546875,-0.008287950418889523,0.029580285772681236,0.0008979726117104292
1761468927117603800,5.715603759765625,-0.005614136345684528,0.030540088191628456,-0.0015119219897314906
1761468927127585800,5.725585693359375,-0.001792788039892912,0.03701531141996384,-0.0022771020885556936
1761468927137568800,5.73556884765625,-0.00045028841122984886,0.046928662806749344,-0.0056417398154735565
1761468927147551700,5.7455517578125,0.00631577055901289,0.04912056028842926,-0.013902783393859863
1761468927157534000,5.755533935546875,0.007813532836735249,0.047346893697977066,-0.01316535472869873
1761468927167516700,5.7655166015625,0.011050604283809662,0.04574420675635338,-0.015576314181089401
1761468927177499600,5.775499755859375,0.011210927739739418,0.02908080443739891,-0.0216981228441
1761468927187481900,5.78548193359375,0.008473587222397327,0.02520822361111641,-0.022711308673024178
1761468927197464800,5.79546484375,0.006460237316787243,0.026435941457748413,-0.01654023304581642
1761468927207446800,5.80544677734375,0.003781575243920088,0.027729324996471405,-0.01993163861334324
1761468927217429800,5.8154296875,0.003869193373247981,0.034466058015823364,-0.012054274789988995
1761468927227412700,5.825412841796875,0.007263460196554661,0.043269917368888855,-0.01123092696070671
1761468927237394700,5.835394775390625,0.002306518377736211,0.05399846285581589,-0.012694333679974079
1761468927247378000,5.8453779296875,0.008176211267709732,0.05159474536776543,-0.01720273867249489
1761468927257360600,5.855360595703125,0.012931285426020622,0.04385293647646904,-0.020790815353393555
1761468927267342800,5.8653427734375,0.01666114665567875,0.025140080600976944,-0.023050492629408836
1761468927277325800,5.875325927734375,0.013203032314777374,0.022454548627138138,-0.018170516937971115
1761468927287308800,5.885308837890625,0.01176140271127224,0.024432525038719177,-0.016751833260059357
1761468927297290800,5.895290771484375,0.007453473284840584,0.03161826729774475,-0.010303255170583725
1761468927307274000,5.90527392578125,0.0047432854771614075,0.041509296745061874,-0.007948637008666992
1761468927317255700,5.915255615234375,0.008232292719185352,0.04484384134411812,-0.007411477621644735
1761468927327239000,5.925239013671875,0.009880279190838337,0.04367328807711601,-0.011190526187419891
1761468927337222000,5.935221923828125,0.01341509260237217,0.039050038903951645,-0.018354695290327072
1761468927347203800,5.945203857421875,0.01109362579882145,0.037747353315353394,-0.020950451493263245
1761468927357186800,5.955186767578125,0.01729000359773636,0.035639725625514984,-0.019221527501940727
1761468927367169800,5.965169677734375,0.013987229205667973,0.03301573544740677,-0.019112223759293556
1761468927377151700,5.97515185546875,0.017329763621091843,0.026108823716640472,-0.02189682610332966
1761468927387134700,5.985134765625,0.0161337498575449,0.019306978210806847,-0.025664903223514557
1761468927397118000,5.995117919921875,0.019671492278575897,0.015703190118074417,-0.026845216751098633
1761468927407099600,6.005099609375,0.01866881176829338,0.010868221521377563,-0.02797546237707138
1761468927417083000,6.015082763671875,0.02497730776667595,0.01921483315527439,-0.03271482139825821
1761468927427065900,6.02506591796875,0.02105613425374031,0.029195357114076614,-0.02794855833053589
1761468927437047800,6.0350478515625,0.016211578622460365,0.02892131730914116,-0.026014570146799088
1761468927447030800,6.04503076171875,0.015597443096339703,0.025675863027572632,-0.02242971584200859
1761468927457013000,6.055012939453125,0.0147689338773489,0.019847800955176353,-0.018230443820357323
1761468927466996000,6.064995849609375,0.01648663729429245,0.015222650952637196,-0.015792857855558395
1761468927476978700,6.074978759765625,0.01937670074403286,0.010989557020366192,-0.015393649227917194
1761468927486961000,6.0849609375,0.026151960715651512,0.007697833701968193,-0.011584592051804066
1761468927496943900,6.09494384765625,0.023752985522150993,0.01045207493007183,-0.006453213281929493
1761468927506926800,6.1049267578125,0.022697754204273224,-0.005700315348803997,-0.010578511282801628
1761468927516908800,6.11490869140625,0.01425233855843544,-0.015958013013005257,-0.011297298595309258
1761468927526892000,6.12489208984375,0.0034955944865942,-0.007894734852015972,-0.006781373638659716
1761468927536874800,6.134874755859375,-0.0002445490099489689,0.00154350814409554,-0.00003558676689863205
1761468927546857000,6.14485693359375,-0.007013894617557526,0.005793996155261993,0.009729281067848206
1761468927556840000,6.15483984375,-0.004553399980068207,0.004113541916012764,0.010669110342860222
1761468927566822700,6.16482275390625,-0.003792399074882269,0.004927632864564657,0.017585966736078262
1761468927576804900,6.174804931640625,0.0014204722829163074,-0.00611170195043087,0.02702314592897892
1761468927586787800,6.184787841796875,0.0028912723064422607,-0.022574178874492645,0.03136774152517319
1761468927596769800,6.194769775390625,0.0016289339400827885,-0.029978565871715546,0.029175693169236183
1761468927606752800,6.204752685546875,0.0009703426621854305,-0.02920692414045334,0.029212739318609238
1761468927616736000,6.214736083984375,-0.005117643624544144,-0.031353700906038284,0.018408294767141342
1761468927626717700,6.2247177734375,-0.00878380797803402,-0.032951805740594864,0.011177030391991138
1761468927636701000,6.234700927734375,-0.017232950776815414,-0.031580809503793716,0.008915740065276623
1761468927646684000,6.244683837890625,-0.0188197810202837,-0.02644888497889042,0.01127641275525093
1761468927656665900,6.254665771484375,-0.0168924517929554,-0.023633923381567,0.014871946536004543
1761468927666648800,6.26464892578125,-0.014886686578392982,-0.023680374026298523,0.016849007457494736
1761468927676631800,6.2746318359375,-0.011233894154429436,-0.02329421602189541,0.01796061173081398
1761468927686613800,6.28461376953125,-0.011633135378360748,-0.030292239040136337,0.012023089453577995
1761468927696596700,6.2945966796875,-0.004182943142950535,-0.02243058755993843,0.010343700647354126
1761468927706579000,6.304578857421875,-0.002243715338408947,-0.01826847530901432,0.014118057675659657
1761468927716562000,6.31456201171875,0.00038908515125513077,-0.016436219215393066,0.013705267570912838
1761468927726545000,6.324544921875,0.0015010107308626175,-0.019159719347953796,0.019062619656324387
1761468927736526800,6.33452685546875,0.000814447645097971,-0.03278364986181259,0.020610449835658073
1761468927746509800,6.344509765625,-0.004776050336658955,-0.041695352643728256,0.018024999648332596
1761468927756492800,6.354492919921875,-0.011334084905683994,-0.049753013998270035,0.020978178828954697
1761468927766475000,6.36447509765625,-0.010584382340312004,-0.050631333142519,0.019976353272795677
1761468927776457700,6.374457763671875,-0.011037653312087059,-0.04680437222123146,0.01950524002313614
1761468927786441000,6.38444091796875,-0.008505073375999928,-0.03638196364045143,0.010274583473801613
1761468927796423000,6.3944228515625,-0.007911721244454384,-0.026065411046147346,0.004380475729703903
1761468927806406000,6.404406005859375,-0.0117292869836092,-0.02304697223007679,-0.0014080586843192577
1761468927816388900,6.414388916015625,-0.005882849916815758,-0.025370845571160316,-0.003417680040001869
1761468927826371000,6.42437109375,-0.005179996136575937,-0.03661641106009483,0.0016253131907433271
1761468927836353800,6.434353759765625,-0.006597863044589758,-0.0429677851498127,0.005061856471002102
1761468927846336000,6.4443359375,-0.00728260725736618,-0.04435492679476738,0.014888091012835503
1761468927856319000,6.454319091796875,-0.00532118882983923,-0.04749079793691635,0.023790238425135612
1761468927866301700,6.4643017578125,-0.004110671114176512,-0.04747210443019867,0.018547391518950462
1761468927876284000,6.474283935546875,0.000217498280107975,-0.04518897458910942,0.018994802609086037
1761468927886267000,6.484266845703125,0.005028578452765942,-0.03690047934651375,0.012503649108111858
1761468927896249900,6.494249755859375,0.00461339158937335,-0.0327661894261837,0.0071799904108047485
1761468927906231800,6.504231689453125,-0.001414608210325241,-0.030553486198186874,0.003714770544320345
1761468927916215000,6.514215087890625,-0.0019240709953010082,-0.02991459332406521,0.0027291346341371536
1761468927926197800,6.52419775390625,-0.005049712490290403,-0.0426897257566452,-0.002420768840238452
1761468927936180000,6.534179931640625,-0.000673606526106596,-0.04184523597359657,0.0013388157822191715
1761468927946163000,6.544162841796875,-0.00011110212653875351,-0.039292700588703156,0.004080305807292461
1761468927956145000,6.554144775390625,0.005020808894187212,-0.04092974588274956,0.000002473359927535057
1761468927966127900,6.5641279296875,0.006551807280629873,-0.0403568297624588,-0.0021762377582490444
1761468927976110800,6.57411083984375,0.008809102699160576,-0.03160914406180382,-0.0027863681316375732
1761468927986092800,6.5840927734375,0.011263691820204258,-0.02908739075064659,-0.004662143532186747
1761468927996075800,6.59407568359375,0.011119880713522434,-0.023224174976348877,-0.00791359692811966
1761468928006059000,6.60405908203125,0.012864011339843273,-0.022219978272914886,-0.012350977398455143
1761468928016040700,6.614040771484375,0.012641903944313526,-0.031134111806750298,-0.01748102344572544
1761468928026024000,6.62402392578125,0.013069836422801018,-0.030376486480236053,-0.013048730790615082
1761468928036007000,6.6340068359375,0.01531008817255497,-0.01723938062787056,-0.005496805068105459
1761468928045988900,6.64398876953125,0.01738789677619934,-0.01679477095603943,-0.014814113266766071
1761468928055971800,6.653971923828125,0.01624486781656742,-0.022366104647517204,-0.020028315484523773
1761468928065954800,6.663954833984375,0.018346527591347694,-0.019581187516450882,-0.02359033189713955
1761468928075936800,6.673936767578125,0.014674827456474304,-0.012134990654885769,-0.016318304464221
1761468928085919700,6.683919677734375,0.011152351275086403,-0.016070108860731125,-0.016641095280647278
1761468928095902000,6.69390185546875,0.005828426219522953,-0.020457401871681213,-0.011764049530029297
1761468928105884700,6.703884765625,0.00953499972820282,-0.020703528076410294,-0.0051199449226260185
1761468928115868000,6.713867919921875,0.012237043119966984,-0.021540824323892593,-0.002688212553039193
1761468928125849900,6.723849853515625,0.013774430379271507,-0.020412202924489975,-0.0025300795678049326
1761468928135832800,6.733832763671875,0.01648845709860325,-0.020393559709191322,-0.004894966725260019
1761468928145815800,6.74381591796875,0.01576492190361023,-0.02219848893582821,-0.009154128842055798
1761468928155798000,6.753798095703125,0.014874893240630627,-0.021140148863196373,-0.005021169316023588
1761468928165780700,6.76378076171875,0.010635939426720142,-0.02809685841202736,0.003029566491022706
1761468928175764000,6.773763916015625,0.008320320397615433,-0.038072261959314346,0.006788086146116257
1761468928185746000,6.783745849609375,0.003418311709538102,-0.04579481482505798,0.004237053915858269
1761468928195729000,6.79372900390625,0.0030092503875494003,-0.038771793246269226,0.005955858156085014
1761468928205712000,6.8037119140625,0.00043524475768208504,-0.02874654158949852,0.007777744438499212
1761468928215693800,6.81369384765625,0.0032419501803815365,-0.029612865298986435,0.0034098937176167965
1761468928225676800,6.8236767578125,-0.0007638093084096909,-0.0339428186416626,0.00011733756400644779
1761468928235659000,6.833658935546875,-0.0019723521545529366,-0.029403995722532272,0.0034255164209753275
1761468928245642000,6.84364208984375,-0.0011498345993459225,-0.0246186051517725,0.0031904529314488173
1761468928255624700,6.853624755859375,-0.000792971346527338,-0.0190371535718441,0.008550064638257027
1761468928265607000,6.86360693359375,0.0031286331359297037,-0.018108053132891655,0.009713424369692802
1761468928275590000,6.87358984375,0.007471982389688492,-0.013104505836963654,0.003404927672818303
1761468928285572900,6.88357275390625,0.00535923196002841,-0.0055982694029808044,0.005776920355856419
1761468928295554800,6.893554931640625,0.0039032818749547005,-0.00332978880032897,0.008147932589054108
1761468928305538000,6.9035380859375,-0.0004949085414409637,0.00045801023952662945,0.010469995439052582
1761468928315521000,6.91352099609375,-0.0037751239724457264,-0.012804531492292881,0.0009241616353392601
1761468928325503000,6.9235029296875,-0.009424276649951935,-0.008082239888608456,-0.001104692928493023
1761468928335486000,6.93348583984375,-0.007919590920209885,-0.0015974431298673153,0.004955862648785114
1761468928345468000,6.943468017578125,-0.00045329658314585686,-0.010189952328801155,0.005006074905395508
1761468928355451000,6.953450927734375,0.0063271112740039825,-0.013776963576674461,0.004998617805540562
1761468928365433900,6.963433837890625,0.0014436845667660236,-0.009062238037586212,0.005243922583758831
1761468928375415800,6.973415771484375,0.0022927005775272846,-0.004698382690548897,0.005964574404060841
1761468928385398800,6.983398681640625,-0.003730970900505781,-0.00648594181984663,0.005894361063838005
1761468928395382000,6.993382080078125,-0.004207410383969545,-0.003775110002607107,0.003622151678428054
1761468928405363700,7.00336376953125,-0.004205143079161644,-0.013094608671963215,0.0008759957272559404
1761468928415347000,7.013346923828125,-0.010038797743618488,-0.01345200464129448,0.010495600290596485
1761468928425330000,7.023329833984375,-0.009319447912275791,-0.01642904244363308,0.0073744552209973335
1761468928435311900,7.033311767578125,-0.008399591781198978,-0.011837487109005451,0.006005590781569481
1761468928445294300,7.04329443359375,-0.0036925943568348885,-0.004982402082532644,0.0037204010877758265
1761468928455277600,7.053277587890625,-0.0030070971697568893,-0.0035791825503110886,0.00012380210682749748
1761468928465259300,7.06325927734375,-0.001292047556489706,0.0037448580842465162,0.0054019419476389885
1761468928475242500,7.073242431640625,-0.00453710975125432,0.006715347990393639,0.009889635257422924
1761468928485224400,7.083224365234375,-0.007638393901288509,0.002500595524907112,0.0028876480646431446
1761468928495207400,7.09320751953125,-0.011390522122383118,-0.009984569624066353,0.0009414097294211388
1761468928505190400,7.1031904296875,-0.006784029304981232,-0.009204355999827385,0.002658060286194086
1761468928515172600,7.113172607421875,-0.008563020266592503,-0.009768413379788399,0.0015041125006973743
1761468928525155600,7.123155517578125,-0.004167693667113781,-0.004577213432639837,0.0002804221585392952
1761468928535138300,7.13313818359375,-0.0033178795129060745,-0.012549386359751225,-0.0033486674074083567
1761468928545120500,7.14312060546875,-0.0018761786632239819,-0.00942279864102602,-0.005746672861278057
1761468928555103500,7.153103515625,-0.0013097245246171951,-0.005820074584335089,-0.00026109395548701286
1761468928565086500,7.16308642578125,-0.0028975768946111202,0.0017424924299120903,0.00855172611773014
1761468928575068400,7.173068359375,-0.003335400950163603,-0.0038320361636579037,0.014778196811676025
1761468928585051600,7.1830517578125,-0.00429880153387785,-0.012424688786268234,0.009536202065646648
1761468928595033300,7.193033447265625,-0.005458341911435127,-0.014016193337738514,0.005887138657271862
1761468928605016600,7.2030166015625,-0.010971118696033955,-0.014777088537812233,0.011181498877704144
1761468928614999600,7.21299951171875,-0.01591048389673233,-0.012259069830179214,0.014646271243691444
1761468928624981500,7.2229814453125,-0.016763726249337196,-0.017557399347424507,0.012632658705115318
1761468928634964500,7.232964599609375,-0.010724211111664772,-0.0038285369519144297,0.004255952313542366
1761468928644947500,7.242947509765625,-0.012158231809735298,0.009849616326391697,-0.00005609518848359585
1761468928654929400,7.252929443359375,-0.007958691567182541,0.005362456664443016,0.0020448723807930946
1761468928664912400,7.262912353515625,-0.005735310725867748,-0.011608961969614029,0.0020809487905353308
1761468928674895600,7.2728955078125,-0.004965657368302345,-0.02076331153512001,-0.00043786922469735146
1761468928684877300,7.282877197265625,-0.0016681607812643051,-0.02958514355123043,-0.0010898911859840155
1761468928694860500,7.292860595703125,-0.0022913403809070587,-0.02188887447118759,0.00783942174166441
1761468928704843500,7.302843505859375,-0.006229914724826813,-0.02148745022714138,0.009337738156318665
1761468928714825500,7.312825439453125,-0.007835268042981625,-0.024272585287690163,0.011472794227302074
1761468928724808400,7.322808349609375,-0.010133265517652035,-0.01386239007115364,0.020490555092692375
1761468928734790400,7.332790283203125,-0.012555942870676517,-0.006681176368147135,0.01859811134636402
1761468928744773400,7.3427734375,-0.00598722230643034,-0.012573030777275562,0.008788974024355412
1761468928754756400,7.35275634765625,-0.0017091203480958939,-0.02569575607776642,-0.0047404165379703045
1761468928764738300,7.36273828125,0.00046823592856526375,-0.025793742388486862,-0.003584181424230337
1761468928774721300,7.37272119140625,0.0014093969948589802,-0.013171958737075329,-0.001108773285523057
1761468928784704500,7.38270458984375,0.0027908787596970797,-0.016088642179965973,-0.0013150000013411045
1761468928794686200,7.392686279296875,0.0036526776384562254,-0.021945465356111526,-0.0024604254867881536
1761468928804669400,7.40266943359375,0.0023899937514215708,-0.007639787159860134,0.0052402568981051445
1761468928814652400,7.41265234375,0.006169285625219345,-0.013403133489191532,0.007553745061159134
1761468928824634400,7.42263427734375,0.006270752288401127,-0.018676191568374634,-0.00006076553836464882
1761468928834617300,7.432617431640625,0.005947444587945938,-0.00963183119893074,-0.0002716879826039076
1761468928844599600,7.442599609375,-0.004193928092718124,-0.008589495904743671,0.0003210729919373989
1761468928854582300,7.452582275390625,-0.004270360805094242,-0.008712800219655037,-0.004003900568932295
1761468928864565200,7.462565185546875,-0.005895999260246754,0.0009354036301374435,-0.0012832465581595898
1761468928874547500,7.47254736328125,-0.005160965956747532,0.008780810050666332,0.005601824261248112
1761468928884530400,7.482530517578125,0.0059801135212183,-0.00019630859605967999,0.002197799040004611
1761468928894513400,7.492513427734375,0.012168234214186668,-0.005712780170142651,-0.002109597669914365
1761468928904495400,7.502495361328125,0.010209491476416588,-0.0018033926608040929,0.000890747644007206
1761468928914478600,7.512478515625,0.008973784744739532,0.004295512568205595,0.0016060727648437023
1761468928924461300,7.52246142578125,0.005189588759094477,0.012609229423105717,0.003903652774170041
1761468928934443500,7.532443603515625,-0.0022145314142107964,0.012051298283040524,0.007852587848901749
1761468928944426500,7.542426513671875,-0.010068091563880444,0.00634114071726799,0.013422413729131222
1761468928954409500,7.552409423828125,-0.008193492889404297,-0.00894726812839508,0.009920623153448105
1761468928964391400,7.562391357421875,-0.0002965475432574749,-0.01913369819521904,0.00241070706397295
1761468928974374700,7.572374755859375,0.0022441078908741474,-0.019927319139242172,-0.002447431441396475
1761468928984356400,7.5823564453125,0.008236797526478767,-0.014592577703297138,-0.0005935740191489458
1761468928994339600,7.592339599609375,0.00306227570399642,-0.008781294338405132,-0.0027965407352894545
1761468929004322600,7.602322509765625,0.002193952677771449,-0.0023715519346296787,-0.004267231561243534
1761468929014304500,7.612304443359375,0.0010320153087377548,0.006484524346888065,-0.006055278237909079
1761468929024287500,7.62228759765625,-0.0011982140131294727,0.005049339961260557,-0.012940516695380211
1761468929034270500,7.6322705078125,-0.0028720111586153507,-0.000037564197555184364,-0.01013168040663004
1761468929044252400,7.64225244140625,-0.004017803817987442,-0.0009131368715316057,-0.005900806747376919
1761468929054235400,7.6522353515625,-0.006647941656410694,0.00028848135843873024,-0.004850722383707762
1761468929064218600,7.662218505859375,-0.0018704859539866447,0.0017115345690399408,-0.01081164926290512
1761468929074200300,7.672200439453125,-0.0035647894255816936,0.011954317800700665,-0.0060336715541779995
1761468929084183600,7.68218359375,-0.004073220305144787,0.013428078033030033,-0.007642490789294243
1761468929094165200,7.692165283203125,-0.0015709144063293934,0.002761052455753088,-0.016072461381554604
1761468929104148500,7.7021484375,-0.003353455103933811,0.007662991061806679,-0.01458868756890297
1761468929114131500,7.71213134765625,-0.008994029834866524,0.013433793559670448,-0.010749208740890026
1761468929124113400,7.722113525390625,-0.012381606735289097,0.01895049400627613,-0.006167777813971043
1761468929134096400,7.732096435546875,-0.011586385779082775,0.016198650002479553,-0.007935583591461182
1761468929144079400,7.742079345703125,-0.011666468344628811,0.016077762469649315,-0.012755258940160275
1761468929154061300,7.752061279296875,-0.009872830472886562,0.011882485821843147,-0.012146726250648499
1761468929164044300,7.762044189453125,-0.00782729871571064,0.01698494330048561,-0.004874463193118572
1761468929174027500,7.772027587890625,-0.014250045642256737,0.0282991174608469,-0.00036999257281422615
1761468929184009200,7.78200927734375,-0.016729025170207024,0.030262526124715805,-0.001755031873472035
1761468929193992400,7.791992431640625,-0.010780856013298035,0.03347669541835785,-0.0028184321708977222
1761468929203974400,7.801974365234375,0.0010178838856518269,0.01244958583265543,-0.012930468656122684
1761468929213957400,7.811957275390625,-0.0029470305889844894,0.028694868087768555,-0.019710343331098557
1761468929223940400,7.8219404296875,-0.010428444482386112,-0.0026586619205772877,-0.015559414401650429
1761468929233922600,7.831922607421875,-0.0076065585017204285,0.0034777941182255745,-0.007446094416081905
1761468929243905500,7.841905517578125,-0.012183145619928837,0.02334366925060749,0.00868153478950262
1761468929253888300,7.85188818359375,-0.018095362931489944,0.034970495849847794,0.009728423319756985
1761468929263870500,7.861870361328125,-0.020367546007037163,0.030135709792375565,0.011171036399900913
1761468929273853400,7.871853515625,-0.023348955437541008,0.02204982005059719,0.009535322897136211
1761468929283836400,7.88183642578125,-0.015724260360002518,0.028516389429569244,0.011930388398468494
1761468929293818400,7.891818359375,-0.01700923591852188,0.026662031188607216,0.007169188931584358
1761468929303801600,7.901801513671875,-0.009279988706111908,0.01791631244122982,-0.0022770753130316734
1761468929313784300,7.911784423828125,-0.0015381788834929466,0.048448387533426285,-0.00848676823079586
1761468929323766500,7.9217666015625,0.0022239028476178646,0.050922658294439316,-0.01633474789559841
1761468929333749500,7.93174951171875,0.0005013700574636459,0.04999587684869766,-0.014615143649280071
1761468929343731500,7.9417314453125,-0.004055343102663755,0.025836046785116196,-0.010997803881764412
1761468929353714400,7.95171435546875,-0.0035743764601647854,0.019690003246068954,-0.008196424692869186
1761468929363697400,7.961697509765625,-0.007403545081615448,0.028710387647151947,-0.0026012351736426353
1761468929373679400,7.971679443359375,-0.0064131151884794235,0.04275216907262802,-0.00007975427433848381
1761468929383662300,7.981662353515625,-0.008798533119261265,0.05697859451174736,0.0013762174639850855
1761468929393645600,7.9916455078125,-0.0033987080678343773,0.05936292186379433,-0.0028342402074486017
1761468929403627500,8.00162744140625,-0.0009872270748019218,0.05303619056940079,-0.0098005635663867
1761468929413609500,8.011609375,-0.0005398159846663475,0.055792827159166336,-0.007728624157607555
1761468929423592400,8.021592529296875,0.003967345226556063,0.05579807609319687,-0.012219799682497978
1761468929433574400,8.031574462890624,0.009087804704904556,0.052899494767189026,-0.017685938626527786
1761468929443557400,8.041557373046874,0.011491125449538231,0.05051182955503464,-0.020033642649650574
1761468929453541600,8.051541748046875,0.011703379452228546,0.04407230764627457,-0.025023873895406723
1761468929463523800,8.06152392578125,0.01224597543478012,0.03229772299528122,-0.02578701823949814
1761468929473506800,8.0715068359375,0.010294944047927856,0.02683611400425434,-0.021988019347190857
1761468929483489800,8.08148974609375,0.004614788107573986,0.02585546113550663,-0.019474972039461136
1761468929493471700,8.0914716796875,0.006632132921367884,0.02585226483643055,-0.013335585594177246
1761468929503454700,8.101454833984375,0.0076346020214259624,0.019204508513212204,-0.016921473667025566
1761468929513436700,8.111436767578125,0.007621286436915398,0.022943319752812386,-0.015831440687179565
1761468929523420000,8.121419921875,0.008518681861460209,0.02837078459560871,-0.009851641952991486
1761468929533402600,8.131402587890625,0.006575106643140316,0.03196578100323677,-0.008708612993359566
1761468929543384800,8.141384765625,0.004363175015896559,0.03164147213101387,-0.009400439448654652
1761468929553367800,8.151367919921874,0.007044712081551552,0.02808082476258278,-0.011984238401055336
1761468929563350800,8.161350830078124,0.009705154225230217,0.024871423840522766,-0.013442112132906914
1761468929573332700,8.171332763671876,0.011151250451803207,0.02361920475959778,-0.01618117280304432
1761468929583316000,8.18131591796875,0.011436400935053825,0.02524132840335369,-0.016030283644795418
1761468929593298700,8.191298583984375,0.0144431097432971,0.028683463111519814,-0.01574692316353321
1761468929603281000,8.201281005859375,0.016461996361613274,0.028079435229301453,-0.013777307234704494
1761468929613264000,8.211263916015625,0.013379387557506561,0.03528834506869316,-0.006510339677333832
1761468929623245800,8.221245849609375,0.009054066613316536,0.03758884221315384,-0.008051282726228237
1761468929633228800,8.231228759765624,0.009347546845674515,0.03013785183429718,-0.010241732001304626
1761468929643211800,8.241211669921874,0.00506193283945322,0.029721304774284363,-0.013440247625112534
1761468929653193700,8.25119384765625,0.006733066402375698,0.032813768833875656,-0.009168270975351334
1761468929663176700,8.2611767578125,0.008067832328379154,0.04046277329325676,-0.006289420649409294
1761468929673160000,8.271159912109376,0.01174858771264553,0.04028806835412979,-0.009131013415753841
1761468929683141600,8.2811416015625,0.010615487582981586,0.03239695727825165,-0.019620925188064575
1761468929693124900,8.291124755859375,0.012486890889704227,0.022320352494716644,-0.023833246901631355
1761468929703107800,8.30110791015625,0.01491362601518631,0.007760194595903158,-0.026436936110258102
1761468929713089800,8.31108984375,0.01448831893503666,0.016729986295104027,-0.0293126180768013
1761468929723072800,8.32107275390625,0.011386729776859283,0.0253276489675045,-0.024243300780653954
1761468929733055700,8.3310556640625,0.0010246364399790764,0.03297597914934158,-0.014823434874415398
1761468929743037700,8.34103759765625,-0.0018916642293334007,0.031699374318122864,-0.007931370288133621
1761468929753020700,8.351020751953126,-0.004718875978142023,0.019719675183296204,0.002554027596488595
1761468929763003000,8.3610029296875,0.002103226725012064,0.018261877819895744,0.00881640799343586
1761468929772985600,8.370985595703125,0.0020571539644151926,0.017978783696889877,0.006239799782633781
1761468929782968800,8.38096875,-0.0011501461267471313,0.02250373549759388,0.003955547697842121
1761468929792950800,8.39095068359375,-0.0018747923895716667,0.03080614097416401,0.003584036836400628
1761468929802933800,8.400933837890625,-0.0011189421638846397,0.03500983864068985,-0.002369694411754608
1761468929812916700,8.410916748046875,-0.007972054183483124,0.03156370669603348,-0.0070589883252978325
1761468929822899000,8.42089892578125,-0.0065104765817523,0.02715807780623436,-0.007654999382793903
1761468929832881700,8.430881591796876,-0.010079378262162209,0.028282731771469116,-0.00573991984128952
1761468929842864600,8.44086474609375,-0.009268408641219139,0.027292616665363312,-0.006702113430947065
1761468929852846800,8.450846923828125,-0.008185300976037979,0.02486860752105713,-0.007763382978737354
1761468929862829600,8.46082958984375,-0.005114305764436722,0.015858186408877373,-0.005250765010714531
1761468929872811800,8.470811767578125,-0.005424298346042633,0.009088696911931038,0.0013259111437946558
1761468929882794800,8.480794677734375,-0.0015154317952692509,0.009329798631370068,0.006424921099096537
1761468929892777700,8.49077783203125,0.003378126537427306,0.01458208542317152,0.011202631518244743
1761468929902759700,8.500759765625,0.001247467938810587,0.01596875861287117,0.01858687400817871
1761468929912743000,8.510742919921874,0.004851257428526878,0.02372148633003235,0.022463638335466385
1761468929922725600,8.5207255859375,0.004791777115315199,0.027376342564821243,0.015854407101869583
1761468929932707800,8.530707763671876,-0.00034253112971782684,0.01850242353975773,0.0085893040522933
1761468929942690800,8.54069091796875,-0.0031764009036123753,0.007314216811209917,0.0023484521079808474
1761468929952673800,8.550673828125,-0.007590057794004679,0.002475519198924303,0.009206624701619148
1761468929962655700,8.56065576171875,-0.008846591226756573,-0.005282027646899223,0.012248961254954338
1761468929972638700,8.570638671875,-0.001110907644033432,-0.010233642533421516,0.015200275927782059
1761468929982620700,8.58062060546875,0.0021790326572954655,-0.010430213063955307,0.01682809740304947
1761468929992604000,8.59060400390625,0.008950652554631233,-0.022942809388041496,0.009635698050260544
1761468930002588700,8.600588623046875,0.015482515096664429,-0.017991546541452408,0.010084696114063263
1761468930012572000,8.610572021484375,0.007683182135224342,-0.024115750566124916,0.009785090573132038
1761468930022555000,8.620554931640624,0.0008774995803833008,-0.03438764810562134,0.011764063499867916
1761468930032536800,8.630536865234374,-0.0029273582622408867,-0.044289276003837585,0.013008558191359043
1761468930042519800,8.640519775390626,-0.0006520678289234638,-0.03938557580113411,0.016447989270091057
1761468930052501800,8.650501708984375,-0.004230824299156666,-0.0375961996614933,0.017055457457900047
1761468930062484700,8.660484619140625,-0.010396740399301052,-0.02544054388999939,0.019601527601480484
1761468930072467700,8.6704677734375,-0.005134867504239082,-0.04258783906698227,0.016615860164165497
1761468930082449700,8.68044970703125,0.005504806991666555,-0.020837245509028435,0.019606703892350197
1761468930092432600,8.6904326171875,0.00027355970814824104,-0.016097350046038628,0.030666014179587364
1761468930102416000,8.700415771484375,-0.0039288634434342384,-0.042963773012161255,0.02528691291809082
1761468930112397600,8.7103974609375,0.0016784220933914185,-0.04467432200908661,0.017571203410625458
1761468930122380800,8.720380859375,0.0030315944459289312,-0.03371330350637436,0.02337375283241272
1761468930132363800,8.73036376953125,-0.00032159173861145973,-0.03349332511425018,0.022977206856012344
1761468930142345700,8.740345703125,0.0008799266070127487,-0.04947594553232193,0.022744888439774513
1761468930152328700,8.75032861328125,0.0046576205641031265,-0.04219565913081169,0.022149140015244484
1761468930162311000,8.760310791015625,0.0060712057165801525,-0.03186577558517456,0.022603154182434082
1761468930172293600,8.770293701171875,-0.0016783266328275204,-0.02982739359140396,0.0206017903983593
1761468930182276600,8.780276611328125,-0.0009200689382851124,-0.03025098703801632,0.019065016880631447
1761468930192258800,8.7902587890625,-0.006435742136090994,-0.04246051236987114,0.019277004525065422
1761468930202241500,8.800241455078124,-0.002467266283929348,-0.04833153262734413,0.025843383744359016
1761468930212224800,8.810224853515624,-0.0018126615323126316,-0.04118147864937782,0.025243373587727547
1761468930222206700,8.820206787109376,-0.0022398773580789566,-0.03635767847299576,0.024881873279809952
1761468930232189700,8.830189697265626,0.0018960118759423494,-0.03581758961081505,0.016845252364873886
1761468930242172700,8.840172607421875,0.001172829419374466,-0.038039159029722214,0.01668589934706688
1761468930252155000,8.85015478515625,-0.0027518710121512413,-0.030055534094572067,0.018545053899288177
1761468930262137600,8.8601376953125,-0.0011320579797029495,-0.026616927236318588,0.019525665789842606
1761468930272119800,8.870119873046875,0.004280550871044397,-0.033945415169000626,0.014823054894804955
1761468930282102800,8.880102783203125,0.00923663005232811,-0.04791144281625748,0.00988999754190445
1761468930292085800,8.890085693359374,0.012926971539855003,-0.05847513675689697,0.017125803977251053
1761468930302067700,8.900067626953126,0.008474285714328289,-0.059641432017087936,0.02468879520893097
1761468930312051000,8.910051025390626,0.008502515032887459,-0.05238857865333557,0.02378784492611885
1761468930322033700,8.92003369140625,0.007108482997864485,-0.04218996316194534,0.017280850559473038
1761468930332015900,8.930015869140625,0.012154906988143921,-0.03441459685564041,0.006286788731813431
1761468930341998800,8.939998779296875,0.007864422164857388,-0.04264966398477554,-0.0032871803268790245
1761468930351981600,8.949981689453125,0.010778719559311867,-0.041224606335163116,-0.001622704672627151
1761468930361963800,8.9599638671875,0.006771426647901535,-0.04391656816005707,-0.003984933253377676
1761468930371946800,8.96994677734375,0.003110645106062293,-0.044268906116485596,-0.0034608233254402876
1761468930381930000,8.979929931640624,0.0014671636745333672,-0.038407448679208755,-0.000847494462504983
1761468930391911700,8.98991162109375,0.0007949820719659328,-0.03368619829416275,0.0018164657521992922
1761468930401895000,8.99989501953125,0.004745584912598133,-0.033349230885505676,-0.0028938581235706806
1761468930411876600,9.009876708984375,0.005760515574365854,-0.03425630182027817,-0.0027684231754392385
1761468930421859800,9.01985986328125,0.008019650354981422,-0.03816671669483185,-0.0035259034484624863
1761468930431842800,9.0298427734375,0.011925974860787392,-0.04083840176463127,0.000018231337890028954
1761468930441824800,9.03982470703125,0.008736974559724331,-0.04000255838036537,0.003099969355389476
1761468930451806700,9.049806640625,0.007958798669278622,-0.04070296883583069,0.001443749526515603
1761468930461790000,9.0597900390625,0.00485318573191762,-0.03331102430820465,0.000560821034014225
1761468930471771600,9.069771728515626,-0.001652650535106659,-0.025992657989263535,0.0030876281671226025
1761468930481755000,9.0797548828125,0.001329272985458374,-0.03976490721106529,-0.0016991901211440563
1761468930491737900,9.08973779296875,-0.007549706380814314,-0.03464338555932045,-0.0004855876322835684
1761468930501719800,9.0997197265625,-0.006739899516105652,-0.03558769449591637,0.0012454839888960123
1761468930511702800,9.109702880859375,-0.008819828741252422,-0.026796597987413406,0.003489463357254863
1761468930521684700,9.119684814453125,-0.005389065481722355,-0.025637391954660416,0.0003943734336644411
1761468930531667700,9.129667724609375,-0.000770877581089735,-0.03113788366317749,0.0008697477169334888
1761468930541650700,9.139650634765625,-0.0024776761420071125,-0.030596207827329636,0.0065412698313593864
1761468930551632600,9.149632568359374,0.0006808326579630375,-0.03485114127397537,0.00852186232805252
1761468930561615600,9.15961572265625,0.0020697331055998802,-0.04022011160850525,0.009429984726011753
1761468930571598800,9.169598876953126,0.007824557833373547,-0.047478824853897095,0.009190565906465054
1761468930581580800,9.179580810546875,0.005896934308111668,-0.05406847223639488,0.008446499705314636
1761468930591563800,9.189563720703125,0.0115436352789402,-0.048012979328632355,0.0067993346601724625
1761468930601546800,9.199546630859375,0.006496714428067207,-0.04560117796063423,0.010174097493290901
1761468930611529000,9.209529052734375,0.01114259846508503,-0.04576282948255539,0.0060962652787566185
1761468930621511700,9.21951171875,0.009683294221758842,-0.038665108382701874,0.008491174317896366
1761468930631494000,9.229493896484374,0.004383869934827089,-0.03830185532569885,0.010525562800467014
1761468930641476900,9.239476806640624,-0.0033226730301976204,-0.026250019669532776,0.02146107517182827
1761468930651459600,9.24945947265625,-0.005286487750709057,-0.03395800665020943,0.013682779856026173
1761468930661441800,9.25944189453125,-0.005990617908537388,-0.03041774220764637,0.012537647038698196
1761468930671424800,9.2694248046875,0.006926778703927994,-0.013237155973911285,0.01220262236893177
1761468930681407700,9.27940771484375,0.004255884326994419,-0.005961257964372635,0.007250713184475899
1761468930691389700,9.2893896484375,0.0030966103076934814,-0.016682079061865807,0.006008614785969257
1761468930701373000,9.299373046875,-0.000012021977454423904,-0.02894566021859646,0.0022182504180818796
1761468930711355600,9.309355712890625,0.006378499325364828,0.011920547112822533,0.012188592925667763
1761468930721337900,9.319337890625,0.004395021591335535,0.014130069874227047,0.012313527055084705
1761468930731320800,9.32932080078125,-0.0028746090829372406,-0.016252070665359497,0.0050992900505661964
1761468930741302800,9.339302734375,0.006554800551384687,-0.02443213388323784,0.0048830099403858185
1761468930751285800,9.34928564453125,0.0020420742221176624,-0.01968238689005375,0.006553344428539276
1761468930761268700,9.359268798828126,-0.002636798657476902,-0.013586903922259808,0.0104381013661623
1761468930771250700,9.369250732421875,0.0013350402005016804,-0.016659658402204514,0.008662305772304535
1761468930781233700,9.379233642578125,0.002479023300111294,-0.01598566398024559,0.007819564081728458
1761468930791217000,9.389216796875,0.006198127754032612,-0.020032867789268494,0.00494015496224165
1761468930801198800,9.39919873046875,0.005496046040207148,-0.014737704768776894,0.00247262604534626
1761468930811181800,9.409181884765625,0.005488855764269829,-0.01152912899851799,0.004909951239824295
1761468930821164800,9.419164794921874,0.0026326077058911324,-0.01973932608962059,0.005318554118275642
1761468930831146800,9.429146728515626,0.006801786366850138,-0.03693695738911629,0.010215042158961296
1761468930841129700,9.439129638671876,0.012652785517275333,-0.03931298851966858,0.007726321928203106
1761468930851111700,9.449111572265625,0.010191226378083229,-0.025164946913719177,0.005792068317532539
1761468930861094700,9.4590947265625,0.012938672676682472,-0.029495660215616226,0.004104760475456715
1761468930871078000,9.469077880859375,0.010979386046528816,-0.031773991882801056,0.000553701538592577
1761468930881059600,9.4790595703125,0.0077719660475850105,-0.03942687436938286,0.0038974634371697903
1761468930891042800,9.489042724609375,0.0047673871740698814,-0.04681048542261124,0.0020692036487162113
1761468930901025800,9.49902587890625,0.008768776431679726,-0.043798577040433884,0.012488262727856636
1761468930911007700,9.5090078125,0.011400777846574783,-0.028501112014055252,0.00985625945031643
1761468930920990700,9.51899072265625,0.011955304071307182,-0.021288715302944183,-0.00028526526875793934
1761468930930973700,9.5289736328125,0.010601885616779327,-0.022425087168812752,-0.011167740449309349
1761468930940956000,9.538955810546875,0.010404886677861214,-0.024203982204198837,-0.02029731124639511
1761468930950938600,9.548938720703125,0.01014469563961029,-0.022260140627622604,-0.021881358698010445
1761468930960921900,9.558921875,0.013578546233475208,-0.029061518609523773,-0.02089756727218628
1761468930970903800,9.56890380859375,0.015975922346115112,-0.03334920480847359,-0.014596262015402317
1761468930980886800,9.57888671875,0.018281789496541023,-0.03776106983423233,-0.013399346731603146
1761468930990868700,9.58886865234375,0.019675688818097115,-0.03471788018941879,-0.010632588528096676
1761468931000852000,9.59885205078125,0.017572607845067978,-0.022546717897057533,-0.0009130628313869238
1761468931010834700,9.608834716796874,0.0118153877556324,-0.014331398531794548,-0.005086502525955439
1761468931020817000,9.61881689453125,0.009211094118654728,-0.008234938606619835,-0.008320450782775879
1761468931030800000,9.6287998046875,0.007355136796832085,-0.0007977953646332026,-0.007942015305161476
1761468931040782600,9.638782470703125,-0.000633366871625185,0.0008419549558311701,-0.005458391271531582
1761468931050764800,9.648764892578125,0.0034077137243002653,-0.007316372357308865,-0.01191549189388752
1761468931060747800,9.658747802734375,0.007833817042410374,-0.020562216639518738,-0.01510170754045248
1761468931070730800,9.668730712890625,0.009563806466758251,-0.021996861323714256,-0.00995648093521595
1761468931080712700,9.678712646484374,0.0176694393157959,-0.014694703742861748,-0.0032319945748895407
1761468931090696000,9.688696044921874,0.01725398376584053,-0.012071490287780762,-0.0029425087850540876
1761468931100677600,9.698677734375,0.015469899401068687,-0.013063821010291576,-0.0017169264610856771
1761468931110660900,9.708660888671876,0.010805638507008553,-0.012404422275722027,0.0009944378398358822
1761468931120643800,9.718643798828126,0.0064715794287621975,-0.01598488911986351,0.002565888687968254
1761468931130625800,9.728625732421875,0.002072836272418499,-0.017562545835971832,0.0008534761145710945
1761468931140608800,9.73860888671875,-0.0007167542353272438,-0.010336333885788918,0.005112924613058567
1761468931150591700,9.748591796875,0.0028321740683168173,-0.0010877074673771858,0.004329689312726259
1761468931160573700,9.75857373046875,0.004568091593682766,0.0019892959389835596,0.0019862158223986626
1761468931170556700,9.768556640625,0.003923872951418161,0.0064895059913396835,-0.0011877394281327724
1761468931180540000,9.778539794921874,0.003139430657029152,-0.004226416815072298,-0.00560248177498579
1761468931190521600,9.788521484375,-0.004891864024102688,-0.021036289632320404,-0.00813168566673994
1761468931200504800,9.7985048828125,0.0041002994403243065,-0.018152885138988495,-0.0009818973485380411
1761468931210486500,9.808486572265625,-0.0013995119370520115,-0.05894744023680687,-0.012627854943275452
1761468931220469800,9.8184697265625,0.012131452560424805,-0.03316599875688553,-0.0064263176172971725
1761468931230452700,9.82845263671875,0.00495769502595067,-0.014591516926884651,0.00929245725274086
1761468931240434700,9.8384345703125,0.0025344546884298325,-0.003381672315299511,0.01967090368270874
1761468931250417700,9.848417724609375,0.00042150262743234634,-0.0091191865503788,0.010461692698299885
1761468931260401000,9.85840087890625,-0.0032245824113488197,-0.011653625406324863,0.0074958642944693565
1761468931270382600,9.868382568359374,-0.0031550731509923935,-0.006963798776268959,0.004117378033697605
1761468931280365800,9.87836572265625,-0.00402224762365222,-0.0074768150225281715,0.0033092417288571596
1761468931290348800,9.888348876953126,-0.009785594418644905,-0.007054437883198261,0.008279498666524887
1761468931300330800,9.898330810546875,-0.003964007832109928,-0.010948993265628815,0.010748477652668953
1761468931310313700,9.908313720703125,-0.002212713472545147,-0.014808712527155876,0.005459173582494259
1761468931320296000,9.9182958984375,-0.00015945034101605415,-0.013217245228588581,0.00891541875898838
1761468931330279000,9.92827880859375,-0.0024194084107875824,-0.012566635385155678,0.0105727044865489
1761468931340261600,9.93826171875,-0.008583003655076027,-0.014806440100073814,0.01415143720805645
1761468931350243800,9.948243896484374,-0.014376443810760975,-0.013892974704504013,0.02142772637307644
1761468931360226800,9.958226806640624,-0.013994859531521797,-0.005617369897663593,0.02513827756047249
1761468931370209800,9.968209716796874,-0.012984190136194229,-0.004486325196921825,0.02315422147512436
1761468931380191700,9.978191650390626,-0.007017411291599274,-0.012857210822403431,0.019820738583803177
1761468931390175000,9.988175048828126,-0.0002942611463367939,-0.018758242949843407,0.014748749323189259
1761468931400157700,9.99815771484375,0.0034020293969660997,-0.024026712402701378,0.017310772091150284
1761468931410140000,10.008139892578125,-0.0021967338398098946,-0.020988577976822853,0.025133009999990463
1761468931420123000,10.018122802734375,-0.007609919644892216,-0.023580797016620636,0.022356897592544556
1761468931430104800,10.028104736328125,-0.012903750874102116,-0.023838059976696968,0.02527439035475254
1761468931440087800,10.038087890625,-0.017169024795293808,-0.030508046969771385,0.02444378286600113
1761468931450075000,10.048074951171875,-0.015957020223140717,-0.026760978624224663,0.030088089406490326
1761468931460056800,10.058056884765625,-0.008495376445353031,-0.016143489629030228,0.029711782932281494
1761468931470039800,10.068039794921875,-0.0030566686764359474,-0.02294600009918213,0.02300514280796051
1761468931480022800,10.078022705078125,0.0005572177469730377,-0.01095715630799532,0.01578107662498951
1761468931490004700,10.088004638671874,0.006924835965037346,-0.008930224925279617,0.011803645640611649
1761468931499988000,10.097988037109374,0.0075895050540566444,-0.017565816640853882,0.00850020069628954
1761468931509971000,10.107970947265626,0.007749827113002539,-0.013756430707871914,0.00955214910209179
1761468931519953000,10.117952880859375,0.006307005416601896,-0.007509520277380943,0.013756784610450268
1761468931529936000,10.127935791015625,0.0032648765482008457,-0.006645590998232365,0.009837676770985126
1761468931539918800,10.1379189453125,0.0017660311423242092,-0.010491175577044487,0.006772591266781092
1761468931549900800,10.14790087890625,-0.0025482899509370327,-0.015183398500084877,0.004734208341687918
1761468931559883800,10.1578837890625,-0.0030866614542901516,-0.00813091080635786,0.005052066408097744
1761468931569865700,10.16786572265625,-0.0021486966870725155,0.0042916699312627316,0.003008622908964753
1761468931579848700,10.1778486328125,0.0015865294262766838,0.004298761487007141,-0.002137737115845084
1761468931589832000,10.18783203125,0.008405286818742752,0.021522223949432373,-0.0022011203691363335
1761468931599813600,10.197813720703126,0.01434166170656681,0.01325176004320383,-0.003356513101607561
1761468931609796900,10.207796875,0.016824526712298393,0.0026252141688019037,-0.00968711357563734
1761468931619779800,10.21777978515625,0.01461052056401968,0.002296671736985445,-0.009091241285204887
1761468931629761800,10.22776171875,0.008172595873475075,-0.002924189204350114,-0.008673125877976418
1761468931639744800,10.237744873046875,0.005915586370974779,0.005980607122182846,0.001696211751550436
1761468931649727700,10.247727783203125,-0.004102958831936121,0.010289868339896202,0.005189746152609587
1761468931659709700,10.257709716796874,-0.002221409697085619,0.01452581025660038,0.00736845750361681
1761468931669692700,10.267692626953124,0.0004513384774327278,0.009438639506697655,0.0045196739956736565
1761468931679675000,10.2776748046875,0.0018864350859075785,0.0038804130163043737,-0.0020700888708233833
1761468931689657600,10.28765771484375,0.0012416839599609375,0.007943331263959408,-0.0016136231133714318
1761468931699640800,10.297640869140626,0.0013494417071342468,0.014815429225564003,0.005924098193645477
1761468931709622800,10.307622802734375,0.003671718295663595,0.010991396382451057,-0.0006360670085996389
1761468931719605800,10.317605712890625,0.0030036205425858498,0.010393845848739147,-0.008477947674691677
1761468931729588700,10.327588623046875,0.001578829251229763,0.015303650870919228,-0.005046198144555092
1761468931739571000,10.337571044921875,-0.0012662350200116634,0.00838490016758442,-0.0058683427050709724
1761468931749554000,10.347553955078125,0.0028781762812286615,0.009193168953061104,-0.0018078209832310677
1761468931759536600,10.35753662109375,0.0007255631498992443,0.029439836740493774,0.004516175016760826
1761468931769518800,10.367518798828126,-0.0003183959051966667,0.022271670401096344,-0.00171535590197891
1761468931779501800,10.377501708984376,-0.00047610001638531685,0.02521296963095665,-0.0028352467343211174
1761468931789483800,10.38748388671875,-0.004218640737235546,0.018997950479388237,0.01456371694803238
1761468931799466800,10.397466796875,0.0009780856780707836,0.007438155822455883,-0.006576365325599909
1761468931809450000,10.407449951171875,0.004887872375547886,-0.006371666677296162,-0.022411521524190903
1761468931819431700,10.417431640625,0.003417353378608823,0.016015684232115746,-0.01632501929998398
1761468931829415000,10.427414794921875,0.008003849536180496,0.040868036448955536,-0.0007133022882044315
1761468931839398000,10.43739794921875,0.005462829023599625,0.04015403613448143,0.002525200368836522
1761468931849379800,10.4473798828125,0.007740364409983158,0.03578299283981323,0.00011876830831170082
1761468931859362800,10.45736279296875,0.003321216441690922,0.01428082212805748,-0.005704408977180719
1761468931869345800,10.467345703125,0.006877867970615625,0.018122699111700058,0.0038568719755858183
1761468931879327700,10.47732763671875,0.005319551099091768,0.018472712486982346,0.017755553126335144
1761468931889310700,10.487310791015625,0.00014183297753334045,0.01173038687556982,0.01688176952302456
1761468931899292700,10.497292724609375,-0.0071108778938651085,0.01957223191857338,0.012602267786860466
1761468931909275600,10.507275634765625,-0.008376412093639374,0.03305714577436447,0.0065566254779696465
1761468931919259000,10.5172587890625,-0.0031132735311985016,0.03809276223182678,0.0009031814988702536
1761468931929240600,10.527240478515624,0.00390815082937479,0.014327246695756912,-0.02117069438099861
1761468931939223800,10.537223876953124,0.008878719061613083,0.02151501551270485,-0.04390473663806915
1761468931949206800,10.547206787109374,0.007089607883244753,0.027448538690805435,-0.048489902168512344
1761468931959188700,10.557188720703126,0.007208091206848621,0.039822813123464584,-0.037385664880275726
1761468931969171700,10.567171630859375,-0.0014522424899041653,0.019200891256332397,-0.0238187238574028
