time,seconds_elapsed,z,y,x
1761468893272265000,0.118264892578125,0.010174419730901718,0.0407862551510334,-0.02486763335764408
1761468893282248000,0.128248046875,0.007909402251243591,0.02508559077978134,-0.03587314486503601
1761468893292231000,0.13823095703125,0.012862996198236942,0.010958649218082428,-0.040905069559812546
1761468893302212900,0.148212890625,0.01231118943542242,0.009026525542140007,-0.039938606321811676
1761468893312196000,0.158196044921875,0.01779088005423546,0.019999608397483826,-0.0357997752726078
1761468893322178800,0.1681787109375,0.016075270250439644,0.044241029769182205,-0.02410503849387169
1761468893332161000,0.1781611328125,0.0118318572640419,0.05998758226633072,-0.006722304970026016
1761468893342144000,0.18814404296875,0.0011885343119502068,0.04938846826553345,-0.011935176327824593
1761468893352126700,0.198126708984375,-0.01140899769961834,0.036043353378772736,-0.014757066033780575
1761468893362109000,0.20810888671875,-0.01454460434615612,0.035489149391651154,-0.01277727261185646
1761468893372092000,0.218091796875,-0.01417582854628563,0.03785420209169388,-0.00773006584495306
1761468893382075000,0.228074951171875,-0.012439446523785591,0.037061117589473724,-0.003619477152824402
1761468893392056800,0.238056884765625,-0.00657583586871624,0.04034678265452385,0.0021530010271817446
1761468893402040000,0.2480400390625,-0.0013674921356141567,0.04907476156949997,0.004777546040713787
1761468893412021000,0.25802099609375,0.001811582362279296,0.04164395481348038,-0.0015588159440085292
1761468893422002700,0.268002685546875,0.0023697810247540474,0.03702976182103157,-0.0066816722974181175
1761468893431986000,0.27798583984375,0.0016400017775595188,0.029336683452129364,-0.010447702370584011
1761468893441969000,0.287968994140625,-0.0015728357248008251,0.010808272287249565,-0.013441096059978008
1761468893451950800,0.297950927734375,-0.003831676673144102,0.013805503956973553,-0.005780491512268782
1761468893461933800,0.307933837890625,-0.007266088854521513,0.031063586473464966,0.007401090115308762
1761468893471916800,0.317916748046875,-0.010988730005919933,0.03366495296359062,0.01267489418387413
1761468893481900000,0.327900146484375,-0.006253628991544247,0.03514593839645386,0.011846118606626987
1761468893491881700,0.3378818359375,-0.003897357266396284,0.03179524838924408,0.0016900671180337667
1761468893501865000,0.347864990234375,0.0006225593388080597,0.01778089441359043,-0.011730666272342205
1761468893511848000,0.357847900390625,0.007700442336499691,0.013223959133028984,-0.010125312954187393
1761468893521830000,0.367829833984375,0.005263383965939283,0.026222582906484604,-0.0006511176470667124
1761468893531812900,0.377812744140625,0.005510561168193817,0.03578106686472893,0.006974071729928255
1761468893541796000,0.387796142578125,0.01024885755032301,0.0345299169421196,0.004079215694218874
1761468893551777800,0.39777783203125,0.012821107171475887,0.01831384375691414,-0.010779483243823051
1761468893561761000,0.407760986328125,0.01515563391149044,0.020091768354177475,-0.015367044135928154
1761468893571744000,0.417743896484375,0.004738891962915659,0.027502166107296944,-0.004579932428896427
1761468893581726000,0.427725830078125,0.0006629237905144691,0.024972695857286453,0.005785356275737286
1761468893591709000,0.437708984375,-0.004734446294605732,0.01853187195956707,0.007568135857582092
1761468893601692000,0.44769189453125,-0.0073206424713134766,0.011877433396875858,0.002461258554831147
1761468893611673900,0.457673828125,-0.00011620577424764633,0.007390918675810099,-0.007791357114911079
1761468893621656800,0.46765673828125,0.009207520633935928,-0.0010707429610192776,-0.007914128713309765
1761468893631640000,0.47764013671875,0.015352481976151466,-0.010104162618517876,-0.009163412265479565
1761468893641621800,0.487621826171875,0.007336367387324572,-0.008321975357830524,-0.004057333804666996
1761468893651605000,0.49760498046875,0.006872653961181641,-0.019045492634177208,0.000714191934093833
1761468893661588000,0.507587890625,0.012013619765639305,-0.028364425525069237,-0.00099635636433959
1761468893671571000,0.517571044921875,0.009995914995670319,-0.0333806574344635,-0.0003729970194399357
1761468893681553000,0.527552978515625,0.009240375831723213,-0.03940446302294731,0.001118372892960906
1761468893691536000,0.537535888671875,0.009075533598661423,-0.03268910199403763,0.004048422910273075
1761468893701519000,0.54751904296875,0.009955975227057934,-0.03374078497290611,0.0033080640714615583
1761468893711500800,0.557500732421875,0.01244613528251648,-0.038657668977975845,0.005457097664475441
1761468893721484000,0.567484130859375,0.013506606221199036,-0.046347811818122864,0.008079778403043747
1761468893731467000,0.577467041015625,0.015860989689826965,-0.052293386310338974,0.008927875198423862
1761468893741449000,0.587448974609375,0.016108665615320206,-0.059639982879161835,0.0007375897839665413
1761468893751432000,0.597431884765625,0.01571125164628029,-0.05936751887202263,0.004909861832857132
1761468893761415000,0.607414794921875,0.015985824167728424,-0.058017030358314514,0.004037144593894482
1761468893771396900,0.61739697265625,0.013431982137262821,-0.057882506400346756,0.007715881802141666
1761468893781379800,0.6273798828125,0.017326056957244873,-0.060942210257053375,0.0035930422600358725
1761468893791363000,0.637363037109375,0.018517691642045975,-0.05629289895296097,0.0007763698231428862
1761468893801345800,0.647345703125,0.022551314905285835,-0.04810314625501633,0.00486858282238245
1761468893811328000,0.657327880859375,0.021553797647356987,-0.0484793446958065,0.004021825734525919
1761468893821311000,0.66731103515625,0.019204357638955116,-0.06421516835689545,0.005311594810336828
1761468893831293700,0.677293701171875,0.013942727819085121,-0.06345181167125702,0.01093349326401949
1761468893841276000,0.68727587890625,0.00848511140793562,-0.061787866055965424,0.020626334473490715
1761468893851259000,0.6972587890625,0.0062278625555336475,-0.05084166303277016,0.02635672688484192
1761468893861241900,0.707241943359375,0.012831170111894608,-0.051136210560798645,0.018760858103632927
1761468893871223800,0.717223876953125,0.00839490070939064,-0.05777982249855995,0.0007613867055624723
1761468893881207000,0.72720703125,0.007194880396127701,-0.05107611417770386,-0.004238165449351072
1761468893891189800,0.737189697265625,0.00023129209876060486,-0.04395713657140732,0.0022631601896137
1761468893901173000,0.747173095703125,-0.00005260063335299492,-0.043278031051158905,0.008089091628789902
1761468893911155000,0.757155029296875,-0.0012585832737386227,-0.04749526455998421,0.010525540448725224
1761468893921138000,0.767137939453125,0.002498071640729904,-0.04479828104376793,0.01363291684538126
1761468893931121000,0.777120849609375,0.0029203430749475956,-0.0411197692155838,0.016812602058053017
1761468893941103000,0.78710302734375,0.00015331897884607315,-0.04875851422548294,0.014530273154377937
1761468893951085800,0.7970859375,0.0007014325819909573,-0.046714141964912415,0.016327666118741035
1761468893961068800,0.80706884765625,0.0010348604992032051,-0.04494953155517578,0.020891524851322174
1761468893971051000,0.817051025390625,-0.00184696726500988,-0.04274274408817291,0.014542301185429096
1761468893981033700,0.82703369140625,-0.0030797445215284824,-0.031445618718862534,0.01143039669841528
1761468893991017000,0.837016845703125,-0.002233949489891529,-0.016667380928993225,0.008249749429523945
1761468894000999000,0.8469990234375,-0.005896328948438168,-0.014437515288591385,0.008099013939499855
1761468894010982000,0.85698193359375,-0.00993860699236393,-0.018258318305015564,0.008443526923656464
1761468894020964900,0.86696484375,-0.011556209996342659,-0.01888735592365265,0.007739919237792492
1761468894030947800,0.87694775390625,-0.009524976834654808,-0.020596489310264587,0.007974774576723576
1761468894040929800,0.8869296875,-0.005010385997593403,-0.02301117777824402,0.004801617935299873
1761468894050912800,0.896912841796875,0.0008348356932401657,-0.013782468624413013,0.0023125323932617903
1761468894060896000,0.90689599609375,0.005902831442654133,-0.0168624147772789,0.0033482357393950224
1761468894070877700,0.916877685546875,0.003763331100344658,-0.02758249081671238,-0.0006916837301105261
1761468894080861000,0.92686083984375,0.005393984727561474,-0.023113174363970757,0.006399248726665974
1761468894090844000,0.936843994140625,0.0017913603223860264,-0.017032800242304802,0.008643303997814655
1761468894100825900,0.946825927734375,0.003906442783772945,-0.010084879584610462,0.01195334643125534
1761468894110808800,0.956808837890625,0.003888441016897559,-0.010894360020756721,0.0023117687087506056
1761468894120791800,0.966791748046875,-0.0021779732778668404,-0.011431518942117691,-0.005286762490868568
1761468894130775000,0.976775146484375,0.0017672269605100155,-0.008313165977597237,-0.010728920809924603
1761468894140756700,0.9867568359375,0.0032274380791932344,-0.017317846417427063,-0.017139682546257973
1761468894150740000,0.996739990234375,0.008878672495484352,-0.030673922970891,-0.019938409328460693
1761468894160723000,1.006722900390625,0.00368284503929317,-0.026985179632902145,-0.013578780926764011
1761468894170705000,1.016704833984375,-0.001266562845557928,-0.014954943209886551,-0.003745816182345152
1761468894180688000,1.02668798828125,0.0006226836703717709,-0.011117327958345413,-0.001157756196334958
1761468894190670800,1.0366708984375,-0.002040112391114235,-0.0071791429072618484,0.004746079444885254
1761468894200653800,1.04665380859375,0.0013490263372659683,-0.011700657196342945,0.004829969257116318
1761468894210635800,1.0566357421875,0.0022526781540364027,-0.014997844584286213,0.005047830753028393
1761468894220619000,1.066618896484375,0.003974411636590958,-0.007773487363010645,0.008237498812377453
1761468894230601700,1.076601806640625,0.003706190036609769,-0.0010450838599354029,0.007773827761411667
1761468894240584000,1.086583984375,0.003362376010045409,-0.008078492246568203,0.006583927199244499
1761468894250567000,1.09656689453125,-0.0027077142149209976,-0.006858933717012405,0.010210957378149033
1761468894260550100,1.106550048828125,-0.004606814123690128,-0.012665956281125546,0.011309245601296425
1761468894270531800,1.11653173828125,-0.007380333263427019,-0.015252338722348213,0.009462999179959297
1761468894280515000,1.12651513671875,-0.00839473120868206,-0.0232897587120533,0.01200738362967968
1761468894290498000,1.136498046875,-0.0022493493743240833,-0.01737729273736477,0.013307640329003334
1761468894300480800,1.146480712890625,-0.0014048614539206028,-0.009198457933962345,0.009241793304681778
1761468894310463000,1.156462890625,-0.002485235221683979,0.0018650947604328394,0.01297298539429903
1761468894320446000,1.166446044921875,-0.006261331029236317,-0.004621300380676985,0.012581766583025455
1761468894330429000,1.176428955078125,-0.00648078415542841,0.002037186874076724,0.017047366127371788
1761468894340411000,1.186410888671875,-0.011099504306912422,0.0048348382115364075,0.01945832557976246
1761468894350394000,1.19639404296875,-0.012634141370654106,-0.0026156355161219835,0.01980522647500038
1761468894360376800,1.206376953125,-0.010757943615317345,-0.005020469892770052,0.020170876756310463
1761468894370359800,1.21635986328125,-0.010237359441816807,0.0010608849115669727,0.021139953285455704
1761468894380342000,1.226342041015625,-0.011531122960150242,-0.002980461809784174,0.02128882333636284
1761468894390324700,1.23632470703125,-0.007947094738483429,-0.01459487248212099,0.021977977827191353
1761468894400308000,1.246307861328125,-0.007962275296449661,-0.015537098981440067,0.02563396468758583
1761468894410289400,1.256289306640625,-0.011808155104517937,-0.010907327756285667,0.030847661197185516
1761468894420272400,1.2662724609375,-0.009607849642634392,-0.010494537651538849,0.03307672590017319
1761468894430255400,1.27625537109375,-0.005943547934293747,-0.002852560020983219,0.02711237221956253
1761468894440238600,1.286238525390625,-0.0025709206238389015,-0.007384194992482662,0.020051533356308937
1761468894450220300,1.29622021484375,-0.0023559890687465668,-0.022958816960453987,0.01605915278196335
1761468894460203500,1.30620361328125,0.002727985382080078,-0.027053693309426308,0.012373337522149086
1761468894470186500,1.3161865234375,0.005508133675903082,-0.03091013990342617,0.010159570723772049
1761468894480168400,1.32616845703125,0.012124491855502129,-0.03658080846071243,0.00777444476261735
1761468894490151400,1.3361513671875,0.008338550105690956,-0.04416961222887039,0.017649687826633453
1761468894500134400,1.346134521484375,0.0166151225566864,-0.04054904729127884,0.02400212548673153
1761468894510117400,1.356117431640625,0.010467417538166046,-0.04561169072985649,0.017538851127028465
1761468894520099300,1.366099365234375,0.01232816744595766,-0.04775393754243851,0.012370455078780651
1761468894530082600,1.37608251953125,0.011170348152518272,-0.033278848975896835,0.00887623056769371
1761468894540065300,1.386065185546875,0.009191352874040604,-0.0243452750146389,0.004474557936191559
1761468894550047500,1.396047607421875,0.01334389392286539,-0.025350296869874,-0.004498261027038097
1761468894560030500,1.406030517578125,0.016462989151477814,-0.020098010078072548,-0.01164831593632698
1761468894570013400,1.416013427734375,0.016456931829452515,-0.019887179136276245,-0.012735914438962936
1761468894579995400,1.425995361328125,0.017136037349700928,-0.011334170587360859,-0.010372092947363853
1761468894589978400,1.435978271484375,0.013716943562030792,-0.007228854112327099,-0.005139078479260206
1761468894599961600,1.445961669921875,0.01243676245212555,-0.01690092124044895,-0.004341994412243366
1761468894609944300,1.4559443359375,0.010945688933134079,-0.01869843900203705,-0.0010026327800005674
1761468894619926500,1.465926513671875,0.009934486821293831,-0.01588427647948265,0.0033806641586124897
1761468894629909500,1.475909423828125,0.01257355697453022,-0.011912367306649685,-0.0029092843178659678
1761468894639892200,1.485892333984375,0.010054739192128181,-0.011181063950061798,-0.010429784655570984
1761468894649875500,1.49587548828125,0.012580632232129574,0.002437659539282322,-0.013472847640514374
1761468894659857400,1.505857421875,0.011273286305367947,0.01581125520169735,-0.016120562329888344
1761468894669840400,1.51584033203125,0.012097597122192383,0.012399982661008835,-0.020631911233067513
1761468894679823400,1.5258232421875,0.009438963606953621,0.008990070782601833,-0.01730402372777462
1761468894689805600,1.5358056640625,0.008659867569804192,0.008147438988089561,-0.011249701492488384
1761468894699788300,1.545788330078125,0.004382297862321138,0.0010620991233736277,-0.010117592290043831
1761468894709771500,1.555771484375,0.0022473365534096956,0.002211077371612191,-0.006399213802069426
1761468894719753500,1.56575341796875,0.006280694156885147,0.008588816039264202,-0.003127254080027342
1761468894729736400,1.575736328125,-0.004198201932013035,0.01702059432864189,0.001454062294214964
1761468894739719400,1.585719482421875,-0.00320510845631361,0.010109159164130688,0.0014913463965058327
1761468894749702400,1.595702392578125,-0.002892628312110901,0.0049360510893166065,-0.0029451425652951
1761468894759684400,1.605684326171875,-0.0045621637254953384,0.005506766494363546,-0.009556706063449383
1761468894769667300,1.615667236328125,-0.007444917690008879,0.015046549960970879,-0.011075652204453945
1761468894779650600,1.625650634765625,-0.005670453887432814,0.015198083594441414,-0.008878011256456375
1761468894789632300,1.63563232421875,-0.010184898972511292,0.01618771068751812,-0.00947653129696846
1761468894799615500,1.645615478515625,-0.008052505552768707,0.01600049063563347,-0.013264878652989864
1761468894809598500,1.655598388671875,-0.012530315667390823,0.022699596360325813,-0.006437295116484165
1761468894819581400,1.66558154296875,-0.010259438306093216,0.018740274012088776,-0.006776049267500639
1761468894829563400,1.6755634765625,-0.011506743729114532,0.005881010554730892,-0.01775001548230648
1761468894839546400,1.68554638671875,-0.006819314789026976,0.008159611374139786,-0.018724998459219933
1761468894849529600,1.695529541015625,-0.009993210434913635,0.008542269468307495,-0.015134477987885475
1761468894859512300,1.70551220703125,-0.007929792627692223,0.002508878242224455,-0.009559417143464088
1761468894869494500,1.71549462890625,-0.009595479816198349,0.014189774170517921,-0.003343490883708
1761468894879477500,1.7254775390625,-0.013762261718511581,0.017293954268097878,-0.00000521843321621418
1761468894889460200,1.735460205078125,-0.01761198416352272,0.022742852568626404,0.005380664952099323
1761468894899442400,1.7454423828125,-0.022397950291633606,0.022261086851358414,0.013949651271104813
1761468894909425400,1.75542529296875,-0.022203033789992332,0.015797331929206848,0.010142344981431961
1761468894919408400,1.765408447265625,-0.018622945994138718,0.012011381797492504,0.013639873825013638
1761468894929391400,1.775391357421875,-0.0191810242831707,0.004282164853066206,0.010450061410665512
1761468894939373600,1.78537353515625,-0.026071690022945404,0.004446215461939573,0.006174888927489519
1761468894949356300,1.795356201171875,-0.027109436690807343,0.009829300455749035,0.011571365408599377
1761468894959339300,1.80533935546875,-0.0309947207570076,0.01806965470314026,0.009953494183719158
1761468894969321500,1.815321533203125,-0.030564650893211365,0.02306867204606533,0.009558495134115219
1761468894979304200,1.82530419921875,-0.027732376009225845,0.027501236647367477,0.007454865146428347
1761468894989287400,1.835287353515625,-0.0212184339761734,0.025697898119688034,0.007806804031133652
1761468894999270400,1.8452705078125,-0.020879946649074554,0.023412372916936874,0.006274421699345112
1761468895009252400,1.85525244140625,-0.026459595188498497,0.014672106131911278,0.014828434213995934
1761468895019235300,1.8652353515625,-0.03133877366781235,0.003598681651055813,0.020075127482414246
1761468895029218600,1.875218505859375,-0.03552428260445595,0.005533168092370033,0.024503853172063828
1761468895039200300,1.8852001953125,-0.04081651568412781,0.009874386712908745,0.026486311107873917
1761468895049183500,1.89518359375,-0.0399884469807148,0.007920049130916595,0.023609647527337074
1761468895059166500,1.90516650390625,-0.03753221407532692,0.016091426834464073,0.019749928265810013
1761468895069149400,1.9151494140625,-0.029165631160140038,0.024984130635857582,0.016943516209721565
1761468895079131400,1.92513134765625,-0.023509876802563667,0.025074413046240807,0.016034578904509544
1761468895089114400,1.9351142578125,-0.025860678404569626,0.025732185691595078,0.009425139054656029
1761468895099097600,1.94509765625,-0.025029506534337997,0.017104076221585274,0.009488256648182869
1761468895109080300,1.955080322265625,-0.025412026792764664,0.011939972639083862,0.008818371221423149
1761468895119062500,1.9650625,-0.025882339105010033,0.00714282039552927,0.009517185389995575
1761468895129045500,1.97504541015625,-0.025817830115556717,0.01796416938304901,0.018129657953977585
1761468895139028200,1.9850283203125,-0.024587983265519142,0.025973891839385033,0.0215265192091465
1761468895149010400,1.995010498046875,-0.01835162565112114,0.02200731262564659,0.014623112976551056
1761468895158993400,2.004993408203125,-0.01798757165670395,0.01659976691007614,0.008004891686141491
1761468895168976400,2.014976318359375,-0.016678396612405777,0.026322413235902786,-0.0004744017496705055
1761468895178959400,2.02495947265625,-0.014444802887737751,0.0321749746799469,-0.005917903035879135
1761468895188941600,2.034941650390625,-0.015470354817807674,0.02894449047744274,-0.011061493307352066
1761468895198924300,2.04492431640625,-0.01853378862142563,0.028465652838349342,-0.0035332702100276947
1761468895208907300,2.0549072265625,-0.01625572331249714,0.02372213639318943,0.004083873238414526
1761468895218890500,2.064890380859375,-0.015542261302471161,0.012414884753525257,0.00552331143990159
1761468895228872200,2.0748720703125,-0.012625005096197128,0.007922671735286713,-0.0010969878640025854
1761468895238855400,2.08485546875,-0.013210900127887726,0.022994564846158028,0.0024130584206432104
1761468895248838400,2.09483837890625,-0.010226826183497906,0.02701815962791443,0.0061502885073423386
1761468895258820400,2.1048203125,-0.010064640082418919,0.031258709728717804,0.006717009469866753
1761468895268803300,2.11480322265625,-0.009889139793813229,0.036455780267715454,0.003372595412656665
1761468895278786300,2.124786376953125,-0.009605247527360916,0.04438720643520355,0.0016410078387707472
1761468895288769500,2.13476953125,-0.010035046376287937,0.03806861490011215,-0.009281093254685402
1761468895298751200,2.144751220703125,-0.012895281426608562,0.047168370336294174,-0.00944780744612217
1761468895308734500,2.154734375,-0.009555088356137276,0.04765540733933449,-0.007294862996786833
1761468895318717400,2.164717529296875,-0.0046303714625537395,0.055642228573560715,-0.007224023342132568
1761468895328699400,2.174699462890625,-0.003371349535882473,0.0393802672624588,-0.015191805548965931
1761468895338682400,2.184682373046875,0.0029342167545109987,0.02416110225021839,-0.01858094334602356
1761468895348665600,2.19466552734375,0.002492132131010294,0.026429850608110428,-0.0026163593865931034
1761468895358648300,2.2046484375,0.0012889159843325615,0.032898932695388794,-0.005339175462722778
1761468895368630500,2.214630615234375,0.0050441245548427105,0.03972098231315613,-0.012122336775064468
1761468895378613500,2.224613525390625,0.008674811571836472,0.05837083235383034,-0.009928424842655659
1761468895388596200,2.23459619140625,0.009855239652097225,0.054989852011203766,-0.012564064934849739
1761468895398579500,2.244579345703125,0.010411040857434273,0.044330816715955734,-0.023316843435168266
1761468895408561400,2.2545615234375,0.00906419474631548,0.041848160326480865,-0.016019584611058235
1761468895418545000,2.264544921875,0.008607728406786919,0.041598618030548096,-0.009112410247325897
1761468895428527900,2.27452783203125,0.007379831746220589,0.04169873893260956,-0.01001942902803421
1761468895438509800,2.284509765625,0.008420329540967941,0.045240744948387146,-0.01092144101858139
1761468895448493000,2.2944931640625,0.0060989693738520145,0.04438602179288864,-0.016572266817092896
1761468895458475800,2.304475830078125,0.008429501205682755,0.04894162714481354,-0.014558384194970131
1761468895468459000,2.314458984375,0.00365616986528039,0.05182689428329468,-0.015407027676701546
1761468895478441000,2.32444091796875,-0.002216898836195469,0.043391864746809006,-0.009966721758246422
1761468895488424000,2.334423828125,-0.00016569718718528748,0.0447472482919693,-0.0068062786012887955
1761468895498407000,2.344406982421875,-0.0017958180978894234,0.037682946771383286,-0.007467275485396385
1761468895508390000,2.354389892578125,0.0034485915675759315,0.03396374359726906,-0.008602490648627281
1761468895518371800,2.364371826171875,0.015450925566256046,0.029990307986736298,-0.007408862002193928
1761468895528354800,2.374354736328125,0.020329955965280533,0.021453354507684708,-0.011580849066376686
1761468895538338000,2.384338134765625,0.015137325040996075,0.013064930215477943,-0.018084554001688957
1761468895548319700,2.39431982421875,0.016579721122980118,0.023864082992076874,-0.013240255415439606
1761468895558303000,2.404302978515625,0.006844536401331425,0.04068807139992714,-0.000010470626875758171
1761468895568286000,2.414285888671875,-0.0012930771335959435,0.045040063560009,0.00464843213558197
1761468895578269000,2.42426904296875,-0.004673960153013468,0.05247427895665169,0.011575047858059406
1761468895588251000,2.4342509765625,-0.0008227331563830376,0.04420101270079613,0.0023003455717116594
1761468895598233900,2.44423388671875,-0.0008094175718724728,0.03156298026442528,-0.006279560271650553
1761468895608217000,2.454217041015625,0.008199818432331085,0.03133033215999603,-0.014443723484873772
1761468895618199800,2.46419970703125,0.011484295129776001,0.04082050547003746,-0.01588209718465805
1761468895628182000,2.47418212890625,0.0076855625957250595,0.046914007514715195,-0.01350976713001728
1761468895638165000,2.4841650390625,0.009019007906317711,0.051792386919260025,-0.005228402093052864
1761468895648147700,2.494147705078125,0.0024516889825463295,0.04271359369158745,-0.002514555351808667
1761468895658131000,2.504130859375,-0.00021386891603469849,0.04084432125091553,-0.007150585763156414
1761468895668113000,2.51411279296875,-0.000009640585631132126,0.05082795396447182,-0.006427593529224396
1761468895678096000,2.524095947265625,-0.004047525115311146,0.05534600466489792,-0.011971762403845787
1761468895688078800,2.534078857421875,-0.005301786586642265,0.060730449855327606,-0.015324614010751247
1761468895698061000,2.54406103515625,-0.0025936178863048553,0.060731515288352966,-0.01604340225458145
1761468895708043800,2.554043701171875,-0.0037657865323126316,0.053427450358867645,-0.02253253385424614
1761468895718026800,2.56402685546875,0.0006883502937853336,0.04011111333966255,-0.02474908158183098
1761468895728010000,2.574010009765625,0.001803769264370203,0.032846421003341675,-0.017825046554207802
1761468895737992000,2.583991943359375,-0.0004964028485119343,0.03823772445321083,-0.009458193555474281
1761468895747975000,2.593974853515625,-0.0022962605580687523,0.04794381931424141,-0.003329044207930565
1761468895757958000,2.6039580078125,-0.008256148546934128,0.06059569492936134,0.00246839108876884
1761468895767941000,2.613941162109375,-0.013771969825029373,0.06486642360687256,0.010577837936580181
1761468895777922800,2.6239228515625,-0.010307729244232178,0.06000056117773056,0.011128580197691917
1761468895787906000,2.633906005859375,-0.013115294277668,0.055089037865400314,0.008328456431627274
1761468895797889000,2.643888916015625,-0.011097682639956474,0.05226981267333031,0.00021593528799712658
1761468895807871000,2.65387109375,-0.01526129711419344,0.05235740542411804,-0.005048342514783144
1761468895817854000,2.66385400390625,-0.016715116798877716,0.04880901053547859,-0.004494404885917902
1761468895827837000,2.6738369140625,-0.015387673862278461,0.04656679928302765,-0.0055366274900734425
1761468895837820000,2.68381982421875,-0.017712615430355072,0.054304346442222595,-0.004533414728939533
1761468895847801900,2.6938017578125,-0.009341059252619743,0.06829635053873062,0.0012258375063538551
1761468895857785000,2.70378515625,-0.00625259056687355,0.08238261193037033,0.00564934778958559
1761468895867767800,2.713767822265625,-0.005761200562119484,0.07233507186174393,-0.003693763166666031
1761468895877750800,2.723750732421875,-0.008160442113876343,0.058780916035175323,-0.013851858675479889
1761468895887733000,2.73373291015625,-0.010959227569401264,0.050627149641513824,-0.01301652006804943
1761468895897715700,2.7437158203125,-0.014272199012339115,0.0506545826792717,-0.005467257462441921
1761468895907699000,2.753698974609375,-0.014641597867012024,0.06297178566455841,0.0017017184291034937
1761468895917682000,2.763681884765625,-0.016140423715114594,0.06676466017961502,0.010807066224515438
1761468895927663900,2.773663818359375,-0.01650981605052948,0.07281161844730377,0.00918648112565279
1761468895937646800,2.783646728515625,-0.022504061460494995,0.06282050907611847,0.0122270118445158
1761468895947629800,2.7936298828125,-0.01535387896001339,0.059269439429044724,0.008778906427323818
1761468895957611800,2.80361181640625,-0.021638672798871994,0.04233013838529587,0.004476570058614016
1761468895967594800,2.8135947265625,-0.018017899245023727,0.04249734431505203,-0.0039292266592383385
1761468895977578000,2.823577880859375,-0.014575762674212456,0.03978971019387245,-0.004143344704061747
1761468895987561000,2.83356103515625,-0.0156079838052392,0.03441351279616356,-0.0010189344175159931
1761468895997543000,2.84354296875,-0.019381150603294373,0.03139561787247658,-0.0005086727906018496
1761468896007526000,2.85352587890625,-0.017242897301912308,0.03691323846578598,0.00039868149906396866
1761468896017508900,2.8635087890625,-0.014121671207249165,0.028272081166505814,-0.0009781727567315102
1761468896027491800,2.873491943359375,-0.01440916396677494,0.014454544521868229,0.0017455993220210075
1761468896037473800,2.883473876953125,-0.010180329903960228,0.0007938600610941648,0.014382831752300262
1761468896047457000,2.89345703125,-0.005960404872894287,-0.00015217671170830727,0.024329613894224167
1761468896057439700,2.903439697265625,0.00046500377357006073,-0.0043482533656060696,0.023795120418071747
1761468896067422000,2.913421875,0.002938042161986232,-0.005284784361720085,0.014871153980493546
1761468896077405000,2.923405029296875,-0.0010883910581469536,-0.00771917961537838,0.005146355368196964
1761468896087388000,2.933387939453125,0.0019414604175835848,-0.005435888189822435,0.006312532350420952
1761468896097371000,2.943370849609375,-0.004707920365035534,-0.004219889175146818,0.009877972304821014
1761468896107353000,2.95335302734375,-0.004333787132054567,0.0005328506231307983,0.01227898895740509
1761468896117335800,2.963335693359375,0.0000652228482067585,-0.007551707327365875,0.011293886229395866
1761468896127318800,2.97331884765625,0.0005624108016490936,-0.01934678480029106,0.005536939948797226
1761468896137302000,2.983302001953125,0.003428238444030285,-0.03673562780022621,0.004209887236356735
1761468896147283700,2.99328369140625,0.006387395318597555,-0.04602918028831482,0.009160825982689857
1761468896157267000,3.003266845703125,0.012999491766095161,-0.0510774701833725,0.008520334959030151
1761468896167250000,3.01325,0.013083500787615776,-0.04957057163119316,0.010815836489200592
1761468896177233000,3.02323291015625,0.019389333203434944,-0.0520438477396965,0.01113035622984171
1761468896187214800,3.03321484375,0.01949857547879219,-0.04817894846200943,0.008238457143306732
1761468896197197800,3.04319775390625,0.013579966500401497,-0.045443616807460785,0.005907658487558365
1761468896207181000,3.05318115234375,0.009683558717370033,-0.03667555749416351,0.008434010669589043
1761468896217162800,3.063162841796875,0.007741581182926893,-0.039583995938301086,0.00024132756516337395
1761468896227146000,3.07314599609375,0.005791257135570049,-0.04508685693144798,-0.007035327143967152
1761468896237129000,3.08312890625,0.00228121061809361,-0.04362504929304123,-0.010364544577896595
1761468896247111700,3.093111572265625,0.006285049486905336,-0.03276295214891434,-0.010405216366052628
1761468896257094000,3.103093994140625,0.005197947379201651,-0.02526375651359558,-0.011536527425050735
1761468896267076900,3.113076904296875,0.007725781761109829,-0.037109799683094025,-0.0046587055549025536
1761468896277059800,3.123059814453125,0.004074321128427982,-0.05164160579442978,-0.0017119176918640733
1761468896287042800,3.133042724609375,0.00802382081747055,-0.052372708916664124,0.0026117635425180197
1761468896297025000,3.14302490234375,0.007075735367834568,-0.04361623525619507,0.010192184709012508
1761468896307007700,3.1530078125,0.002116420539095998,-0.04881338030099869,0.010012160986661911
1761468896316991000,3.162990966796875,0.0010865763761103153,-0.04547084867954254,0.011727236211299896
1761468896326974000,3.172973876953125,-0.004229383077472448,-0.031857848167419434,0.01884266547858715
1761468896336956000,3.182955810546875,-0.003614459652453661,-0.02784978784620762,0.01806608773767948
1761468896346939000,3.19293896484375,-0.002758252900093794,-0.027036191895604134,0.01781255379319191
1761468896356921900,3.202921875,-0.002957190852612257,-0.03560224920511246,0.015066035091876984
1761468896366904000,3.212904052734375,-0.004499953705817461,-0.04518792778253555,0.010667843744158745
1761468896376886800,3.22288671875,-0.0004450245760381222,-0.04920237883925438,0.012536050751805305
1761468896386870000,3.2328701171875,-0.007601677440106869,-0.045523978769779205,0.016462678089737892
1761468896396853000,3.24285302734375,-0.009304236620664597,-0.037457264959812164,0.022926703095436096
1761468896406835000,3.2528349609375,-0.01111049484461546,-0.0368742011487484,0.033109698444604874
1761468896416818200,3.262818115234375,-0.012762454338371754,-0.03597751632332802,0.03302740678191185
1761468896426801000,3.27280078125,-0.0065799253061413765,-0.03380224481225014,0.02881348319351673
1761468896436784000,3.2827841796875,-0.0032152878120541573,-0.049976956099271774,0.02062479592859745
1761468896446766000,3.29276611328125,-0.0036576618440449238,-0.047060009092092514,0.01952596940100193
1761468896456749000,3.3027490234375,-0.007373570930212736,-0.03571627289056778,0.02356864884495735
1761468896466732000,3.31273193359375,-0.0063904449343681335,-0.031151598319411278,0.024697724729776382
1761468896476714200,3.32271435546875,-0.005896162241697311,-0.03351834788918495,0.017192671075463295
1761468896486697000,3.332697021484375,-0.00555099593475461,-0.04220850393176079,0.012899658642709255
1761468896496680000,3.342679931640625,-0.0036921086721122265,-0.04349853843450546,0.01777563989162445
1761468896506663200,3.3526630859375,-0.0026642433367669582,-0.03497667238116264,0.027582094073295593
1761468896516644900,3.362644775390625,-0.00586616201326251,-0.026150425896048546,0.027225762605667114
1761468896526628000,3.372628173828125,-0.0065482016652822495,-0.03140147402882576,0.02173936739563942
1761468896536611000,3.382611083984375,-0.007154869846999645,-0.036305420100688934,0.01470009982585907
1761468896546594000,3.392593994140625,-0.003611832857131958,-0.04091137647628784,0.01481376402080059
1761468896556576000,3.402575927734375,-0.001801682636141777,-0.04837967827916145,0.013440636917948723
1761468896566559000,3.41255908203125,-0.005036321002990007,-0.05464145541191101,0.013705959543585777
1761468896576542200,3.422542236328125,-0.0022876723669469357,-0.04465753212571144,0.019888488575816154
1761468896586525000,3.43252490234375,0.002404957776889205,-0.035943929105997086,0.013746550306677818
1761468896596507100,3.442507080078125,0.0002736300230026245,-0.032441072165966034,0.011131060309708118
1761468896606490000,3.452489990234375,0.0015542590990662575,-0.02848394215106964,0.01280558854341507
1761468896616472800,3.462472900390625,-0.0032290443778038025,-0.037109121680259705,0.01058318093419075
1761468896626455000,3.472455078125,-0.005367534700781107,-0.04511900246143341,0.0040126522071659565
1761468896636438000,3.48243798828125,-0.009542571380734444,-0.042023345828056335,0.009270265698432922
1761468896646421000,3.4924208984375,-0.010648046620190144,-0.02835111692547798,0.01050439104437828
1761468896656404000,3.502404052734375,-0.0078083183616399765,-0.018274780362844467,0.005310161504894495
1761468896666386200,3.51238623046875,0.003184331115335226,-0.016321660950779915,-0.0034210768062621355
1761468896676369000,3.522368896484375,0.006722074467688799,-0.010677623562514782,-0.00837242603302002
1761468896686352100,3.53235205078125,0.010646767914295197,-0.0035686835180968046,-0.004103663377463818
1761468896696335000,3.542335205078125,0.012100055813789368,-0.017840296030044556,-0.00763954222202301
1761468896706317000,3.552317138671875,0.01016062218695879,-0.03472908213734627,-0.007344319485127926
1761468896716300000,3.562300048828125,0.009928127750754356,-0.028349213302135468,-0.005529642105102539
1761468896726283000,3.572282958984375,0.0041286456398665905,-0.019191613420844078,-0.00527950469404459
1761468896736266200,3.582266357421875,0.0007096794433891773,-0.018029142171144485,-0.003206500317901373
1761468896746248000,3.592248046875,-0.0006530839018523693,-0.008888122625648975,-0.005420657806098461
1761468896756231200,3.602231201171875,-0.003376165870577097,0.008461573161184788,-0.010905438102781773
1761468896766214100,3.612214111328125,-0.004615128505975008,0.011143868789076805,-0.019479544833302498
1761468896776196000,3.622196044921875,-0.005286776926368475,0.007782959379255772,-0.024687090888619423
1761468896786179000,3.632178955078125,0.007485385052859783,0.003040693700313568,-0.013139991089701653
1761468896796162000,3.642162109375,0.015602434054017067,-0.007803431712090969,-0.006099392659962177
1761468896806145000,3.65214501953125,0.018181702122092247,-0.01007652934640646,-0.007269601337611675
1761468896816127000,3.662126953125,0.019541513174772263,-0.009771862998604774,-0.00862621609121561
1761468896826110200,3.672110107421875,0.011258285492658615,-0.012996596284210682,-0.01108536310493946
1761468896836093000,3.682093017578125,0.006210796069353819,-0.015137511305510998,-0.00632655993103981
1761468896846076000,3.692075927734375,-0.0021236534230411053,-0.0072906529530882835,0.005165961571037769
1761468896856058000,3.70205810546875,-0.004341800231486559,-0.011173009872436523,0.007375586777925491
1761468896866040800,3.712040771484375,0.00043590646237134933,-0.014031471684575081,0.003703603520989418
1761468896876024000,3.722024169921875,0.003832235699519515,-0.019908003509044647,-0.003242186736315489
1761468896886007000,3.732007080078125,0.006883184891194105,-0.007432493381202221,-0.000628788024187088
1761468896895989000,3.741989013671875,0.005909533239901066,0.004695009905844927,0.004438142292201519
1761468896905972000,3.751971923828125,0.01235480047762394,-0.003303779987618327,0.0006875074468553066
1761468896915955000,3.761954833984375,0.011937483213841915,-0.014077598229050636,-0.012455458752810955
1761468896925938200,3.771938232421875,0.013560593128204346,-0.014123549684882164,-0.01416316069662571
1761468896935920000,3.781920166015625,0.008633212186396122,-0.01613556779921055,-0.010008096694946289
1761468896945903000,3.791903076171875,0.00731817027553916,-0.016709374263882637,-0.008589942008256912
1761468896955886000,3.801885986328125,0.0037860197480767965,-0.006506271660327911,-0.0028207357972860336
1761468896965868000,3.811867919921875,-0.005671397782862186,0.0008411235176026821,0.0034922873601317406
1761468896975851000,3.82185107421875,-0.00370838213711977,-0.001926966244354844,0.006685950327664614
1761468896985834200,3.831834228515625,-0.0025853021070361137,-0.001418553525581956,0.007839636877179146
1761468896995817000,3.84181689453125,0.0031226512510329485,0.004538404755294323,0.01333906501531601
1761468897005799200,3.851799072265625,0.01426318846642971,-0.005039030686020851,0.0016158458311110735
1761468897015782100,3.8617822265625,0.014953481033444405,-0.01131716649979353,-0.006304129026830196
1761468897025764900,3.871764892578125,0.019684411585330963,-0.008976006880402565,-0.006745580583810806
1761468897035748000,3.881748046875,0.014478998258709908,-0.02320101484656334,-0.012232757173478603
1761468897045730000,3.89172998046875,0.017644217237830162,-0.037921518087387085,-0.018421649932861328
1761468897055713000,3.901713134765625,0.014304080046713352,-0.0385873019695282,-0.024914702400565147
1761468897065696000,3.911696044921875,0.0171129759401083,-0.023919373750686646,-0.01894063875079155
1761468897075678200,3.92167822265625,0.02036416158080101,-0.025499960407614708,-0.017939023673534393
1761468897085661000,3.931660888671875,0.020033076405525208,-0.026792075484991074,-0.01712094619870186
1761468897095644000,3.941643798828125,0.014683317393064499,-0.019774112850427628,-0.013078266754746437
1761468897105627100,3.951627197265625,0.013359785079956055,-0.022542163729667664,-0.007554277312010527
1761468897115608800,3.96160888671875,0.0062925550155341625,-0.027744382619857788,-0.005271682050079107
1761468897125592000,3.971592041015625,0.0049321637488901615,-0.02976476401090622,-0.0037747446913272142
1761468897135575000,3.981574951171875,-0.00030334433540701866,-0.026146061718463898,-0.0017291706753894687
1761468897145558000,3.99155810546875,0.00043096626177430153,-0.015039931982755661,0.001826197374612093
1761468897155540000,4.0015400390625,0.0011814450845122337,-0.023237407207489014,-0.0008947544265538454
1761468897165521200,4.011521240234375,-0.001119343563914299,-0.023777015507221222,-0.006149503868073225
1761468897175504000,4.02150390625,0.00173263531178236,-0.020730892196297646,-0.0122976778075099
1761468897185487000,4.031487060546875,0.002654585987329483,-0.014588071964681149,-0.01746240071952343
1761468897195470000,4.041469970703125,0.0013104886747896671,-0.02010374516248703,-0.019414233043789864
1761468897205452000,4.0514521484375,-0.002490169368684292,-0.01770702376961708,-0.007980292662978172
1761468897215435000,4.06143505859375,-0.003497377038002014,-0.004963798448443413,0.0031256217043846846
1761468897225418000,4.07141796875,-0.004597408697009087,-0.00434631435200572,0.0042070019990205765
1761468897235401000,4.08140087890625,0.0009225253015756607,-0.017083149403333664,-0.004156655631959438
1761468897245383000,4.0913828125,-0.0005667749792337418,-0.02079465426504612,-0.008195148780941963
1761468897255366100,4.1013662109375,-0.00040485477074980736,-0.0038396394811570644,-0.0041769715026021
1761468897265348900,4.111348876953125,-0.003281503915786743,0.003875424386933446,-0.002263890579342842
1761468897275331000,4.1213310546875,-0.0044626155868172646,0.004366511479020119,-0.005463145673274994
1761468897285314000,4.13131396484375,-0.00038457103073596954,0.014383254572749138,-0.008128480985760689
1761468897295297000,4.141297119140625,-0.0020857984200119972,0.015642929822206497,-0.010863812640309334
1761468897305280000,4.151280029296875,-0.0005940869450569153,0.006725730840116739,-0.013321612030267715
1761468897315262000,4.161261962890625,0.004163916688412428,-0.005565823055803776,-0.012815345078706741
1761468897325245200,4.1712451171875,0.0017589936032891273,-0.001324089476838708,-0.007516537792980671
1761468897335228000,4.181227783203125,-0.0010429183021187782,-0.00671699084341526,-0.007657418958842754
1761468897345211100,4.191211181640625,-0.0005861273966729641,-0.007491215132176876,-0.004375293385237455
1761468897355193000,4.201193115234375,-0.0021856222301721573,0.000941417645663023,0.0035832971334457397
1761468897365176000,4.211176025390625,-0.005516108591109514,0.0118435462936759,0.012913773767650127
1761468897375159000,4.221158935546875,-0.001745870802551508,0.007973973639309406,0.0047176294028759
1761468897385141200,4.231141357421875,-0.0005278917960822582,-0.007237215526401997,-0.0028927798848599195
1761468897395124000,4.2411240234375,-0.00013827113434672356,-0.00840234849601984,-0.00656048534438014
1761468897405107000,4.25110693359375,-0.001039247028529644,0.003045674180611968,-0.0004842393100261688
1761468897415090200,4.261090087890625,0.0011898190714418888,0.013401110656559467,-0.0012741329846903682
1761468897425071400,4.2710712890625,-0.001838576514273882,0.008283326402306557,-0.008550260215997696
1761468897435054300,4.281054443359375,0.0015801233239471912,0.004908835981041193,-0.00936145894229412
1761468897445037300,4.291037353515625,-0.005049191415309906,0.009403163567185402,-0.0012304616393521428
1761468897455020500,4.3010205078125,-0.006120048463344574,0.008826322853565216,0.0016888952814042568
1761468897465002200,4.311002197265625,-0.012658560648560524,0.009865714237093925,-0.0007220148108899593
1761468897474985500,4.3209853515625,-0.014716653153300285,0.015480456873774529,0.0025920227635651827
1761468897484968400,4.330968505859375,-0.010243839584290981,0.0328189916908741,0.004577997140586376
1761468897494950400,4.340950439453125,-0.011404977180063725,0.02997872792184353,0.00821587536484003
1761468897504933400,4.350933349609375,-0.004751775413751602,0.007182844914495945,0.008620776236057281
1761468897514916400,4.360916259765625,0.0004376601427793503,-0.004443184472620487,0.0032001782674342394
1761468897524899600,4.370899658203125,0.0037708929739892483,0.0011839170474559069,0.003909085411578417
1761468897534881300,4.38088134765625,-0.0016329269856214523,0.00012291362509131432,0.0020667104981839657
1761468897544864500,4.390864501953125,0.0028349135536700487,0.004395404364913702,0.000171758234500885
1761468897554847500,4.400847412109375,0.0031584876123815775,-0.001861959113739431,-0.0037902265321463346
1761468897564830200,4.410830322265625,0.0022177717182785273,-0.003885042853653431,-0.007440704852342606
1761468897574812400,4.4208125,-0.0013527283445000648,0.004315628670156002,-0.0007199512328952551
1761468897584795400,4.43079541015625,-0.003493292722851038,-0.0003350735642015934,0.005115353036671877
1761468897594778400,4.4407783203125,-0.0010884585790336132,-0.021374313160777092,-0.0037614956963807344
1761468897604760300,4.45076025390625,0.0023127244785428047,-0.019639141857624054,-0.0009398004040122032
1761468897614743600,4.46074365234375,0.0002993745729327202,-0.025368666276335716,0.0027169862296432257
1761468897624726300,4.470726318359375,0.003882036777213216,-0.019356729462742805,0.011815326288342476
1761468897634709200,4.480709228515625,0.0037922882474958897,-0.009084383957087994,0.008374255150556564
1761468897644691500,4.49069140625,0.0020811837166547775,-0.0002610781230032444,0.009409154765307903
1761468897654674200,4.500674072265625,-0.007110716309398413,-0.011193620972335339,0.0015781295951455832
1761468897664657400,4.510657470703125,-0.011225598864257336,-0.02394610270857811,-0.000493848929181695
1761468897674640400,4.520640380859375,-0.014737776480615139,-0.024141311645507812,0.0020649160724133253
1761468897684622300,4.530622314453125,-0.011073684319853783,-0.013202821835875511,0.014185037463903427
1761468897694605300,4.540605224609375,-0.011443331837654114,0.00011644582264125347,0.019782470539212227
1761468897704588300,4.55058837890625,-0.002298351377248764,0.0020177261903882027,0.004161967895925045
1761468897714571500,4.560571533203125,0.004225327633321285,0.0017689866945147514,-0.01106119342148304
1761468897724553500,4.570553466796875,0.0044867247343063354,-0.0005060641560703516,-0.015730654820799828
1761468897734536400,4.580536376953125,0.0047546387650072575,0.006436530500650406,-0.01513650268316269
1761468897744519400,4.59051953125,0.0029872742015868425,0.01269445475190878,-0.015436740592122078
1761468897754502400,4.60050244140625,0.0013329186476767063,0.021597668528556824,-0.012544280849397182
1761468897764485400,4.6104853515625,-0.003696698695421219,0.02997848019003868,-0.008074675686657429
1761468897774468400,4.62046826171875,-0.004463156685233116,0.03695915639400482,-0.0002295353915542364
1761468897784450300,4.6304501953125,-0.001707524061203003,0.026466606184840202,-0.002279575914144516
1761468897794433300,4.640433349609375,-0.003060676157474518,0.008615970611572266,-0.013402001932263374
1761468897804416500,4.65041650390625,-0.0036140219308435917,0.023188399150967598,-0.004108071327209473
1761468897814399500,4.6603994140625,-0.0065970285795629025,0.030500641092658043,-0.004247620701789856
1761468897824381400,4.67038134765625,-0.003959072288125753,0.030292078852653503,-0.015596535056829453
1761468897834364400,4.680364501953125,-0.00037552276626229286,0.03765944764018059,-0.013903830200433731
1761468897844347400,4.690347412109375,-0.006234277039766312,0.037096764892339706,-0.00955471582710743
1761468897854330400,4.700330322265625,0.0010920795612037182,0.0439181849360466,-0.005622824653983116
1761468897864312300,4.710312255859375,-0.0033100973814725876,0.043497782200574875,-0.0007966214325278997
1761468897874295600,4.720295654296875,-0.005047809332609177,0.043260760605335236,0.005520663224160671
1761468897884278300,4.7302783203125,-0.007168247364461422,0.04248860105872154,0.006775521673262119
1761468897894260500,4.740260498046875,-0.004714410752058029,0.03992690518498421,0.00933215580880642
1761468897904243500,4.750243408203125,-0.002542422618716955,0.030899528414011,0.0034153435844928026
1761468897914226200,4.76022607421875,-0.002316852565854788,0.025154024362564087,-0.0034537476021796465
1761468897924209400,4.77020947265625,-0.003261093981564045,0.03439544886350632,-0.002605691086500883
1761468897934191400,4.78019140625,-0.0017966213636100292,0.033549897372722626,-0.00004026805981993675
1761468897944174300,4.79017431640625,0.0003938572481274605,0.025701401755213737,-0.0022634523920714855
1761468897954157300,4.8001572265625,-0.0033303070813417435,0.023504294455051422,-0.0022749039344489574
1761468897964140300,4.810140380859375,0.0013691699132323265,0.034007344394922256,-0.002284473041072488
1761468897974122500,4.82012255859375,0.007269935682415962,0.028248261660337448,-0.01209316123276949
1761468897984105500,4.83010546875,0.004404814913868904,0.023492570966482162,-0.018340742215514183
1761468897994088400,4.84008837890625,0.003737426595762372,0.032106831669807434,-0.008968278765678406
1761468898004070400,4.8500703125,-0.0008907015435397625,0.03749176114797592,-0.0060535031370818615
1761468898014053400,4.860053466796875,0.005458008032292128,0.0274356622248888,-0.008131833747029305
1761468898024036400,4.870036376953125,0.00572142144665122,0.026237264275550842,-0.01115451380610466
1761468898034019600,4.88001953125,0.005552044603973627,0.034427814185619354,-0.007168827578425407
1761468898044001300,4.890001220703125,0.005525947082787752,0.03730757534503937,-0.005271043628454208
1761468898053984500,4.899984619140625,0.009813902899622917,0.02967602014541626,-0.013056262396275997
1761468898063967500,4.909967529296875,0.005561694502830505,0.02552369236946106,-0.01222294196486473
1761468898073950200,4.9199501953125,0.008061337284743786,0.029307246208190918,-0.009516637772321701
1761468898083932400,4.929932373046875,0.003797081997618079,0.036847688257694244,-0.010816216468811035
1761468898093915400,4.939915283203125,0.0025240909308195114,0.03553714603185654,-0.02004939690232277
1761468898103898400,4.9498984375,0.00403499836102128,0.029133375734090805,-0.0213792622089386
1761468898113880300,4.95988037109375,0.005380161106586456,0.03315475210547447,-0.015269970521330833
1761468898123863600,4.969863525390625,0.00250494503416121,0.028921162709593773,-0.01590682752430439
1761468898133846500,4.979846435546875,0.003337981877848506,0.02307472750544548,-0.01854601874947548
1761468898143829200,4.989829345703125,0.00681026978418231,0.02487790957093239,-0.016235414892435074
1761468898153811500,4.9998115234375,0.005314904730767012,0.03060583397746086,-0.010014536790549755
1761468898163794400,5.00979443359375,0.0013572699390351772,0.02900649420917034,-0.006759803742170334
1761468898173777400,5.01977734375,-0.002710707951337099,0.020640971139073372,0.0012672296725213528
1761468898183760400,5.029760498046875,0.002232948085293174,0.028397010639309883,0.004512847401201725
1761468898193742600,5.03974267578125,0.0034436210989952087,0.018854903057217598,-0.005055091343820095
1761468898203725300,5.049725341796875,0.0014657210558652878,0.010550374165177345,-0.01604936644434929
1761468898213708300,5.059708251953125,0.0007519936189055443,0.01238875463604927,-0.011023183353245258
1761468898223690500,5.0696904296875,0.0006446973420679569,0.01898951083421707,-0.009145631454885006
1761468898233673200,5.079673095703125,-0.008778098970651627,0.02824213169515133,-0.009667344391345978
1761468898243656400,5.089656494140625,-0.011084661819040775,0.0355515293776989,-0.003840332617983222
1761468898253639400,5.099639404296875,-0.005903482437133789,0.037327855825424194,-0.0010919503401964903
1761468898263621400,5.109621337890625,-0.0004500686191022396,0.03403126820921898,-0.013792535290122032
1761468898273604400,5.119604248046875,0.005613949149847031,0.03171005845069885,-0.01732867956161499
1761468898283587300,5.12958740234375,0.0037086044903844595,0.0341697558760643,-0.012736432254314423
1761468898293569300,5.1395693359375,0.005563496146351099,0.03886064887046814,-0.004456398077309132
1761468898303552500,5.149552490234375,0.004492106381803751,0.03324670344591141,-0.005697431042790413
1761468898313535500,5.159535400390625,-0.0031080227345228195,0.012088421732187271,-0.008009321056306362
1761468898323518500,5.1695185546875,0.007671893574297428,0.042678266763687134,-0.00503617525100708
1761468898333500400,5.17950048828125,0.0012912261299788952,0.047308966517448425,-0.0004930889699608088
1761468898343483400,5.1894833984375,-0.001198179554194212,0.026201918721199036,-0.01598328910768032
1761468898353466600,5.199466552734375,0.0004886663518846035,0.006738472729921341,-0.035089340060949326
1761468898363449300,5.209449462890625,0.011639202013611794,0.0016047770623117685,-0.04208289086818695
1761468898373431600,5.219431640625,0.02214457280933857,0.03834308683872223,-0.02576650306582451
1761468898383414500,5.22941455078125,0.01740178093314171,0.05051890015602112,-0.002467549405992031
1761468898393397200,5.239397216796875,0.013444854877889156,0.052730388939380646,0.006351242773234844
1761468898403379500,5.24937939453125,0.0016741864383220673,0.03637527674436569,0.006646563299000263
1761468898413362400,5.259362548828125,0.0015831063501536846,0.029332010075449944,0.00029572355560958385
1761468898423345700,5.269345703125,-0.004047259222716093,0.022358862683176994,-0.011668458580970764
1761468898433328400,5.279328369140625,-0.006460083182901144,0.017916977405548096,-0.015892764553427696
1761468898443310600,5.289310546875,-0.00409478135406971,0.015798889100551605,-0.014760243706405163
1761468898453293600,5.29929345703125,-0.0009961938485503197,0.009967365302145481,-0.015473172068595886
1761468898463276300,5.3092763671875,0.0015203445218503475,0.022808749228715897,-0.012559537775814533
1761468898473258500,5.319258544921875,0.004142759367823601,0.03412611782550812,-0.0010211258195340633
1761468898483241500,5.329241455078125,0.005835169460624456,0.029691312462091446,-0.003867801744490862
1761468898493224400,5.339224365234375,0.003950183745473623,0.024433964863419533,-0.006773577071726322
1761468898503207400,5.34920751953125,0.0002437741495668888,0.0279716644436121,-0.004802417941391468
1761468898513189600,5.359189697265625,-0.0021003405563533306,0.025870431214571,-0.006400580517947674
1761468898523172400,5.36917236328125,-0.006237147841602564,0.018851935863494873,-0.010009005665779114
1761468898533155300,5.3791552734375,-0.003248548600822687,0.020427463576197624,-0.007394580170512199
1761468898543138600,5.389138671875,-0.002981935627758503,0.020712267607450485,-0.00532368291169405
1761468898553120300,5.399120361328125,-0.0018146727234125137,0.015909789130091667,-0.005479477811604738
1761468898563103500,5.409103515625,-0.0027396762743592262,0.013116063550114632,-0.002207320649176836
1761468898573086500,5.41908642578125,-0.002030210569500923,0.01695501059293747,0.005954734981060028
1761468898583068400,5.429068359375,-0.005498180165886879,0.009373974986374378,0.00328996148891747
1761468898593051400,5.439051513671875,-0.0071975430473685265,0.006657816469669342,0.004716349765658379
1761468898603034600,5.44903466796875,-0.010093877092003822,0.0037235463969409466,0.00817856751382351
1761468898613017600,5.459017578125,-0.008505035191774368,0.0047446019016206264,0.012313923798501492
1761468898622999600,5.46899951171875,-0.006042880937457085,0.003147738054394722,0.01492360234260559
1761468898632982500,5.478982421875,-0.01876107230782509,-0.007398646324872971,0.015961969271302223
1761468898642965500,5.488965576171875,-0.017828702926635742,-0.0008095719385892153,0.025671349838376045
1761468898652947500,5.498947509765625,-0.01686437427997589,-0.006806744262576103,0.023011384531855583
1761468898662930400,5.508930419921875,-0.015362143516540527,-0.02045753039419651,0.012549908831715584
1761468898672913700,5.51891357421875,-0.013546932488679886,-0.025738313794136047,0.011145624332129955
1761468898682896400,5.528896484375,-0.015358171425759792,-0.021814556792378426,0.021441858261823654
1761468898692878600,5.538878662109375,-0.01179166603833437,-0.020595895126461983,0.03425272926688194
1761468898702861600,5.548861572265625,-0.015222089365124702,-0.01903148740530014,0.032427143305540085
1761468898712844300,5.55884423828125,-0.011741336435079575,-0.026831088587641716,0.021592874079942703
1761468898722826500,5.568826416015625,-0.008975467644631863,-0.04344324395060539,0.012766273692250252
1761468898732809500,5.5788095703125,-0.0049666110426187515,-0.046887241303920746,0.011295143514871597
1761468898742792400,5.58879248046875,-0.002767251804471016,-0.045915983617305756,0.008227290585637093
1761468898752775400,5.598775390625,-0.016360824927687645,-0.03863516449928284,0.014689982868731022
1761468898762757600,5.608757568359375,-0.016191747039556503,-0.028207870200276375,0.024334611371159554
1761468898772740400,5.618740234375,-0.016991494223475456,-0.033509425818920135,0.021890627220273018
1761468898782723300,5.628723388671875,-0.019332442432641983,-0.043645262718200684,0.017548851668834686
1761468898792706600,5.63870654296875,-0.01900434121489525,-0.03996850177645683,0.01505107432603836
1761468898802688300,5.648688232421875,-0.016579976305365562,-0.03652515262365341,0.014817864634096622
1761468898812671500,5.65867138671875,-0.008965734392404556,-0.03820187598466873,0.005219566635787487
1761468898822654500,5.668654541015625,-0.0067413439974188805,-0.04526077210903168,0.0037019525188952684
1761468898832636400,5.678636474609375,-0.0018608346581459045,-0.03996827453374863,0.004777869209647179
1761468898842619400,5.688619384765625,0.001320880837738514,-0.038692645728588104,0.004124593921005726
1761468898852602400,5.698602294921875,0.0030426145531237125,-0.03714295104146004,0.005383736453950405
1761468898862585600,5.708585693359375,0.007596938870847225,-0.04130290076136589,0.004565433133393526
1761468898872567300,5.7185673828125,0.002954249968752265,-0.0453125536441803,0.0013299589045345783
1761468898882550500,5.728550537109375,-0.0015524034388363361,-0.04341709241271019,0.00029150606133043766
1761468898892533500,5.738533447265625,-0.006591370329260826,-0.04595322161912918,-0.0072867851704359055
1761468898902515500,5.748515380859375,-0.005066479556262493,-0.04187757149338722,-0.013070916756987572
1761468898912498400,5.75849853515625,-0.005282994359731674,-0.027321264147758484,-0.017014259472489357
1761468898922481700,5.768481689453125,-0.003728538751602173,-0.026351645588874817,-0.01651385985314846
1761468898932464400,5.77846435546875,-0.0006083794869482517,-0.037168607115745544,-0.016007592901587486
1761468898942446600,5.788446533203125,0.0011379150673747063,-0.04061663895845413,-0.012326791882514954
1761468898952429600,5.7984296875,-0.00013534212484955788,-0.03965763747692108,-0.0026299559976905584
1761468898962412300,5.808412353515625,-0.0039496999233961105,-0.038860056549310684,0.00193027313798666
1761468898972394500,5.81839453125,-0.009064833633601665,-0.03130573406815529,0.0044275191612541676
1761468898982377500,5.82837744140625,-0.013342486694455147,-0.020788412541151047,0.007828529924154282
1761468898992360400,5.8383603515625,-0.01251823827624321,-0.02447183057665825,0.0023054005578160286
1761468899002343400,5.848343505859375,-0.014735914766788483,-0.03102317452430725,-0.001570344902575016
1761468899012325600,5.85832568359375,-0.010308941826224327,-0.028952034190297127,-0.0022915289737284184
1761468899022308400,5.868308349609375,-0.013474877923727036,-0.024252504110336304,-0.00035964837297797203
1761468899032291300,5.878291259765625,-0.01241227611899376,-0.024983009323477745,0.00409102626144886
1761468899042273500,5.8882734375,-0.011534884572029114,-0.02249588444828987,0.005513046868145466
1761468899052256300,5.89825634765625,-0.00764746917411685,-0.023616276681423187,0.014642096124589443
1761468899062239500,5.908239501953125,-0.010702853091061115,-0.024601947516202927,0.01718599535524845
1761468899072222500,5.918222412109375,-0.015892822295427322,-0.039992090314626694,0.016246432438492775
1761468899082204400,5.928204345703125,-0.011358169838786125,-0.036002445966005325,0.0192194152623415
1761468899092187400,5.9381875,-0.008104318752884865,-0.03096880577504635,0.018213540315628052
1761468899102170400,5.94817041015625,-0.010061978362500668,-0.03841222822666168,0.008418457582592964
1761468899112152300,5.95815234375,-0.0016751517541706562,-0.039452191442251205,0.005127057433128357
1761468899122135300,5.96813525390625,-0.005304182413965464,-0.03381424397230148,0.011696336790919304
1761468899132118500,5.978118408203125,0.006895492319017649,-0.01917058415710926,0.02225763350725174
1761468899142101500,5.9881015625,0.006345460191369057,-0.03411772847175598,0.01706412062048912
1761468899152083500,5.99808349609375,0.005930806044489145,-0.03205457702279091,0.015078999102115631
1761468899162066400,6.00806640625,0.0064706578850746155,-0.021868329495191574,0.019093751907348633
1761468899172049400,6.01804931640625,0.004049311392009258,-0.028775503858923912,0.01762954518198967
1761468899182031400,6.02803125,-0.0015422008000314236,-0.031164929270744324,0.014034592546522617
1761468899192014300,6.038014404296875,-0.005700194742530584,-0.026778701692819595,0.017071660608053207
1761468899201997600,6.04799755859375,-0.007615155074745417,-0.025990702211856842,0.01063362043350935
1761468899211980300,6.057980224609375,-0.0027751256711781025,-0.027464229613542557,0.009496184065937996
1761468899221962500,6.06796240234375,0.00838263239711523,-0.03723735362291336,0.0025883496273308992
1761468899231945500,6.077945556640625,0.014895126223564148,-0.04901198670268059,-0.006346289534121752
1761468899241928400,6.087928466796875,0.016890792176127434,-0.03422311693429947,-0.0014667239738628268
1761468899251910400,6.097910400390625,0.008108485490083694,-0.03965463489294052,0.0026175000239163637
1761468899261893600,6.1078935546875,0.013079648837447166,-0.036250919103622437,0.0013577027712017298
1761468899271876400,6.11787646484375,0.01412920095026493,-0.0517401285469532,0.009951191022992134
1761468899281859300,6.127859375,0.006613259203732014,-0.0486115962266922,0.006293096579611301
1761468899291841500,6.137841552734375,0.0009990492835640907,-0.04406211897730827,-0.0008987695910036564
1761468899301824300,6.14782421875,0.00027425866574048996,-0.04610715061426163,0.0033890288323163986
1761468899311807500,6.157807373046875,-0.0006365422159433365,-0.03872513398528099,0.014095203019678593
1761468899321789400,6.16778955078125,0.003546453081071377,-0.02240407094359398,0.01844092272222042
1761468899331772700,6.177772705078125,0.004470570012927055,-0.026898687705397606,0.003560777986422181
1761468899341755400,6.18775537109375,0.010991649702191353,-0.014160813763737679,-0.00590138416737318
1761468899351738400,6.19773828125,0.011427875608205795,-0.011224678717553616,-0.009511565789580345
1761468899361720600,6.207720458984375,0.012277147732675076,-0.023487797006964684,-0.015145443379878998
1761468899371703300,6.217703369140625,0.0053902133367955685,-0.0288775023072958,-0.011820487678050995
1761468899381686500,6.2276865234375,0.00514085590839386,-0.030661853030323982,-0.002332022413611412
1761468899391668500,6.23766845703125,0.0012252102605998516,-0.027083629742264748,0.0005276799201965332
1761468899401651500,6.2476513671875,0.004610410891473293,-0.0214804969727993,-0.0014405881520360708
1761468899411634400,6.257634521484375,0.008009403012692928,-0.013870513997972012,0.004448992665857077
1761468899421621200,6.267621337890625,0.00859935861080885,-0.014508973807096481,-0.0025295200757682323
1761468899431603500,6.277603515625,0.012358143925666809,-0.017707429826259613,-0.008505653589963913
1761468899441586400,6.28758642578125,0.011707976460456848,-0.014701143838465214,-0.0033298847265541553
1761468899451569400,6.2975693359375,0.011912241578102112,-0.016905177384614944,0.0023612903896719217
1761468899461551400,6.30755126953125,0.0064361002296209335,-0.015533308498561382,0.00809493102133274
1761468899471534600,6.31753466796875,0.008232136256992817,-0.013856582343578339,0.009276575408875942
1761468899481517300,6.327517333984375,0.004841217305511236,-0.011093521490693092,0.007657485082745552
1761468899491500300,6.337500244140625,-0.00009841378778219223,-0.013168657198548317,0.008341650478541851
1761468899501482500,6.347482421875,0.0018843477591872215,-0.015081360004842281,0.011031441390514374
1761468899511465200,6.35746533203125,-0.004139989148825407,-0.02004549279808998,0.013409644365310669
1761468899521448400,6.367448486328125,-0.0028856401331722736,-0.019960004836320877,0.016395047307014465
1761468899531430400,6.377430419921875,0.0011306731030344963,-0.009046902880072594,0.011475922539830208
1761468899541413400,6.387413330078125,-0.0005993801169097424,-0.004386344458907843,0.013876181095838547
1761468899551396400,6.397396240234375,0.001225950662046671,-0.012373697012662888,0.010047887451946735
1761468899561379300,6.40737939453125,0.008042225614190102,-0.01426023431122303,0.009333265013992786
1761468899571361300,6.417361328125,0.0034778339322656393,-0.0032051866874098778,0.012087506242096424
1761468899581344300,6.42734423828125,0.0001284307800233364,-0.005857592448592186,0.009071282111108303
1761468899591327500,6.437327392578125,-0.001106743235141039,-0.005813117139041424,0.009422287344932556
1761468899601309200,6.44730908203125,0.003043673001229763,-0.015591981820762157,0.013237157836556435
1761468899611292400,6.45729248046875,0.006738808937370777,-0.008087459951639175,0.01020328514277935
1761468899621275400,6.467275390625,0.005692960694432259,0.0003180189523845911,0.007725163362920284
1761468899631258400,6.47725830078125,0.0019629374146461487,-0.011323723010718822,0.007103848271071911
1761468899641240300,6.487240234375,0.001780250109732151,-0.02087867446243763,0.010416276752948761
1761468899651223300,6.497223388671875,0.0029927873983979225,-0.017977159470319748,0.013404875062406063
1761468899661206500,6.50720654296875,0.00043827760964632034,-0.00314781884662807,0.016897356137633324
1761468899671188500,6.5171884765625,0.0011125900782644749,0.0013270906638354063,0.013071726076304913
1761468899681171500,6.52717138671875,0.0016336268745362759,0.007016146555542946,0.01163532491773367
1761468899691154400,6.537154541015625,-0.001886273268610239,0.00024479301646351814,0.006530578248202801
1761468899701137400,6.547137451171875,-0.0027875821106135845,-0.02334025502204895,-0.0029207866173237562
1761468899711119400,6.557119384765625,-0.003130862955003977,-0.03500037267804146,0.005510248243808746
1761468899721102600,6.5671025390625,-0.0033940142020583153,-0.021853795275092125,0.016982588917016983
1761468899731085300,6.577085205078125,-0.006504320539534092,-0.008777939714491367,0.018811115995049477
1761468899741067500,6.587067626953125,-0.008708051405847073,0.007784311659634113,0.014310651458799839
1761468899751050500,6.597050537109375,-0.0059559401124715805,0.004890786483883858,0.009391793981194496
1761468899761033200,6.607033203125,-0.005140426568686962,0.0010359629523009062,0.011211072094738483
1761468899771016400,6.617016357421875,0.002795261098071933,-0.012064659036695957,0.006972118280827999
1761468899780998400,6.626998291015625,0.00940641388297081,-0.033597372472286224,-0.0026963790878653526
1761468899790981400,6.6369814453125,0.01163281686604023,-0.05450664833188057,-0.013221723958849907
1761468899800964400,6.64696435546875,0.006339991465210915,-0.04570387303829193,-0.0014356991741806269
1761468899810946600,6.656946533203125,-0.003565901890397072,-0.014127306640148163,0.015015711076557636
1761468899820929300,6.66692919921875,-0.009840037673711777,-0.005577287171036005,0.01919127255678177
1761468899830912300,6.676912353515625,-0.007570491638034582,-0.013274355791509151,0.010782872326672077
1761468899840894500,6.68689453125,-0.009090634062886238,-0.017597071826457977,0.006050192750990391
1761468899850877400,6.69687744140625,-0.008849084377288818,-0.01042784284800291,0.0036102046724408865
1761468899860860400,6.7068603515625,-0.009928080253303051,-0.010783566161990166,-0.005078237038105726
1761468899870843400,6.716843505859375,-0.00483851321041584,-0.021127285435795784,-0.008358452469110489
1761468899880825600,6.72682568359375,0.002971540205180645,-0.019421622157096863,-0.003318117931485176
1761468899890808300,6.736808349609375,0.006249891594052315,-0.008348198607563972,0.009787296876311302
1761468899900791300,6.746791259765625,0.008545201271772385,0.0000196211040019989,0.006043669767677784
1761468899910773500,6.7567734375,0.011961237527430058,-0.009031930938363075,-0.005437217652797699
1761468899920756200,6.766756103515625,0.010071235708892345,-0.006345947273075581,-0.01113772764801979
1761468899930739500,6.776739501953125,0.006829902529716492,-0.01107119396328926,-0.009592028334736824
1761468899940722400,6.786722412109375,0.0002430342137813568,-0.021068811416625977,-0.014848333783447742
1761468899950704400,6.796704345703125,0.002308581955730915,-0.023771652951836586,-0.020591439679265022
1761468899960687400,6.806687255859375,0.0015312335453927517,-0.004579924512654543,-0.01741798035800457
1761468899970670300,6.81667041015625,-0.001188652589917183,0.004131541587412357,-0.00781834963709116
1761468899980652300,6.82665234375,0.0004950887523591518,0.005837109871208668,-0.005965784192085266
1761468899990635500,6.836635498046875,0.007661122828722,0.00035446020774543285,-0.008708307519555092
1761468900000618500,6.846618408203125,0.00872739776968956,-0.00024458696134388447,-0.0040345326997339725
1761468900010601500,6.8566015625,0.009295450523495674,-0.0010246268939226866,0.0031360285356640816
1761468900020583400,6.86658349609375,0.004359937272965908,-0.000058152247220277786,0.0038767633959650993
1761468900030566400,6.87656640625,0.005179658532142639,-0.014904743060469627,-0.0007635285146534443
1761468900040549600,6.886549560546875,0.005536516197025776,-0.016172081232070923,-0.005214191973209381
1761468900050531300,6.89653125,0.005493639037013054,-0.006034492515027523,0.00006419303826987743
1761468900060514600,6.9065146484375,0.005580751691013575,-0.0017692561959847808,0.0007153723854571581
1761468900070497500,6.91649755859375,0.010259127244353294,-0.0022323797456920147,-0.006275958381593227
1761468900080479500,6.9264794921875,0.012647630646824837,-0.0031125086825340986,-0.010390106588602066
1761468900090462500,6.93646240234375,0.013361623510718346,0.009904489852488041,-0.0078012472949922085
1761468900100445400,6.946445556640625,0.010869593359529972,0.001355612650513649,-0.008761182427406311
1761468900110428400,6.956428466796875,0.01122272852808237,-0.025747377425432205,-0.015030529350042343
1761468900120410400,6.966410400390625,0.008323020301759243,-0.03295259550213814,-0.0035353219136595726
1761468900130393600,6.9763935546875,0.0010512592270970345,-0.019648240879178047,0.011328578926622868
1761468900140376300,6.986376220703125,0.003250956302508712,-0.013442924246191978,0.009935454465448856
1761468900150358500,6.996358642578125,0.0038927781861275434,-0.003915198612958193,0.003772101365029812
1761468900160341500,7.006341552734375,0.0011349492706358433,0.011683833785355091,0.0042723179794847965
1761468900170324200,7.01632421875,0.003110215999186039,0.02043711207807064,0.004878719337284565
1761468900180307500,7.026307373046875,0.006151584908366203,0.011691233143210411,-0.0087275430560112
1761468900190289400,7.036289306640625,0.010509581305086613,-0.00814372394233942,-0.01510581374168396
1761468900200272400,7.0462724609375,0.009805500507354736,-0.02089596726000309,-0.01609485037624836
1761468900210255400,7.05625537109375,0.008419591002166271,-0.013840720988810062,-0.007357019931077957
1761468900220237600,7.066237548828125,0.010301592759788036,-0.009856468066573143,0.0026111193001270294
1761468900230220300,7.07622021484375,0.005692460108548403,-0.014311669394373894,0.00466068834066391
1761468900240203300,7.086203369140625,0.007233455777168274,-0.018444472923874855,0.0048972610384225845
1761468900250185500,7.096185546875,0.004829952958971262,-0.010905861854553223,0.005584090948104858
1761468900260168200,7.106168212890625,0.0046937428414821625,-0.01365425530821085,-0.0008118660189211369
1761468900270151400,7.1161513671875,-0.0033117197453975677,-0.006547077558934689,-0.0014307847013697028
1761468900280134400,7.126134521484375,-0.003146630246192217,0.0016768474597483873,0.0017937349621206522
1761468900290116400,7.136116455078125,0.001511238981038332,0.007569357752799988,0.002925045555457473
1761468900300099300,7.146099365234375,0.00826058629900217,0.004552897997200489,0.0006379971746355295
1761468900310082600,7.15608251953125,0.011571161448955536,-0.008934947662055492,0.0020686471834778786
1761468900320064300,7.166064208984375,0.012520154938101768,-0.012588145211338997,-0.0021893493831157684
1761468900330047500,7.176047607421875,0.012735072523355484,-0.02030705101788044,-0.006349473260343075
1761468900340030500,7.186030517578125,0.00656588701531291,-0.020405471324920654,-0.003809379879385233
1761468900350013400,7.196013427734375,-0.0017453059554100037,-0.018110359087586403,0.005543109029531479
1761468900359995400,7.205995361328125,-0.004439712036401033,-0.01073595229536295,0.007924210280179977
1761468900369978400,7.215978271484375,-0.006979035679250956,0.0006746274884790182,0.008166291750967503
1761468900379961600,7.225961669921875,-0.005924242548644543,0.0011148988269269466,0.002253179205581546
1761468900389943300,7.235943359375,-0.0029795849695801735,0.007598097901791334,0.0023285469505935907
1761468900399926500,7.245926513671875,-0.00019339239224791527,0.010972115211188793,-0.0016336931148543954
1761468900409909500,7.255909423828125,0.008649900555610657,0.0021780908573418856,-0.009154992178082466
1761468900419888000,7.26588818359375,0.007838309742510319,0.006423084065318108,-0.010496869683265686
1761468900429870800,7.275870849609375,0.0032432919833809137,0.01242851186543703,-0.003515658900141716
1761468900439853800,7.285853759765625,-0.0019082450307905674,0.01026463508605957,-0.003655113512650132
1761468900449837000,7.295837158203125,-0.004205754026770592,0.01670389249920845,0.006634808145463467
1761468900459818800,7.30581884765625,-0.00783989205956459,0.019323134794831276,0.0068604350090026855
1761468900469802000,7.315802001953125,-0.006719233468174934,0.010972794145345688,-0.0064750779420137405
1761468900479785000,7.325784912109375,-0.012328477576375008,0.019824642688035965,-0.008733857423067093
1761468900489767000,7.335766845703125,-0.013708261772990227,0.025253497064113617,-0.00047512794844806194
1761468900499750000,7.34575,-0.013507507741451263,0.02906365692615509,-0.0037047485820949078
1761468900509732900,7.35573291015625,-0.013454511761665344,0.03816687688231468,-0.0011648917570710182
1761468900519715800,7.3657158203125,-0.009691400453448296,0.039504293352365494,-0.00043620122596621513
1761468900529697800,7.37569775390625,-0.006382688879966736,0.03576548397541046,-0.003217606572434306
1761468900539681000,7.385680908203125,-0.003016876056790352,0.04322592541575432,-0.004253711085766554
1761468900549664000,7.3956640625,-0.008058506064116955,0.05173205956816673,0.00138047244399786
1761468900559646000,7.40564599609375,-0.01015697792172432,0.05357666686177254,0.0017259588930755854
1761468900569629000,7.41562890625,-0.008905826136469841,0.046935275197029114,-0.0019284309819340706
1761468900579612000,7.42561181640625,-0.012209942564368248,0.03977908194065094,-0.0034293378703296185
1761468900589593900,7.43559375,-0.013222476467490196,0.040057115256786346,-0.005055197514593601
1761468900599576800,7.445576904296875,-0.015187554061412811,0.0416548028588295,-0.007180016487836838
1761468900609560000,7.45556005859375,-0.015550276264548302,0.03757297620177269,-0.008062588050961494
1761468900619542800,7.465542724609375,-0.010603219270706177,0.03297491371631622,-0.004220736213028431
1761468900629525000,7.47552490234375,-0.007752039469778538,0.03438398987054825,-0.004093969706445932
1761468900639508000,7.485508056640625,-0.004507148172706366,0.034724701195955276,-0.0034739128313958645
1761468900649491000,7.495490966796875,-0.00004049483686685562,0.04232296720147133,0.0012779654935002327
1761468900659473000,7.505472900390625,-0.002057032659649849,0.0472676046192646,0.0017727701924741268
1761468900669456100,7.5154560546875,-0.0030581150203943253,0.052694592624902725,-0.006336023099720478
1761468900679438800,7.52543896484375,-0.0020027481950819492,0.05475694313645363,-0.005801527760922909
1761468900689421000,7.535421142578125,-0.010337110608816147,0.05219365283846855,-0.010510795749723911
1761468900699404000,7.545404052734375,-0.007512051612138748,0.04360870644450188,-0.01272845733910799
1761468900709386800,7.55538671875,-0.007166107185184956,0.03646158427000046,-0.014880824834108353
1761468900719370000,7.565369873046875,-0.004882621578872204,0.03931505233049393,-0.015092993155121803
1761468900729352000,7.57535205078125,-0.000264966394752264,0.03239908814430237,-0.010716354474425316
1761468900739335000,7.5853349609375,0.0153520368039608,0.030300119891762733,-0.012959880754351616
1761468900749318000,7.59531787109375,0.015599178150296211,0.03417661413550377,-0.00865115225315094
1761468900759300000,7.605300048828125,0.016322273761034012,0.036456894129514694,-0.009525398723781109
1761468900769282800,7.61528271484375,0.014434359967708588,0.030186746269464493,-0.017221935093402863
1761468900779265800,7.625265869140625,0.007290662731975317,0.025980692356824875,-0.02612251043319702
1761468900789248000,7.635248046875,0.0012772451154887676,0.017030339688062668,-0.02683250978589058
1761468900799230700,7.645230712890625,-0.0004005865193903446,0.017086464911699295,-0.023853778839111328
1761468900809214000,7.6552138671875,-0.0014565298333764076,0.023080974817276,-0.017227567732334137
1761468900819197000,7.665197021484375,-0.0016939854249358177,0.028435630723834038,-0.014849289320409298
1761468900829179000,7.675178955078125,0.004765245132148266,0.033098287880420685,-0.018239228054881096
1761468900839161900,7.685161865234375,0.011374969966709614,0.03508172556757927,-0.02117612585425377
1761468900849144800,7.695144775390625,0.013396842405200005,0.024874096736311913,-0.016506005078554153
1761468900859126800,7.705126708984375,0.016113391146063805,0.020113179460167885,-0.017924029380083084
1761468900869109800,7.71510986328125,0.01662658154964447,0.02159842476248741,-0.014963660389184952
1761468900879093000,7.725093017578125,0.004419171251356602,0.03408743068575859,-0.010358233004808426
1761468900889076000,7.735075927734375,-0.004262201488018036,0.036457646638154984,-0.006338990293443203
1761468900899058000,7.745057861328125,-0.009144866839051247,0.031680285930633545,-0.004881212022155523
1761468900909041000,7.755041015625,-0.006640164647251368,0.043293796479701996,0.006687559187412262
1761468900919023900,7.76502392578125,-0.005144493188709021,0.10124265402555466,0.11095991730690002
1761468900929005800,7.775005859375,-0.0203735139220953,0.0063733989372849464,0.04237819463014603
1761468900938988800,7.78498876953125,0.015102057717740536,-0.015209082514047623,-0.043101921677589417
1761468900948972000,7.794971923828125,0.010820494033396244,0.032493192702531815,-0.04096207022666931
1761468900958954000,7.8049541015625,0.003988809883594513,0.061709146946668625,-0.020619938150048256
1761468900968937000,7.81493701171875,-0.0076097892597317696,0.03712550923228264,-0.0249656829982996
1761468900978920000,7.824919921875,-0.003111378289759159,0.03346710279583931,-0.038960810750722885
1761468900988903000,7.83490283203125,-0.0016823257319629192,0.04194847121834755,-0.03704919293522835
1761468900998884900,7.844884765625,-0.002967383712530136,0.04458452761173248,-0.03639281913638115
1761468901008868000,7.8548681640625,0.011647244915366173,0.04126515984535217,-0.047137342393398285
1761468901018850800,7.864850830078125,0.018822750076651573,0.05586906895041466,-0.042568810284137726
1761468901028833000,7.8748330078125,0.016609396785497665,0.05576201155781746,-0.03817832097411156
1761468901038816000,7.88481591796875,0.011846083216369152,0.042095690965652466,-0.03951917961239815
1761468901048798700,7.894798828125,0.004675255622714758,0.036375220865011215,-0.03292359411716461
1761468901058781000,7.904781005859375,0.002508944133296609,0.026287605985999107,-0.03275935351848602
