time,seconds_elapsed,z,y,x
1761468601931517700,0.120517578125,0.10834580842852592,0.052261727697541935,0.00219812196562998
1761468601941500400,0.13050048828125,0.10370528914630413,0.05581919185025617,0.02326877068222966
1761468601951483400,0.1404833984375,0.13243512454628945,0.04445775768202729,0.027089000257244332
1761468601961466600,0.150466552734375,0.12450374702513217,0.013124754046322778,0.013650787214422597
1761468601971449600,0.16044970703125,0.1283937402009964,-0.01089979430611711,-0.0021609500267077237
1761468601981432300,0.170432373046875,0.12360416783690452,-0.030540131658385507,-0.01814075557743199
1761468601991415600,0.18041552734375,0.11297872892618178,-0.05459206577467266,-0.018299823163240216
1761468602001399600,0.190399658203125,0.1340799691438675,-0.04517529483423568,-0.018463078300398773
1761468602011382500,0.200382568359375,0.11058803439736366,-0.03643859684613999,0.0020803453714353963
1761468602021365500,0.210365478515625,0.10924246500730514,-0.005527312054112553,0.01904876923386473
1761468602031348500,0.220348388671875,0.14799860438108442,-0.008204664337472058,0.023491628785827195
1761468602041331500,0.23033154296875,0.12300970907509326,0.009244889538828283,0.017694591845665127
1761468602051314700,0.240314697265625,0.11567863553464412,0.0017104434799635783,0.0008260527277132495
1761468602061297400,0.25029736328125,0.12435937011837958,0.020172055909060873,-0.008157455061725341
1761468602071281400,0.260281494140625,0.12046937694251536,0.02988425699896179,-0.012619722567056305
1761468602081264400,0.270264404296875,0.12540800238847732,0.04446105475081131,-0.010751234414591453
1761468602091247600,0.28024755859375,0.11882336330115795,0.04222197058713063,0.0025025391391478476
1761468602101230600,0.290230712890625,0.12465864532589911,0.0367921549575869,-0.008686716799950226
1761468602111213600,0.300213623046875,0.1156792200565338,0.029172574198804795,-0.009109335259348154
1761468602121196800,0.31019677734375,0.11403203737139701,0.0047295081733493135,-0.005866741175507195
1761468602131180500,0.3201806640625,0.12286065599322318,-0.009113404079689644,0.004802367913583293
1761468602141163500,0.33016357421875,0.11522796915769576,-0.011048902186914346,0.022486461198120377
1761468602151146800,0.340146728515625,0.11836918979287146,-0.022006787922396322,0.020449872770020736
1761468602161129700,0.350129638671875,0.11791969245970249,-0.028057653493154793,0.0321537819666788
1761468602171112400,0.360112548828125,0.12405541873574256,-0.038067134196311234,0.005170214845286682
1761468602181095700,0.370095703125,0.11433131257891654,-0.06046482113243546,-0.0021255955855362116
1761468602191078700,0.38007861328125,0.11119067646563052,-0.03156157909403555,0.020043100333726034
1761468602201062700,0.390062744140625,0.11583119574785232,-0.018588800739031283,0.03560437907828018
1761468602211045600,0.400045654296875,0.1123895308613777,-0.0023935440730303527,0.031599737413646654
1761468602221028600,0.410028564453125,0.1291512805700302,0.004448284645751119,0.0004090100591536611
1761468602231011600,0.420011474609375,0.12196984463334083,-0.012639550645533017,-0.03431794229720253
1761468602240994800,0.429994873046875,0.10191840572953223,-0.014670444551785476,-0.03843076161062345
1761468602250977800,0.439977783203125,0.12496318123042582,0.0036759303000755607,-0.042947289186995474
1761468602260961500,0.44996142578125,0.1249643502742052,0.028207313929800873,-0.011966167728882282
1761468602270944500,0.459944580078125,0.12331892115473747,0.05624399770016316,0.028754883076273833
1761468602280927700,0.469927734375,0.12571370733678341,0.05284729989999905,0.044826065838034265
1761468602290910700,0.47991064453125,0.12032616907954215,0.0480634037914453,0.04623474989244714
1761468602300893400,0.4898935546875,0.11344167026281356,0.016998471940821037,0.024477694380842147
1761468602310876700,0.499876708984375,0.12406418656408787,-0.01013048586747609,-0.009567066131322645
1761468602320859600,0.509859619140625,0.12735738289058207,-0.027364584061922503,-0.01176501000043936
1761468602330843600,0.51984375,0.11538695911169052,-0.03717987563353963,0.005160099876648746
1761468602340826600,0.52982666015625,0.13573767322301863,-0.027894156327401286,0.023225634793401694
1761468602350809600,0.5398095703125,0.11733341700434684,-0.02520251065720804,0.030471240273793228
1761468602360792600,0.54979248046875,0.11179857923090457,-0.02824403834415134,0.021560441527538932
1761468602370775800,0.55977587890625,0.11778525242507457,-0.027429854150745083,0.0006906628450145944
1761468602380758500,0.569758544921875,0.11868424709141254,-0.01635257525271736,-0.02102086845785379
1761468602390742500,0.579742431640625,0.12497136453688144,-0.01727322919501457,-0.023618588766898027
1761468602400725500,0.5897255859375,0.1206336275935173,0.01603577808823902,-0.013479010844090953
1761468602410708700,0.599708740234375,0.13320435535311698,0.03384079890528228,-0.01457558304229751
1761468602420691700,0.609691650390625,0.11375205138623713,0.06311014344287104,-0.0008483284916030242
1761468602430674400,0.61967431640625,0.13021394136548042,0.07758092353697865,0.0016927388599142432
1761468602440657700,0.62965771484375,0.13006488828361035,0.07631680361898616,0.013524347823159769
1761468602450640600,0.639640625,0.1293167002648115,0.04997892768972088,0.01750484142722562
1761468602460624600,0.649624755859375,0.126024088460207,0.03554942945407238,0.01043085248696152
1761468602470608000,0.65960791015625,0.12303016734123229,0.019879420504882,0.018318381733237764
1761468602480590600,0.669590576171875,0.1269195759952068,-0.0014511212569195777,0.021777445279085077
1761468602490573600,0.679573486328125,0.12811550778150557,-0.009680180250131525,0.024332952147908506
1761468602500556800,0.689556884765625,0.12572189064323902,-0.03421031263768673,0.0329417311737081
1761468602510539500,0.69953955078125,0.12572072159945963,-0.049866165197361256,0.0228377360209357
1761468602520522500,0.7095224609375,0.1263192720144987,-0.06892989453834016,0.000046008265926502644
1761468602530506500,0.719506591796875,0.12422434556186199,-0.07652916316145565,-0.002091570018348284
1761468602540489700,0.72948974609375,0.11988719314038752,-0.05055340310942847,-0.01863329290130641
1761468602550472700,0.73947265625,0.11674655702710152,-0.036357101708301344,-0.017238746970100326
1761468602560455700,0.74945556640625,0.11959142506420611,-0.01689397951988503,-0.0048137980564730235
1761468602570438700,0.759438720703125,0.12378420057892799,0.012338142846431583,-0.010093405260099098
1761468602580421600,0.769421630859375,0.10612754785716533,0.02276347434148192,-0.0034721148236654697
1761468602590404900,0.77940478515625,0.1252829147040844,0.040208338342932984,-0.0035455910518299785
1761468602600388600,0.789388671875,0.11854922253489493,0.04781985909284558,0.012878542466601356
1761468602610371600,0.79937158203125,0.12513269257843493,0.0447564529342344,0.005375030402117408
1761468602620354600,0.8093544921875,0.12019582069814204,0.03994362299214117,-0.006876758468267507
1761468602630337800,0.819337890625,0.1273784256786108,0.04028963711794931,0.00549460166117642
1761468602640320500,0.829320556640625,0.11780220355987549,0.034756973035284314,0.03042288022057619
1761468602650303500,0.839303466796875,0.12767945445179937,0.04127642423217184,0.03237706476196181
1761468602660287700,0.849287841796875,0.1201981587857008,0.01046821622212883,0.01841108781825751
1761468602670270700,0.859270751953125,0.12797931418120861,-0.009900800730870105,0.0117142342278501
1761468602680253700,0.869253662109375,0.12558569704294203,-0.014590218922425992,0.018819764517270958
1761468602690236700,0.879236572265625,0.12304185777902603,-0.010976110945339315,0.014621349279629065
1761468602700219600,0.8892197265625,0.1264841071873903,-0.012092232660809532,0.0017152657855534926
1761468602710202600,0.89920263671875,0.11511281834542751,-0.01794041983289644,-0.013509565812558867
1761468602720185900,0.909185791015625,0.11855565227568149,-0.04041452387294266,-0.044909300841810176
1761468602730169600,0.919169677734375,0.11047639071643352,-0.04231591878116596,-0.06765349966066424
1761468602740152600,0.929152587890625,0.11855974392890929,-0.029801131593040188,-0.07235712447408586
1761468602750135600,0.939135498046875,0.12245324423611163,0.006068086133617907,-0.04091196113422047
1761468602760118800,0.949118896484375,0.12455167782008647,0.04001018998890649,0.0030667762926314024
1761468602770101500,0.9591015625,0.1172217733234167,0.06399627406105865,0.04051301124477759
1761468602780084700,0.969084716796875,0.12036474752426146,0.0785071532701142,0.04928836530940607
1761468602790067700,0.979067626953125,0.12455518495142459,0.07139703357054386,0.030868445730721575
1761468602800051700,0.9890517578125,0.1323375093907118,0.05057731827455572,0.015598112756758927
1761468602810034700,0.99903466796875,0.11946750642359256,0.03225604589791037,0.007453133584116585
1761468602820017700,1.009017578125,0.12171148595809936,0.02126031693664845,0.0036449734728084874
1761468602830000600,1.019000732421875,0.11482874070703983,0.015288302455493247,0.021762480605393646
1761468602839983600,1.028983642578125,0.12186170808374881,0.005701207316294312,0.018873472032463177
1761468602849966600,1.038966552734375,0.11378069295883178,-0.011492485802527517,0.007749111722852103
1761468602859949600,1.048949462890625,0.1311380704730749,-0.040628860743367114,-0.018738995465217158
1761468602869933600,1.05893359375,0.11991700375676155,-0.07731805308340117,-0.04992681847657077
1761468602879916500,1.06891650390625,0.11962065115869044,-0.09841637982479295,-0.05979923792975023
1761468602889899800,1.078899658203125,0.1229161855727434,-0.09130775339598766,-0.044888221521163355
1761468602899882500,1.088882568359375,0.11798340534567832,-0.06039993920268025,-0.01671059491015039
1761468602909865700,1.09886572265625,0.12292612244486809,-0.011587498009065165,0.0345921378623927
1761468602919848700,1.1088486328125,0.11739245371520518,0.03419996477360837,0.07056343229061458
1761468602929832700,1.118832763671875,0.12682196083962916,0.05077702839800622,0.08361438588178716
1761468602939815700,1.128815673828125,0.1244283437013626,0.06395770474949386,0.07783256021048873
1761468602949798700,1.138798583984375,0.12352934903502463,0.06159213096220046,0.07801964374780654
1761468602959781600,1.14878173828125,0.12008593058288097,0.05608996248249896,0.06381562483110464
1761468602969764600,1.1587646484375,0.12861352043151855,0.04721441771271638,0.03994117987330537
1761468602979747600,1.16874755859375,0.11813655008077621,0.035612224458018316,-0.0007653126835357397
1761468602989730600,1.17873046875,0.1342968267649412,-0.0006974350790958852,-0.05033989278948865
1761468602999714600,1.188714599609375,0.12576514526307583,0.0270255841987906,-0.06529296280809212
1761468603009697800,1.19869775390625,0.12845686856508254,0.06857036334383301,-0.06792200527058448
1761468603019680800,1.2086806640625,0.1392296069920063,0.07813285833131521,-0.06409274757232052
1761468603029663500,1.21866357421875,0.1317483113259077,0.052697324369521806,0.10800859409710392
1761468603039646700,1.228646728515625,0.09942249726057052,-0.056204245645087206,0.11368990026968531
1761468603049629700,1.238629638671875,0.11707973450422286,-0.1615177189067006,-0.02512843164084479
1761468603059612700,1.24861279296875,0.12007482466697691,-0.3582965016130358,-0.05577290958969388
1761468603069596400,1.258596435546875,0.10646247889995575,-0.36415319175198674,0.005438761554402299
1761468603079579600,1.26857958984375,0.12906243324279784,-0.13640022878497837,0.11246842305017635
1761468603089562600,1.278562744140625,0.10676759932637214,0.05458336644498631,0.20811799590960145
1761468603099545600,1.288545654296875,0.15689619658589363,0.17051594020808114,0.19000139752589165
1761468603109528600,1.298528564453125,0.12008242345154285,0.20125786434914916,0.06214101528292521
1761468603119511600,1.308511474609375,0.11005202782452106,0.15265853161667473,-0.11423514046175405
1761468603129494800,1.318494873046875,0.1221715046852827,0.10123090752256102,-0.2531330678139813
1761468603139479000,1.32847900390625,0.12576397621929644,0.08328516306057572,-0.2591370757354423
1761468603149462000,1.3384619140625,0.12860942877829074,0.14772495680516584,-0.15216651944918558
1761468603159444700,1.34844482421875,0.1160410391062498,0.20648896993566304,-0.0025075030086329207
1761468603169428000,1.358427978515625,0.13653963725566864,0.1974207521379925,0.09743780798306688
1761468603179411000,1.368410888671875,0.13563830450177192,0.0846490535586141,0.11755933471471071
1761468603189394000,1.378393798828125,0.11229191570580005,-0.0764669892120175,0.04172465205686167
1761468603199377000,1.388376953125,0.1013666170656681,-0.24404462921218945,-0.038537272458709776
1761468603209361000,1.39836083984375,0.13728256457746027,-0.31168796823844314,-0.052432476587989364
1761468603219344000,1.40834375,0.13399345990419387,-0.2593141310690902,0.01769387945961207
1761468603229326800,1.418326904296875,0.1170867487668991,-0.13303105374597943,0.15594333457415924
1761468603239309800,1.428309814453125,0.1284592066526413,0.002709834347432479,0.23835578818712383
1761468603249292800,1.438292724609375,0.13533961381614207,0.0631989542374853,0.20231847931798547
1761468603259276000,1.448276123046875,0.12321604530215263,0.08635254214140586,0.06427723729375284
1761468603269259000,1.458259033203125,0.11528174517154693,0.05589017472723499,-0.09911327604777179
1761468603279243000,1.468242919921875,0.12037000822126864,0.015584554588864557,-0.21495401594210414
1761468603289225700,1.478225830078125,0.11677987477481365,0.01848226705805864,-0.241264277778659
1761468603299209000,1.488208984375,0.12201952899396419,0.0869110528070014,-0.15296699477764777
1761468603309192000,1.49819189453125,0.11857961767315864,0.15564188567586243,-0.009275567804882302
1761468603319175000,1.5081748046875,0.13473989435732364,0.14150974468528293,0.08036898335292934
1761468603329158000,1.518157958984375,0.12980126891136168,0.08572444597147405,0.10785156777133233
1761468603339140900,1.528140869140625,0.11288929707705973,-0.004300619803369045,0.04866325568100437
1761468603349124900,1.538124755859375,0.10600538278222084,-0.14013873945986852,-0.024607366908807306
1761468603359108000,1.548108154296875,0.11827508176863193,-0.21128354726843535,-0.04643929602121934
1761468603369090800,1.5580908203125,0.12261574132144451,-0.18088913965709508,0.006530876773199998
1761468603379073800,1.56807373046875,0.1054103394985199,-0.08181481651337817,0.10465515548335387
1761468603389057000,1.57805712890625,0.12247019537091254,0.020750654948037118,0.19223675536252557
1761468603399040000,1.5880400390625,0.1372819800555706,0.05322522070114501,0.1695371400374919
1761468603409022700,1.598022705078125,0.11767594683170318,0.04930614299469162,0.07388939380897208
1761468603419006700,1.6080068359375,0.09941782108545302,0.013767746391287073,-0.06588758596668486
1761468603428990000,1.617989990234375,0.11243453904688358,-0.006915469343727454,-0.1681186880743131
1761468603438973000,1.627972900390625,0.123060562479496,0.019916291049704885,-0.18190514829922466
1761468603448955600,1.63795556640625,0.11453414167463778,0.08651491136257536,-0.11849458800451829
1761468603458939000,1.64793896484375,0.12800269505679607,0.14714361325325442,-0.005580654243123717
1761468603468921900,1.657921875,0.13264087625145912,0.16079926843903958,0.053927464386099015
1761468603478905000,1.667905029296875,0.12126666480004787,0.07978643422462045,-0.01502076039337553
1761468603488889000,1.67788916015625,0.12515665797591208,-0.027569180423044598,-0.07832092824932187
1761468603498871800,1.687871826171875,0.12755261320173739,-0.08495813777409493,-0.06079701679544523
1761468603508854800,1.697854736328125,0.12889993615746498,-0.09892681356496177,0.00621557744606398
1761468603518838000,1.707838134765625,0.12276654796898365,-0.0785141492664814,0.1152204617046751
1761468603528821000,1.717821044921875,0.116633744302392,-0.034295739598548966,0.1844363472772762
1761468603538803700,1.7278037109375,0.13219430152773856,-0.024627464415342547,0.23753864485165102
1761468603548787700,1.73778759765625,0.13488427126407623,-0.05179283154415898,0.21693419344127177
1761468603558771000,1.74777099609375,0.12156301739811896,-0.07918274184358305,0.13720980986850334
1761468603568754000,1.75775390625,0.11557400611639022,-0.11657236037082039,0.039840564476465806
1761468603578737000,1.76773681640625,0.12484978398382662,-0.12070804453659802,-0.06644281326322816
1761468603588719900,1.777719970703125,0.12799100461900234,0.03420370936696417,0.0002735379780642688
1761468603598702800,1.787702880859375,0.13127952477037905,0.1816265870861709,0.13748321998240426
1761468603608686000,1.79768603515625,0.12274433613717556,0.1602584578269161,0.0815887252730783
1761468603618670000,1.807670166015625,0.12647826196849346,0.0646485959233716,-0.050712438729195855
1761468603628652800,1.81765283203125,0.11151157898306846,-0.01579659447092563,-0.160899221682176
1761468603638635800,1.8276357421875,0.11031272458732128,-0.03777907450255006,-0.195658601303678
1761468603648619000,1.837618896484375,0.13006488828361035,-0.039524561896431255,-0.18583952860608696
1761468603658602000,1.84760205078125,0.11839257066845893,0.03026810978397261,-0.10656334545854479
1761468603668584700,1.857584716796875,0.11884206800162792,0.10286018009167164,-0.02251761895478703
1761468603678568000,1.86756787109375,0.1336567752957344,0.0929318657327909,-0.008431673459801822
1761468603688552000,1.877552001953125,0.12333294968008994,0.03144388013165444,-0.0312328037973959
1761468603698535000,1.887534912109375,0.1204898352086544,-0.045206900115474125,-0.07179233476475347
1761468603708518000,1.897517822265625,0.11375789660513401,-0.06695463524288497,-0.051475728419004003
1761468603718500900,1.9075009765625,0.10762684650421142,-0.07678453072858973,0.013263185269478707
1761468603728483800,1.91748388671875,0.12902677740752697,-0.05464154007274191,0.09325543513135053
1761468603738467000,1.927467041015625,0.12139525961577892,-0.020080514301243236,0.1526848259685561
1761468603748449800,1.93744970703125,0.11316519140899181,0.008335930600902064,0.1744753636246547
1761468603758433800,1.947433837890625,0.13471183730661868,0.018494610516401007,0.15943514047898352
1761468603768416800,1.957416748046875,0.12049509590566157,0.014493412051023915,0.10925491349692455
1761468603778400000,1.96739990234375,0.12243746214509009,-0.00943639352293685,0.033821066724928094
1761468603788383000,1.977383056640625,0.12916764718294144,-0.024951088612829332,-0.05373316109012812
1761468603798366000,1.987365966796875,0.12557517564892767,-0.030162576183420605,-0.10915719787664711
1761468603808349000,1.997348876953125,0.1240799686551094,-0.0033737872820347545,-0.1267123173195403
1761468603818332000,2.007331787109375,0.11555237880647182,0.03826330978896003,-0.0991618370303884
1761468603828316000,2.01731591796875,0.12004326048493384,0.06516727690207771,-0.05791029151114635
1761468603838299000,2.027298828125,0.1323152975589037,0.06644156658763531,0.0077304070223821325
1761468603848281900,2.03728173828125,0.11510755764842033,0.04360071159442887,0.05857102500877808
1761468603858264800,2.047264892578125,0.12588204964101313,-0.021588507711398416,0.035872555894637476
1761468603868248000,2.057248046875,0.1317173316657543,-0.0742703696503071,0.02272622020416893
1761468603878230800,2.067230712890625,0.11331307544708251,-0.07016161459065041,0.053164512623008336
1761468603888213800,2.0772138671875,0.14353928688466547,0.027904463092284275,0.18533461129125206
1761468603898198000,2.087197998046875,0.12931786930859088,0.18638243984375147,0.3925477307830006
1761468603908181000,2.097180908203125,0.1351426299393177,0.18870432518636807,0.37243067929707463
1761468603918163700,2.107163818359375,0.13093874850869178,0.07104241601317189,0.18691073803417382
1761468603928147000,2.11714697265625,0.10159574964642525,-0.07427605960557702,-0.03881748677273281
1761468603938130000,2.1271298828125,0.11699848596155643,-0.1988434236185625,-0.2687238009818829
1761468603948113000,2.13711279296875,0.10158172112107276,-0.2040897815731354,-0.3061545917697251
1761468603958096000,2.147095947265625,0.10756547170579432,-0.08680526347812265,-0.17493121763337402
1761468603968080000,2.157079833984375,0.12103227152228355,0.05941551300890278,0.0035098393184365704
1761468603978062800,2.167062744140625,0.1283621760189533,0.13263634620681405,0.0938748913371004
1761468603988045800,2.1770458984375,0.11653729819059372,0.07681944677834399,0.04218301768307574
1761468603998029000,2.187029052734375,0.11384265227913856,-0.04938609462941531,-0.10560796269616111
1761468604008011800,2.19701171875,0.11623743846118449,-0.13409270076127722,-0.21144606262007726
1761468604017995000,2.2069951171875,0.12342413509488105,-0.12771310099307448,-0.18228866772409527
1761468604027978000,2.21697802734375,0.11160685605108737,-0.02767671875101514,-0.03723972976172808
1761468604037962000,2.2269619140625,0.12851999692916868,0.09691699897935613,0.15783344090338797
1761468604047944700,2.23694482421875,0.14393208559453485,0.19159361688708884,0.28050255637988447
1761468604057928000,2.246927978515625,0.13135785070359707,0.18968206591103226,0.27817824161816385
1761468604067911000,2.256910888671875,0.12730945209562777,0.0929705811748281,0.15286615561852232
1761468604077894000,2.266893798828125,0.11952011339366435,-0.04111399107892066,0.018008571431972084
1761468604087876900,2.276876953125,0.12340309230685233,-0.11190751036494039,-0.07602412254903465
1761468604097859800,2.28685986328125,0.10678747307062149,-0.12211989322905428,-0.100758869564021
1761468604107843800,2.29684375,0.1214478665858507,-0.06353588544111699,-0.04089009179570712
1761468604117826800,2.306826904296875,0.13281798638403414,0.010338740056985988,0.02622500383905135
1761468604127809500,2.3168095703125,0.12473229508399962,0.04827064420080278,0.05870214514173567
1761468604137792300,2.326792236328125,0.12218494868874549,0.03184954288967419,0.0124304059734568
1761468604147775500,2.336775390625,0.1260720192551613,-0.020331639518099836,-0.07273220486417413
1761468604157758500,2.346758544921875,0.12292729148864745,-0.07550896240139846,-0.14885220726942644
1761468604167741400,2.356741455078125,0.11948504208028315,-0.08973417480317875,-0.17132161230146883
1761468604177725400,2.366725341796875,0.10407587602436542,-0.04000425800504163,-0.12074897933518514
1761468604187708400,2.37670849609375,0.12278408362567424,0.040859194333944464,0.005908082399470731
1761468604197691400,2.38669140625,0.11724866133034229,0.12211417587432079,0.13402446696381085
1761468604207674600,2.396674560546875,0.1283195059210062,0.13976882843524216,0.18178311108844353
1761468604217657300,2.4066572265625,0.1323544605255127,0.10740318468301556,0.16374577021971343
1761468604227640300,2.416640380859375,0.1236702188104391,0.037420488589536394,0.11230190737685188
1761468604237623600,2.42662353515625,0.11124445247948168,-0.02744715691199526,0.03882709485129453
1761468604247607600,2.436607666015625,0.11752338661849498,-0.08573366132439114,-0.03056137080923654
1761468604257590500,2.446590576171875,0.12126023505926131,-0.08599555453043431,-0.04889806908387691
1761468604267573200,2.4565732421875,0.12200550046861171,-0.06262950661934447,-0.035800175645016134
1761468604277556500,2.466556396484375,0.11511983260810374,-0.040154644527472555,-0.007707295574853197
1761468604287539500,2.47653955078125,0.12529518966376782,-0.018533321391860952,-0.006301630028011277
1761468604297522400,2.4865224609375,0.11496785691678524,-0.027235970979882403,-0.018229675969900563
1761468604307505400,2.49650537109375,0.11975567571520805,-0.03966135371834971,-0.054862283851066604
1761468604317489400,2.506489501953125,0.1214046119660139,-0.048310473887692204,-0.0732099419111386
1761468604327472400,2.516472412109375,0.11931202360093593,-0.014015012850356287,-0.04590390136973001
1761468604337455600,2.52645556640625,0.12499883706569671,0.04243903827075846,0.023306668706936762
1761468604347438300,2.536438232421875,0.12305354821681976,0.09709745184648781,0.08330215072799474
1761468604357421300,2.54642138671875,0.12544658083319662,0.1085769320369698,0.114286761051137
1761468604367404500,2.556404541015625,0.11347264992296695,0.09782625931138172,0.10276380704510957
1761468604377387500,2.566387451171875,0.13367138834297657,0.06480830282999668,0.048858449459541584
1761468604387371500,2.57637158203125,0.10972235747873782,0.011964016870991327,-0.014760483755683526
1761468604397354200,2.586354248046875,0.12363573201894759,-0.052830385297816244,-0.10517236602418124
1761468604407337500,2.59633740234375,0.11061842953562735,-0.07316789286769926,-0.114454674097104
1761468604417320400,2.606320556640625,0.12408698291778564,-0.03038139286614023,-0.04384183600707911
1761468604427303700,2.6163037109375,0.1207943711131811,0.01989070451729931,0.053390877857944
1761468604437286400,2.626286376953125,0.12199205646514892,0.03445606755968183,0.0958035578447394
1761468604447269400,2.636269287109375,0.11555588593780994,0.0002144738677423447,0.06636413113698363
1761468604457252600,2.646252685546875,0.12408347578644752,-0.06732967910035513,0.008563510545389726
1761468604467236600,2.656236572265625,0.11450666914582251,-0.11629646603888831,-0.05010567304166034
1761468604477219300,2.66621923828125,0.11480886696279048,-0.11425004576994105,-0.05462123250365257
1761468604487202300,2.676202392578125,0.11376491086781024,-0.09367046393933705,-0.023254573193518445
1761468604497185500,2.686185546875,0.11646189486682414,-0.020056964462297037,0.044035011358466
1761468604507168500,2.69616845703125,0.13067980531156062,0.05817951864027418,0.11065248706885612
1761468604517151200,2.706151123046875,0.13890928899645805,0.09007049408545717,0.13854833759642204
1761468604527134500,2.716134521484375,0.11646306391060351,0.06717015029024333,0.11450679700998588
1761468604537118500,2.726118408203125,0.13112404194772243,0.00872010304632131,0.032355980874737726
1761468604547101400,2.736101318359375,0.10373860689401626,-0.026834824566775932,0.00495363121884875
1761468604557084400,2.74608447265625,0.11780278808176517,0.02104629516005516,0.04752465270566754
1761468604567067400,2.7560673828125,0.1279752225279808,0.08980622625923715,0.08251644371040165
1761468604577050400,2.76605029296875,0.12423019078075885,0.12802837748732418,0.06327744456748478
1761468604587033600,2.77603369140625,0.12153145321607589,0.09675796335958875,-0.029754949797177684
1761468604597016300,2.786016357421875,0.1297580142915249,0.02907886346678715,-0.14564731941404752
1761468604607000300,2.796000244140625,0.11195113944411277,-0.034484832429862576,-0.2304881600845605
1761468604616983300,2.8059833984375,0.10776479367017745,-0.08286509275129064,-0.25647885284423827
1761468604626966500,2.815966552734375,0.11285948646068572,-0.08187399935470893,-0.1693903337116353
1761468604636949500,2.825949462890625,0.1112222406476736,-0.045223490490671245,-0.04383219139589928
1761468604646932500,2.835932373046875,0.1243979485630989,0.002254724690807052,0.07229456236558035
1761468604656915500,2.84591552734375,0.1230564708262682,0.019227331538009457,0.13756905336864292
1761468604666898400,2.8558984375,0.11887129409611225,0.009691245066840201,0.15199740995997563
1761468604676882400,2.86588232421875,0.13264321433901785,-0.032138506765733474,0.13382626837743444
1761468604686865400,2.875865478515625,0.12486498155295848,-0.05986651274599135,0.12919610609244556
1761468604696848400,2.885848388671875,0.11753507705628871,-0.04627429188496899,0.1351743767844513
1761468604706831400,2.895831298828125,0.12426993826925754,-0.03048438288315665,0.13704094697446562
1761468604716814600,2.905814697265625,0.1269604925274849,0.000048707113089039916,0.1474113973439671
1761468604726797300,2.91579736328125,0.11992518706321716,0.025565567249362355,0.11949615712934172
1761468604736780300,2.9257802734375,0.12022153966128825,0.029409917485481125,0.05543581855585798
1761468604746764500,2.9357646484375,0.12979542369246483,0.019938512014667502,-0.024209325768239795
1761468604756747500,2.94574755859375,0.12066636081933975,0.0005184800493065267,-0.08884712630296125
1761468604766730500,2.95573046875,0.12410685666203498,-0.01017493693055585,-0.11663874927107244
1761468604776713500,2.96571337890625,0.1178232463479042,0.017996807928942142,-0.09806422365256584
1761468604786696400,2.975696533203125,0.1241103637933731,0.049811087708990086,-0.06781301477104425
1761468604796679400,2.985679443359375,0.12411153283715247,0.06029224104450549,-0.049015512317931276
1761468604806662400,2.995662353515625,0.10855214465558528,0.048865596152958456,-0.04320795855033211
1761468604816646400,3.005646484375,0.11064882467389106,0.029241059158020652,-0.03753573073334992
1761468604826629400,3.01562939453125,0.12486731964051723,0.01369437976097688,-0.04291156028648838
1761468604836612400,3.0256123046875,0.12112930215597152,-0.006376489929086528,-0.013039998372318222
1761468604846595600,3.035595703125,0.11380056670308113,-0.005414563261484727,0.04798632453382015
1761468604856578300,3.045578369140625,0.12966332174539566,0.006593753975536674,0.13862933041076175
1761468604866561500,3.0555615234375,0.13100947565734386,0.031192503753048367,0.20760562594067303
1761468604876544500,3.06554443359375,0.11364683744609355,0.020428948713000862,0.22752952947467564
1761468604886528500,3.075528564453125,0.1224719489365816,-0.024455162888625634,0.17421375354640184
1761468604896511200,3.08551123046875,0.11857435697615146,-0.06974851744484621,0.10309655526396817
1761468604906494500,3.095494384765625,0.1229074177443981,-0.09682740273345261,0.036525859571062025
1761468604916477400,3.1054775390625,0.11093056422471999,-0.08025008794730529,-0.000385610917257145
1761468604926460400,3.11546044921875,0.11496727239489554,-0.0464481551811099,-0.019778275385079903
1761468604936443400,3.125443359375,0.12139935126900672,-0.015685448546917176,-0.023209537608548998
1761468604946426400,3.13542626953125,0.1261842474579811,-0.006484352484042756,-0.038486090260744094
1761468604956409300,3.145409423828125,0.10852584117054939,-0.0007625773037550971,-0.06889025208111851
1761468604966393300,3.155393310546875,0.11166939989328384,-0.006478904557367786,-0.09111948254858143
1761468604976376600,3.16537646484375,0.12513678423166275,0.008344438134343364,-0.08492784310053102
1761468604986359300,3.175359375,0.12349135511219501,0.04633062518208753,-0.044762567581189794
1761468604996342500,3.185342529296875,0.11915244912505149,0.09168890733383596,0.012554699073405935
1761468605006325500,3.195325439453125,0.12409165909290314,0.11172928598751314,0.07068178427354432
1761468605016308500,3.20530859375,0.1323188046902418,0.099084753206186,0.10091053472808562
1761468605026292200,3.215292236328125,0.129321376439929,0.04777886492875404,0.08738652483164332
1761468605036275500,3.225275390625,0.12572832038402557,-0.020450621688691897,0.03446480798856355
1761468605046258400,3.235258544921875,0.12557809825837613,-0.07928747172653675,-0.0035177440636791285
1761468605056241400,3.245241455078125,0.1218359891206026,-0.117436749514658,-0.02059761067763902
1761468605066224400,3.255224365234375,0.11166063206493854,-0.11982217421331443,-0.03635987362070009
1761468605076207400,3.265207275390625,0.13650047428905962,-0.07239446537636686,-0.0052401930752675975
1761468605086190300,3.2751904296875,0.11510346599519253,-0.021807091498677617,0.05804042982999235
1761468605096173600,3.285173583984375,0.14458265845775603,0.011005638433923014,0.0839829086669255
1761468605106157600,3.295157470703125,0.1061246252477169,0.025791777220671063,0.0773757654868532
1761468605116140300,3.305140380859375,0.13036650157868862,0.0023093866206472737,-0.00934171010996215
1761468605126124300,3.315124267578125,0.12558102086782455,-0.04185306420950219,-0.13567719347374513
1761468605136107300,3.325107177734375,0.12378946127593517,-0.04578822996765375,-0.12941207779753022
1761468605146090200,3.33509033203125,0.09192249689400196,-0.00230649141066242,-0.07265659147785045
1761468605156073200,3.3450732421875,0.12110650580227374,0.061068897105962965,-0.0359964288694784
1761468605166056200,3.35505615234375,0.12320377034246921,0.095547820384847,0.03042423649402335
1761468605176040200,3.365040283203125,0.12305705534815788,0.09219212588192895,0.06843236137893982
1761468605186023200,3.375023193359375,0.13637655564844609,0.07821251770509406,0.04402864554976113
1761468605196006400,3.38500634765625,0.12785071936547757,0.04360060199657455,0.005621082151634618
1761468605205989400,3.3949892578125,0.12635609689354896,0.007291294085909612,-0.013367659424105659
1761468605215972000,3.40497216796875,0.12770400437116622,0.004359053726028651,0.009569335720222442
1761468605225955300,3.414955322265625,0.10840367609560489,0.02528270432052668,0.056537998510943724
1761468605235938300,3.424938232421875,0.12576280717551708,0.02791801669360138,0.08158610405772924
1761468605245922300,3.43492236328125,0.12666063279807566,0.0019287350062979385,0.07357997166677378
1761468605255905000,3.444905029296875,0.11573767224550247,-0.04364955113825854,0.03901532003292814
1761468605265888300,3.45488818359375,0.11304536442160605,-0.06413094242454971,-0.009113015920622273
1761468605275871200,3.464871337890625,0.10915595576763153,-0.08253720337064005,-0.022753035145858302
1761468605285854500,3.4748544921875,0.11484452279806136,-0.06898076164247467,-0.013825760188838467
1761468605295837200,3.484837158203125,0.11799100413024424,-0.04248171293528285,0.027509371960628776
1761468605305820200,3.494820068359375,0.12128595402240752,0.0026500395847484466,0.05585176067929715
1761468605315803400,3.504803466796875,0.12742343386411667,0.03908031612711493,0.07503416166361421
1761468605325787400,3.514787353515625,0.125330260977149,0.051750613537360914,0.06740869915331714
1761468605335770400,3.524770263671875,0.1310164899200201,0.0589796560420189,0.04950131394034251
1761468605345753000,3.534753173828125,0.12847381969988345,0.05696025621073786,0.023682105290051547
1761468605355736300,3.544736328125,0.11336042172014713,0.0331030957478797,-0.027439028404466805
1761468605365719300,3.55471923828125,0.11994564532935618,0.004820734687335789,-0.06300996187087148
1761468605375702300,3.564702392578125,0.12548399023413656,0.005962082175607793,-0.05240592194120399
1761468605385686300,3.574686279296875,0.12204349439144134,-0.003892422594968229,-0.023746512295771387
1761468605395669200,3.584669189453125,0.13326923728287218,0.0027953343735309315,0.0025708642681594937
1761468605405652200,3.59465234375,0.11261983248591423,-0.006761287995590828,0.01753119971118867
1761468605415635500,3.604635498046875,0.11576339120864867,-0.009005966216418892,0.026386067019123584
1761468605425618200,3.6146181640625,0.11546528504490852,-0.020682407450838946,0.020935363865178077
1761468605435601200,3.62460107421875,0.11980594459772109,-0.034132132834941147,0.031989302986813704
1761468605445584400,3.63458447265625,0.1308808808416128,-0.03275478006713092,0.05507095816568471
1761468605455567400,3.6445673828125,0.12579554040133953,-0.022565846577263435,0.07549209803156555
1761468605465551400,3.65455126953125,0.12130816585421561,-0.023144066590326837,0.07989103624341078
1761468605475534000,3.6645341796875,0.13208324236869812,-0.021552523082564584,0.07237601183764636
1761468605485517300,3.674517333984375,0.11981295886039733,-0.02575048166248016,0.034540256978105754
1761468605495500300,3.684500244140625,0.12385375868380069,-0.016281583242584018,0.00071029456066899
1761468605505483300,3.694483154296875,0.10589724623262882,0.011636287320544943,-0.021801771436166018
1761468605515466200,3.70446630859375,0.12101181325614452,0.04165986145865172,-0.019332047721231354
1761468605525449200,3.71444921875,0.12445406266450881,0.04574717643805779,0.0007067691630218177
1761468605535433200,3.72443310546875,0.13148819908499718,0.04204761866722256,0.020101196329668163
1761468605545416400,3.73441650390625,0.12490414451956748,0.03757127697076648,0.0209901993249543
1761468605555399200,3.744399169921875,0.12370470560193061,0.020368957587494515,0.023502830599853766
1761468605565382100,3.754382080078125,0.11143442209362983,0.0021246411708882077,0.0219959149019327
1761468605575365400,3.764365478515625,0.12924129694104194,-0.017246820678701622,0.022434297186043114
1761468605585348400,3.774348388671875,0.11816928330659866,-0.02857045272034593,0.03070518146040849
1761468605595331000,3.7843310546875,0.11801964570283889,-0.032121811359259296,0.04037668064716272
1761468605605315300,3.7943154296875,0.12984218544363973,-0.011714590420876629,0.054962118363194166
1761468605615298300,3.80429833984375,0.1307417646318674,-0.016095244057360104,0.05130452743740752
1761468605625281300,3.81428125,0.11876958728730679,-0.0011140621891245245,0.04963746187486685
1761468605635264300,3.82426416015625,0.12026537880301474,0.004096123906946741,0.053312515392107886
1761468605645247200,3.834247314453125,0.12041443188488482,0.011392413828382268,0.038378730029286816
1761468605655230200,3.844230224609375,0.12744564569592476,0.012067111919284798,0.005100099617987871
1761468605665213400,3.85421337890625,0.11562369047701358,0.013136887442111037,-0.016789633229421452
1761468605675196200,3.864196044921875,0.12101005969047546,-0.019318096827692352,-0.04026683619767427
1761468605685180200,3.87418017578125,0.11801906118094921,-0.03921434516978915,-0.04872180833467282
1761468605695163100,3.8841630859375,0.11951894434988498,-0.01734349511936307,-0.04156445652646944
1761468605705146400,3.894146484375,0.11293722787201405,-0.0003809621416032314,-0.004236121466103941
1761468605715129300,3.90412939453125,0.11892507010996341,0.015286142464447766,0.047935818189289416
1761468605725112300,3.9141123046875,0.11204232485890388,0.03765884108978789,0.06197544032451696
1761468605735095300,3.92409521484375,0.13179448855519293,0.03048660223970655,0.04730097261816263
1761468605745078300,3.934078369140625,0.12580839988291262,0.023035359218576922,0.03625081462250091
1761468605755062300,3.944062255859375,0.13583411933481693,0.008547490992350503,0.026161930273892357
1761468605765045200,3.954045166015625,0.11623217776417731,0.019250219223252495,0.040133300345344465
1761468605775028200,3.9640283203125,0.10874912853240966,0.0030034743986092505,0.04588263938599266
1761468605785011200,3.97401123046875,0.11039280408620834,-0.01411963313545566,0.03664429831895977
1761468605794994400,3.983994384765625,0.12595628392100333,-0.027723827562062067,0.014939712780108675
1761468605804977200,3.99397705078125,0.11219079341888427,-0.032917957572476,-0.014787883219262584
1761468605814959400,4.00395947265625,0.11354045446217059,-0.02798966629086062,-0.03266206028237938
1761468605824942300,4.0139423828125,0.11369301467537879,-0.02164653977525886,-0.031654152748314665
1761468605834925000,4.023925048828125,0.12551496989428995,-0.0058772671360988165,-0.015531732989661394
1761468605844908300,4.033908203125,0.122972884196043,0.021208732879883608,0.01649511639541015
1761468605854891300,4.043891357421875,0.12941022376716135,0.04758636999737937,0.030184801714960484
1761468605864874200,4.053874267578125,0.13719371725022791,0.037852715127496044,0.03869398825722746
1761468605874857200,4.063857177734375,0.11504735189378261,0.03746981675713323,0.0452254175862763
1761468605884841200,4.07384130859375,0.12761574156582356,0.042058199426741334,0.07841720083118416
1761468605894824200,4.08382421875,0.13584288716316223,0.057030526701663614,0.1363889310728293
1761468605904807400,4.093807373046875,0.14047697670459747,0.015524700460676102,0.0763760138597805
1761468605914790100,4.1037900390625,0.11323884116709232,-0.0653394825306721,-0.05620852909456007
1761468605924773000,4.113773193359375,0.10680676229298114,-0.1200395341578871,-0.163582725145109
1761468605934756400,4.12375634765625,0.10172317541837692,-0.0894144778621383,-0.1299741047276184
1761468605944739300,4.1337392578125,0.1144464633911848,-0.0030847229412756857,-0.04494615312032401
1761468605954722000,4.14372216796875,0.12971417514979838,0.08972484985240735,0.06735824760771356
1761468605964706300,4.153706298828125,0.12103694769740105,0.12020094439783133,0.11505052109840325
1761468605974689300,4.163689208984375,0.1324105746269226,0.06723542951222043,0.05520711523336358
1761468605984672300,4.17367236328125,0.12702654350101947,-0.016253517058724538,-0.04408129818560556
1761468605994655500,4.183655517578125,0.1282242288529873,-0.013359823177522047,-0.03791391639597714
1761468606004638200,4.19363818359375,0.1249339551359415,0.06011078353037592,0.02646475827852264
1761468606014621200,4.20362109375,0.13929974961876868,0.10295392278973013,0.08184999742461369
1761468606024604400,4.2136044921875,0.12149345929324626,0.0959605933036655,0.13890957212424837
1761468606034588400,4.22358837890625,0.11879764433801174,0.06984253870411776,0.1543564124425873
1761468606044571100,4.233571044921875,0.12881985665857792,0.00009341847107280046,0.12505185502772218
1761468606054554000,4.24355419921875,0.13165771043300628,-0.08061853766720742,0.0878287430406548
1761468606064537300,4.253537353515625,0.12432137619554996,-0.12424054777799173,0.04447742136372253
1761468606074520300,4.263520263671875,0.11369418371915817,-0.1680166890045628,0.007083126661367714
1761468606084503300,4.27350341796875,0.1130956333041191,-0.1658720781913027,-0.0006872333454899489
1761468606094486300,4.283486328125,0.12252221781909466,-0.13905512720793484,-0.0017706720674876123
1761468606104470300,4.29347021484375,0.10875672731697558,-0.09330432490753009,0.005265482780151069
1761468606114453200,4.303453369140625,0.12357143461108207,-0.055547731664846646,0.00765837839921005
1761468606124436500,4.3134365234375,0.13554419647753238,-0.027706040743621995,0.0028900223530828953
1761468606134419200,4.323419189453125,0.12058335871100424,-0.015092259293585084,-0.009975779362954199
1761468606144402200,4.333402099609375,0.1217833821505308,0.0003643854661379009,-0.027979446290945634
1761468606154385400,4.343385498046875,0.1178968961060047,0.035482606728980313,-0.02337518563219346
1761468606164368100,4.3533681640625,0.1386982765942812,0.06671057452105451,0.005258696846337989
1761468606174352100,4.36335205078125,0.145882635140419,0.105684863857273,0.0421591618834529
1761468606184335000,4.373335205078125,0.11939677927494048,0.15557775266477838,0.08517883132006973
1761468606194318300,4.383318359375,0.13495733650028705,0.1649629822560586,0.1075010373006109
1761468606204301300,4.39330126953125,0.14827157610356806,0.12323738035112619,0.08354586895653046
1761468606214284300,4.4032841796875,0.14018705384731292,0.0651905938455835,0.023681913493806495
1761468606224267300,4.413267333984375,0.10067921932339667,-0.02002295716141816,-0.04934617817755788
1761468606234250200,4.423250244140625,0.11668810483813286,-0.0627251901127398,-0.08127613392625935
1761468606244234200,4.433234130859375,0.13554302743375302,-0.06085866102192085,-0.055652520913304755
1761468606254217500,4.443217529296875,0.12312427536547184,-0.03996789891687222,-0.008604554941831157
1761468606264200200,4.4532001953125,0.12596797435879706,-0.03178077480266802,0.02411309885215014
1761468606274183200,4.46318310546875,0.131356097137928,-0.03586097505469806,0.04390431591719389
1761468606284166400,4.47316650390625,0.12013327685594558,-0.06947244044982362,0.027082826244784516
1761468606294149000,4.483149169921875,0.10876315705776214,-0.08179428518200292,-0.004506919497810304
1761468606304132000,4.493132080078125,0.115949269169569,-0.07422141594204586,-0.004249209276540204
1761468606314115300,4.503115234375,0.12762392487227917,-0.03161604466105346,0.03140853482363745
1761468606324099300,4.513099365234375,0.12179098093509673,0.027192666127695702,0.09142854849775321
1761468606334082300,4.523082275390625,0.11371171937584876,0.06536865382622926,0.11113132009436376
1761468606344065300,4.533065185546875,0.11371288841962814,0.07665266624353825,0.09876704729283228
1761468606354048300,4.54304833984375,0.13316577690839768,0.05301873834361322,0.04647086020326242
1761468606364031200,4.55303125,0.12792846077680586,0.036897327798535114,-0.001497791676549241
1761468606374014500,4.563014404296875,0.13914894297122954,0.0045647232328075915,-0.03661292593316175
1761468606383997200,4.5729970703125,0.10652794535160064,0.03166881602790672,-0.015616004606476053
1761468606393981200,4.582981201171875,0.11819909392297268,0.05553920129851903,0.019260124129336326
1761468606403965200,4.592965087890625,0.12253683086633682,0.07196062227005605,0.0386101641649846
1761468606413948400,4.602948486328125,0.13525485814213753,0.037975720452656965,0.009307296383706852
1761468606423931400,4.612931396484375,0.09500351177453994,-0.009734330723318271,-0.0438764232632704
1761468606433914000,4.6229140625,0.1316658937394619,-0.025973636593599803,-0.05269017310952767
1761468606443897300,4.6328974609375,0.13241525080204009,-0.018526371061266398,-0.05295687035485171
1761468606453880300,4.64288037109375,0.1216442659407854,-0.007026117510814219,-0.024266992505919186
1761468606463863300,4.65286328125,0.10414075795412063,-0.009813533439370803,0.014215398827241732
1761468606473847000,4.662846923828125,0.11296996109783648,-0.00198884486281313,0.03524992135111242
1761468606483830300,4.672830322265625,0.13870879798829555,-0.015036222823988645,0.03963860303042456
1761468606493813200,4.682813232421875,0.13661562510132788,-0.015924956391216254,0.06842271676775999
1761468606503796200,4.692796142578125,0.12180267137289047,-0.01747408096278086,0.09177746240012347
1761468606513779200,4.702779296875,0.13871288964152334,-0.010581353173824026,0.12483105188389308
1761468606523762200,4.71276220703125,0.12075637719035148,-0.0027866898427717384,0.11775075650042853
1761468606533745400,4.722745361328125,0.12449673276245593,-0.005477655092952773,0.10470074819074943
1761468606543729400,4.7327294921875,0.1354208623588085,-0.0010504132352303712,0.08134670581128448
1761468606553712400,4.74271240234375,0.12195055541098117,0.013252540577878244,0.04495489354920573
1761468606563695000,4.752695068359375,0.12045184128582477,0.014282271784683689,0.012759902789304032
1761468606573678300,4.76267822265625,0.1313777244478464,0.020832077020639553,-0.0002819496133830398
1761468606583661300,4.772661376953125,0.11701192996501922,0.010567475345521233,0.003200239079724997
1761468606593644300,4.782644287109375,0.1315261930078268,0.0028985755522968246,-0.02528008767175488
1761468606603627300,4.792627197265625,0.1110264258146286,-0.0007828985725762322,-0.03218530048294924
1761468606613611300,4.802611328125,0.1078846206575632,0.00024986027495469895,-0.034440933922631665
1761468606623594200,4.81259423828125,0.14753975469768046,-0.007827218460361473,-0.03856412393301725
1761468606633577500,4.822577392578125,0.1342231770068407,-0.010296951308450661,-0.00980877049928531
1761468606643560200,4.832560302734375,0.127042325592041,-0.0007128290110500529,0.007791357129113748
1761468606653543200,4.842543212890625,0.1316840139180422,-0.007000910004321485,0.029972200143896042
1761468606663526400,4.8525263671875,0.12943944986164568,-0.024098198110540398,0.06295052330121398
1761468606673509400,4.86250927734375,0.15352818145751954,-0.002988879617676139,0.1398389527956955
1761468606683493400,4.872493408203125,0.22534721699953078,0.08098963600192219,0.3306479586437344
1761468606693476000,4.88247607421875,-0.0012117138773202894,0.04559241056803148,0.4173877922028303
1761468606703459300,4.892459228515625,0.07539806307256221,-0.2430740306143649,-0.010749622412817551
1761468606713442300,4.9024423828125,0.141686352494359,-0.3701892935784533,-0.3178379057029262
1761468606723425000,4.912425048828125,0.13121522736251354,-0.17824501835647968,-0.19446999430730938
1761468606733408300,4.922408203125,0.1413940915495157,0.16661337981158866,0.03923443354316987
1761468606743392300,4.932392333984375,0.10398118347823619,0.46165663058348,0.2154579468762502
1761468606753375200,4.942375244140625,0.15245850639939307,0.5057589898234233,0.1725041000843048
1761468606763358500,4.9523583984375,0.19763971038460731,0.3585667699217796,-0.03528785134186037
1761468606773341200,4.962341064453125,0.10769815817475319,0.15966551516875624,-0.2547191131627187
1761468606783324200,4.97232421875,0.06310381416678429,-0.006566614806861617,-0.3645064256364479
1761468606793307400,4.982307373046875,0.13104162436127662,-0.06743910342473536,-0.26448665660247206
1761468606803290400,4.992290283203125,0.17982699031829832,-0.03439491195697337,-0.026288068271055814
1761468606813274400,5.0022744140625,0.1362836166679859,0.03131810746067203,0.19715444761831313
1761468606823257000,5.012257080078125,0.06116203244924545,0.02418041933416389,0.2791829251486808
1761468606833240300,5.022240234375,0.1479483354985714,-0.08621252174936235,0.22582718253619968
1761468606843223300,5.032223388671875,0.1582692385047674,-0.22561770450398325,0.10983233892554417
1761468606853206300,5.042206298828125,0.10230302113294601,-0.3142789345797151,-0.003109756917832419
1761468606863189200,5.052189208984375,0.08763970500826836,-0.2793088896159083,-0.014405898164352402
1761468606873172200,5.062172119140625,0.13881868810355663,-0.16528277052864432,0.06977388478154316
1761468606883156200,5.07215625,0.13313187463879583,-0.016360297334869392,0.1870325743155554
1761468606893139500,5.082139404296875,0.09975801282525062,0.1063829291240312,0.23889457123894242
1761468606903122200,5.0921220703125,0.11636661779880524,0.1379165607652161,0.17310451366286725
1761468606913105200,5.102105224609375,0.1292260993719101,0.07291957609585951,0.045557243356527756
1761468606923088400,5.11208837890625,0.145080671107769,0.027048449051147325,-0.13347070553856902
1761468606933071400,5.1220712890625,0.12098960142433643,0.029358045734348706,-0.21451113101281225
1761468606943054000,5.13205419921875,0.12353753234148025,0.05501107663803268,-0.17785050261355936
1761468606953038300,5.142038330078125,0.13655658839046955,0.10956668285983615,-0.07753169583408162
1761468606963021300,5.152021240234375,0.15137071116268633,0.18212010622415692,0.0283663815156091
1761468606973004300,5.16200439453125,0.11156360143125056,0.19512739877011626,0.05747073105010204
1761468606982987300,5.1719873046875,0.14508008658587931,0.12265464855972677,0.021442345272935925
1761468606992970200,5.18197021484375,0.13085749996602533,0.029099933654279448,-0.04737372732711956
1761468607002953200,5.191953125,0.15569617314636705,-0.015545058262115344,-0.12522659054012036
1761468607012937200,5.201937255859375,0.08821253646016121,-0.07178083612320478,-0.08971112272115424
1761468607022920400,5.21192041015625,0.14148819957375525,-0.09006680429102852,0.005742964098788797
1761468607032903200,5.221903076171875,0.10856617318093777,-0.08973388254223391,0.12417966616991907
1761468607042886100,5.23188623046875,0.13924480456113814,-0.07828580213701353,0.17266955631170422
1761468607052869400,5.241869384765625,0.0913590177923441,-0.09939252224741503,0.18044468382522463
1761468607062852400,5.251852294921875,0.14657470905780792,-0.12510119232847355,0.1492900598305743
1761468607072835300,5.26183544921875,0.10527356137633323,-0.12356044742618687,0.1361323076969478
1761468607082819300,5.2718193359375,0.14971476064920425,-0.0823537456956692,0.1031899965679273
1761468607092802300,5.28180224609375,0.09703940151631832,-0.033266108856443315,0.12240697567528112
1761468607102785300,5.291785400390625,0.14492109663188457,0.007526897506648674,0.11889535995828919
1761468607112768300,5.301768310546875,0.11857844862937926,0.01973472393772099,0.10791775574218482
1761468607122751200,5.311751220703125,0.13742811052799225,0.027810775193152948,0.02753555671465583
1761468607132733200,5.321733154296875,0.11482932522892951,-0.0007340772950556128,-0.05872414691098966
1761468607142716000,5.3317158203125,0.13697393701970575,-0.007397485273587517,-0.12220407351432368
1761468607152700000,5.341699951171875,0.1526888080239296,0.02194204298995901,-0.14408932198286056
1761468607162683100,5.35168310546875,0.10286065501570701,0.0733219235187862,-0.10087374638165347
1761468607172666000,5.361666015625,0.11662789908349513,0.11055531030469573,-0.05065894127655774
1761468607182649000,5.371649169921875,0.15523498537540434,0.13103934107264503,-0.010312272175168618
1761468607192632000,5.381632080078125,0.12919804232120513,0.1285200334617868,-0.006496485879831016
1761468607202615000,5.391614990234375,0.12395955714583397,0.0912676314481534,-0.006019826545100659
1761468607212599000,5.40159912109375,0.14610650702416897,0.03682462332192808,-0.004351619338244199
1761468607222582000,5.41158203125,0.12754910607039927,0.0015841456525959073,0.030389749702531842
1761468607232565000,5.42156494140625,0.142810972610116,-0.024297652505664152,0.05480249822153709
1761468607242548000,5.4315478515625,0.1103378590285778,-0.036450154853193084,0.09113325534560716
1761468607252531000,5.441531005859375,0.1399661045730114,-0.061592701784358356,0.11098218481410294
1761468607262514200,5.45151416015625,0.12889175285100937,-0.08358447480071335,0.11825926314499229
1761468607272497000,5.461496826171875,0.12320493938624859,-0.08952546395594253,0.09854724879600107
1761468607282481000,5.47148095703125,0.12096154437363148,-0.10378237297050655,0.08950259453700855
1761468607292464000,5.481464111328125,0.11736790379583835,-0.08155222005443646,0.07019117861185223
1761468607302447000,5.491447021484375,0.11916297051906585,-0.04388666609607171,0.04109977075732313
1761468607312429800,5.501429931640625,0.10345043760240077,-0.03062286890523974,0.040525258804997424
1761468607322413000,5.5114130859375,0.11601765823066233,0.004628691847110167,0.027144566369382662
1761468607332396000,5.52139599609375,0.17557342452704905,0.032145566694182344,0.026128174134762955
1761468607342380000,5.531380126953125,0.10958324126899242,0.05494375615601893,0.022743901991331947
1761468607352363000,5.541363037109375,0.13592121309638022,0.0644356564255897,-0.014196958988253027
1761468607362346000,5.551345947265625,0.12275193492174148,0.050145712791103865,-0.054479376347549256
1761468607372329000,5.561328857421875,0.13921090229153632,0.046864859922952015,-0.07873324451041408
1761468607382312000,5.57131201171875,0.1398129598379135,0.06226415303882677,-0.06179014688548631
1761468607392295200,5.581295166015625,0.10734159982204437,0.08572638220023364,-0.00623441001069732
1761468607402278000,5.59127783203125,0.15402853219509124,0.09517762623243034,0.05130705732121132
1761468607412262000,5.601261962890625,0.13517244055569172,0.07791448460659012,0.09872994841914623
1761468607422245000,5.6112451171875,0.14609481658637521,0.05646740379303228,0.11764591701962053
1761468607432228000,5.62122802734375,0.12049977208077907,0.0027712365453131495,0.10471443878938444
1761468607442210800,5.6312109375,0.10747720890045165,-0.05044292390570044,0.054259276456618676
1761468607452194000,5.641194091796875,0.1814046148985624,-0.09512722948575392,-0.00894013443859294
1761468607462177000,5.651177001953125,0.06124386551380157,-0.11676281404215842,0.013205892991134897
1761468607472161000,5.6611611328125,0.1261842474579811,-0.09817772136386484,0.03074255432873033
1761468607482144000,5.67114404296875,0.1324678577721119,-0.051634590508835385,0.06415687601682729
1761468607492127000,5.681126953125,0.11630641204416751,-0.007213895167876035,0.07253214311427436
1761468607502110000,5.69110986328125,0.09969254637360572,0.0033364646460628134,0.054279953918466343
1761468607512093200,5.70109326171875,0.15775076758861542,-0.006602896263217553,0.006306717195082455
1761468607522076200,5.711076171875,0.07275134795606136,-0.00778829752234742,-0.0015617054919246584
1761468607532060000,5.721059814453125,0.16313713680207728,0.05504039863063954,-0.022869437200296668
1761468607542043000,5.73104296875,0.12842355081737042,0.139933389613498,0.024564678544551133
1761468607552026000,5.741026123046875,0.11346212852895259,0.07452317993417382,0.02551745835789479
1761468607562009000,5.751009033203125,0.13964987823069094,0.04380725331746507,0.011517401048075407
1761468607571991800,5.76099169921875,0.13187281448841096,0.03751872936619911,0.0005214939903002232
1761468607581975000,5.77097509765625,0.11556465376615524,0.025132062069769017,0.024592644263710824
1761468607591958000,5.7809580078125,0.11496668787300586,-0.012695756078488192,0.022446106354845688
1761468607601942000,5.79094189453125,0.1239443595767021,0.006979940281528979,0.030955502959666772
1761468607611925200,5.80092529296875,0.12903145358264445,0.01678810799261555,0.03785146388532594
1761468607621908000,5.810907958984375,0.14339724806547163,0.01154351273686625,0.04470871850210242
1761468607631891000,5.820890869140625,0.12499123828113079,0.004955261486931704,0.04123267642199062
1761468607641874200,5.830874267578125,0.1155617311567068,-0.0032643035921500994,0.03741086224466562
1761468607651857000,5.84085693359375,0.13666121780872345,-0.004447499194461852,0.03808940996020101
1761468607661841000,5.8508408203125,0.12199439455270766,-0.010442346561932936,0.04623117882902734
1761468607671824000,5.860823974609375,0.1411515149652958,-0.010719524102075956,0.04103148216092959
1761468607681807000,5.87080712890625,0.10763327624499797,-0.029462200228567232,0.04765416083685122
1761468607691790000,5.8807900390625,0.13846154522895812,-0.03053139579608105,0.03506786104878411
1761468607701773000,5.89077294921875,0.11137713894844055,-0.047267832966963755,0.03486542467870749
1761468607711756000,5.900756103515625,0.13023030797839164,-0.03527547591747716,0.033019285355368626
1761468607721740000,5.910739990234375,0.13457038300931454,-0.0068889466629829255,0.03722559620509855
1761468607731723000,5.920722900390625,0.12469313211739062,0.012191587682324461,0.043323675618181005
1761468607741706200,5.930706298828125,0.113767248955369,0.03965375493378378,0.06162220644005574
1761468607751689000,5.94068896484375,0.12678338239490985,0.0663952751939185,0.06493134012119844
1761468607761672000,5.950671875,0.12648176909983158,0.07866645375136286,0.0656873735197354
1761468607771655200,5.9606552734375,0.13261574181020258,0.07864202256300486,0.051067869137320664
1761468607781639200,5.97063916015625,0.10537819079458713,0.06079514449876733,0.03616213169205002
1761468607791622000,5.980621826171875,0.14428279872834682,0.03237544819361064,-0.008121712461486458
1761468607801604900,5.99060498046875,0.08367606207430363,-0.023621643807087093,-0.03545926238601096
1761468607811588000,6.000588134765625,0.16822247724235057,-0.0434195006754715,-0.0655942153435666
1761468607821571000,6.010571044921875,0.09205518336296081,-0.03173484416855499,-0.020069970074342563
1761468607831554000,6.020553955078125,0.16148820055127142,-0.018941998090874403,0.011324289628770202
1761468607841537000,6.030537109375,0.10642273141145706,-0.0068191191300516945,0.05997844868786633
1761468607851521000,6.04052099609375,0.1552069283246994,-0.0033608684349572286,0.07304761835574172
1761468607861504000,6.05050390625,0.12064122637808322,-0.007505845585465431,0.07457610656465403
1761468607871487000,6.060487060546875,0.13740122252106665,-0.011674454773310571,0.061129783280612894
1761468607881470000,6.070469970703125,0.10507657749950886,-0.013051286951312795,0.05866827940475195
1761468607891453000,6.080452880859375,0.1417383749425411,0.005813988074962981,0.042195219577522945
1761468607901436200,6.090436279296875,0.1296183135598898,0.017305085638002492,0.05474277652408927
1761468607911420200,6.100420166015625,0.13814707245230673,0.042849317838391285,0.06408412130787038
1761468607921403000,6.11040283203125,0.12707038264274598,0.0640858292077668,0.08830267156218179
1761468607931386000,6.12038623046875,0.15145780492424965,0.056182800998259334,0.06917069472400471
1761468607941369000,6.130369140625,0.11105039121210575,0.039226145205437206,0.03999280502926558
1761468607951352000,6.14035205078125,0.1319973176509142,0.009502184201567433,-0.008756421035295352
1761468607961335000,6.1503349609375,0.1161328090429306,-0.014569756089709698,-0.037605900759575886
1761468607971319000,6.160319091796875,0.13154548223018644,-0.023498172691045326,-0.04633637450286187
1761468607981302000,6.170302001953125,0.12331599854528903,-0.02228673280836083,-0.03263306251675822
1761468607991285000,6.180284912109375,0.11942542084753513,-0.015011124915350227,-0.022295655900333076
1761468608001268000,6.19026806640625,0.1349894852042198,-0.015437793928780592,-0.004821921997424215
1761468608011251000,6.2002509765625,0.13962883544266222,-0.014648118555545805,0.032771722068777306
1761468608021234000,6.21023388671875,0.13334464060664175,0.004248907882440835,0.05562026261151768
1761468608031218200,6.22021826171875,0.14366963526606558,0.005602646879223175,0.06666241083065978
1761468608041201200,6.230201171875,0.10416180074214934,0.017817492139548995,0.08592916563018224
1761468608051183900,6.240183837890625,0.14037234728634357,0.02643872422154527,0.09940853266729972
1761468608061167000,6.2501669921875,0.1351338621109724,0.045572052766592236,0.11120617542886174
1761468608071150000,6.260150146484375,0.10594751511514186,0.05483482045540586,0.1080727727739606
1761468608081133000,6.270133056640625,0.15876608211100102,0.05453286010045558,0.07379382448000833
1761468608091116800,6.28011669921875,0.10309446377158164,0.028405147189996205,0.044249649622989815
1761468608101100000,6.29010009765625,0.12104630004763603,-0.0027771456962917,-0.022427109393430872
1761468608111083000,6.3000830078125,0.148875971737504,-0.02103046740326099,-0.04620629098294302
1761468608121066000,6.31006591796875,0.09634791212081908,-0.03968614566631149,-0.04597199816987849
1761468608131050200,6.32005029296875,0.15336100819706916,-0.026738264290546064,-0.04536826925622299
1761468608141034200,6.3300341796875,0.0912625716805458,-0.0074613123239949345,0.011642205604678019
1761468608151017500,6.340017578125,0.14962357523441314,0.0022901247977511956,0.02515141979078762
1761468608161000400,6.35000048828125,0.10293547381758689,-0.001053098382661119,0.04359968868112191
1761468608170983400,6.3599833984375,0.1436386556059122,-0.007894511542911641,0.04069833208327182
1761468608180966400,6.36996630859375,0.10727788693606853,-0.019389755558106115,0.0474047617862001
1761468608190949400,6.379949462890625,0.14378887773156165,0.0025834543216740713,0.0552990678331349
1761468608200932600,6.3899326171875,0.12612988692224025,0.0136021120673744,0.06665882150093093
1761468608210916400,6.399916259765625,0.12522972321212292,0.03619827615108807,0.08595875705084763
1761468608220899300,6.4098994140625,0.13570260190963745,0.04398525849918369,0.09170212300843558
1761468608230882300,6.41988232421875,0.13240706749558448,0.045488123643072316,0.08974257730534299
1761468608240865500,6.429865478515625,0.11728899334073066,0.029118948882003313,0.05853981245318427
1761468608250848300,6.43984814453125,0.1443710615336895,-0.0015363929541548714,-0.0011968359685968607
1761468608260832300,6.449832275390625,0.1289589728683233,-0.03712136864564381,-0.045720005303341894
1761468608270815500,6.4598154296875,0.11848258703947066,-0.04932878408476244,-0.05103380247093737
1761468608280798500,6.469798583984375,0.11324468638598918,-0.01367130484606605,-0.009183706536656245
1761468608290781400,6.479781494140625,0.1295557697176933,0.013178671624069101,0.0311632822251413
1761468608300764400,6.489764404296875,0.13329670981168745,0.028549373399699107,0.054869288980588314
1761468608310747400,6.499747314453125,0.15439736550748348,0.033593678576685486,0.037662252323003485
1761468608320731400,6.5097314453125,0.09349486077725887,-0.002036049571982585,0.026614889072626827
1761468608330714400,6.51971435546875,0.1418266377478838,-0.018961835302505642,0.0001511537074111402
1761468608340697300,6.529697265625,0.10965279937386511,-0.03443059062513057,0.019618810507049785
1761468608350680300,6.539680419921875,0.1524532457023859,-0.0056375948950182645,0.03561215139278211
1761468608360663300,6.549663330078125,0.11250059002041816,0.011924607309210113,0.09411105644684284
1761468608370646500,6.559646484375,0.1332996324211359,0.04326204965801444,0.1153046419899445
1761468608380630500,6.569630615234375,0.14481705173552034,0.041752722807298415,0.1034532506139949
1761468608390613200,6.57961328125,0.11817863565683365,0.021136713389866054,0.08054580122455954
1761468608400596500,6.589596435546875,0.12655600337982176,-0.015898333245771935,0.00944726197682321
1761468608410579500,6.599579345703125,0.13598200337290764,-0.03891450827326625,-0.04130291038029827
1761468608420562400,6.6095625,0.12311492301523684,-0.04851500631673261,-0.07455100865601562
1761468608430545400,6.61954541015625,0.10695464633107185,-0.03176102435600478,-0.050573692412208764
1761468608440529400,6.629529296875,0.13538929817676543,-0.016269664475927127,-0.006650872723944485
1761468608450512400,6.639512451171875,0.16307810009121892,0.021043253819597884,0.02181140691419132
1761468608460495400,6.649495361328125,0.10651859300136565,0.05004557231829967,0.05870211774227209
1761468608470478300,6.659478271484375,0.126719669508934,0.0515756085969042,0.05559244302283041
1761468608480461300,6.66946142578125,0.1373468619853258,0.023149971174728123,0.0245857030662708
1761468608490445300,6.6794453125,0.12836977480351924,0.00041396022890694434,0.013339328378764911
1761468608500428500,6.689428466796875,0.1178968961060047,-0.019251397400186394,0.027823789938353
1761468608510411500,6.69941162109375,0.13675357226729393,-0.002431556262169033,0.06171035051438957
1761468608520394200,6.709394287109375,0.13241349723637102,0.02558467837520875,0.10999011416998691
1761468608530377500,6.71937744140625,0.14797522350549697,0.05005930401613004,0.1295052725063171
1761468608540360400,6.7293603515625,0.10951368316411972,0.03305144775903318,0.12321570737543515
1761468608550344400,6.739344482421875,0.13120938214361666,0.019266795898717826,0.07215540962321683
1761468608560327200,6.7493271484375,0.13973755651414393,-0.007015545884449966,0.021170834855176505
1761468608570310400,6.759310302734375,0.11340016920864582,-0.01602664493371267,-0.011753557024663314
1761468608580293400,6.76929345703125,0.12028174541592597,0.0030953721994534133,-0.016845080610550938
1761468608590276400,6.7792763671875,0.14093173473477363,0.020146122316783293,0.003767818967765197
1761468608600259300,6.78925927734375,0.14138064754605292,0.04553117276693228,0.041547761119995266
1761468608610243300,6.799243408203125,0.14557108497321605,0.040915874690935015,0.06201302325539291
1761468608620226300,6.809226318359375,0.10307575907111168,0.038054210782656445,0.06908080621715634
1761468608630209500,6.81920947265625,0.12686696902513503,0.0053206105008721345,0.04129745788704604
1761468608640192500,6.829192626953125,0.12955986137092113,-0.030209004574455318,0.006450125987455249
1761468608650175200,6.83917529296875,0.11938391979336738,-0.06018929669326171,0.0031172826371621337
1761468608660159200,6.8491591796875,0.15649813717901706,-0.04601517515790183,0.01221366708339192
1761468608670142500,6.859142578125,0.11115969680547713,-0.018058095962391232,0.07691805744776502
1761468608680125400,6.86912548828125,0.14483049573898316,0.016775422040978444,0.10303710756115615
1761468608690108400,6.8791083984375,0.1099631804972887,0.04089715172415599,0.10886447114092297
1761468608700091400,6.88909130859375,0.1436298877775669,0.029088699874212032,0.06848276725877075
1761468608710074400,6.899074462890625,0.12432546784877777,0.0036425623200135302,0.026105414313683285
1761468608720058400,6.909058349609375,0.12387597051560878,-0.008329989483882673,-0.005876746546290814
1761468608730041600,6.91904150390625,0.11444821695685387,0.005462357059121132,-0.010905571026355027
1761468608740024300,6.9290244140625,0.14243044885993003,0.03868640317239333,0.00827639156654477
1761468608750007300,6.93900732421875,0.1347971775025129,0.0461492361666169,0.03930061238086782
1761468608759990500,6.948990478515625,0.11564239517748355,0.048270580268721094,0.04451029158686287
1761468608769974500,6.958974609375,0.13703998799324035,0.02757437718797009,0.03792872123946436
1761468608779957200,6.968957275390625,0.12387246338427066,0.0058458810505690045,0.03756933160885237
1761468608789940500,6.9789404296875,0.12042612232267856,-0.003402543019060977,0.029480407172115516
1761468608799923500,6.98892333984375,0.12296703897714614,-0.02044764884689357,0.03892348616416566
1761468608809906400,6.998906494140625,0.13823007456064224,-0.021214326937031,0.04334610664569773
1761468608819889400,7.008889404296875,0.13254384561777113,-0.021673172053857704,0.05514129258869215
1761468608829873400,7.018873291015625,0.10800444764494896,-0.020318250313564202,0.05775142942131497
1761468608839856400,7.0288564453125,0.13404255974292753,-0.0013996467980090528,0.04656912381281145
1761468608849839400,7.03883935546875,0.11728373264372348,-0.008762270820769481,0.05046447815038264
1761468608859822600,7.048822509765625,0.13299509651660918,0.005735863071144558,0.04067551746326498
1761468608869805300,7.058805419921875,0.1406277833521366,0.02448952638253104,0.03686211492125876
1761468608879789300,7.068789306640625,0.11653554462492466,0.02077845170383807,0.03872485831952654
1761468608889772300,7.078772216796875,0.11862813299000262,0.03378902305227238,0.045576002855924884
1761468608899755500,7.088755615234375,0.11682897461354731,0.026800429106829688,0.033996258895052596
1761468608909738200,7.09873828125,0.1431640238314867,0.0366599205797771,0.015477472918620332
1761468608919721500,7.108721435546875,0.14196692300140856,0.018753151854733006,0.012654259590897709
1761468608929704400,7.118704345703125,0.11024141291677951,0.019573441561940123,0.01883662888710387
1761468608939688400,7.1286884765625,0.13732523467540741,0.014891211162996477,0.009527569804573432
1761468608949671400,7.13867138671875,0.13762334083914757,0.013564917295565828,0.01970258893352002
1761468608959654400,7.148654296875,0.11263093840181827,0.012534222540957853,0.036821362785762174
1761468608969637400,7.158637451171875,0.1427104348450899,0.0011725874433293937,0.034052418662235136
1761468608979620400,7.168620361328125,0.10919044255912304,-0.01642674560062587,0.03460185097223147
1761468608989604400,7.178604248046875,0.15064356593191622,-0.010994569050637074,0.04555757215009071
1761468608999587300,7.18858740234375,0.12385960390269755,-0.0018268957667518407,0.07703838675864971
1761468609009570300,7.1985703125,0.1287982293486595,0.011072968049091286,0.09231772502297535
1761468609019553500,7.208553466796875,0.12355974417328834,0.01727326572763268,0.09198074815357103
1761468609029536500,7.21853662109375,0.1356786365121603,0.016163879713625647,0.0793695239868015
1761468609039519200,7.228519287109375,0.13358137197196482,0.013836181118153035,0.051427505363104864
1761468609049503200,7.238503173828125,0.12834288679659367,0.007082711102836765,0.027171253446908666
1761468609059486500,7.248486572265625,0.1251993280738592,-0.007882378147123382,0.0018594371963292359
1761468609069469400,7.258469482421875,0.11696809082329272,-0.011527479484095238,-0.0008425974371377378
1761468609079452200,7.2684521484375,0.12714520144462585,-0.006599708792287856,-0.0022013642354868353
1761468609089435400,7.278435302734375,0.14001520441174506,0.012718776194471865,0.006200160681223497
1761468609099419400,7.28841943359375,0.09751637137830257,0.02344057445202488,0.029711603845795614
1761468609109402400,7.29840234375,0.14884323851168155,0.029038828283920883,0.03311795995687134
1761468609119385600,7.308385498046875,0.14525252054333687,0.03826778960125521,0.05678581752586178
1761468609129367800,7.318367919921875,0.11876783372163773,0.02586992049079854,0.07229952166848816
1761468609139350800,7.328350830078125,0.12864391556978225,0.02053177889981307,0.07055961919859982
1761468609149334800,7.338334716796875,0.13358078745007515,0.014170714868721552,0.05968499129978008
1761468609159317800,7.34831787109375,0.12190730079114437,0.006645032071624882,0.06182509946785867
1761468609169300700,7.35830078125,0.12789338946342468,-0.0004591099783079698,0.055427014194894576
1761468609179284000,7.368283935546875,0.1252004971176386,0.0032040019393898547,0.045611914419522503
1761468609189267000,7.378266845703125,0.12130758133232593,0.0007216607714770362,0.03387862386475317
1761468609199249700,7.388249755859375,0.12968494905531405,-0.004557549139927141,0.019386910580471158
1761468609209233700,7.398233642578125,0.1234001696974039,-0.0018990339877782388,0.011371407572971656
1761468609219217000,7.408216796875,0.14554887314140796,-0.007453252315125428,-0.005796164723904803
1761468609229200000,7.418199951171875,0.12519757450819013,-0.014640149878221563,-0.010649267310881987
1761468609239182600,7.4281826171875,0.14180793304741382,0.005704499818501062,0.010071467422926798
1761468609249165800,7.438165771484375,0.1305892044186592,0.031622296305326744,0.03375960972812027
1761468609259149800,7.44814990234375,0.1195177753061056,0.03915353206037543,0.05670455985004082
1761468609269132800,7.4581328125,0.10559972459077835,0.04017892501878086,0.07543681504721753
1761468609279116000,7.468115966796875,0.14345803834199905,0.03825019001248292,0.07517467524600215
1761468609289098800,7.4780986328125,0.1588748031824827,0.03122489905215334,0.05821863594111055
1761468609299081700,7.488081787109375,0.09258183758556843,0.00416833519320935,0.07226121721840463
1761468609309065700,7.498065673828125,0.14136252736747265,-0.005501246031094342,0.04739064192930236
1761468609319049000,7.508049072265625,0.1516898601144552,-0.02283942108794581,0.037656991625996304
1761468609329031700,7.51803173828125,0.09093757750988006,-0.028458484812430105,0.04363554544579237
1761468609339014700,7.5280146484375,0.14301204814016819,-0.019276180214993655,0.027713826757855713
1761468609348998000,7.537997802734375,0.11248480792939662,-0.006013835195731372,0.04094771286761388
1761468609358980900,7.54798095703125,0.11637538562715052,0.000026540947053581475,0.03955016669514589
1761468609368964900,7.55796484375,0.12849661605358123,-0.0033168374969856813,0.03858218931267038
1761468609378947800,7.56794775390625,0.11547697548270225,0.01071007128714118,0.03991454302812926
1761468609388930800,7.577930908203125,0.14929741201996802,0.015290544644929467,0.024678906908212228
1761468609398913800,7.587913818359375,0.11787409975230694,0.0207581350015942,0.042601087831519543
1761468609408897000,7.59789697265625,0.13897358640432356,0.039584132896829397,0.042548161201039325
1761468609418880800,7.607880859375,0.13193711189627647,0.036696001106733454,0.06274533785162494
1761468609428863700,7.61786376953125,0.14600363117158413,0.042448468252806924,0.05840788403605111
1761468609438846700,7.6278466796875,0.10485270561575889,0.020932582819624804,0.04901775907394476
1761468609448830000,7.637829833984375,0.12340718396008014,0.010288384409504941,0.025136477949982507
1761468609458812700,7.647812744140625,0.12161270175874232,-0.01375963615006767,0.015124741357658058
1761468609468796700,7.657796630859375,0.12759703686535356,-0.004440813725348562,0.01283310502283275
1761468609478780000,7.66777978515625,0.10111059647798537,-0.008486075094738043,0.02566461174362339
1761468609488763000,7.677762939453125,0.13702303685843945,-0.0047114108276553445,0.02685205882936716
1761468609498745900,7.687745849609375,0.1304407358586788,-0.009013144875876605,0.04100052990023978
1761468609508728800,7.697728759765625,0.12191256148815155,0.004068080555973574,0.0579745980521664
1761468609518712800,7.707712890625,0.13298808225393294,0.006446600589808076,0.06514674557070248
1761468609528695800,7.71769580078125,0.12790274181365965,0.016205074807116762,0.06134503346648998
1761468609538678800,7.7276787109375,0.11832651969492435,0.02711346341164317,0.060397861410025504
1761468609548661800,7.737661865234375,0.13209142567515372,0.029048819954972712,0.059019540527835486
1761468609558644700,7.747644775390625,0.1328372756063938,0.03538685017034877,0.047897440673969685
1761468609568627700,7.757627685546875,0.1216138708025217,0.04430598748668562,0.03281957066534087
1761468609578612000,7.767612060546875,0.1271463704884052,0.038200994275626725,0.04104491703123785
1761468609588595000,7.777594970703125,0.12250643572807311,0.032165321707422846,0.03109792537135072
1761468609598577700,7.78757763671875,0.14270926580131052,0.020571909980801863,0.0011786335916258394
1761468609608561000,7.797560791015625,0.0991618004977703,0.0066712396585382515,0.007930144545296206
1761468609618543900,7.8075439453125,0.12609540013074874,0.00022588117774575948,0.005111817455245181
1761468609628527900,7.81752783203125,0.13507657896578312,-0.010891679498320445,0.02314056402556598
1761468609638510600,7.827510498046875,0.11861702707409857,-0.01545121966593433,0.044387806851509955
1761468609648493800,7.837493896484375,0.14106442120373247,-0.006590918131056242,0.048100973022589456
1761468609658476800,7.847476806640625,0.12310907779633998,-0.0020217470519943164,0.06148430493986234
1761468609668459800,7.857459716796875,0.11966799743175506,-0.003406100382748991,0.07250444225659594
1761468609678444000,7.867444091796875,0.1172743802934885,0.0048110672432696445,0.07106694766622967
1761468609688426800,7.8774267578125,0.12026596332490444,0.0005724980917526409,0.05310247110431082
1761468609698409700,7.88740966796875,0.14316168574392796,-0.00009293441388290375,0.03484830001397058
1761468609708393000,7.89739306640625,0.1338864923983812,0.020512891536252572,0.03522881463100202
1761468609718376000,7.9073759765625,0.13283902917206286,0.02946874870036263,0.039326048216223715
1761468609728359700,7.917359619140625,0.12505845829844475,0.04162738852773327,0.04104480743338354
1761468609738342700,7.9273427734375,0.12730243783295153,0.03174705976273399,0.0377146583636757
1761468609748326000,7.937325927734375,0.1475035143405199,0.033157602414092976,0.02723707609158009
1761468609758308900,7.947308837890625,0.11323884116709232,0.0252590403171489,0.03155201668124646
1761468609768291600,7.95729150390625,0.12969956210255623,0.006760360980406403,0.023218478966830297
1761468609778275800,7.96727587890625,0.1277571958631277,-0.006771279666642658,0.024746958042588082
1761468609788258800,7.9772587890625,0.11324234829843044,-0.007594839043170213,0.0428715022707358
1761468609798241800,7.98724169921875,0.1285071374475956,0.008946856440324336,0.057160888782795516
1761468609808225000,7.99722509765625,0.10306932933032512,0.0058364921677159145,0.07067214879551902
1761468609818206700,8.007206787109375,0.14541852476000786,0.012064732732530682,0.04919344443441368
1761468609828190700,8.017190673828125,0.11893383793830871,-0.002827752505522221,0.05660447874274104
1761468609838174000,8.027174072265625,0.12477028900682925,-0.01170347993839532,0.040355838788533584
1761468609848156700,8.03715673828125,0.11788754375576972,-0.020700577861769123,0.035407550465082746
1761468609858139600,8.0471396484375,0.13360124571621418,-0.014679541173693723,0.026629748715041205
1761468609868123000,8.057122802734375,0.11714169382452964,-0.013222378335054963,0.04202941629025154
1761468609878107000,8.06710693359375,0.12058394323289394,0.009790435691573656,0.042261307083675634
1761468609888089900,8.07708984375,0.1258218438863754,0.032970948135037904,0.06521315273726358
1761468609898072800,8.08707275390625,0.11908815171718597,0.039896779042575506,0.0682967796999961
1761468609908055800,8.097055908203124,0.13973814103603363,0.03745952369198203,0.04655324125709012
1761468609918038800,8.107038818359374,0.1285159052759409,0.033239252815558576,0.02556296886689961
1761468609928022800,8.117022705078124,0.12552315320074559,0.015161255709454416,0.02113764497162774
1761468609938006000,8.127006103515624,0.12582067484259604,0.015118416648148558,0.02591177317141555
1761468609947988700,8.13698876953125,0.12372516386806964,0.006699410873674787,0.026307430558651684
1761468609957971700,8.1469716796875,0.1352478438794613,0.0005635293340077623,0.03186100956518203
1761468609967955000,8.156954833984376,0.09648936641812324,-0.002875267741945572,0.04165113016292452
1761468609977939000,8.16693896484375,0.13704115703701972,0.0024782312483759596,0.04121736012184992
1761468609987921700,8.176921630859376,0.1325537824898958,-0.0008992001623148098,0.03324116621143185
1761468609997905000,8.18690478515625,0.10546937620937824,-0.013236552990879863,0.021482631617551668
1761468610007888000,8.196887939453125,0.15350655414760112,-0.003458223295630887,0.015380433151777832
1761468610017870800,8.206870849609375,0.09065992961227894,-0.013849771252088248,0.03564196200915612
1761468610027854800,8.216854736328125,0.13480477628707885,-0.00024521606587804855,0.04146792821628041
1761468610037837800,8.226837890625,0.14183832818567751,0.027728353040129876,0.06127724719359539
1761468610047820800,8.23682080078125,0.13331073833703994,0.0408298860410694,0.07586407314911485
1761468610057803800,8.2468037109375,0.13346212950646877,0.02694149524506647,0.06874777487050741
1761468610067786800,8.256786865234375,0.09904372707605362,0.03061388644776307,0.05739339149757288
1761468610077770800,8.266770751953125,0.13016776413619519,0.01700372350467369,0.04096207931968383
1761468610087753700,8.276753662109375,0.14752455712854862,0.004235664808377624,0.027635948349209502
1761468610097737000,8.286737060546875,0.16204174278080463,0.0017513234796235338,0.013637443675659597
1761468610107720000,8.296719970703125,0.10083879379928111,0.003081722700013779,0.030359811221994458
1761468610117702700,8.30670263671875,0.15201602332890032,0.008060483793541788,0.027266393517609684
1761468610127686000,8.316685791015624,0.1126601644963026,0.01159112843798939,0.04119773297277279
1761468610137671000,8.3266708984375,0.1334609604626894,0.012545885579288004,0.02669474024265073
1761468610147654100,8.336654052734374,0.10353343971073627,-0.004906851201364771,0.031016813826002177
1761468610157637000,8.34663720703125,0.12957096728682518,-0.011909409740078262,0.004016651762835681
1761468610167619800,8.356619873046874,0.07000994029343127,-0.012232266752584837,0.03187536688409746
1761468610177603800,8.366603759765624,0.14153613036870955,-0.003200449142279103,0.026937188962707293
1761468610187587000,8.376587158203124,0.10471943462491035,0.013410553284338675,0.061586011748667804
1761468610197570000,8.386570068359376,0.14721417600512504,0.015256277049146592,0.057849893960263576
1761468610207553000,8.396552978515626,0.13135025191903113,0.009092457189783453,0.06807066106023267
1761468610217536000,8.406535888671876,0.19735095657110213,0.015124969686521217,0.046870116053381934
1761468610227519000,8.41651904296875,0.09469956039190291,0.008716700946260243,0.06406367217488587
