time,seconds_elapsed,z,y,x
1761468581746099000,0.118098876953125,0.1363192725032568,0.043441096019349056,0.05495512236682698
1761468581756082200,0.128082275390625,0.12475392239391803,0.04402798796263523,0.03293513246956281
1761468581766065200,0.138065185546875,0.1428629950582981,0.03039646257110871,0.005687347754300571
1761468581776048000,0.148048095703125,0.12052666008770466,0.010548195256316102,-0.021896505081490613
1761468581786032000,0.1580322265625,0.13905775755643843,0.002695540960598737,-0.045986661449470556
1761468581796015000,0.16801513671875,0.13215981473624705,-0.004240756542026065,-0.04521771377043333
1761468581805998000,0.177998046875,0.12184767955839633,-0.0092812851596158,-0.03819014865462668
1761468581815981000,0.18798095703125,0.12323124287128448,-0.005387579356436617,-0.02784151282471139
1761468581825964300,0.19796435546875,0.13195464755296707,-0.006238227669289336,-0.013181872794730588
1761468581835948300,0.2079482421875,0.12256138078570365,0.0025175175125710667,0.0010644371940055862
1761468581845931000,0.217930908203125,0.1435211667060852,0.031021914692805148,0.023884021070320158
1761468581855914200,0.227914306640625,0.13782792350053785,0.05092126830744091,0.05459034417504444
1761468581865897200,0.237897216796875,0.13002981697022914,0.04984370220380369,0.066479839071678
1761468581875880000,0.2478798828125,0.14063187500536442,0.027078698058938606,0.04794429832326714
1761468581885864000,0.257864013671875,0.1325327397018671,-0.001230308979935944,0.008483129652403295
1761468581895847200,0.26784716796875,0.11561258456110954,-0.029910076426807788,-0.03297993515909184
1761468581905830100,0.277830078125,0.12428981201350688,-0.03415683345135767,-0.06375327278515323
1761468581915813000,0.287813232421875,0.1311778179615736,-0.03283160359642934,-0.05572752694485243
1761468581925796000,0.297796142578125,0.12894903599619864,-0.019977044793614184,-0.04609005789186339
1761468581935780000,0.307780029296875,0.11925064880251884,-0.007257382683153264,-0.02263947350247763
1761468581945763000,0.31776318359375,0.1330471189647913,-0.007494689437211491,-0.016116172680957244
1761468581955746000,0.32774609375,0.12707564333975313,-0.007030474025523289,-0.007335256525222211
1761468581965729000,0.33772900390625,0.1390460671186447,-0.012544474506913683,0.00047591041605919595
1761468581975713000,0.347713134765625,0.1327495973229408,-0.010198157975939101,0.008616615272383206
1761468581985696000,0.357696044921875,0.12884089944660662,0.002257944127777591,0.029686661200784146
1761468581995679200,0.36767919921875,0.15097440532147882,0.015395142097142524,0.04311450811321847
1761468582005662200,0.377662109375,0.13255904318690298,0.02379726066889707,0.04906616479293443
1761468582015645000,0.38764501953125,0.1229775603711605,0.031205034441058523,0.029662960664788258
1761468582025629000,0.39762890625,0.12491992661058902,0.02491248276864644,-0.0019740308861713857
1761468582035612200,0.407612060546875,0.12372165673673152,0.010419559341389686,-0.0258590246374486
1761468582045595100,0.41759521484375,0.14422025488615034,0.00888106119511649,-0.026990887344744988
1761468582055578000,0.427578125,0.09932897375822067,0.021245484693697653,-0.02878213640938047
1761468582065561000,0.43756103515625,0.13838731094896792,0.024248068609740582,-0.011714124629995786
1761468582075545000,0.447545166015625,0.13704817129969596,0.02716328020300716,-0.018412731786072254
1761468582085528000,0.457528076171875,0.13376900349855422,0.0077653230721363795,-0.022902709282236172
1761468582095511300,0.46751123046875,0.12479951510131358,-0.0004828653132310137,-0.029724714489118193
1761468582105493500,0.477493408203125,0.16176234131753445,-0.02253156528174877,-0.051537555308570154
1761468582115476700,0.487476806640625,0.1250987903088331,-0.028562917867861685,-0.05026997849158942
1761468582125460700,0.497460693359375,0.12943652725219726,-0.035567394369025715,-0.043112950910371726
1761468582135443500,0.507443359375,0.11806231580078601,-0.019534849417489022,-0.007304655890981666
1761468582145426400,0.517426513671875,0.14140636650919913,-0.002757861040509306,0.017910353488195686
1761468582155409700,0.52740966796875,0.12554536503255367,0.020611333242314865,0.05215026667970232
1761468582165393700,0.5373935546875,0.13257540979981422,0.018404279051558114,0.04361080373018048
1761468582175376400,0.54737646484375,0.1203027882039547,0.008660650776932016,0.03637208008172456
1761468582185359400,0.557359375,0.11864800673425197,-0.0034672879514982924,0.0027959508614614605
1761468582195342600,0.567342529296875,0.12058452775478362,-0.005537376790400594,-0.00924498543695081
1761468582205325600,0.57732568359375,0.13015198204517364,0.005451301375566982,-0.008912049988424405
1761468582215309600,0.5873095703125,0.13717968872487543,0.00656087005266454,-0.0019987634686287493
1761468582225292500,0.59729248046875,0.13403788356781005,0.009876976897288113,-0.009213416688330471
1761468582235275500,0.607275634765625,0.1337438690572977,0.01607563974116929,-0.004101293272408656
1761468582245258500,0.617258544921875,0.13000760513842105,0.01793922795623075,-0.015754435829631982
1761468582255241700,0.62724169921875,0.1481178468465805,0.016349406048096714,-0.0238028866920853
1761468582265225500,0.6372255859375,0.13285364221930504,0.01322654305351898,-0.01053030797317624
1761468582275208400,0.64720849609375,0.11339783112108706,-0.0014498837144812568,-0.012967161464970558
1761468582285191400,0.65719140625,0.1316524497359991,0.007943570282449946,-0.003912415070226416
1761468582295174700,0.667174560546875,0.13240063775479793,0.0044537188726942985,-0.004576253840397112
1761468582305158700,0.67715869140625,0.13150164308845996,-0.012045438943593762,-0.02097172295334749
1761468582315141400,0.687141357421875,0.11698971813321113,-0.0059549811479635536,-0.019328152430825866
1761468582325124600,0.69712451171875,0.15754384683966635,-0.023275424185302106,-0.015933751619025133
1761468582335107600,0.707107666015625,0.11309271069467067,-0.022352989277872257,-0.003757050978578627
1761468582345090600,0.717090576171875,0.14092647403776645,-0.005595413420838304,0.0004038543934235349
1761468582355074600,0.727074462890625,0.10440262376070022,-0.013495318091497756,0.015189860749430954
1761468582365057500,0.7370576171875,0.12595043870210648,-0.005518297630595043,0.011316599512659013
1761468582375040500,0.74704052734375,0.14989011721611023,0.006417200965387746,0.014385974187753163
1761468582385023500,0.7570234375,0.15092121382951734,0.016320116021530703,0.00907373422300443
1761468582395007500,0.767007568359375,0.10736790330708026,0.026196645394247025,0.021693328925897367
1761468582404990500,0.776990478515625,0.15150105954408644,0.03449087401158176,0.031278675066004506
1761468582414973400,0.786973388671875,0.13114566925764082,0.033428204082977024,0.04283271376346238
1761468582424956700,0.796956787109375,0.11588146463036536,0.028390958834439515,0.03086547288892325
1761468582434939600,0.806939697265625,0.13339023331403732,0.008320422504516319,-0.007368464675080031
1761468582444923600,0.816923583984375,0.12261457227766513,-0.03024977954283822,-0.043670351897692306
1761468582454906400,0.82690625,0.11573065798282622,-0.0349005325247068,-0.059726350790052674
1761468582464889600,0.8368896484375,0.12860066094994543,-0.03486070283781737,-0.04676769229194615
1761468582474872600,0.84687255859375,0.1441653098285198,-0.031215706532122564,-0.032400116843986325
1761468582484855300,0.856855224609375,0.12157412331402301,-0.027028493108507246,-0.010396950217359698
1761468582494839600,0.866839599609375,0.10377075559794902,-0.028051246585254555,0.0033316332073183726
1761468582504822500,0.876822509765625,0.1253220776706934,-0.03555296398487408,-0.0053108654249925166
1761468582514805500,0.886805419921875,0.12816811475157738,-0.038830670481291595,-0.0021925964071415364
1761468582524788700,0.896788818359375,0.13445289410948752,-0.024084297449351286,0.024481338509498164
1761468582534772700,0.906772705078125,0.11918752043843268,-0.008835066628921777,0.04502505900885444
1761468582544755500,0.91675537109375,0.1386409934490919,0.01973615784298163,0.06461896797008812
1761468582554738400,0.926738525390625,0.12741641960144043,0.024712640214455312,0.07810774215636775
1761468582564721700,0.9367216796875,0.1428279237449169,0.0603163114732597,0.09999594976697117
1761468582574704600,0.94670458984375,0.12950725440084934,0.07699033723268657,0.07786680040680803
1761468582584688400,0.9566884765625,0.13324527188539503,0.03294553056599107,0.01644314417957794
1761468582594671400,0.96667138671875,0.13518763812482357,0.0053602620912482956,-0.03165012502716854
1761468582604654600,0.976654541015625,0.12111936528384684,-0.018607016815734095,-0.04717880297664087
1761468582614637600,0.986637451171875,0.13398878372907638,-0.024839956388552673,-0.0548074209918268
1761468582624621600,0.99662158203125,0.1423702431052923,-0.011403021987364627,-0.05738021692216862
1761468582634604500,1.0066044921875,0.1139408519566059,0.00009686623690649867,-0.030607529772212726
1761468582644587500,1.01658740234375,0.1348942081362009,0.012467801674664951,-0.0223393671778962
1761468582654570500,1.026570556640625,0.1289116265952587,0.008853629765496588,-0.010500058965384959
1761468582664553700,1.0365537109375,0.12322656669616698,-0.005338922475697472,-0.010538536945404485
1761468582674537500,1.046537353515625,0.13175591011047363,-0.0007666826567146927,-0.006427261135098524
1761468582684520400,1.0565205078125,0.13818974255025385,0.003294374503428116,0.0013493185499915852
1761468582694503400,1.06650341796875,0.12457038252055644,0.013775148813030682,0.014942343128612263
1761468582704486700,1.076486572265625,0.12456862895488738,0.03393294330129865,0.03462393037329893
1761468582714470700,1.086470703125,0.12561492313742637,0.027682477204944007,0.042100303269107825
1761468582724453400,1.096453369140625,0.13444295723736285,0.006991196894482709,0.016337870873929933
1761468582734436600,1.1064365234375,0.11947802781760691,-0.019131976838177068,-0.00810886211306788
1761468582744419600,1.116419677734375,0.1339922908604145,-0.02225559788458049,-0.010115681023988873
1761468582754402600,1.126402587890625,0.12710837656557558,-0.021691301365592514,0.00045361638586036856
1761468582764386300,1.13638623046875,0.13174655776023864,0.003355520972982049,0.020616205780254675
1761468582774369500,1.14636962890625,0.12202186708152293,0.0104039690466132,0.019488740686862727
1761468582784352500,1.1563525390625,0.12142974640727043,0.01720850252888631,0.014806916713295504
1761468582794335500,1.16633544921875,0.13146657177507876,-0.0013870841439580545,0.007701569086965173
1761468582804319700,1.17631982421875,0.13371405844092368,-0.010787223610002547,-0.0021997796331765128
1761468582814302500,1.186302490234375,0.12652736180722712,-0.029374791373172775,-0.008479850849928333
1761468582824285400,1.196285400390625,0.126973352009058,-0.036678378685074856,-0.02041604813223239
1761468582834268700,1.2062685546875,0.1173959608465433,-0.047574725225358265,-0.031134403190528973
1761468582844251600,1.216251708984375,0.12787176215350626,-0.03193500638315454,-0.02754074891300406
1761468582854235400,1.2262353515625,0.14463409638404845,0.004326726925582625,-0.013717057383665814
1761468582864218400,1.23621826171875,0.12398644515275954,0.020700856422982177,0.028626457223901523
1761468582874201600,1.24620166015625,0.14418869070410728,0.0457519256784115,0.04642422631625086
1761468582884184600,1.2561845703125,0.13117138822078703,0.053596277936664403,0.046788867510715496
1761468582894168600,1.26616845703125,0.1254834057122469,0.03339620607609395,0.043911124683893285
1761468582904151600,1.276151611328125,0.13984627758562565,0.013391926215682177,0.014323197450116275
1761468582914134500,1.286134521484375,0.12787293119728566,-0.013018266031122766,-0.0053892461571376764
1761468582924117500,1.296117431640625,0.12607611090838908,-0.021123118689353577,-0.0019172363647492602
1761468582934100700,1.306100830078125,0.1256266135752201,-0.01719743314560037,-0.003939627304137684
1761468582944084700,1.316084716796875,0.13625263700783252,-0.021129525597253812,-0.0004304501394042745
1761468582954067500,1.3260673828125,0.11051789177060127,-0.011969866656465456,0.006409099857322871
1761468582964050400,1.336050537109375,0.1346107150197029,-0.00014058208104688672,-0.008693689963431096
1761468582974033700,1.34603369140625,0.13670797955989836,-0.0017790700030745937,0.003042851994349621
1761468582984017700,1.356017578125,0.13775544278621674,0.005195837910310365,-0.01963611783487722
1761468582994000400,1.36600048828125,0.12308978857398033,0.0032587415010435503,-0.03140505052518565
1761468583003983600,1.375983642578125,0.12907412368059157,0.005201874925452284,-0.03435598188580479
1761468583013966600,1.385966552734375,0.13550912516415117,0.005606336673651822,-0.031102217953978103
1761468583023950600,1.39595068359375,0.13087152849137781,0.011324248529574834,-0.016294260061066598
1761468583033933600,1.40593359375,0.12742986360490322,0.02838333265041001,0.012558576097502373
1761468583043916500,1.41591650390625,0.1257838499635458,0.053695080402330495,0.04787946205928456
1761468583053899500,1.4258994140625,0.12922434580624104,0.07352176150640007,0.06628489188831299
1761468583063882500,1.435882568359375,0.13849895462989806,0.07680713528604247,0.05125000250488519
1761468583073866500,1.445866455078125,0.14193711238503456,0.03600377649229485,0.017338951374986207
1761468583083849500,1.455849365234375,0.12637012541890144,-0.0018164794040145351,-0.02816448400164954
1761468583093832400,1.46583251953125,0.13295184189677237,-0.034710183884645814,-0.0603214077734854
1761468583103816400,1.47581640625,0.129360539406538,-0.039812288230052215,-0.05267772461990825
1761468583113800400,1.485800537109375,0.11140461147725582,-0.035567229972244235,-0.02796105668430682
1761468583123783700,1.49578369140625,0.12562369096577167,-0.045165864852187224,-0.0166708976540016
1761468583133766400,1.505766357421875,0.12921850058734416,-0.048655405734688975,-0.014224445216800085
1761468583143749400,1.515749267578125,0.13101824348568916,-0.047933530334080564,-0.013155327281099744
1761468583153733400,1.5257333984375,0.12069617143571376,-0.03973124061678536,-0.003526945716864429
1761468583163716600,1.535716552734375,0.1277314768999815,-0.01742040998020675,0.024413314774585887
1761468583173699600,1.545699462890625,0.135513216817379,0.016229158935602752,0.057871891162940295
1761468583183682600,1.5556826171875,0.1477817467600107,0.038336813416588116,0.06853007243264
1761468583193665500,1.56566552734375,0.12787643832862378,0.05028655060047749,0.06993535438699182
1761468583203649500,1.5756494140625,0.1269768591403961,0.037590771689102985,0.02807632622758392
1761468583213632500,1.585632568359375,0.1411906779319048,0.013936842180765232,0.0031700996697880328
1761468583223615700,1.59561572265625,0.12113806998431682,0.005219296417711302,-0.01985938236385118
1761468583233598500,1.605598388671875,0.12353051807880401,0.014267722669523208,-0.025839438587566835
1761468583243582500,1.61558251953125,0.11095979031920432,0.026358955249912105,-0.03038940264265984
1761468583253565400,1.6255654296875,0.13460428527891635,0.01569967343509197,-0.03555396863187198
1761468583263548700,1.635548583984375,0.1320621995806694,0.0019107563916128127,-0.04046613076259382
1761468583273531400,1.645531494140625,0.11620412071347236,-0.011146873535518534,-0.04038458995898254
1761468583283515400,1.655515380859375,0.12608254064917562,-0.024756538721686226,-0.044835431888001036
1761468583293498600,1.66549853515625,0.12817863614559172,-0.029043303529638794,-0.015317085591983049
1761468583303481600,1.675481689453125,0.12024842766821384,-0.01292851908816956,0.01654585106880404
1761468583313464600,1.685464599609375,0.14449030399918555,0.015123613413074053,0.0476192539202515
1761468583323448300,1.6954482421875,0.12758067025244235,0.028275575126730835,0.055634446400497105
1761468583333431600,1.705431640625,0.11321429124772547,0.02533744844875764,0.039584607820864766
1761468583343414500,1.71541455078125,0.1229383974045515,0.014907550376444123,0.009734536219295114
1761468583353397500,1.7253974609375,0.14987141251564026,0.006721946932468563,-0.02128290322779212
1761468583363380500,1.73538037109375,0.11799451126158236,0.011440910878917201,-0.010993162544840014
1761468583373364500,1.745364501953125,0.13714695549905298,-0.004601379148499109,-0.005646513420413248
1761468583383347500,1.755347412109375,0.11589783124327659,-0.015794918537070043,0.008634055030951276
1761468583393330700,1.76533056640625,0.13475392288267612,-0.018299877962167373,0.0001736760664731264
1761468583403313700,1.775313720703125,0.10692366667091846,-0.015990272145811467,-0.01185585292193573
1761468583413297400,1.78529736328125,0.12054302670061588,-0.022427538651693613,-0.026443377563776446
1761468583423280400,1.7952802734375,0.13371230487525462,-0.03433933214510325,-0.0214924862912856
1761468583433263600,1.805263671875,0.11231354301571846,-0.022287184899509885,-0.02013657360372599
1761468583443246600,1.81524658203125,0.1289250705987215,0.0019266206810250877,-0.0063624751034658394
1761468583453230600,1.825230712890625,0.13116963465511797,0.00017200469919480382,0.025951022902992553
1761468583463213600,1.835213623046875,0.1346118840634823,0.026470932290982453,0.04714744429057464
1761468583473196500,1.845196533203125,0.13371288939714432,0.032207384450593964,0.05671048270075116
1761468583483179500,1.855179443359375,0.13999474614560603,0.030905389340780673,0.041881664682901464
1761468583493163500,1.86516357421875,0.1295166067510843,0.02077485324095469,0.03386931718029081
1761468583503146500,1.875146484375,0.13684709576964377,0.0027302378146443515,-0.0007329813165124505
1761468583513129500,1.88512939453125,0.12696984487771987,0.0006693003965774551,-0.025844384190742857
1761468583523112400,1.895112548828125,0.13130875086486338,-0.002202839239942841,-0.04082393579089548
1761468583533096400,1.905096435546875,0.13100889113545416,-0.013549491397570819,-0.049500528489053244
1761468583543079700,1.91507958984375,0.13370470609068869,-0.0157204422284849,-0.05965695251538418
1761468583553062400,1.9250625,0.1009352399110794,-0.026287890174542552,-0.046622648664913134
1761468583563045400,1.93504541015625,0.14373510171771048,-0.024667065773368812,-0.03471186438507866
1761468583573028600,1.945028564453125,0.1368546945542097,-0.014690368528384715,0.011603042638069019
1761468583583012600,1.9550126953125,0.1133615907639265,0.0017126263038953766,0.03301813001132104
1761468583592995600,1.96499560546875,0.14613281050920485,0.0154386113461107,0.035569700490543615
1761468583602978600,1.974978515625,0.13610592201352117,0.01149132589190267,0.04753750305408612
1761468583612961500,1.98496142578125,0.11350889028012752,0.009017789084953256,0.04305881870349403
1761468583622945500,1.994945556640625,0.14657821618914604,-0.003153052636864595,0.028417202953970988
1761468583632928500,2.004928466796875,0.11455459994077682,-0.01360087452493608,0.014546055553713813
1761468583642911500,2.014911376953125,0.1361012458384037,-0.010681082654674537,-0.003162555684149265
1761468583652894500,2.02489453125,0.11589958480894565,-0.006022708055353723,-0.0058337476547807455
1761468583662878500,2.03487841796875,0.1251771162420511,-0.0006018337840912863,-0.014986835290887393
1761468583672861700,2.04486181640625,0.13490414500832557,0.021097354060434736,-0.011171441721194423
1761468583682844700,2.0548447265625,0.13191314649879932,0.02687399666653946,-0.016579050085507332
1761468583692827400,2.064827392578125,0.12323533452451228,0.032012140439706856,-0.018191828177543355
1761468583702811400,2.074811279296875,0.13086743683815003,0.023453086873725985,-0.024583917534560896
1761468583712794600,2.084794677734375,0.14179215095639228,0.012798275738046504,-0.02141308264583349
1761468583722777600,2.094777587890625,0.12533201454281806,0.0032974067107308653,-0.010754262055316939
1761468583732760300,2.10476025390625,0.13326163849830627,0.008901409863401204,-0.010627388839214108
1761468583742744300,2.114744384765625,0.12099018594622611,-0.007637700937362387,0.008169506259122864
1761468583752727600,2.1247275390625,0.14358487959206104,-0.012521472657239064,0.005824938727240078
1761468583762710500,2.13471044921875,0.12622633303403855,-0.02399919471547473,-0.0019451975173316895
1761468583772693800,2.14469384765625,0.1307154611468315,-0.031290137174935076,-0.00043597569789271797
1761468583782677500,2.154677490234375,0.11216039828062056,-0.02139029085871298,0.006546941992011853
1761468583792660500,2.164660400390625,0.13535305781960486,-0.02413794103246182,0.003902249869238585
1761468583802643500,2.1746435546875,0.12517653172016144,-0.019490466853068208,0.0067202618654584505
1761468583812626700,2.184626708984375,0.1278705931097269,0.003722559620509855,0.030691130102169697
1761468583822609400,2.194609375,0.13535305781960486,0.012580134908761828,0.059029436300764786
1761468583832593400,2.204593505859375,0.1440314543157816,0.02244491904475726,0.05720999775468372
1761468583842576400,2.214576416015625,0.130710784971714,0.00936105869782623,0.024209786992543374
1761468583852559600,2.2245595703125,0.1308592535316944,-0.015536345232697204,0.002528486431157216
1761468583862542600,2.23454248046875,0.1450724878013134,-0.023153144945926032,-0.02555881328159012
1761468583872526600,2.244526611328125,0.1342974112868309,-0.024124780156789347,-0.03739083780336659
1761468583882509600,2.254509521484375,0.1034708958685398,-0.01896615985117387,-0.022205995722347868
1761468583892492500,2.264492431640625,0.13339900114238262,-0.0032449504377087576,-0.014275083992071448
1761468583902475500,2.2744755859375,0.11529518917500972,0.011997229587426408,0.004836777073261328
1761468583912459500,2.28445947265625,0.12697042939960956,0.006117195105506107,0.006777266449434683
1761468583922442500,2.2944423828125,0.1319102238893509,0.007838278710492886,0.0020420728873927147
1761468583932425500,2.304425537109375,0.13086217614114284,0.010590344764455221,-0.0033752805527998133
1761468583942408400,2.314408447265625,0.14313070608377457,0.009394230315065942,-0.008736099766474216
1761468583952392700,2.324392822265625,0.14582418295145033,0.021647010132716967,-0.00030683289289008825
1761468583962375700,2.334375732421875,0.115596802470088,0.02920988770162221,0.015169206120469606
1761468583972358400,2.3443583984375,0.12801613906025885,0.027702848706115037,0.01837188375245314
1761468583982341600,2.354341552734375,0.1253226621925831,0.01614385983890388,0.015515731702931225
1761468583992325600,2.36432568359375,0.12337795786559581,0.007248034899495542,-0.006837896895757876
1761468584002308600,2.37430859375,0.12696984487771987,-0.011496161897224374,-0.024383947116206398
1761468584012291300,2.384291259765625,0.11484919897317886,-0.008787606191425584,-0.02544935242459178
1761468584022274600,2.394274658203125,0.12936346201598645,-0.003441600954392925,-0.02746371532115154
1761468584032258600,2.404258544921875,0.11963935585916041,0.0012836055031744762,-0.0032950457902858033
1761468584042241500,2.414241455078125,0.1290729546368122,0.0061420738184358925,0.006012515454902313
1761468584052224500,2.424224609375,0.1241413434535265,0.007307236007135361,0.01667245029027108
1761468584062207500,2.43420751953125,0.11052724412083625,0.007658172903233207,0.014773799894982948
1761468584072191500,2.44419140625,0.13387012578547,0.008073366108001209,0.005888889075233601
1761468584082174500,2.454174560546875,0.12952537457942961,-0.014304606914077884,-0.006922159379418007
1761468584092157700,2.46415771484375,0.13071721471250056,-0.017148333306866697,-0.00621691545320209
1761468584102139600,2.4741396484375,0.13161153320372104,-0.011407118207169695,-0.008787003403226844
1761468584112123600,2.48412353515625,0.12038929744362831,-0.00966779569259379,0.006028201647801324
1761468584122107000,2.49410693359375,0.13430793268084526,-0.006205900868843309,0.002047438615676947
1761468584132089900,2.50408984375,0.13191665363013744,-0.004264288114663214,-0.0012582792656728996
1761468584142072600,2.514072509765625,0.13042436924576759,-0.001797866035089828,-0.003327911446848884
1761468584152056600,2.524056640625,0.12997662547826766,0.005527184189949184,-0.010258660558098926
1761468584162039800,2.534039794921875,0.12458791817724704,0.020400403038528747,0.005256938714091666
1761468584172022800,2.544022705078125,0.13296587042212485,0.022424456212040967,0.008800575270853005
1761468584182005800,2.554005859375,0.1196446165561676,0.020296043048333375,0.009727375826146453
1761468584191989800,2.56398974609375,0.13789865064918994,0.01646109996137675,0.007538135853293351
1761468584201972700,2.57397265625,0.12368132472634315,0.00692963943297509,0.011658389554498716
1761468584211955700,2.583955810546875,0.14672668474912642,0.0005012960190651938,0.0016713764114771037
1761468584221939000,2.59393896484375,0.11006430278420448,-0.01601515999189578,-0.0061816751764621584
1761468584231922700,2.603922607421875,0.1313122579962015,-0.011859629481332377,-0.0062232629955979064
1761468584241905700,2.61390576171875,0.13355857561826706,-0.00314883311947342,0.020418756112549452
1761468584251888600,2.623888671875,0.11006605634987354,-0.004414702036557719,0.03795640383083373
1761468584261871900,2.633871826171875,0.14134206910133362,-0.015173188175843096,0.02280015765663702
1761468584271855900,2.64385595703125,0.12697802818417547,-0.037907299425522796,0.007180111629283056
1761468584281838600,2.653838623046875,0.13610709105730057,-0.02872448337143287,-0.012933980714576318
1761468584291821800,2.66382177734375,0.11785188792049885,-0.023397100636479443,0.0004448713904013857
1761468584301804800,2.6738046875,0.13805237990617752,-0.015050050419941544,0.01102600536851678
1761468584311787800,2.683787841796875,0.12892390155494213,-0.00333152817604132,0.001511358977598138
1761468584321771500,2.693771484375,0.1215922434926033,0.014144187621399759,-0.003897231200826354
1761468584331754800,2.703754638671875,0.11919804183244705,-0.00006577241232153028,-0.009102955750911496
1761468584341737700,2.71373779296875,0.12398586063086986,-0.0022534232162870465,-0.02176133439450059
1761468584351721700,2.7237216796875,0.13356266727149485,-0.013924864048603922,-0.028229178701736964
1761468584361704700,2.73370458984375,0.12622984016537667,-0.006316754531906917,-0.018443528783135116
1761468584371687700,2.743687744140625,0.12039280457496643,0.022590072269644587,0.01643881963090971
1761468584381670700,2.753670654296875,0.15301614028215407,0.04776081781540997,0.041763942887634034
1761468584391654000,2.76365380859375,0.1238356385052204,0.05324041370369959,0.06533295689176302
1761468584401638000,2.773637939453125,0.12862228825986385,0.04545366425104439,0.04336182023806032
1761468584411620900,2.783620849609375,0.1462783564597368,0.017644802453764714,0.010290676831291057
1761468584421603600,2.793603515625,0.11096329745054244,-0.005549427987798117,-0.012060873974743298
1761468584431586800,2.8035869140625,0.13714987810850143,-0.01211166801364161,-0.045725553694716654
1761468584441570800,2.81357080078125,0.12742343386411667,-0.027368406287091782,-0.037960376753052694
1761468584451553800,2.8235537109375,0.13954583333432674,-0.012205095617868937,-0.02797419472709298
1761468584461536800,2.833536865234375,0.12488134816586971,0.003972734989295713,-0.005959305696631782
1761468584471519700,2.843519775390625,0.14059505012631415,0.00493248339954298,0.010345137831731698
1761468584481503700,2.853503662109375,0.11979483868181705,-0.015561995697184465,0.003360297612799331
1761468584491486700,2.86348681640625,0.13266425712704658,-0.029153641169471663,-0.021897669558692722
1761468584501470000,2.873469970703125,0.12877426395118236,-0.03289343048599548,-0.024543229331145992
1761468584511452700,2.88345263671875,0.1136626195371151,-0.009481904031941667,-0.0017974185105180368
1761468584521436700,2.893436767578125,0.12608195612728595,0.020387744486355223,0.03009317790875211
1761468584531419600,2.903419677734375,0.14314064295589923,0.04578422507939394,0.05437613516878336
1761468584541403000,2.91340283203125,0.12233809342384337,0.02391273570815101,0.047490421642502764
1761468584551387000,2.923386962890625,0.12712532770037652,-0.015542281783139333,0.014828968714899382
1761468584561369600,2.93336962890625,0.15016893415749072,-0.052723358426499174,-0.015727196196257134
1761468584571352800,2.943352783203125,0.12039105100929737,-0.08984955394431017,-0.03034910716488957
1761468584581335800,2.953335693359375,0.12757482503354547,-0.0685868212882895,-0.024076922427071257
1761468584591319800,2.96331982421875,0.12368541637957095,-0.04302783447676338,0.01047278736596927
1761468584601302500,2.973302490234375,0.1177010812729597,-0.013407251648977398,0.048927363677020184
1761468584611285800,2.98328564453125,0.13401099556088447,0.003950271995738148,0.033533555020438505
1761468584621268700,2.993268798828125,0.10572890392839908,0.010661661001574247,0.022110778019833376
1761468584631251700,3.003251708984375,0.1477782396286726,0.024632656613690778,0.0027426086724502965
1761468584641235700,3.013235595703125,0.12967267409563063,0.04361010961043648,-0.008050017198454587
1761468584651218700,3.02321875,0.11964520107805728,0.048551433903560974,-0.0317353510586312
1761468584661201700,3.03320166015625,0.15675649585425852,0.06576459890783298,-0.017701606108341365
1761468584671185000,3.043184814453125,0.11979542320370673,0.07287543099345639,0.0140625326533569
1761468584681169000,3.0531689453125,0.13969605545997618,0.08393607385051437,0.014557905821711755
1761468584691151600,3.063151611328125,0.11874562188982962,0.04983573809305671,0.020578362554474733
1761468584701134600,3.073134521484375,0.12547756049335002,0.018756978646479548,0.004213389044487849
1761468584711118600,3.08311865234375,0.1184416705071926,-0.023999012052384205,-0.03132034508353099
1761468584721101800,3.093101806640625,0.12412673040628433,-0.0595679590576794,-0.053195003659394564
1761468584731084800,3.103084716796875,0.13115852873921394,-0.07863861589636653,-0.05938430958646349
1761468584741067500,3.113067626953125,0.1314601420342922,-0.07157072790332604,-0.03653800666658207
1761468584751051800,3.1230517578125,0.13759820639789103,-0.04411726454813033,0.006899271694174968
1761468584761034800,3.13303466796875,0.1302671328574419,-0.004091484264447353,0.04716203907150775
1761468584771017700,3.143017822265625,0.13430734815895556,0.0080283259564545,0.05773580716049764
1761468584781001000,3.1530009765625,0.13520692734718323,-0.0039888687067665156,0.04016033448274247
1761468584790983700,3.162983642578125,0.12682663701474667,-0.006544740901771001,0.00864428416402079
1761468584800967700,3.1729677734375,0.1387976453155279,-0.002915983344824053,-0.015772336812503635
1761468584810950700,3.18295068359375,0.11739829893410206,0.013966355969617143,0.005243398812506348
1761468584820934000,3.192933837890625,0.1202414134055376,0.03844241551579907,0.03050282728872262
1761468584830918000,3.20291796875,0.13296060972511767,0.059504269004589876,0.03830431308620609
1761468584840900600,3.212900634765625,0.12802023071348667,0.06257462549379561,0.042789491109666414
1761468584850883800,3.2228837890625,0.12113280928730964,0.04104573901514522,0.0026538435436086727
1761468584860866800,3.23286669921875,0.13699322624206542,0.007356673772586509,-0.048245290563837626
1761468584870850800,3.242850830078125,0.11903554474711417,-0.02124966311189346,-0.07168224828667007
1761468584880833500,3.25283349609375,0.12038169865906238,-0.045487169228424315,-0.0792171738361474
1761468584890816800,3.262816650390625,0.12382453258931636,-0.035914865232980805,-0.06448460100069642
1761468584900799700,3.2727998046875,0.1359486856251955,-0.024549960466031914,-0.016555979737173765
1761468584910783700,3.28278369140625,0.14103870224058626,-0.011370288761542178,0.0305386566539295
1761468584920766700,3.2927666015625,0.11680033304095268,0.001147900526644662,0.057105884359660554
1761468584930749700,3.302749755859375,0.12293605931699275,0.002912375748786144,0.05527971924527082
1761468584940732700,3.312732666015625,0.12173720492124557,-0.012438561880448833,0.04839562228734139
1761468584950716700,3.322716552734375,0.11964169394671917,-0.019179067382914944,0.02444834042219445
1761468584960700000,3.332699951171875,0.1262234104245901,-0.018822604928328653,0.015855635748361237
1761468584970682600,3.3426826171875,0.13325462423563003,-0.001359301087888889,0.015046908614784478
1761468584980665600,3.35266552734375,0.13759353022277354,0.011556737544620409,0.012354970683646388
1761468584990649600,3.362649658203125,0.14687106165587901,0.013529348225262947,-0.0002251733582699671
1761468585000632800,3.3726328125,0.10138064559102059,0.010932582330866716,-0.012619886963837779
1761468585010615800,3.38261572265625,0.1422311268955469,0.02131356779411435,-0.027248446868965402
1761468585020598500,3.3925986328125,0.12158055305480957,0.010715117355016991,-0.04036668440953362
1761468585030582800,3.402582763671875,0.12562076835632324,0.006222683040285483,-0.05249313443377614
1761468585040565800,3.412565673828125,0.1283154142677784,0.016283966995915396,-0.039437449868558905
1761468585050548700,3.422548828125,0.1317576636761427,0.018993367518507876,-0.009399924836913123
1761468585060532000,3.432531982421875,0.13564941041767598,0.021643717630510217,-0.001194981938228011
1761468585070515700,3.442515625,0.11784136652648448,0.017356445932481437,0.007596542376489378
1761468585080498700,3.452498779296875,0.1351987440407276,0.007929655921529047,0.013394369334517977
1761468585090481700,3.462481689453125,0.15300737245380877,-0.002732169476826675,0.005098871208704076
1761468585100465000,3.47246484375,0.10467384191751479,-0.02210611097787041,0.01597561343279667
1761468585110449200,3.48244921875,0.13669453555643557,-0.02174700447504874,0.018729213856719433
1761468585120432000,3.49243212890625,0.14163257648050784,-0.023794694252475164,0.021993357618665322
1761468585130415000,3.5024150390625,0.10407295341491699,-0.01809229505951516,0.02699776917668059
1761468585140398300,3.5123984375,0.12307692909240722,-0.007954036877537147,0.04634722469043918
1761468585150382000,3.522382080078125,0.11873568501770496,0.0012637134926160797,0.04110298106113914
1761468585160365000,3.532364990234375,0.11738543945252895,-0.0047204617837909605,0.03858180572018027
1761468585170348300,3.542348388671875,0.13339666305482387,-0.01059505747219082,0.023260948135377837
1761468585180331300,3.552331298828125,0.11948095042705535,-0.01398649457534775,-0.0015684229270787908
1761468585190315300,3.562315185546875,0.11229776092469691,-0.011667814969969912,-0.018670620103855617
1761468585200298000,3.572298095703125,0.11888240001201629,-0.012162955242884344,-0.043564580835122615
1761468585210281200,3.58228125,0.14372282675802706,-0.00604842245192267,-0.04788859064723365
1761468585220264200,3.59226416015625,0.11588964793682098,0.006608764315000735,-0.017841375338635408
1761468585230248200,3.602248291015625,0.14462299046814442,0.015132942930422723,-0.016133598739793524
1761468585240231000,3.61223095703125,0.12876315803527832,0.016219591956236398,-0.014094553493126294
1761468585250214100,3.622214111328125,0.12397592375874518,0.026957186004542746,0.003533695118059404
1761468585260197000,3.632197021484375,0.12158172209858893,0.018649618415022266,0.020565539605519732
1761468585270181000,3.64218115234375,0.13998714736104012,0.019049006695882414,0.025100835814443414
1761468585280164400,3.652164306640625,0.1419312671661377,0.014556070057651959,0.029491152328415773
1761468585290147000,3.66214697265625,0.11454583211243152,0.004022259519714862,0.04396578204715624
1761468585300130000,3.672130126953125,0.13803718233704565,-0.0031674921541707587,0.031623648012196644
1761468585310114000,3.682114013671875,0.12052841365337372,-0.013320007190364412,0.011796816211077385
1761468585320097300,3.69209716796875,0.14057809899151325,-0.01859969202580396,-0.010934322196803986
1761468585330080300,3.702080322265625,0.10765665712058543,-0.03695051015734207,-0.012959635745640843
1761468585340064000,3.71206396484375,0.15180150379538535,-0.0347388939558994,-0.0364270251393551
1761468585350047200,3.722047119140625,0.12022972296774387,-0.02473039050027728,-0.04154861963652074
1761468585360030200,3.7320302734375,0.1332511171042919,-0.02509533308884129,-0.03627946989482734
1761468585370013200,3.74201318359375,0.11888766070902347,-0.015076449803099967,-0.014813757446035742
1761468585379997200,3.7519970703125,0.12352759546935557,0.0051307641843101005,0.0015350458138622342
1761468585389980200,3.761980224609375,0.1316091951161623,0.016366014689602887,0.0223558981875889
1761468585399963100,3.771963134765625,0.12293138314187527,0.016829832809069193,0.034746177646634166
1761468585409946000,3.781946044921875,0.11664543474018572,0.020666278299945405,0.03315019999234937
1761468585419930000,3.79193017578125,0.1395382345497608,0.04033918904783204,0.0315207356269937
1761468585429913000,3.8019130859375,0.1199362929791212,0.030900096677732653,0.01613612405702006
1761468585439896000,3.81189599609375,0.12053250530660152,0.026491491021821273,0.010399621665058657
1761468585449879300,3.82187939453125,0.1390858146071434,-0.0006048842577030882,-0.0009932899202452971
1761468585459863300,3.83186328125,0.11753741514384745,-0.04530337362673599,-0.01922798455855809
1761468585469846300,3.84184619140625,0.09673837274312973,-0.05892886200312059,-0.04730487247514538
1761468585479829000,3.8518291015625,0.14567045369446277,-0.06773308140262961,-0.04845321139320731
1761468585489812200,3.861812255859375,0.1334036773175001,-0.04016052171241026,-0.028336287771444767
1761468585499796200,3.871796142578125,0.13340484636127947,-0.0075005529224174096,-0.007190719788265414
1761468585509779200,3.881779296875,0.1214355916261673,0.010548245488665998,0.013578731191786937
1761468585519762000,3.891761962890625,0.14373276363015175,0.020149346320331097,0.02601775429653935
1761468585529745200,3.9017451171875,0.10542612158954143,0.029389628182700835,0.04633268927501048
1761468585539729200,3.911729248046875,0.12757190242409705,0.026648709143837913,0.04913268612392712
1761468585549712100,3.921712158203125,0.13625029892027377,0.025000097120017745,0.04086116709532216
1761468585559695400,3.9316953125,0.14642448693215845,0.018172881448478437,0.037281623541540465
1761468585569678000,3.941677978515625,0.1392389593422413,0.01546504726188723,0.048791357306390996
1761468585579662000,3.951662109375,0.07773556610941887,0.0066779342608060685,0.021302644541300833
1761468585589645000,3.96164501953125,0.14117898749411106,-0.008476590313762427,0.004069528160966001
1761468585599628300,3.971628173828125,0.14222761976420878,-0.003642215260141529,-0.021216418429417534
1761468585609611000,3.981611083984375,0.11379355244040489,-0.011726792315323836,-0.036671346156089565
1761468585619595000,3.991594970703125,0.12157529235780239,-0.007138281781552359,-0.05702585052654612
1761468585629578200,4.001578125,0.1263625266343355,0.003252517256233841,-0.017492982026073148
1761468585639559200,4.01155908203125,0.12112462598085402,0.017085880796215498,-0.003894874846958555
1761468585649543200,4.021543212890625,0.12965572296082972,0.009045471676322631,-0.013043263475061394
1761468585659526100,4.031526123046875,0.10840718322694301,-0.01897677257673349,-0.015243244037637486
1761468585669509000,4.041509033203125,0.16542086382508278,-0.03594860767237842,-0.038887291472777724
1761468585679492400,4.051492431640625,0.10526771615743637,-0.035660109587199985,-0.02170440287576057
1761468585689476400,4.061476318359375,0.12606792760193347,-0.016092869437183254,0.014370297128008677
1761468585699459000,4.071458984375,0.12920973275899886,-0.004758378074807114,0.04286641510366462
1761468585709442000,4.081442138671875,0.13489713074564932,0.019814967833389527,0.07351449151539709
1761468585719426000,4.091426025390625,0.12187807469666004,0.03175016503527295,0.0802261773487553
1761468585729409300,4.1014091796875,0.12681436205506325,0.014996082609845324,0.056329082167730665
1761468585739392000,4.11139208984375,0.11409282764792442,-0.0017015751869184895,0.014426429495727642
1761468585749375200,4.121375244140625,0.11962591185569763,-0.019652616878529077,-0.009032045939168893
1761468585759359200,4.131359130859375,0.13039923480451107,-0.020834022382553666,-0.02378731466361787
1761468585769342200,4.14134228515625,0.11962357376813888,-0.00001580492390785366,-0.020148017446347512
1761468585779325200,4.1513251953125,0.13533493764102458,0.013233895242912694,-0.016236734887282365
1761468585789308200,4.16130810546875,0.13338847974836826,0.036578950598323716,-0.013636146767716854
1761468585799292200,4.171292236328125,0.1248597208559513,0.047652873062063006,-0.013247841569874436
1761468585809275100,4.181275146484375,0.12875146759748457,0.03205262314714491,-0.01839038295694627
1761468585819258000,4.191258056640625,0.13548457524478436,-0.009956280078040435,-0.01930595886532683
1761468585829241000,4.201240966796875,0.14251871166527272,-0.03153970062236767,-0.027492151397769338
1761468585839225000,4.21122509765625,0.10151800823509692,-0.0506265048782574,-0.039374673130922015
1761468585849208000,4.2212080078125,0.12201952899396419,-0.07027470130999572,-0.03421551396918949
1761468585859191300,4.23119140625,0.14940437952578067,-0.057530443614395334,-0.021184680717438457
1761468585869174300,4.24117431640625,0.11409107408225536,-0.01786947348853573,0.026037988800392483
1761468585879158300,4.251158203125,0.1292079791933298,0.016825864453427493,0.04169583238775376
1761468585889141000,4.26114111328125,0.12262567819356918,0.018627566413418388,0.06330561578262131
1761468585899124200,4.271124267578125,0.12860942877829074,0.02320982986949384,0.059202130553126335
1761468585909107200,4.281107177734375,0.12860825973451137,0.016295967960963026,0.04257434138848912
1761468585919091200,4.29109130859375,0.13159808920025826,0.01590643435383681,0.039980361106223425
1761468585929074200,4.30107421875,0.12531038723289967,0.011833193565555847,0.029622724552522413
1761468585939057200,4.31105712890625,0.1485053848594427,0.020290709286089986,-0.0058851490484550595
1761468585949040000,4.3210400390625,0.10495616599023341,0.015273707674560136,0.015822824890725312
1761468585959024000,4.331024169921875,0.13443068227767943,0.008780107871559448,0.01735843239359092
1761468585969007400,4.34100732421875,0.15957038423120976,-0.015894625185034237,0.0004034662343561649
1761468585978990000,4.350989990234375,0.09687105921208858,-0.03608918062027078,-0.014572222041431814
1761468585988974000,4.36097412109375,0.1458037246853113,-0.03491599495531991,-0.04215623470742721
1761468585998957000,4.37095703125,0.11842062771916388,-0.04672736028155777,-0.04526276305513456
1761468586008940300,4.380940185546875,0.12096505150496958,-0.04557259618928656,-0.03468409959531855
1761468586018923000,4.390923095703125,0.12770166628360746,-0.03526346125269774,-0.012667671628319657
1761468586028907000,4.400906982421875,0.12291560105085372,-0.006046143729868345,0.015912370904278942
1761468586038890200,4.41089013671875,0.12905249637067318,0.008932394090131857,0.03541834128715563
1761468586048873200,4.420873291015625,0.12471242133975029,0.011663020063843578,0.05007136434668209
1761468586058856200,4.430856201171875,0.11872633266746997,0.024941110641509293,0.054876271277223714
1761468586068840200,4.440840087890625,0.12665654114484787,0.031223871572269125,0.03901996880858205
1761468586078823200,4.4508232421875,0.11902385430932044,0.03423324142212514,0.017488506780355236
1761468586088806100,4.46080615234375,0.11827449724674224,0.02198142515227664,0.0009393769090762362
1761468586098789000,4.4707890625,0.1351817929059267,0.012751372422976418,-0.018493646968598475
1761468586108773000,4.480773193359375,0.13099135547876356,0.0034777773794718086,-0.03984513562030624
1761468586118755800,4.490755859375,0.1157277353733778,0.0023294841271825134,-0.047873415910988114
1761468586128738800,4.50073876953125,0.13203881870508194,0.002519759702007286,-0.04185848473671358
1761468586138722000,4.51072216796875,0.1178232463479042,-0.002990642316499725,-0.03312380060919095
1761468586148706000,4.5207060546875,0.13458382701277732,-0.012763122226274572,-0.02478947744348552
1761468586158689000,4.53068896484375,0.144013918659091,-0.013948623950104228,-0.009891215485194697
1761468586168671700,4.540671630859375,0.1125900218695402,-0.0032411647451575844,0.009383864184678532
1761468586178655000,4.550655029296875,0.12770341984927652,-0.014054084485420025,0.02632070559875574
1761468586188639000,4.560638916015625,0.143564421325922,-0.01011380872731097,0.03268176962984726
1761468586198622000,4.5706220703125,0.11363573153018951,-0.021034686920652166,0.038035236654127946
1761468586208605000,4.58060498046875,0.13862638040184974,-0.016625314079760572,0.029932553120097145
1761468586218588000,4.590587890625,0.10390928728580474,-0.016971962959808296,0.023848205404845065
1761468586228573000,4.600572998046875,0.14909984362125395,-0.008184507465432398,0.02387573273258749
1761468586238556000,4.610555908203125,0.12036883917748928,0.005185371315223165,0.032694428182020785
1761468586248539000,4.620538818359375,0.11587912654280662,0.01948642999876756,0.01700091049307957
1761468586258521900,4.63052197265625,0.12530688010156155,0.028349069621204398,0.009735901625896803
1761468586268505900,4.640505859375,0.11871990292668341,0.025934268131013957,0.006140790610224939
1761468586278488800,4.65048876953125,0.13173720541000367,0.023230192237510345,0.0019642903768690304
1761468586288472000,4.66047216796875,0.12619886050522328,0.013232173643284476,-0.0037757374127395447
1761468586298455000,4.670455078125,0.12859247764348983,0.0015731950003188102,-0.015796256544208152
1761468586308439000,4.68043896484375,0.1221580606818199,-0.018652874384610912,-0.039369280003174204
1761468586318421800,4.690421875,0.1299403851211071,-0.024760160017455925,-0.035656602455861865
1761468586328405000,4.700405029296875,0.12246025849878787,-0.03445524557577446,-0.0261809729010798
1761468586338389000,4.710388916015625,0.12036591656804084,-0.03172707642063033,-0.013784542262461036
1761468586348372000,4.7203720703125,0.12844751621484757,-0.00853691936598625,0.01359453611569479
1761468586358354700,4.730354736328125,0.1285971538186073,-0.005751882624183781,0.02421143552693538
1761468586368338000,4.740337890625,0.11931903786361217,-0.0030074336210964246,0.034288547239359465
1761468586378322000,4.750322021484375,0.10255787267684936,0.012681248062523081,0.04884954463387839
1761468586388305000,4.760304931640625,0.1477472599685192,0.016482398477732203,0.03863657268129755
1761468586398288100,4.7702880859375,0.14804595065414905,0.028416170907509513,0.02942645306175109
1761468586408270800,4.780270751953125,0.08309972349107266,0.009399915703758597,0.036435560072259975
1761468586418254800,4.7902548828125,0.14594634802639483,0.015771336732083,0.015741937107662668
1761468586428237800,4.80023779296875,0.12424772643744945,0.0028840995023725552,0.0156907412099652
1761468586438221000,4.810220947265625,0.15148293936550616,-0.0017313812367152422,-0.0178104596105637
1761468586448203800,4.820203857421875,0.08983107757270335,-0.00925671697393991,-0.03692668175718281
1761468586458187800,4.830187744140625,0.1540256095856428,0.000011973565584048629,-0.04300636243047192
1761468586468171000,4.8401708984375,0.10060556956529616,0.0030531359263462946,-0.023061502873408607
1761468586478154000,4.850154052734375,0.13621931926012038,0.0055975597121519964,0.01507114800689742
1761468586488137000,4.860136962890625,0.11227496457099914,-0.0064397963896859435,0.01787650145094376
1761468586498120700,4.87012060546875,0.1323281570404768,-0.03840146245090291,-0.03317406492512673
1761468586508104000,4.88010400390625,0.12574702508449553,-0.05520441638620104,-0.062019562594033774
1761468586518087000,4.8900869140625,0.12545125700831414,-0.06246478561088442,-0.05891852327219676
1761468586528070000,4.90006982421875,0.11662614551782607,-0.01653882310639601,-0.018726094884448683
1761468586538054000,4.910053955078125,0.13353753283023834,0.033687165546417236,0.03753808708721772
1761468586548036900,4.920036865234375,0.10660276415348052,0.07045771146039478,0.09323208165522665
1761468586558019800,4.930019775390625,0.14835165560245514,0.0808958567712456,0.10952177513903007
1761468586568002800,4.9400029296875,0.11064064136743545,0.0517617011869559,0.07292834392420482
1761468586577987000,4.949987060546875,0.1164730007827282,0.02328567615125794,0.01304783005232457
1761468586587970000,4.959969970703125,0.12335457699000835,-0.021150572951859792,-0.018405991518031805
1761468586597952800,4.969952880859375,0.13203238896429537,-0.04867794636006001,-0.03685804610091727
1761468586607936000,4.97993603515625,0.10614449899196624,-0.02959848516040947,-0.03452358897109516
1761468586617920000,4.989919921875,0.1502870075792074,-0.02170865892576985,-0.017782233596500007
1761468586627903000,4.999903076171875,0.11542027685940265,-0.003969757580920123,0.005558204949297942
1761468586637885700,5.0098857421875,0.11123042395412922,-0.012653172745509072,0.002171421188372187
1761468586647870000,5.019869873046875,0.13263093937933443,-0.02390410487712361,0.0011743136095348746
1761468586657853000,5.02985302734375,0.11946283024847507,-0.032613649996812454,0.01103864108780399
1761468586667836000,5.0398359375,0.11886603339910506,-0.0169313980539795,0.000806754372199066
1761468586677819100,5.049819091796875,0.11407821460068225,-0.020333927373308688,0.01611328203754965
1761468586687803000,5.059802978515625,0.12126023505926131,-0.020637728058896028,0.03442639394062571
1761468586697785900,5.069785888671875,0.12380348980128765,-0.000016503610229119657,0.036054168672394006
1761468586707768800,5.079768798828125,0.13517536316514014,0.00960617886558175,0.03924369456185959
1761468586717752000,5.089751953125,0.12395371192693709,0.01851170778167434,0.029885325578041372
1761468586727736000,5.099736083984375,0.12125906601548195,0.02052887912325095,0.006625080695562064
1761468586737718800,5.10971875,0.11123217751979828,0.026868891233159227,-0.009528076694649643
1761468586747701800,5.11970166015625,0.1246983928143978,0.020665748576982876,-0.021553034539218058
1761468586757685000,5.12968505859375,0.13023498415350912,0.026149244322255252,-0.021334208723343906
1761468586767669000,5.1396689453125,0.12859013955593107,0.02194091047879774,-0.023978919112426226
1761468586777651700,5.149651611328125,0.12200608499050139,0.008285168528044597,-0.024231912059383465
1761468586787635000,5.159635009765625,0.13816811524033545,-0.0014382709085009992,-0.03505923935091123
1761468586797618000,5.169617919921875,0.11048515854477882,-0.006600526209617964,-0.019907646518945693
1761468586807602000,5.179601806640625,0.1211088438898325,-0.03039096897866111,-0.010945277415658346
1761468586817585000,5.1895849609375,0.13307926766872405,-0.025420318126352502,-0.001065419008117169
1761468586827567900,5.19956787109375,0.12066051560044289,-0.02473042246631812,0.022361218250100498
1761468586837550800,5.20955078125,0.12350538363754748,-0.010323327858722768,0.03831540530237835
1761468586847534800,5.219534912109375,0.14280805000066757,-0.005063471101759933,0.06350390570054296
1761468586857518000,5.22951806640625,0.10644845037460327,-0.008901099336147307,0.04711215378148481
1761468586867501000,5.2395009765625,0.1402659643024206,-0.00765469773793593,0.03961892108242027
1761468586877483800,5.24948388671875,0.10944003340601921,0.013212738290452398,0.02596322479743976
1761468586887467800,5.2594677734375,0.13293196815252303,0.011953417845163494,0.01962889807622414
1761468586897451000,5.269450927734375,0.11781681660711765,0.017415286280517465,0.011303621300077065
1761468586907434000,5.27943408203125,0.132031219920516,0.009959796342533082,-0.017565997029934076
1761468586917416700,5.289416748046875,0.11212883409857749,-0.006793021140992641,-0.03206044112741947
1761468586927400700,5.299400634765625,0.12859013955593107,-0.028635640610777773,-0.06333264992001932
1761468586937384000,5.309384033203125,0.10883972942531109,-0.04533594702235423,-0.06136640961465891
1761468586947367000,5.319366943359375,0.12530161940455437,-0.04340235317784827,-0.049096760860597714
1761468586957350000,5.329349853515625,0.11168459746241569,-0.020872678459086455,-0.018236982493521646
1761468586967334000,5.339333984375,0.1404185245156288,0.0007358308607246727,0.027884150956617667
1761468586977316900,5.34931689453125,0.11273615234196185,0.01658300017483998,0.06504729008448776
1761468586987299800,5.3592998046875,0.1446095464646816,0.027199671257217412,0.08308900116765872
1761468586997283000,5.369282958984375,0.10555237831771373,0.020437533878255636,0.0833488576802425
1761468587007267000,5.37926708984375,0.15478314995467662,0.010087080550589598,0.05276733456554357
1761468587017249800,5.389249755859375,0.08100888869166374,0.0038647400035988536,0.0571937042070087
1761468587027232800,5.399232666015625,0.15463000521957873,-0.00935955172732938,0.006891956037399358
1761468587037216000,5.409216064453125,0.11452654289007186,-0.013962990402174181,-0.015320688621443696
1761468587047200000,5.419199951171875,0.1250000061094761,-0.010300412774016148,-0.03633536480052862
1761468587057182700,5.4291826171875,0.11482406453192233,-0.0065327810359187425,-0.045138077229540795
1761468587067166000,5.439166015625,0.12724573920965193,-0.00544659780098591,-0.04545197918403428
1761468587077150000,5.44914990234375,0.12485212207138538,-0.006500810428499244,-0.04118062657434493
1761468587087133000,5.4591328125,0.12126257314682005,-0.0031842788921901954,-0.03483859147070907
1761468587097116000,5.469115966796875,0.1407148771136999,0.014307771552121266,-0.010384743756335229
1761468587107099000,5.479098876953125,0.08984159896671771,0.02262735380642116,0.004014647035417147
1761468587117083000,5.489082763671875,0.1473030233323574,-0.0013126809006091206,0.027701602030522188
1761468587127065900,5.49906591796875,0.10076631308495998,0.007299367794510908,0.0233571613517357
1761468587137048800,5.509048828125,0.13817629854679106,0.009743367979722096,0.02857787340839859
1761468587147031800,5.51903173828125,0.10869885964989662,0.02234077825027052,0.05246569387100171
1761468587157015800,5.529015869140625,0.14580781633853912,0.03669304653124418,0.06679857246491593
1761468587166998800,5.538998779296875,0.10989245334863662,0.028430692623206414,0.06001266148472204
1761468587176982000,5.54898193359375,0.12395721905827521,0.009806834270525724,0.02107592767991591
1761468587186964700,5.55896484375,0.13054010457992554,-0.02010061637435574,-0.016520095573039725
1761468587196948700,5.56894873046875,0.1251519818007946,-0.042769160707690754,-0.04666030466102529
1761468587206931700,5.578931640625,0.1137795239150524,-0.03790574678925331,-0.05018651972552761
1761468587216915000,5.5889150390625,0.1083943237453699,-0.02234435844684485,-0.037718384690722445
1761468587226898000,5.59889794921875,0.1244067163914442,-0.005850205599237233,-0.015320880417688748
1761468587236882000,5.6088818359375,0.1350327398240566,0.006020041174232028,0.0009809510284801944
1761468587246865000,5.618864990234375,0.10600421373844146,0.007185733085894025,0.01724622702365741
1761468587256848000,5.628847900390625,0.11872457910180091,0.0036296480395132673,-0.0024616637060651553
1761468587266830800,5.638830810546875,0.12979893082380295,-0.005767331355065107,-0.010001119300187565
1761468587276814800,5.64881494140625,0.11408639790713787,-0.014051741831284015,-0.007619507693545893
1761468587286797800,5.6587978515625,0.1248597208559513,-0.013078170391661115,0.004492438881308771
1761468587296780800,5.66878076171875,0.1215653554856777,-0.006495312269474379,0.02577395843619015
1761468587306763800,5.678763671875,0.15897534094750881,0.009938552625104784,0.03185337881457526
1761468587316747800,5.688747802734375,0.13832593615055083,0.012963330106646753,0.05461560191388707
1761468587326731000,5.69873095703125,0.09298632673323154,0.011466346714273094,0.04752995906844735
1761468587336713700,5.708713623046875,0.126053899076581,-0.0073965628249803555,0.015230859480099751
1761468587346697000,5.718697021484375,0.11767302422225474,-0.012800303298351355,-0.014384809710551052
1761468587356681000,5.728680908203125,0.1266512804478407,-0.01242797655435279,-0.012532802335429005
1761468587366664000,5.738663818359375,0.11827099011540412,0.0003932279681321233,-0.013064096200536005
1761468587376646700,5.748646728515625,0.13443126679956913,0.006313037338014691,-0.01998064325649757
1761468587386630000,5.7586298828125,0.12844751621484757,-0.0009485146301798522,-0.025964745467668398
1761468587396614000,5.76861376953125,0.11348550940454005,-0.012865961546241304,-0.030640381729044017
1761468587406596900,5.778596923828125,0.1157312425047159,-0.013974137417273595,-0.033136998017481524
1761468587416579800,5.788579833984375,0.12396247975528239,-0.0235150416274555,-0.01247665626797825
1761468587426562800,5.798562744140625,0.11333762536644935,-0.02317917443632614,0.011978346790443174
1761468587436546800,5.808546875,0.13802899903059004,-0.004842864320753142,0.01748681714676786
1761468587446529800,5.81852978515625,0.11618073983788489,0.0004976701567182317,0.04441254400054458
1761468587456513000,5.828512939453125,0.13263970720767973,0.013849405925907193,0.05579339525529649
1761468587466495700,5.838495849609375,0.12994564581811427,0.004632938763964921,0.04909632246918045
1761468587476479700,5.848479736328125,0.10181202274560927,-0.00366799358879216,0.04837275743498467
1761468587486462700,5.858462646484375,0.148797645804286,-0.008269308805209584,0.012240331328031605
1761468587496446000,5.868446044921875,0.1015109939724207,-0.00841147092198953,0.004474291303264908
1761468587506429000,5.878428955078125,0.12440496282577514,-0.0028271086181281134,-0.011326819512574
1761468587516413000,5.888412841796875,0.09282850582301616,-0.006349058499466627,-0.010271506339940242
1761468587526396000,5.89839599609375,0.15418050788640975,0.011409004203579388,-0.019457208470860497
1761468587536379000,5.90837890625,0.12095862176418304,0.03168048363281414,-0.0017598629791056735
1761468587546361900,5.91836181640625,0.13502572556138037,0.019329056613123976,-0.013873083629016764
1761468587556345900,5.928345947265625,0.09566986672878265,0.0058906380743253975,0.00759707666602917
1761468587566328800,5.938328857421875,0.1389163032591343,-0.0032658242623787373,-0.016825439761742018
1761468587576311800,5.948311767578125,0.12919161258041859,-0.007713602018053643,-0.017893105525872668
1761468587586294800,5.958294677734375,0.12111352006494998,-0.013104583474551327,-0.005558465244201943
1761468587596278800,5.96827880859375,0.12126374219059943,-0.015118480580230242,0.010906406709994189
1761468587606262000,5.978261962890625,0.12694938661158084,-0.01616840975827072,0.01952054233092349
1761468587616244700,5.98824462890625,0.12605214551091193,-0.006055706142657436,0.01785339913656935
1761468587626228000,5.99822802734375,0.1143809969395399,-0.0022618257184512914,0.027305223124078473
1761468587636212000,6.0082119140625,0.1697463258087635,-0.009216622425569221,0.0408692727699643
1761468587646195000,6.01819482421875,0.060959203353524206,0.00018588252749759701,0.032220527059957385
1761468587656177700,6.028177734375,0.1528355230182409,-0.010624950286955571,0.012555475391540675
1761468587666161000,6.038160888671875,0.12051380060613155,-0.008281821226910688,0.005841688932641409
1761468587676145000,6.048144775390625,0.14669862769842146,-0.006126465257350355,0.005394027363532223
1761468587686127900,6.0581279296875,0.09941372943222522,0.01690214456003159,-0.005214405613462441
1761468587696110800,6.06811083984375,0.11422960577011108,0.021709905601362697,-0.00039117300836369394
1761468587706093800,6.07809375,0.12066460725367069,0.01809471077888738,-0.005751467065652832
1761468587716077800,6.088077880859375,0.13772504764795301,0.002860412666108459,-0.02813530813951511
1761468587726060800,6.098060791015625,0.09956979677677154,0.009076574634062126,-0.02214495428407099
1761468587736044000,6.1080439453125,0.14236790501773355,-0.0007070248913485556,-0.039285784704494287
1761468587746026800,6.11802685546875,0.12591186025738715,0.01139562413219828,-0.00450973250940442
1761468587756009700,6.128009765625,0.11319383298158645,-0.021755662705539726,0.03251594350968953
1761468587765993700,6.13799365234375,0.1555418593674898,-0.019695296109630726,0.02263067370809149
1761468587775977000,6.14797705078125,0.09299567908346652,0.00347685949744191,0.017449531043414027
1761468587785960000,6.1579599609375,0.1305547176271677,-0.006388961251592263,0.014233473340049384
1761468587795942700,6.167942626953125,0.13070318618714807,-0.02507847328558564,0.010339278913103043
1761468587805927000,6.177927001953125,0.14087854324281215,-0.00959522364672739,0.0035835393088869748
1761468587815910000,6.187909912109375,0.09523790505230426,-0.006738121749134734,0.013166602160362527
1761468587825892900,6.197892822265625,0.14013093974590302,-0.017388188211037776,0.0110102780764224
1761468587835875800,6.207875732421875,0.14162790030539035,-0.0023603359231725335,0.017753834052500313
1761468587845859800,6.21785986328125,0.11200082380473612,0.017201063574524594,0.011402186303725465
1761468587855842800,6.2278427734375,0.108259883710742,0.016906291012186558,0.0064135340038454156
1761468587865825800,6.23782568359375,0.1260661740362644,0.005288918454665691,-0.0011177702498622237
1761468587875809000,6.24780908203125,0.12546411648988723,0.007308889108104631,-0.011672271949378773
1761468587885793000,6.25779296875,0.12815700883567333,0.022518924995884298,-0.025635376515984534
1761468587895775700,6.267775634765625,0.11199673215150832,0.009131821085792035,-0.014014789088070391
1761468587905759000,6.277759033203125,0.13998071762025355,-0.008133096938603557,-0.018651933669694698
1761468587915742000,6.287741943359375,0.11274784277975558,-0.013804968562559224,-0.005687096592551097
1761468587925726000,6.297725830078125,0.13384966751933097,-0.015543135733087547,-0.007222512299171649
1761468587935708700,6.307708740234375,0.10796528467833995,-0.016166080803866497,-0.0014181414359249174
1761468587945692000,6.31769189453125,0.14417875383198261,-0.01839242878356017,0.001488608289672993
1761468587955675000,6.3276748046875,0.11724456967711448,-0.021888531837589105,0.018823006787127814
1761468587965659000,6.337658935546875,0.11963935585916041,-0.02068174073055852,0.017944543452165087
1761468587975641900,6.347641845703125,0.1311608668267727,-0.014017871527723037,0.02388183824638836
1761468587985624800,6.357624755859375,0.12562369096577167,-0.0004465929900296032,0.02274377869374584
1761468587995607800,6.36760791015625,0.09389993444681168,0.014267471507773733,0.03125108380618039
1761468588005591800,6.377591796875,0.11829027933776377,0.005751809558947571,0.02239769150270149
1761468588015575000,6.387574951171875,0.14851590625345706,0.012476272675488143,0.014986584129137918
1761468588025557800,6.397557861328125,0.12457096704244613,0.017967166275926864,0.018559140819706953
1761468588035540700,6.407540771484375,0.1094575690627098,0.021674094502464866,0.001616540951700881
1761468588045524700,6.417524658203125,0.13744038548767565,0.016236826218827626,-0.019004519100184553
1761468588055508000,6.427508056640625,0.11514496704936027,0.008020608440879732,-0.01686763493565377
1761468588065491000,6.437490966796875,0.13205460079610348,0.0045611658691195765,-0.016607449629507026
1761468588075473700,6.4474736328125,0.10527005424499511,-0.0019083680717041716,-0.020435985808563418
1761468588085457000,6.457456787109375,0.11544658034443854,0.0014583181826863436,-0.016508140273764727
1761468588095441000,6.46744091796875,0.11739128467142582,-0.021968300809222272,-0.006362808463606051
1761468588105424000,6.477423828125,0.12457447417378426,-0.024404240985563954,-0.0031207167032640424
1761468588115406800,6.48740673828125,0.13131167347431183,-0.02140835167178884,-0.009465162959694861
1761468588125389800,6.497389892578125,0.10108487751483916,-0.027998639615182765,0.0027991109329275786
1761468588135373800,6.507373779296875,0.1362485453546047,-0.019057002772670237,0.021977607493684624
1761468588145356800,6.517356689453125,0.13011515716612337,-0.007710099453292787,0.02801374128619209
1761468588155340000,6.527340087890625,0.11141045669615268,-0.0013560314185684546,0.03159703399990685
1761468588165322800,6.53732275390625,0.12098550977110863,0.004487867737468332,0.03056814304331783
1761468588175306800,6.547306640625,0.1281675302296877,0.0058172212116653094,0.03190615931458305
1761468588185290000,6.5572900390625,0.12113339380919932,0.004994867411535233,0.022457897257339206
1761468588195273000,6.56727294921875,0.1108083991497755,-0.0009595931466203182,0.01470690867123194
1761468588205255700,6.577255615234375,0.14193243620991705,-0.022346230743522755,-0.0004556348130106926
1761468588215239700,6.58723974609375,0.12487374938130379,-0.004955750110698863,-0.023566917945165185
1761468588225223000,6.597222900390625,0.1121551375836134,0.0031098528159549457,-0.03466223482338246
1761468588235206000,6.607205810546875,0.1307113694936037,0.004151557588344439,-0.03125165919491556
1761468588245188900,6.61718896484375,0.1123071132749319,0.002417454671580344,-0.01814740908050444
1761468588255172900,6.6271728515625,0.1121586447149515,0.017372771446197293,-0.00421548967002891
1761468588265155800,6.63715576171875,0.10138473724424839,0.008317289832513779,-0.001208932831767015
1761468588275138800,6.647138916015625,0.14103870224058626,-0.02718124968453776,-0.007439031993527896
1761468588285121800,6.657121826171875,0.112760117739439,-0.02578362131367903,-0.00019587876512669025
1761468588295106000,6.66710595703125,0.12997019573748111,-0.0027513536679092793,-0.009385567517997696
1761468588305088800,6.6770888671875,0.101989717400074,-0.013564711799588985,0.021449204271985215
1761468588315071700,6.68707177734375,0.17770868299007414,-0.0010624781323596835,0.041454644043021835
1761468588325055000,6.697054931640625,0.11455986063778399,0.01843048207189422,0.0545315175267402
1761468588335039000,6.7070390625,0.089419574162364,0.023518069268180987,0.05259177250266075
1761468588345022000,6.71702197265625,0.14822598339617252,0.005822532141022384,0.041595399654004724
1761468588355004700,6.727004638671875,0.12293547479510307,-0.013600669028959237,0.019957107117283157
1761468588364988000,6.73698779296875,0.12862170373797416,-0.013247946601151488,0.0021564884807216004
1761468588374971000,6.746970947265625,0.0927092633575201,-0.026552422862243838,-0.0019763872400391847
1761468588384955000,6.756954833984375,0.14283844513893126,-0.0077719628754770375,-0.003271642081812024
1761468588394937900,6.766937744140625,0.116799748519063,-0.016482677038945258,-0.01754052466196008
1761468588404920800,6.7769208984375,0.1302671328574419,-0.006533776549762114,-0.040996241884189655
1761468588414903800,6.78690380859375,0.11515607296526431,-0.0018294713163282722,-0.03769920963279437
1761468588424887800,6.7968876953125,0.10752572421729564,0.00407139589106664,-0.031487162150954824
1761468588434871000,6.80687109375,0.12189034965634345,0.01522044768393971,-0.011121729961107484
1761468588444853800,6.816853759765625,0.16469079598486422,0.03188736784914508,-0.011424818260641768
1761468588454836700,6.826836669921875,0.062037061718106266,0.018581973706022836,0.029866767008043825
1761468588464820700,6.83682080078125,0.15780629716813563,0.01505172635379713,0.018037687928602098
1761468588474804000,6.846803955078125,0.11740297510921954,-0.00932416988669429,0.027647227795049547
1761468588484786700,6.85678662109375,0.13864625414609907,-0.0012861490867100654,0.043533971067727543
1761468588494770000,6.86677001953125,0.049315527310967444,0.006243196105351671,0.010278228341671638
1761468588504754000,6.87675390625,0.15181494779884813,-0.034135393371107055,0.0038790470901643856
1761468588514737000,6.88673681640625,0.1367021343410015,-0.04966718572627287,-0.01579018299644813
1761468588524719900,6.896719970703125,0.12263678410947322,-0.024056952784699385,-0.012529971057525836
1761468588534702800,6.906702880859375,0.06188683959245681,0.016148120455490425,-0.02417530476762913
1761468588544685800,6.916685791015625,0.1370072547674179,-0.01192685863180086,0.003679323266982101
1761468588554669800,6.926669921875,0.17695991044938564,-0.01580026143246796,0.002659958190564066
1761468588564652800,6.93665283203125,0.0900210471868515,0.010605163307674229,-0.002983477356773801
1761468588574635800,6.9466357421875,0.11306640720963478,-0.0047526150543009855,-0.012642354523972608
1761468588584618800,6.95661865234375,0.1476332782000303,-0.039325787921319716,-0.02092934511634521
1761468588594602800,6.966602783203125,0.1591542046457529,-0.019795696877338922,-0.02210153983402997
1761468588604586000,6.9765859375,0.08703063319921493,0.008242105704452843,0.008979585099569521
1761468588614569000,6.98656884765625,0.11247194844782352,0.009821036325814202,0.026372586483042686
1761468588624551700,6.9965517578125,0.1504787307590246,-0.006250383897963911,0.03807147244471125
1761468588634535700,7.00653564453125,0.12952771266698837,0.011608403799775987,0.04825470227957703
1761468588644519000,7.016518798828125,0.11157295378148555,0.01297340397608932,0.018344045897456817
1761468588654502000,7.026501953125,0.12548983545303344,-0.014669581468682736,-0.004813081103842706
1761468588664484900,7.03648486328125,0.14479133277237413,-0.02594765733554959,-0.003942700610635802
1761468588674468900,7.04646875,0.12847908039689063,-0.0023409599358448756,-0.00587482858384028
1761468588684451800,7.056451904296875,0.10588380222916602,0.019697967557329683,-0.0030363126557087523
1761468588694434800,7.066434814453125,0.11456219872534275,0.019195785622275433,-0.004054604586469941
1761468588704418000,7.07641796875,0.15960136389136315,0.006412095532007515,-0.014385275501431897
1761468588714400800,7.08640087890625,0.1121674125432968,0.0029682204221375286,-0.033395237961714154
1761468588724384800,7.096384765625,0.10932488259375095,0.0035335992199368774,-0.04216195662873797
1761468588734367700,7.10636767578125,0.13087386657893657,-0.006497732555423863,-0.039481457973644135
1761468588744351000,7.11635107421875,0.13611176723241805,-0.014149736012774519,-0.020228338973829522
1761468588754334000,7.126333984375,0.12174772631525993,0.01942715582589153,0.024104646117636002
1761468588764317700,7.136317626953125,0.14613807120621203,0.06941650901150423,0.08568071642760187
1761468588774301000,7.146301025390625,0.0856856483310461,0.0623625901783118,0.09149083661162294
1761468588784284000,7.156283935546875,0.1590057360857725,0.01616417197457049,0.05646597902092617
1761468588794267000,7.166266845703125,0.09929916314184666,-0.03650638311903458,-0.010389693926088512
1761468588804251000,7.1762509765625,0.11426175447404384,-0.06232390670231543,-0.04755100642305333
1761468588814233900,7.18623388671875,0.1292255148500204,-0.05118629418548662,-0.05415093897762708
1761468588824216800,7.196216796875,0.1292260993719101,-0.009690751876495778,0.007680772894108667
1761468588834199800,7.20619970703125,0.10288929658830165,0.02036745518357493,0.03738422539948951
1761468588844183800,7.216183837890625,0.11156827760636806,0.017578797146002762,0.02475944306482561
1761468588854166800,7.226166748046875,0.1407458567738533,-0.023538824361842126,-0.02728369627885986
1761468588864149800,7.236149658203125,0.13685703264176846,-0.062069625980569976,-0.07880233682440593
1761468588874133000,7.246133056640625,0.09600830490291118,-0.06040066528846509,-0.069916097130673
1761468588884116000,7.256115966796875,0.1277349840313196,-0.03709708358775824,-0.0368624939471716
1761468588894100000,7.266099853515625,0.12698971862196923,-0.010986810435866936,0.0210789050882915
1761468588904082700,7.276082763671875,0.11786357835829257,0.0287274562132312,0.07440725737034809
1761468588914066000,7.28606591796875,0.11831307569146156,0.055873945111641656,0.08751562197087331
1761468588924049000,7.296048828125,0.12743804691135882,0.041294192784302866,0.07140900256955064
1761468588934033000,7.306032958984375,0.11890636540949344,0.0064401982484851026,0.03644526404894423
1761468588944016000,7.316015869140625,0.12025135027766228,-0.0072667122005019335,-0.01900930487315636
1761468588953998800,7.325998779296875,0.10872867026627063,-0.01846187729057856,-0.046746768234926274
1761468588963981800,7.33598193359375,0.13356734344661236,-0.015888063013507054,-0.03863486021482385
1761468588973965800,7.3459658203125,0.12174421918392181,0.005363065969687887,-0.018502044904185458
1761468588983949000,7.355948974609375,0.11501111153662204,0.027736627678130753,0.008123128100438044
1761468588993931800,7.365931884765625,0.12069792500138282,0.024339048528554848,0.019741729067242704
1761468589003914800,7.375914794921875,0.13656126456558704,0.008157939118915237,-0.009383297929097898
1761468589013898000,7.38589794921875,0.11426467708349228,-0.022471916649537158,-0.03934004020895809
1761468589023882000,7.395882080078125,0.12084931617081164,-0.043037374056666154,-0.047380380830192005
1761468589033865000,7.405864990234375,0.12593933278620242,-0.0450966812066501,-0.02817893265211023
1761468589043847700,7.41584765625,0.12429390366673469,-0.021810466199275104,-0.001065907631884329
1761468589053831000,7.425830810546875,0.11785948670506477,-0.005307645988021977,0.03381784728795755
1761468589063815000,7.43581494140625,0.12354630016982554,0.009286491057695821,0.05317194701079279
1761468589073798000,7.4457978515625,0.11651274827122687,0.0029045714682433754,0.06583426661056001
1761468589083780900,7.45578076171875,0.12518939120173453,-0.00284495936864987,0.06726335413218476
1761468589093763800,7.465763916015625,0.1320715519309044,-0.0007044447751948609,0.043653971585049293
1761468589103747800,7.475747802734375,0.11486147393286228,-0.008043012068932875,0.011857930714590474
1761468589113734400,7.485734375,0.11336275980770587,-0.011853934959485194,-0.011243616474838927
1761468589123717600,7.495717529296875,0.1277256316810846,-0.011757945505413226,-0.026972465772065333
1761468589133700400,7.505700439453125,0.12248831554949283,-0.005822787869349122,-0.031832011799560855
1761468589143683300,7.515683349609375,0.12144085232317448,0.0029162619060371067,-0.03545645850757137
1761468589153667300,7.525667236328125,0.11440846946835517,-0.00045133766380604356,-0.03187481889482587
1761468589163650600,7.535650634765625,0.12413432919085025,0.011100495376833714,-0.030905608536489305
1761468589173633500,7.545633544921875,0.12578092735409735,0.003806105151539668,-0.02110793938653078
1761468589183616500,7.555616455078125,0.12503273933529854,0.0014893800412304698,-0.004738294268003665
1761468589193600500,7.5656005859375,0.11545768626034258,-0.0018481075181392952,0.022819204850401727
1761468589203583500,7.57558349609375,0.12054536478817462,0.005537404189864173,0.03996481191064231
1761468589213566500,7.58556640625,0.11396072570085525,0.007972421917598694,0.0505214781677816
1761468589223549700,7.5955498046875,0.11829904716610908,0.005142267392436042,0.036842684135003946
1761468589233532400,7.605532470703125,0.13131634964942931,-0.01111219038120471,0.021272094139410183
1761468589243516400,7.615516357421875,0.12742460290789603,-0.025008033831301145,-0.0007096050075022503
1761468589253499400,7.62549951171875,0.1175485210597515,-0.014487959557771681,-0.0037747647317824882
1761468589263482600,7.635482666015625,0.11859539976418018,-0.010562616507313214,-0.004626682553114369
1761468589273465300,7.64546533203125,0.12143676066994666,-0.006558098140265792,0.0033167415988631546
1761468589283449300,7.655449462890625,0.12472761890888213,0.0023558332779910415,-0.010384424095926806
1761468589293432600,7.6654326171875,0.1274210957765579,-0.0002372702214401215,-0.013789496998791582
1761468589303415600,7.67541552734375,0.12173428231179713,0.007545488042687065,-0.012286805384838954
1761468589313398500,7.6853984375,0.12996435051858424,0.006962856715987436,-0.01045724730354268
1761468589323382300,7.69538232421875,0.1232306583493948,0.001760908725298941,-0.010334456607513129
1761468589333365500,7.705365478515625,0.117993342217803,0.006032402898883447,0.0006771594760473817
1761468589343348500,7.715348388671875,0.13071312305927277,0.0035095835901098322,-0.005119959662505425
1761468589353331500,7.72533154296875,0.11889233688414096,0.004584496512357145,0.0037938347584335133
1761468589363314400,7.735314453125,0.12383096233010292,0.002274808497610502,-0.0034246224201284346
1761468589373298400,7.74529833984375,0.12188508895933628,0.0023430148956133053,0.005972758833249099
1761468589383281400,7.755281494140625,0.11754501392841338,-0.003641000550589524,0.005301234513544477
1761468589393264600,7.7652646484375,0.13564824137389658,0.003879065356473438,-0.0076173705353867254
1761468589403247600,7.77524755859375,0.13145780394673345,-0.012899160562944597,-0.006157088724477216
1761468589413231400,7.7852314453125,0.1233785423874855,-0.016653544660401528,0.0011906756558688358
1761468589423214300,7.79521435546875,0.12711948248147964,-0.020761363571719264,0.018112630028068087
1761468589433197600,7.805197509765625,0.12622282590270043,-0.01671854532116558,0.021822631561104207
1761468589443180500,7.8151806640625,0.1257744976133108,-0.01967858700342476,0.028058091884572058
1761468589453163300,7.825163330078125,0.13295768711566924,-0.025991277281567454,0.012681065399432555
1761468589463147500,7.8351474609375,0.11440203972756861,-0.029927324389130806,-0.00006617883769795299
1761468589473130500,7.845130615234375,0.13205986149311064,-0.021620067326864226,-0.02719360227603465
1761468589483113500,7.855113525390625,0.12113573189675807,-0.017324539257143622,-0.030160233529284593
1761468589493096700,7.8650966796875,0.13295768711566924,-0.003451259265304543,-0.021848674751236103
1761468589503080400,7.87508056640625,0.1212871230661869,0.01495291932155378,-0.003866511835576966
1761468589513063400,7.8850634765625,0.12143851423561572,0.04532901952464599,0.0015782228018855675
1761468589523046400,7.89504638671875,0.12951952936053276,0.049252170618018135,0.010184686573012731
1761468589533029600,7.905029541015625,0.12308335883319377,0.05374790656811092,0.024642913146223872
1761468589543012400,7.915012451171875,0.1212871230661869,0.04631274246552493,0.020683713491936213
1761468589552996400,7.924996337890625,0.11365443623065948,0.03342362380598206,0.009568148410134017
1761468589562979600,7.9349794921875,0.13370529061257838,0.02122466566795483,0.007753344939975067
1761468589572962600,7.944962646484375,0.1214355916261673,0.0004343043306143954,0.0010565963808447122
1761468589582945500,7.954945556640625,0.11918927400410174,-0.014855815622629597,-0.008067187528964131
1761468589592929500,7.964929443359375,0.12098375620543957,-0.035934716144343834,-0.0002634001765400171
1761468589602912500,7.97491259765625,0.12128186236917972,-0.04625351395842153,-0.008653768944996408
1761468589612895500,7.9848955078125,0.1344499715000391,-0.035444786336086685,-0.0073028109937673434
1761468589622878500,7.99487841796875,0.11649462809264659,-0.02884210926857777,0.005225155336339958
1761468589632861400,8.004861328125,0.12173194422423839,-0.029255658505531027,0.004607525761495344
1761468589642844400,8.014844482421875,0.12322832026183604,-0.022869720328086984,0.007935112981358542
1761468589652827400,8.024827392578125,0.1185895545452833,-0.012694039045437238,0.010634987623780033
1761468589662810600,8.034810546875,0.11634557501077651,0.0072871567669091745,0.02286414910382591
1761468589672793300,8.04479345703125,0.1268213763177395,0.01581713036887813,0.018349050866137258
1761468589682777300,8.05477734375,0.1254746378839016,0.028200514296256005,0.013395602310379034
1761468589692760600,8.064760498046875,0.12487550294697283,0.018764974723267366,-0.003097331261099316
1761468589702743600,8.07474365234375,0.1236789866387844,0.01832889856067486,-0.004156649321992881
1761468589712726500,8.0847265625,0.13310498663187026,0.009422479162015952,-0.002163840670115314
1761468589722710300,8.094710205078124,0.1112567274391651,-0.0022023369164438917,-0.012308373329252935
1761468589732693500,8.104693603515624,0.1160451307594776,-0.008234913345263339,-0.01133857844902668
1761468589742676500,8.114676513671874,0.11903788283467293,-0.009630642019980587,-0.009550749750761315
1761468589752659500,8.124659423828126,0.11754209131896495,-0.013279830443602985,-0.006915757038095034
1761468589762642400,8.134642333984376,0.12098434072732925,-0.012055983170494437,0.011824220241233706
1761468589772626400,8.14462646484375,0.12622282590270043,0.008570072716916911,0.019307365371123885
1761468589782609400,8.154609375,0.11918985852599143,0.005153327642567455,0.028982947077951394
1761468589792592600,8.164592529296876,0.13475333836078643,-0.005057657848903909,0.007751806003437377
1761468589802575600,8.17457568359375,0.11485095253884792,0.0029315234072506426,-0.006058245159615762
1761468589812559600,8.1845595703125,0.11679565686583518,0.011766859464230946,-0.0034181561467237767
1761468589822542300,8.194542236328125,0.12666940062642096,0.0006323933191364631,-0.023893483018409458
1761468589832525600,8.204525634765625,0.1256219374001026,0.0022506193378474563,-0.036017133730789644
1761468589842508500,8.214508544921875,0.11619476836323737,-0.009100941890338434,-0.03828322006582748
1761468589852491300,8.2244912109375,0.11963643324971199,-0.013800397418718784,-0.02614743139108177
1761468589862475500,8.2344755859375,0.13789455899596215,-0.009689441268821247,-0.006207069912622682
1761468589872458500,8.24445849609375,0.12622457946836949,-0.0062526808863272885,0.011352442577597684
1761468589882441500,8.25444140625,0.10931669928729533,-0.0028461877779336646,0.016271267344546505
1761468589892424700,8.2644248046875,0.12697452105283735,0.0024108331345487383,0.03615400775109883
1761468589902408700,8.27440869140625,0.13385726630389688,-0.0010260094463359563,0.047290670419856906
1761468589912391400,8.284391357421875,0.12442892822325229,0.010222114240261726,0.04645489088257309
1761468589922374400,8.29437451171875,0.1322094990968704,0.02040615692588035,0.035091451986925676
1761468589932357600,8.304357666015624,0.12622165685892103,0.006748789273621514,0.01646492675312329
1761468589942340400,8.31434033203125,0.1253220776706934,0.011160144009045324,0.005723834706633351
1761468589952324400,8.324324462890624,0.12606968116760253,0.02203721502670087,-0.0020474888480268415
1761468589962307300,8.334307373046874,0.12262860080301762,0.00788302203451749,0.009088438601791858
1761468589972290600,8.34429052734375,0.13205460079610348,0.008720171544980258,0.009308707456081174
1761468589982273500,8.3542734375,0.12187749017477034,0.0011049427343299612,-0.013948372788354754
1761468589992257500,8.364257568359376,0.11918459782898426,-0.015142925468320027,-0.02902447553158272
1761468590002240500,8.374240478515626,0.12711597535014152,-0.028869997355923986,-0.04577811956559308
1761468590012223500,8.384223388671876,0.1371428638458252,-0.03259140619896352,-0.04566043886952102
1761468590022206500,8.39420654296875,0.12951251509785652,-0.024199361496651545,-0.020563256316888146
1761468590032189400,8.404189453125,0.11664426569640636,-0.0109470812136773,-0.01726885441399645
1761468590042173400,8.41417333984375,0.1206862345635891,-0.007326936221448704,-0.00356495790600311
1761468590052156400,8.424156494140625,0.12472820343077182,-0.01288480324402917,0.012208260255912318
1761468590062139400,8.434139404296875,0.13580197063088417,0.0007869719594949856,0.025088314259587786
1761468590072122600,8.44412255859375,0.13714987810850143,0.014624271889077499,0.02927513039098121
1761468590082106600,8.454106689453125,0.12233517081439495,0.023837980838352812,0.04086332251979038
1761468590092089300,8.46408935546875,0.12293255218565463,0.03194815812567249,0.04254980516885407
1761468590102072600,8.474072509765625,0.1326584119081497,0.041881856479146516,0.04705810377299785
1761468590112052000,8.484052001953126,0.12472528082132339,0.0415409112541005,0.04260831672332715
1761468590122035000,8.494034912109376,0.1422311268955469,0.032242825656733476,0.01528087263428606
1761468590132019000,8.50401904296875,0.1275648881614208,0.007499420411256142,-0.0020245189643930644
1761468590142002200,8.514002197265626,0.11454466306865214,-0.021775445118243805,-0.032261402493040076
1761468590151985000,8.52398486328125,0.11813538103699683,-0.02908627045510802,-0.04985732887035701
1761468590161967900,8.5339677734375,0.13070552427470683,-0.05303229651150759,-0.05830765679827891
1761468590171952000,8.5439521484375,0.11634206787943839,-0.04951588132181205,-0.0497226650734432
1761468590181935000,8.55393505859375,0.11828911029398441,-0.036125375311658714,-0.03792712750399951
1761468590191917800,8.563917724609375,0.11589490863382816,-0.0066311999090947205,-0.002179819123959169
1761468590201901000,8.573901123046875,0.1263712944626808,-0.0001495645385235548,0.024445742039731704
1761468590211884000,8.583884033203125,0.12517536267638205,0.007730626218090765,0.03478818102430086
1761468590221868000,8.593867919921875,0.12293079861998557,0.012506740878988057,0.030595711470255627
1761468590231852000,8.60385205078125,0.1254746378839016,-0.004158809313038364,0.02429106293467339
1761468590241834800,8.613834716796875,0.12487550294697283,0.0025922130168648436,0.012104891212983056
1761468590251818000,8.62381787109375,0.11440028616189955,0.006941320737614296,0.005767523151310161
1761468590261801000,8.633801025390625,0.11784195104837417,0.018062849769322202,0.016704201701981947
1761468590271785000,8.643784912109375,0.1341524498581886,0.024346807143324985,0.007801102204993367
1761468590281768200,8.653768310546875,0.14612813433408736,0.029760411423584446,-0.002530495725153014
1761468590291751000,8.6637509765625,0.22874212013483047,0.027287559603224508,-0.027565002004848793
1761468590301734000,8.67373388671875,0.04229951106905937,-0.012734170126426032,0.007150743970903568
1761468590311717000,8.683717041015624,0.11532967596650123,-0.010898839891469106,-0.023213747992785645
1761468590321701000,8.693701171875,0.1310463005363941,-0.019754711846401915,-0.026044665136351248
1761468590331683800,8.703683837890624,0.06865092689990997,-0.04515598277898971,-0.011514606302790343
1761468590341666800,8.713666748046874,0.06834814456105232,-0.03566884544950444,0.00641040589842014
1761468590351650000,8.723650146484376,0.11293664335012435,-0.010647299116081558,0.0042258010014891625
1761468590361633000,8.733633056640626,0.11786883905529975,-0.011849468846921809,0.022436543942056596
1761468590371617000,8.743616943359376,0.10723697040379047,-0.004657497816486284,0.028458229084103368
1761468590381600000,8.75360009765625,0.13895312813818453,0.002448790524760261,0.024762858864618462
1761468590391583000,8.7635830078125,0.16723288168311118,0.015812851485982535,0.01283457089413423
1761468590401566000,8.77356591796875,0.1485281812131405,0.023006525849737225,0.01588977091340348
