time,seconds_elapsed,z,y,x
1761468656104420600,0.113420654296875,0.13170739479362964,0.012690038723754696,-0.014911673995712771
1761468656114403800,0.12340380859375,0.11883739182651042,0.0016286058488301932,-0.0053629929044516755
1761468656124386800,0.13338671875,0.1267676003038883,-0.010334237411804496,0.0015251089417375623
1761468656134369500,0.14336962890625,0.13275251993238926,-0.02124895985899493,0.009925633778027259
1761468656144352800,0.153352783203125,0.11973463292717933,-0.0189550448021153,0.011981333331973291
1761468656154335700,0.163335693359375,0.13694003475010394,-0.02567361246740911,0.0019225016283337026
1761468656164318700,0.173318603515625,0.11179857923090457,-0.024244159619603304,0.010489039814448915
1761468656174304500,0.183304443359375,0.12197042915523051,-0.016164957425859754,0.016137279401067642
1761468656184287500,0.19328759765625,0.12600830636918545,-0.009833978005778043,0.026252563132834618
1761468656194270700,0.203270751953125,0.13289105162024498,0.006088074042298831,0.029304461516742594
1761468656204253700,0.213253662109375,0.13049568091630934,0.0028268757226876913,0.03165538115759846
1761468656214236400,0.223236328125,0.12511106526851654,-0.007331123772799037,0.03451050572723616
1761468656224219600,0.2332197265625,0.14576339267492294,-0.007657940007792785,0.022114760075206866
1761468656234202600,0.24320263671875,0.10386603266596793,-0.0077398050383897495,0.017053668160201048
1761468656244185600,0.253185546875,0.125565238776803,0.00533443353024777,-0.0026916548033477736
1761468656254168600,0.26316845703125,0.13095336155593396,-0.003879193220636807,-0.0016865420145681126
1761468656264151600,0.273151611328125,0.1337958915054798,0.0013844218294136225,-0.013143129953229799
1761468656274134500,0.283134521484375,0.11198971788883208,-0.019127830386022105,-0.04437948654773645
1761468656284117800,0.29311767578125,0.14341536824405193,-0.013488212497276253,-0.051206323193362914
1761468656294100500,0.3031005859375,0.13098726382553577,-0.00406877924229484,-0.03867786823948845
1761468656304083700,0.313083740234375,0.11286357811391352,0.007173417027015239,-0.018894514820491894
1761468656314066700,0.323066650390625,0.11434417206048965,0.005105734774330631,-0.01217454978255555
1761468656324049700,0.333049560546875,0.1512894626200199,0.032689989468920974,-0.006765566878486424
1761468656334032600,0.34303271484375,0.12044658058881759,0.01702920500580221,0.0009112056939397006
1761468656344015600,0.353015625,0.13479250132739543,0.01573995521313045,-0.01916486989420373
1761468656353998600,0.36299853515625,0.11545593269467354,0.010202962015219964,-0.011418128224951215
1761468656363981600,0.372981689453125,0.128733931940794,0.022224718689126892,-0.003878489967738278
1761468656373964500,0.382964599609375,0.12033552142977713,0.019246712091914378,0.0210753340248717
1761468656383947500,0.392947509765625,0.11914952651560305,0.02009975785783026,0.016422165323630906
1761468656393930800,0.4029306640625,0.1282885262608528,0.012665278741833753,0.004262484316644259
1761468656403913500,0.41291357421875,0.1299585052996874,-0.012217096582916564,-0.01154760895667132
1761468656413896400,0.422896484375,0.12234101603329181,-0.025505055534048006,-0.026933088176324962
1761468656423879700,0.432879638671875,0.13910042765438557,-0.011639995381282641,-0.0344165484000463
1761468656433862700,0.442862548828125,0.11784838078916073,0.009919021374150178,-0.0166924884313019
1761468656443845600,0.452845703125,0.09570493804216385,0.016685570066748187,0.005471047255652956
1761468656453828600,0.46282861328125,0.14225450777113438,0.011182926663011312,-0.007767282133782282
1761468656463811600,0.4728115234375,0.11996844168305397,-0.000652139199222438,0.00044942883451003576
1761468656473794800,0.482794921875,0.12685118693411349,-0.007894201015657744,-0.0018882522988598793
1761468656483777500,0.492777587890625,0.10798691198825836,-0.0169664191350108,0.005272985666594468
1761468656493760500,0.502760498046875,0.16034136860370635,-0.00012731160752009599,0.013588910092506557
1761468656503743700,0.51274365234375,0.09673545013368129,0.013524567018868401,0.050420830804901194
1761468656513726700,0.522726806640625,0.11723404828310012,0.031763261978863734,0.046801398198725655
1761468656523709400,0.53270947265625,0.13907996938824652,0.011093193419789895,0.02775344638219103
1761468656533692700,0.542692626953125,0.11468845545351504,-0.020836903892806728,0.023267633604491127
1761468656543675600,0.552675537109375,0.12246844180524348,-0.05435970919036772,0.005571137496107257
1761468656553658400,0.562658447265625,0.11139525912702083,-0.0701584545191843,-0.013601089154067448
1761468656563641600,0.5726416015625,0.12800503314435482,-0.059888825042499226,-0.0037522971716476604
1761468656573624600,0.58262451171875,0.10720540622174739,-0.04911218675859272,0.012225731980521232
1761468656583607600,0.592607666015625,0.1293523561000824,-0.0078778618022101,0.019358899195538834
1761468656593590500,0.602590576171875,0.126210550943017,-0.0025101150908274574,0.0015300545449135824
1761468656603573500,0.612573486328125,0.11932780569195747,0.004144716855604201,-0.018538472491013817
1761468656613556700,0.622556640625,0.12980302247703074,0.02796657310964074,-0.011782819651765749
1761468656623539700,0.632539794921875,0.13219605509340762,0.045906230324134226,0.002027341109141707
1761468656633522400,0.6425224609375,0.11737959423363208,0.06715471982567105,-0.0046502186923287805
1761468656643505700,0.652505615234375,0.1348854403078556,0.07340781170395203,-0.01180110879370477
1761468656653488600,0.662488525390625,0.11677578312158583,0.0584132543309126,-0.007939560827612876
1761468656663471600,0.6724716796875,0.13218728726506232,0.03431457672975957,-0.006807825984479859
1761468656673454600,0.68245458984375,0.12410744118392467,0.003779413507436402,0.01567687251481693
1761468656683437600,0.6924375,0.11752163305282592,-0.03949097015408333,0.013870695309108122
1761468656693420500,0.702420654296875,0.10659691893458366,-0.0742617022866616,0.012503690405376255
1761468656703403800,0.71240380859375,0.12395371192693709,-0.08132476797411217,0.010470006320415995
1761468656713386500,0.722386474609375,0.10315583856999873,-0.08387360307355411,0.024565660358662717
1761468656723369500,0.732369384765625,0.14430734864771366,-0.0549039401688613,0.020537117228633724
1761468656733352700,0.742352783203125,0.11692425168156623,-0.025559690064424646,0.04197684128622058
1761468656743334700,0.752334716796875,0.12455401590764521,-0.0016566400666488334,0.041878107319213445
1761468656753317600,0.762317626953125,0.11542436851263045,0.01420917001585476,0.028754006293439306
1761468656763300600,0.772300537109375,0.1365226861208677,0.03879145271575544,-0.015904968482535333
1761468656773283600,0.78228369140625,0.10330313808619976,0.02913494560215622,-0.039913789542880836
1761468656783266600,0.7922666015625,0.13697159893214703,0.008919708138494752,-0.06020292792639229
1761468656793249500,0.80224951171875,0.10884031394720077,0.01919110488058068,-0.062242630760185415
1761468656803232800,0.812232666015625,0.10764321311712265,0.028525275571481323,-0.028642906035203485
1761468656813215500,0.822215576171875,0.1164724162608385,0.031858054989692755,0.013361599576077424
1761468656823198500,0.832198486328125,0.14221008410751818,0.03594528777070809,0.03556345341284759
1761468656833181700,0.842181640625,0.11317980445623398,-0.007235020154295489,0.016966154273529536
1761468656843164700,0.85216455078125,0.11961539046168326,-0.03220700085810385,0.0005586385297589003
1761468656853147400,0.8621474609375,0.15477788925766944,0.009536113870632834,0.04211378380518872
1761468656863130600,0.872130615234375,0.08998013065457343,0.04081883949066978,0.10021349237463437
1761468656873113600,0.882113525390625,0.12199848620593547,0.031628397252550344,0.07018451140904798
1761468656883096600,0.8920966796875,0.12738134828805922,-0.0020427213413640854,0.00939350879585836
1761468656893079600,0.90207958984375,0.11959785480499267,-0.01873768942411989,-0.02922318557461258
1761468656903062500,0.9120625,0.14174363563954828,-0.011050683152046985,-0.056153634269279426
1761468656913045800,0.922045654296875,0.12243687762320041,-0.00001253525458741933,-0.051733890731423156
1761468656923028700,0.93202880859375,0.0863695389419794,0.004286326416535303,-0.026004346825694663
1761468656933011500,0.942011474609375,0.12871756532788275,0.010296599682001396,-0.02439260534669738
1761468656942994700,0.95199462890625,0.13455343187451363,-0.003182539026252925,-0.04177808557741809
1761468656952977700,0.961977783203125,0.11016191793978214,-0.00801002311478369,-0.04930570460327435
1761468656962960400,0.97196044921875,0.09684241763949393,-0.01563427091552876,-0.030420290971267968
1761468656972943600,0.981943603515625,0.13934008162915706,-0.006539114878582768,0.011919675405765882
1761468656982926600,0.991926513671875,0.12632102558016775,0.0004792896832339465,0.05090153612708673
1761468656992909600,1.00190966796875,0.10327625007927417,-0.0004828059477265924,0.0686282173111802
1761468657002892500,1.011892578125,0.12661679365634917,-0.018003634961950593,0.056181284894607955
1761468657012875500,1.02187548828125,0.12122691731154918,-0.050040658681164495,0.033119192932732404
1761468657022858500,1.0318583984375,0.13274667471349239,-0.05380915350236464,0.0076586112946504725
1761468657032841700,1.041841796875,0.1291518650919199,-0.0325235742602963,-0.0051052918163361025
1761468657042824400,1.051824462890625,0.10760112754106521,-0.03169222430295776,0.008034303606091997
1761468657052807700,1.0618076171875,0.12854688493609429,-0.005247166238748468,0.025832588721672073
1761468657062790700,1.071790771484375,0.11807049910724163,0.02082702638618648,0.020789644384710117
1761468657072773600,1.081773681640625,0.12719722389280796,0.015369080640701575,-0.003509734287159517
1761468657082756600,1.091756591796875,0.13527823901772498,0.017540721024782397,-0.013013238229556008
1761468657092739600,1.101739501953125,0.1204635317236185,-0.010737438784679398,-0.0553245402011089
1761468657102722600,1.11172265625,0.09906418534219265,-0.04435294103410561,-0.12378315939931198
1761468657112705800,1.121705810546875,0.13423311387896536,-0.030230362456315194,-0.12088402215801179
1761468657122688500,1.1316884765625,0.13962299022376537,0.0043191646736348045,-0.0648989037228981
1761468657132671500,1.14167138671875,0.10101882654130458,0.020685197629546747,-0.040264694472937845
1761468657142654700,1.15165478515625,0.11433832684159279,0.040112065761070695,0.006278039089869707
1761468657152637400,1.161637451171875,0.13888006290197372,0.04263685326464474,0.03124628890005406
1761468657162620700,1.17162060546875,0.11628770734369755,0.026537814381578935,0.010434930440457537
1761468657172603600,1.181603759765625,0.12691431529819966,0.016379253197088838,-0.012798663897113875
1761468657182587000,1.1915869140625,0.1029740522623062,0.017634810782712885,0.00916414788623806
1761468657192569900,1.20156982421875,0.13978431826531887,0.006294734496343881,0.023657066746917553
1761468657202552800,1.211552734375,0.11105389834344387,0.01134238697446417,0.031925950860441664
1761468657212535800,1.221535888671875,0.13170447218418121,0.0358540749564534,0.03821473054003436
1761468657222519000,1.23151904296875,0.12856149798333644,0.03670209292080253,0.030217639972059986
1761468657232501800,1.241501708984375,0.10297112965285778,0.013143079720879905,0.014208416530606336
1761468657242484700,1.251484619140625,0.1276613342732191,0.004102581047196872,-0.019619358496321362
1761468657252468000,1.261468017578125,0.10641513262689113,-0.021493828865000977,-0.04613472815065179
1761468657262450700,1.27145068359375,0.12437222959995269,-0.02887277840147726,-0.04299993725626264
1761468657272433700,1.28143359375,0.09699030167758464,-0.02724062432211358,-0.007993240943341515
1761468657282417000,1.2914169921875,0.13395488145947457,-0.004809030549810267,0.01876070954010356
1761468657292399900,1.30139990234375,0.12333119611442088,-0.009294957491941749,0.048504055664455516
1761468657302382600,1.311382568359375,0.11390811873078345,-0.009253241808642633,0.049081339529179965
1761468657312365800,1.32136572265625,0.14877368040680886,-0.0159422134866938,0.02045039335982874
1761468657322348800,1.331348876953125,0.0874199247777462,-0.010851594083104281,0.011572830162895842
1761468657332331800,1.341331787109375,0.10806816053092479,-0.011753862985339947,-0.00047852706483099606
1761468657342314800,1.351314697265625,0.12497545619010925,-0.013483490656386128,-0.011017835761792957
1761468657352297700,1.361297607421875,0.11285422576367854,-0.02316520527647808,-0.0139988152008038
1761468657362281000,1.371281005859375,0.12287819164991379,-0.018474567808792926,-0.006925492980820127
1761468657372264000,1.381263916015625,0.09474807570874691,-0.03210046261055395,0.027210982669098303
1761468657382246700,1.39124658203125,0.165828860104084,-0.036931444697268306,0.01673701712619513
1761468657392230000,1.40122998046875,0.11615209826529026,-0.021536078837839884,0.0264085482789902
1761468657402212900,1.411212890625,0.13261223467886446,-0.022388645113143136,0.01820504841872025
1761468657412194800,1.42119482421875,0.10178688830435276,-0.03193818472092971,0.01839153830099385
1761468657422177800,1.431177734375,0.13770108225047586,-0.005004397858283482,-0.0016278980293544009
1761468657432160800,1.441160888671875,0.13784955081045627,0.009087324356939644,0.005475627532647923
1761468657442144000,1.45114404296875,0.104181089964509,0.019565418085688725,0.01155797508705873
1761468657452126700,1.461126708984375,0.11884615965485572,0.012261826207209378,0.003074238079879433
1761468657462109700,1.471109619140625,0.13650222785472868,-0.008715171142877079,-0.011173948772111907
1761468657472093000,1.481093017578125,0.11779869642853737,0.022480889973859303,0.011608883290388622
1761468657482075600,1.49107568359375,0.11016717863678932,0.05579721748046577,0.02664304202145431
1761468657492059000,1.501058837890625,0.11689911724030971,0.07634981540602166,0.04257290748322848
1761468657502041900,1.511041748046875,0.12422843721508979,0.09976577600659801,0.03529632234268356
1761468657512024800,1.52102490234375,0.1308119072586298,0.09674646471804008,0.015858065167465248
1761468657522007800,1.5310078125,0.13619593838453292,0.03557757326974533,-0.03935105479331687
1761468657531990800,1.54099072265625,0.1115051492422819,-0.009415378134371712,-0.07502176797292195
1761468657541973800,1.550973876953125,0.13200433191359043,-0.024751561152469365,-0.06472906358132605
1761468657551957000,1.56095703125,0.11823825688958167,-0.03637494332566857,-0.03726401481961365
1761468657561939700,1.570939697265625,0.12018296121656893,-0.02303499845897313,0.005271085970452986
1761468657571922700,1.580922607421875,0.1152478429019451,-0.021417466560006142,0.021046190128778106
1761468657581906000,1.590906005859375,0.1267728610008955,-0.02756718482878059,0.01714461154639721
1761468657591889000,1.600888916015625,0.12827274416983128,-0.03848621812490746,0.0006716887164860963
1761468657601871600,1.61087158203125,0.12318506564199924,-0.02408267631442286,-0.0008940399300074205
1761468657611854800,1.620854736328125,0.1011836617141962,-0.010746393842692487,0.016822745481156743
1761468657621837800,1.630837890625,0.11180676253736019,0.0014131501669762654,0.023246403586794622
1761468657631820800,1.64082080078125,0.164029117205739,0.006504979713540524,0.010995359068503604
1761468657641803800,1.6508037109375,0.12243044788241386,-0.0012892680589808151,0.02322640654495917
1761468657651786800,1.660786865234375,0.12422551460564135,-0.007410970376245677,0.0026328190218890086
1761468657661770000,1.67077001953125,0.09923545025587081,-0.039958194940187965,-0.0033475842616986482
1761468657671752700,1.680752685546875,0.13066110061109065,-0.04587346513227094,-0.00804704435665626
1761468657681735700,1.690735595703125,0.13844342505037785,-0.022286399448220615,-0.0061247482242994
1761468657691719000,1.700718994140625,0.10851824238598345,-0.024690793708828276,0.014803898205724544
1761468657701702000,1.710701904296875,0.13770400485992432,-0.001890677151386626,0.024672107274667357
1761468657711684600,1.7206845703125,0.11002397077381611,0.006215463281632401,0.042756634586257856
1761468657721667800,1.730667724609375,0.12484043163359164,0.0136231320225168,0.018902711826679297
1761468657731650800,1.74065087890625,0.12678513596057892,0.012707674845145083,-0.01244544371238444
1761468657741633800,1.7506337890625,0.11675649389922618,0.015358842374477535,-0.03760416546021588
1761468657751616800,1.76061669921875,0.13545710271596909,0.025970755083346737,-0.01864939465273637
1761468657761599700,1.770599853515625,0.10567629695832728,0.04467549665251281,0.019154229769180527
1761468657771582700,1.780582763671875,0.12348200276196002,0.055641378464782607,0.026546289948979392
1761468657781566000,1.79056591796875,0.12348083371818065,0.044495125983771866,0.01186912339546252
1761468657791548700,1.800548583984375,0.14053952054679392,0.01984579222991597,-0.0035899736162507906
1761468657801532000,1.810531982421875,0.1029787284374237,-0.006991274526296183,0.0016975885649677365
1761468657811515000,1.820514892578125,0.13934066615104673,-0.014345783741259947,0.011781536443554796
1761468657821497900,1.830497802734375,0.1245242052912712,-0.01283853924977593,0.00906441840538755
1761468657831480800,1.840480712890625,0.0968394950300455,-0.014649310432211494,0.010990650927345268
1761468657841463800,1.8504638671875,0.10716682777702807,-0.0242654901019996,-0.009932693706476129
1761468657851446800,1.86044677734375,0.1525099443256855,-0.022668708730116484,-0.022100005464069546
1761468657861429800,1.8704296875,0.09534662612378597,-0.02149924939221237,-0.020456037649326027
1761468657871412700,1.880412841796875,0.12228373288810253,-0.009784142948105,-0.018419444654649123
1761468657881395700,1.890395751953125,0.13874328477978706,0.00721247952892445,-0.01521655239353422
1761468657891379000,1.90037890625,0.10088438650667667,0.02469641973201651,0.014099371232138946
1761468657901361700,1.910361572265625,0.14023907629549504,0.034495212259981776,0.016248959614615886
1761468657911344600,1.9203447265625,0.11659516585767268,0.03933964291673619,0.00598776917271316
1761468657921327900,1.930327880859375,0.13050854039788246,0.0414194905312499,-0.008219702076399698
1761468657931310800,1.940310791015625,0.108211368393898,0.01912244639142882,-0.030296180534409356
1761468657941293800,1.9502939453125,0.12212591197788715,-0.011790043976996093,-0.051019221389736046
1761468657951276800,1.96027685546875,0.12077975806593894,-0.03664550389535725,-0.04854329169630073
1761468657961259800,1.970259765625,0.1251210021406412,-0.0404231136047747,-0.0391151545450557
1761468657971243000,1.980242919921875,0.10896306354403495,-0.06217853884829674,-0.0023447090957779437
1761468657981225700,1.990225830078125,0.10627192476391792,-0.059066411876864726,0.042470182327693326
1761468657991208700,2.000208740234375,0.12557692921459673,-0.059618830728391185,0.0574563874309184
1761468658001192000,2.01019189453125,0.12542904517650605,-0.05178125527079683,0.060915186115284445
1761468658011175000,2.0201748046875,0.12587795798778534,-0.030283120123436674,0.06687398948841727
1761468658021157600,2.03015771484375,0.11749825217723846,-0.003059214040683582,0.07831550315553322
1761468658031140900,2.040140869140625,0.1291694007486105,0.011347191013745032,0.066068897350342
1761468658041123800,2.050123779296875,0.1186906768321991,0.044737328108656216,0.05003959010208491
1761468658051105800,2.060105712890625,0.12227847219109535,0.05131474743732251,0.032253045656648466
1761468658061088800,2.0700888671875,0.12841186037957666,0.04606975488935131,-0.007149278099602088
1761468658071071700,2.08007177734375,0.1318523562222719,0.03289422963701654,-0.03906170275819022
1761468658081054700,2.0900546875,0.12317103711664676,0.022470587775553576,-0.07577449516952037
1761468658091037700,2.10003759765625,0.09728548523187637,0.010808120267558842,-0.09035658101784065
1761468658101021000,2.11002099609375,0.13095277703404426,-0.007953721783705986,-0.10209615518292411
1761468658111004000,2.12000390625,0.08935703032016754,-0.01599027671238873,-0.05938732809403445
1761468658120986600,2.129986572265625,0.15550444996654986,0.004576536968187429,-0.03505235751897562
1761468658130969900,2.139969970703125,0.11570376997590065,-0.008870914260437712,0.0004715995671227574
1761468658140952800,2.149952880859375,0.10553250457346439,-0.02184396661007777,0.0016513656699098645
1761468658150935800,2.159935791015625,0.12752981684803963,-0.03242735647736117,0.01691778508715797
1761468658160918800,2.169918701171875,0.10029986461699009,-0.04281939762416295,0.029376933097909202
1761468658170901800,2.17990185546875,0.14369593875110148,-0.03367591806661803,0.02976766771485563
1761468658180884500,2.189884521484375,0.10598901616930961,-0.013716929519502446,0.04625178322563879
1761468658190867500,2.199867431640625,0.13890811995267868,0.003075101162982173,0.05055390999950468
1761468658200850400,2.209850341796875,0.10778291384875774,0.03665904836351983,0.07390465987676288
1761468658210833700,2.219833740234375,0.13935644824206828,0.04097395242056809,0.05332296372088603
1761468658220816400,2.22981640625,0.1181061549425125,0.031749142121965994,0.026935741357714867
1761468658230799400,2.23979931640625,0.1234919396340847,0.016576237073913216,-0.009111792077915742
1761468658240782600,2.249782470703125,0.11675766294300556,0.009561115881148725,-0.032753533391538074
1761468658250765300,2.259765380859375,0.1336655431240797,0.015560689656087196,-0.02586760523612611
1761468658260748300,2.269748291015625,0.11555822402536868,0.016834116258542052,-0.0032033626185730096
1761468658270731500,2.2797314453125,0.12154255913197994,0.03705628578648902,0.026459429082856513
1761468658280714500,2.289714599609375,0.11869769109487532,0.01999363973538857,0.022757514958153476
1761468658290697200,2.299697265625,0.11780103451609611,-0.00947499480054248,-0.0009983451212756335
1761468658300680400,2.309680419921875,0.12199088742136954,-0.04275420060057659,-0.037320932638621886
1761468658310663400,2.319663330078125,0.11510697312653063,-0.05311049914713949,-0.04803547917148098
1761468658320646400,2.329646484375,0.10732640225291251,-0.0677351043963572,-0.043693225883203554
1761468658330629400,2.33962939453125,0.12304010421335697,-0.054411000986187716,-0.014299350783647968
1761468658340612400,2.3496123046875,0.12783259918689727,-0.033551209408137946,0.0035450978614855557
1761468658350595600,2.359595703125,0.1327723936766386,-0.04855640690620057,0.010021646064985543
1761468658360578600,2.36957861328125,0.09716332015693187,-0.04495875687357038,0.007501347506861202
1761468658370561300,2.379561279296875,0.13846388331651688,-0.03526539748145733,0.0012191436985274776
1761468658380544500,2.38954443359375,0.12020868017971514,-0.01903627507847268,0.009743409078917466
1761468658390527500,2.399527587890625,0.12918927449285983,0.01582835501579102,0.019830233901180327
1761468658400510500,2.409510498046875,0.12544891892075538,0.04582822405132465,0.03138700797841884
1761468658410493400,2.419493408203125,0.11377601678371428,0.06117811593436635,0.03959494198521133
1761468658420476400,2.429476318359375,0.11392565438747405,0.06627262606178409,0.02827243332157377
1761468658430459400,2.43945947265625,0.13816460810899733,0.06408830429264344,0.025192094294470734
1761468658440442400,2.4494423828125,0.11138006155788897,0.052727377014490776,0.010172950469446367
1761468658450425300,2.45942529296875,0.13561901527941225,0.04254954487395007,-0.008675912278145551
1761468658460408600,2.46940869140625,0.1142196688979864,0.03636807519346475,-0.01181817409293726
1761468658470391600,2.4793916015625,0.153424721083045,0.01229213458050508,-0.026265294750244354
1761468658480374300,2.489374267578125,0.08578443253040313,-0.01220522804860957,-0.019314174137823284
1761468658490357500,2.499357421875,0.11870821248888969,-0.03092761487232055,-0.03917592198869679
1761468658500340500,2.509340576171875,0.15656827980577945,-0.05465846837465651,-0.05890275944748427
1761468658510323500,2.519323486328125,0.07711363481879234,-0.07051731442683376,-0.036075878180703146
1761468658520306400,2.529306396484375,0.1374175891339779,-0.0558624190706294,-0.042026484547648575
1761468658530289400,2.539289306640625,0.09193184924423695,-0.06415310859058518,-0.023875157343852333
1761468658540272400,2.5492724609375,0.15553016892969607,-0.06444000380714424,-0.01742590357265435
1761468658550255600,2.559255615234375,0.09612754736840724,-0.04889526520543731,0.019837590657151304
1761468658560238300,2.56923828125,0.15358897173404693,-0.022456312655028884,0.026270683311414904
1761468658570221300,2.57922119140625,0.0899947437018156,-0.00857718744429294,0.06866536185063887
1761468658580204500,2.58920458984375,0.14805354943871496,0.022152562201791442,0.06452136194766499
1761468658590187500,2.5991875,0.1075017588198185,0.035705209104251116,0.06080114498129114
1761468658600170500,2.60917041015625,0.14191606959700584,0.04430490520787425,0.0348944178777514
1761468658610153500,2.619153564453125,0.10525193406641482,0.04050837616885546,0.012342640925035812
1761468658620135400,2.629135498046875,0.14250994383692742,0.04307779283202253,-0.009987163840071298
1761468658630118400,2.639118408203125,0.11332827301621437,0.056064257219084535,0.003921557357907295
1761468658640101400,2.649101318359375,0.13502280295193195,0.05587034664875827,0.0026699315953068433
1761468658650084600,2.659084716796875,0.11407061581611633,0.04768348739603534,0.016532685626554303
1761468658660067300,2.6690673828125,0.1291822602301836,0.025940990132745353,0.002954443058534525
1761468658670050300,2.67905029296875,0.12783435275256633,0.0030539213776355606,-0.016340533188474362
1761468658680033500,2.689033447265625,0.11466565909981727,-0.031154432198405264,-0.036203870208235456
1761468658690016500,2.6990166015625,0.11212240435779094,-0.05483323585309553,-0.05397423527042847
1761468658699999200,2.708999267578125,0.13980828366279602,-0.061550734939309765,-0.06576366732607129
1761468658709982500,2.718982421875,0.10688917987942695,-0.05146520702498965,-0.04376183870658278
1761468658719965400,2.72896533203125,0.1181149227708578,-0.020400457837455904,-0.014324297995236702
1761468658729948400,2.738948486328125,0.10150690231919288,-0.0033030053344555196,0.007531655880156904
1761468658739931400,2.748931396484375,0.11931377716660499,-0.00611313085174188,0.024796888998383653
1761468658749914400,2.758914306640625,0.10524959597885608,0.0015367628469131886,0.04509150270803366
1761468658759897300,2.7688974609375,0.1330816057562828,0.01284657642575912,0.0518085908022942
1761468658769880600,2.778880615234375,0.10659399632513522,0.011049879434448667,0.053957083206227975
1761468658779863300,2.78886328125,0.10988368552029132,0.004159987489972264,0.04807571071716957
1761468658789846500,2.798846435546875,0.1381616854995489,0.013983622198249213,0.05942576954143587
1761468658799829500,2.80882958984375,0.11346738922595977,0.025555260484479366,0.048850704544503236
1761468658809812500,2.8188125,0.12498831567168235,0.01279691946459934,0.024985803733184
1761468658819795500,2.82879541015625,0.10628010807037352,-0.005113858715281821,0.005402493797778151
1761468658829778400,2.8387783203125,0.12887538623809813,-0.023287132889404892,-0.020066609073476866
1761468658839761400,2.848761474609375,0.12723054164052008,-0.029830458152224307,-0.028157757433340883
1761468658849744400,2.858744384765625,0.12693301999866963,-0.03145960742374882,-0.04160223125359043
1761468658859727400,2.868727294921875,0.11316811401844024,-0.028210871293488888,-0.04794246255920734
1761468658869710300,2.87871044921875,0.12349486224353312,-0.02800805133092217,-0.05830746043545659
1761468658879693600,2.888693603515625,0.10958031865954398,-0.014774567079963162,-0.044458063642703924
1761468658889676300,2.89867626953125,0.11751111165881156,0.008976493526762351,-0.021239790171850473
1761468658899659500,2.908659423828125,0.11676350816190242,0.024193219450232572,-0.003723253740253858
1761468658909642500,2.918642578125,0.11661620864570141,0.022566348900762385,0.011013241785066201
1761468658919625500,2.92862548828125,0.13606968165636063,0.0299600393486442,0.028836601976398375
1761468658929608400,2.9386083984375,0.10389759684801102,0.03490584802064113,0.03805974090772215
1761468658939591400,2.94859130859375,0.1214046119660139,0.03081764255866874,0.022472428106190635
1761468658949574400,2.958574462890625,0.12275018135607242,0.011296935830963774,0.054713797024777154
1761468658959557600,2.9685576171875,0.12439210334420203,0.01724628638916183,0.06928111456222832
1761468658969540400,2.978540283203125,0.11032266145944594,0.022403390591125935,0.046956191468215544
1761468658979523300,2.9885234375,0.104934538680315,-0.012021108219935558,0.019005487214564343
1761468658989506600,2.998506591796875,0.11870061370432376,-0.04183109897286631,-0.023767865611054
1761468658999489500,3.008489501953125,0.1333645143508911,-0.06792074946183711,-0.042819644219335165
1761468659009472300,3.01847216796875,0.10837854165434836,-0.05234944251361303,-0.009233970852592028
1761468659019455500,3.02845556640625,0.13052607605457306,-0.032446915127779356,0.009154471309017389
1761468659029438500,3.0384384765625,0.11152385394275188,-0.02723713545708451,0.01017519722545985
1761468659039421400,3.04842138671875,0.13561667719185352,-0.03721775082536041,0.0036568328739609566
1761468659049404400,3.058404296875,0.10808569618761539,-0.014706557044782674,-0.00651177478050813
1761468659059387400,3.068387451171875,0.11646715556383132,-0.006645799256605096,0.00025554109707009044
1761468659069370600,3.07837060546875,0.11017945359647273,0.013965899311890824,0.012181956770876422
1761468659079353300,3.088353271484375,0.11287234594225883,0.03165852296275552,0.031309275700245054
1761468659089336300,3.09833642578125,0.16120704552233217,0.04842359713965561,0.02074543991680257
1761468659099319600,3.108319580078125,0.10000526558458804,0.02660885662406217,0.015359550193953327
1761468659109302500,3.118302490234375,0.11601882727444171,0.0003655727762263268,-0.0010001489192945881
1761468659119285200,3.12828515625,0.13561959980130195,-0.005444131849263794,-0.0025320894606178624
1761468659129268500,3.1382685546875,0.09536649986803532,0.0014758127401815727,0.011333230987051501
1761468659139251500,3.14825146484375,0.1278355217963457,0.019717855001310815,0.009741628113784827
1761468659149234400,3.158234375,0.11706161432564258,0.018772934267437084,0.0062938942461274565
1761468659159216400,3.16821630859375,0.1303793610602617,0.023706696308613752,-0.01067138324456755
1761468659169199400,3.178199462890625,0.10165011018216609,0.021563049043156205,-0.012120052249496803
1761468659179179300,3.18817919921875,0.13831307666897774,0.01702048740980681,-0.013253216431313193
1761468659189162200,3.198162353515625,0.127687637758255,0.004949069208162836,-0.02812043479736894
1761468659199145000,3.20814501953125,0.10090192216336727,-0.011811758051882497,-0.01697914161926601
1761468659209128200,3.218128173828125,0.11781330947577953,-0.03291296630352735,-0.009645716291526331
1761468659219111200,3.228111083984375,0.1384662214040756,-0.05178865312596317,-0.015819157929182984
1761468659229094100,3.23809423828125,0.10868892277777194,-0.04740385303732473,-0.002571151962527074
1761468659239077000,3.2480771484375,0.12754442989528178,-0.01579178129849024,0.01892843992298003
1761468659249060000,3.25806005859375,0.13068681957423686,-0.012073395529598928,0.03244196495802607
1761468659259043300,3.268043212890625,0.1252992813169956,0.0026992261884501204,0.04124793792320415
1761468659269026300,3.2780263671875,0.11287702211737632,0.007894548075529747,0.0481669417977333
1761468659279009000,3.288009033203125,0.12679098117947576,0.02883079785669688,0.028803001100895925
1761468659288992300,3.2979921875,0.11391980916857719,0.03387443174682558,0.018583124483493155
1761468659298975200,3.307975341796875,0.12544073561429978,0.028690019412827675,-0.011395916393143125
1761468659308958200,3.317958251953125,0.12873100933134554,0.015326168514159508,-0.012836128096980974
1761468659318941200,3.327941162109375,0.10703414130806922,0.0030887552289990705,-0.016398012696485966
1761468659328924200,3.337924072265625,0.1350163732111454,0.00903084949592594,-0.02015643821482081
1761468659338907100,3.3479072265625,0.10643675993680954,0.0029603567760903386,-0.00928696598173119
1761468659348890000,3.35789013671875,0.1311252109915018,0.004205534531595185,-0.011220272131869569
1761468659358873000,3.367873046875,0.10000175845324992,-0.0007167380011873319,-0.0009389202513499185
1761468659368856000,3.37785595703125,0.12858370981514453,-0.0017629728182218967,-0.01040457183481194
1761468659378839300,3.38783935546875,0.11182488271594047,-0.0045509915349772195,-0.00388687420359347
1761468659388822000,3.397822021484375,0.11032792215645312,-0.016068301251507364,0.0019492389382096006
1761468659398805200,3.40780517578125,0.10793430501818656,-0.026135608522547406,0.009219330405886284
1761468659408788200,3.417788330078125,0.1477379076182842,-0.026892390839755535,0.0006442070545163005
1761468659418771200,3.427771240234375,0.08803191919624805,-0.022874807495158165,0.02044033319011796
1761468659428754200,3.437754150390625,0.12364683793485164,-0.010905123501783236,0.029990489285835063
1761468659438737200,3.447737060546875,0.13711422227323056,-0.012060599980107507,0.028566639628331177
1761468659448720100,3.45772021484375,0.12259879018664359,-0.013378052953956648,0.03374636665405705
1761468659458703400,3.467703369140625,0.11077625044584273,0.0025402864668052643,0.030402202758728524
1761468659468686000,3.47768603515625,0.11062719736397265,0.006637355655245482,0.01347473652777262
1761468659478669000,3.4876689453125,0.1251379532754421,0.005670761945680715,-0.005154145059897564
1761468659488652300,3.49765234375,0.08203998530507087,0.008677930705295876,-0.011260850737430154
1761468659498635300,3.50763525390625,0.14458616558909415,0.008784240623982623,-0.03183247302386444
1761468659508618200,3.5176181640625,0.10792670623362063,0.02110677490932867,-0.005078823934518732
1761468659518601200,3.527601318359375,0.14219430201649666,0.02393759158819448,-0.005548341142409481
1761468659528584200,3.537584228515625,0.1157101997166872,0.019603717969194984,0.009877671017032116
1761468659538567200,3.547567138671875,0.11256956360340117,0.006316165443439967,0.000332113464619033
1761468659548550100,3.557550048828125,0.10568564930856228,-0.004711579791014083,-0.011660376015608199
1761468659558533000,3.567533203125,0.12753273945748805,-0.015410714125609955,-0.017747879235749133
1761468659568516400,3.577516357421875,0.1309767424315214,-0.00942379890284501,-0.012775917775765993
1761468659578499000,3.5874990234375,0.12274316709339618,-0.0011671486498089506,0.018146911323582753
1761468659588482000,3.59748193359375,0.10688041205108165,0.010315742773888631,0.036375176221108994
1761468659598465300,3.60746533203125,0.1466834301292896,0.015342375296866521,0.027082680114312096
1761468659608448300,3.6174482421875,0.10852467212677001,-0.0067375600601313635,0.03233359551299363
1761468659618431000,3.627430908203125,0.11825111637115478,-0.029906646927283145,0.010345201763813384
1761468659628414200,3.637414306640625,0.13141981002390385,-0.03566566711172927,-0.0021923406788147983
1761468659638397200,3.647397216796875,0.1246855333328247,-0.03664696976665873,0.0011459551647305488
1761468659648380200,3.657380126953125,0.11196575249135493,-0.03397044403378386,0.01956223518133629
1761468659658363100,3.667363037109375,0.11899871986806392,-0.0334567543240264,0.011575396579317748
1761468659668345000,3.677344970703125,0.1381535021930933,-0.019779270898923278,0.0013143796673510224
1761468659678328300,3.687328369140625,0.10807692835927009,-0.0036797022928949444,-0.01039690911816433
1761468659688311000,3.69731103515625,0.11601239753365516,0.010516695006354711,-0.0216743136981735
1761468659698294300,3.707294189453125,0.14504209266304968,0.02471696476312354,-0.029461761837149967
1761468659708277200,3.71727734375,0.10209610038399695,0.04124275942458771,-0.011786587078007869
1761468659718260200,3.72726025390625,0.12498890019357203,0.04537774947062134,0.007476824986957944
1761468659728243200,3.7372431640625,0.1155617311567068,0.02654503414023202,0.010606693111057393
1761468659738226200,3.74722607421875,0.12094926941394805,0.0037140475204912944,0.0012405472461599857
1761468659748209200,3.757209228515625,0.13531389485299586,-0.010188157171732746,0.010687850322178564
1761468659758192000,3.767192138671875,0.10403788210153579,-0.009196433587488718,0.014708360842801629
1761468659768175000,3.777175048828125,0.13231763564646243,-0.01681901915410999,0.026045222258777357
1761468659778158000,3.787157958984375,0.14219371749460696,-0.023962410935619845,0.023975649443105793
1761468659788141300,3.797141357421875,0.11914718842804431,-0.016810502487514166,0.026166574482969007
1761468659798124000,3.8071240234375,0.09281097016632556,-0.01953789532452356,-0.001179012617538683
1761468659808107300,3.817107177734375,0.12902268575429915,-0.03188551381877623,-0.029859784711408426
1761468659818090200,3.82709033203125,0.11885200487375258,-0.03184629148666281,-0.04083628381581511
1761468659828073200,3.8370732421875,0.14967793577015398,-0.016928402379294858,-0.04161616844739765
1761468659838056200,3.84705615234375,0.10134732784330844,-0.001244026978034526,0.006747665895614772
1761468659848039200,3.8570390625,0.15342062942981718,0.02096231123760808,0.03419972274501342
1761468659858022100,3.867022216796875,0.11226911935210228,0.0180166177411098,0.05272773777409456
1761468659868005400,3.87700537109375,0.12453940286040305,0.02426847664352972,0.03377600374049507
1761468659877988000,3.886988037109375,0.12932605261504648,0.018238589928718282,0.026328678842657244
1761468659887971000,3.89697119140625,0.1347106682628393,0.00009575199205428361,0.011513012567325495
1761468659897954300,3.906954345703125,0.11001578746736049,-0.007539419061504304,0.0033780067994259298
1761468659907937300,3.916937255859375,0.11585340757966041,0.0018768906546290964,0.011107683169445954
1761468659917920000,3.926919921875,0.17286708817780017,0.010062151605309919,0.0007714318970683962
1761468659927903200,3.9369033203125,0.07904314157664775,-0.00018849004311487078,0.010157780299778096
1761468659937886200,3.94688623046875,0.12004676761627196,-0.0036570155370514836,-0.01945668788105249
1761468659947869200,3.956869140625,0.15116846658885477,-0.01657229155115783,-0.033705851980578155
1761468659957852200,3.96685205078125,0.08068915521800518,-0.018831404722714797,-0.01670682291733101
1761468659967835100,3.976835205078125,0.16388883195221424,0.004009760797745548,-0.03102294217268936
1761468659977818400,3.986818359375,0.10508008463084698,0.006031548948935233,-0.020014002103405072
1761468659987801000,3.996801025390625,0.120790863981843,0.011779705246072261,-0.021315298526897095
1761468659997783300,4.006783203125,0.11630407395660877,0.009127049012552015,-0.013019786701351404
1761468660007766300,4.016766357421875,0.14099544762074948,0.005934070790675468,0.0025742024361388757
1761468660017749000,4.0267490234375,0.12034662734568119,-0.001953458455600776,0.022709821625216862
1761468660027732200,4.036732177734375,0.11870061370432376,-0.009791522536962293,0.021082818645006045
1761468660037715200,4.046715087890625,0.1224415537983179,-0.002696166581683792,0.027742468330450354
1761468660047698200,4.0566982421875,0.11780220355987549,-0.002752586643770337,0.026489897286356427
1761468660057681200,4.06668115234375,0.1206423954218626,0.003668642042763531,0.034999956044880674
1761468660067664100,4.0766640625,0.1119628298819065,0.0009932214215863495,0.026655294148251414
1761468660077647000,4.086647216796875,0.15072013829946518,-0.009009468781179747,-0.0041940450232010335
1761468660087630300,4.09663037109375,0.1282756667792797,-0.015163283269759267,0.00143475007743109
1761468660097613000,4.106613037109375,0.13141864098012446,0.001679719548136927,-0.002213397166575305
1761468660107596000,4.116595947265625,0.10613105498850345,0.008673871018108912,0.006802323258877732
1761468660117579300,4.126579345703125,0.1348626439541578,0.009467437115171925,0.013433107609441504
1761468660127562200,4.136562255859375,0.11810440137684344,0.012131706154672428,0.01792511266591027
1761468660137545200,4.146545166015625,0.12543956657052038,0.008962213839660399,0.009223390093073248
1761468660147528200,4.156528076171875,0.1261883391112089,-0.0068289509708993135,-0.0018540760346222667
1761468660157511200,4.16651123046875,0.11571136876046657,-0.019436690839217043,-0.010080285483621991
1761468660167494400,4.176494384765625,0.13755728986561297,-0.012199643124616704,-0.008579420500574633
1761468660177477000,4.18647705078125,0.10568389574289322,-0.02910407553985715,0.016361530310730447
1761468660187460600,4.196460693359375,0.13037702297270298,-0.016726061907340772,0.019150183781725352
1761468660197443800,4.20644384765625,0.13337035956978796,0.0012995656907092779,0.018909566259151325
1761468660207426800,4.2164267578125,0.07890285632312298,0.0005485829266253858,0.017594556404137984
1761468660217409500,4.226409423828125,0.13725918370187282,-0.009393641226598992,0.005652984260395169
1761468660227391700,4.236391845703125,0.09790098678171634,0.00883814906857442,-0.005561196057405323
1761468660237374700,4.246374755859375,0.13860358404815196,0.02101141564291902,-0.006970345902699045
1761468660247357700,4.256357666015625,0.15221592981517315,0.028695038081239906,0.001884183478518389
1761468660257340700,4.266340576171875,0.07964344555735588,0.03368433426851406,0.019208827766939066
1761468660267323600,4.27632373046875,0.1752612898379564,0.04041637333673425,-0.011700959187746046
1761468660277307000,4.286306884765625,0.09789981773793696,0.02331990721442271,-0.0006838769112015142
1761468660287289600,4.29628955078125,0.13216507543325423,-0.009250246133957989,-0.017856198448431677
1761468660297272600,4.3062724609375,0.09415653955638408,-0.0185126302302815,-0.02005421081620734
1761468660307255800,4.316255859375,0.1309685591250658,-0.030128578015696256,-0.025207940317573955
1761468660317238500,4.326238525390625,0.13485855230093002,-0.02882760581918992,-0.013279195689363404
1761468660327221800,4.3362216796875,0.12303835064768791,-0.028327675206726414,0.0019343290634453295
1761468660337204700,4.346204833984375,0.11720306862294673,-0.02283009157059714,0.025475642209895885
1761468660347187700,4.356187744140625,0.11361235065460204,-0.011423923211498186,0.02981813752676826
1761468660357170700,4.366170654296875,0.1278302610993385,-0.006856227136892266,0.023997902374109252
1761468660367153700,4.376153564453125,0.115557639503479,-0.0037657777077285573,0.028820413460000416
1761468660377136600,4.38613671875,0.10283610509634017,-0.00939532172703184,0.034918305643415075
1761468660387119900,4.396119873046875,0.1454810686022043,0.0025088958146981893,0.02645923728661146
1761468660397102600,4.4061025390625,0.10806932957470416,0.014628710602177306,0.03589340231984388
1761468660407085600,4.41608544921875,0.13111352055370806,0.015322547218389809,0.02786601251172833
1761468660417068800,4.42606884765625,0.12362930227816105,0.022161215865705162,0.002636956340889446
1761468660427051800,4.4360517578125,0.11420154871940612,0.011598366462951525,-0.008370782718574627
1761468660437034500,4.446034423828125,0.12662205435335636,-0.006176679340936243,-0.029987607775581997
1761468660447017700,4.456017822265625,0.1224327859699726,-0.014864551484934053,-0.03625011593617964
1761468660457000700,4.466000732421875,0.1149520748257637,-0.0026502176812617105,-0.02093440488395281
1761468660466983700,4.475983642578125,0.11105974356234073,-0.008781715306756087,-0.0006905121479649096
1761468660476966700,4.485966552734375,0.10522563058137893,-0.008598590991925448,-0.001711913917842321
1761468660486949600,4.49594970703125,0.15056699356436729,-0.01183270950836595,-0.013489317608973941
1761468660496932900,4.505932861328125,0.11839549327790737,-0.002601935259858146,-0.0004922815955476836
1761468660506915600,4.51591552734375,0.11570376997590065,-0.005864238691166974,0.0056187851632712406
1761468660516898600,4.525898681640625,0.15431027174592019,-0.007721689426386728,0.008399931181245483
1761468660526881800,4.5358818359375,0.10717208847403525,0.00023906488630454987,0.024827051241206936
1761468660536864800,4.54586474609375,0.12498013236522673,0.016910903255222366,0.02408286354409065
1761468660546847500,4.555847412109375,0.13590367743968962,0.0021964505983516572,0.02339877657033503
1761468660556830700,4.565830810546875,0.12482874119579791,0.00783612785260193,0.027713470564829184
1761468660566813700,4.575813720703125,0.12018822191357612,0.011227423391863703,0.024179611049988305
1761468660576796700,4.585796630859375,0.11913842059969901,0.011834330643294378,0.024886398479319175
1761468660586779600,4.595779541015625,0.11046002410352229,-0.01183855929384008,0.003126566488738172
1761468660596762600,4.6057626953125,0.14906652587354183,-0.0005300289232050999,-0.010096300470083952
1761468660606745600,4.61574560546875,0.09774199682772158,0.004063938670395873,-0.0025910257067764176
1761468660616728800,4.625728759765625,0.12647358579337595,0.007397859732923098,-0.01645170194536913
1761468660626711600,4.635711669921875,0.11988953122794628,0.0038330753568559884,-0.01544837012172211
1761468660636694800,4.64569482421875,0.11570435449779033,-0.007068175687408074,-0.013609203961864113
1761468660646677800,4.655677734375,0.14129647639393805,-0.010684466488426551,-0.008960903231985867
1761468660656660700,4.66566064453125,0.11675883198678493,-0.005958602443733252,-0.0009943539327476173
1761468660666643700,4.675643798828125,0.10822948857247829,-0.00046552601936273273,0.0028446853740140793
1761468660676626700,4.685626708984375,0.12647943101227282,-0.003971456347662024,0.004943402085779235
1761468660686609700,4.695609619140625,0.07440612942576408,-0.010473070493759586,0.027478255303157492
1761468660696592600,4.705592529296875,0.19756079992949963,-0.007141939609940163,-0.00784941202586051
1761468660706575600,4.71557568359375,0.09116963270008563,-0.02674708235124126,0.01383184743633028
1761468660716558600,4.72555859375,0.11466507457792759,-0.018506104591372422,-0.009913139622635207
1761468660726540500,4.73554052734375,0.12783318370878696,-0.03160619912047405,-0.014429973159683867
1761468660736523500,4.7455234375,0.11137246277332305,-0.017588720318395642,0.006735760828689672
1761468660746506800,4.7555068359375,0.14324585689604283,0.013053232313226908,0.02772653097580187
1761468660756489700,4.76548974609375,0.08234335216581821,0.024203891541296613,0.04091519883750006
1761468660766472700,4.77547265625,0.14339549449980257,0.0034581958961673077,0.035349075443227775
1761468660776455700,4.78545556640625,0.11660860986113547,0.01505385437880177,0.020970914669171906
1761468660786438700,4.795438720703125,0.1267822133511305,0.03333084008914884,0.0318367564733373
1761468660796422000,4.805421875,0.11211655913889408,0.03707812315896153,0.043237641302542755
1761468660806404600,4.815404541015625,0.11495733552277088,0.024186812542332334,0.03210780566679314
1761468660816387600,4.8253876953125,0.11690087080597877,0.015090784289129078,-0.003886339914053678
1761468660826370800,4.835370849609375,0.1201934826105833,-0.021638808559952302,-0.03710103367709089
1761468660836353800,4.845353759765625,0.11420797846019268,-0.03610744236274622,-0.054632078124652615
1761468660846336500,4.85533642578125,0.11540566381216048,-0.03915162323107943,-0.0633141507155262
1761468660856319700,4.86531982421875,0.14368950901031494,-0.025819322814722545,-0.060503988665621726
1761468660866302700,4.875302734375,0.10867606329619883,-0.016549467797996476,-0.02025003021582961
1761468660876285700,4.88528564453125,0.12064940968453883,0.00593013440107461,0.00216959912404418
1761468660886268700,4.8952685546875,0.129330728790164,0.00460375376867596,0.008081841675401664
1761468660896251600,4.905251708984375,0.12244915258288383,0.018830258511821737,0.017102717766584827
1761468660906234600,4.915234619140625,0.13636603425443172,0.030957978044543415,0.027807322860741987
1761468660916217600,4.925217529296875,0.137411743915081,0.015042629731888881,0.019310904468502848
1761468660926200600,4.93520068359375,0.12169862647652625,0.01496758260114584,0.033563863393734204
1761468660936183800,4.945183837890625,0.13321838387846946,-0.0023102040379773823,0.043200195368984715
1761468660946166800,4.955166748046875,0.12349077059030532,-0.019223993370030074,0.03810284026393201
1761468660956149500,4.9651494140625,0.12348843250274658,-0.030758103524311443,0.025002129246899856
1761468660966132700,4.9751328125,0.11421031654775142,-0.029054171983525154,0.013641060404852032
1761468660976115700,4.98511572265625,0.14024609055817128,-0.012725781323993577,0.009301894122804515
1761468660986098700,4.9950986328125,0.13246318159699438,-0.005206619599228725,0.00118074791689869
1761468660996081700,5.00508154296875,0.09595335984528064,-0.0027866898427717384,0.01379704098443035
1761468661006064600,5.015064697265625,0.1767564968317747,0.0114896727909334,-0.005249801153829321
1761468661016047600,5.025047607421875,0.08577800278961659,0.007151319359638727,0.006424699285253882
1761468661026030800,5.03503076171875,0.14114450070261955,0.00895402140005026,-0.015371921051759272
1761468661036013600,5.045013671875,0.1212432839244604,-0.00153167567984201,-0.014529122685221954
1761468661045996500,5.05499658203125,0.11914952651560305,-0.01010061131902039,-0.015310614752001128
1761468661055979800,5.064979736328125,0.11645488060414791,0.009553051305701955,-0.007917234831373207
1761468661065962800,5.074962646484375,0.11316226879954337,0.016800236821826547,0.010541756382375023
1761468661075945700,5.08494580078125,0.12812602917551993,0.01417471062382683,0.006260142673575319
1761468661085928700,5.0949287109375,0.12543372135162353,0.0015414435886079445,-0.007279000859917141
1761468661095911700,5.10491162109375,0.12169161221385001,-0.02103509791260585,-0.012825127212353982
1761468661105894700,5.114894775390625,0.09131751673817634,-0.011464424185245297,0.0018396730499342082
1761468661115877600,5.124877685546875,0.16613631861805914,-0.008945696529699489,-0.007697504833200946
1761468661125860600,5.134860595703125,0.08638064485788345,-0.01284096866887994,0.017750084892567245
1761468661135843800,5.14484375,0.1565618500649929,-0.010019248611922375,0.020500949936709364
1761468661145826600,5.15482666015625,0.10778116028308868,-0.00918888960184995,0.04253676302419044
1761468661155809500,5.1648095703125,0.14803192212879657,-0.012237911042082123,0.047651918647415005
1761468661165792800,5.174792724609375,0.10448679491281508,-0.007371752610709518,0.045683824311685745
1761468661175775700,5.184775634765625,0.15251988119781015,-0.001386864948249422,0.028187353420583528
1761468661185758500,5.194758544921875,0.1016413423538208,0.0049773819871945305,0.00982671258135233
1761468661195741400,5.204741455078125,0.1296218206912279,0.010291804775875062,-0.0023843515529995783
1761468661205724400,5.214724365234375,0.12737433402538298,0.020203903218894266,-0.011359319842956028
1761468661215707600,5.224707763671875,0.12363280940949917,0.025471112165250814,-0.018652860684879122
1761468661225690400,5.2346904296875,0.13365852886140345,0.04197264003513846,-0.03163570834274869
1761468661235673300,5.24467333984375,0.12183774268627166,0.023162638860056175,-0.04103457830031402
1761468661245655600,5.254655517578125,0.11765022786855697,0.0029709192693000656,-0.05491772209904156
1761468661255638300,5.26463818359375,0.12812602917551993,-0.012749495559721253,-0.05792741617588326
1761468661265621500,5.27462158203125,0.11136837112009525,-0.02685793601430487,-0.03923624190776609
1761468661275604500,5.2846044921875,0.12349077059030532,-0.017081643012515267,-0.007771227656537667
1761468661285587500,5.29458740234375,0.110324415025115,-0.018769281005626543,0.015323538165655917
1761468661295570400,5.3045703125,0.13860767570137977,-0.022373671306297183,0.014453440800239331
1761468661305553400,5.314553466796875,0.1155658228099346,-0.017111969652120022,0.0309573843894992
1761468661315536400,5.324536376953125,0.13606909713447093,-0.009175637394632213,0.042226459532580335
1761468661325519400,5.334519287109375,0.11646540199816226,-0.0044341054233489555,0.05332738873425405
1761468661335502300,5.34450244140625,0.1315793844997883,-0.0009231381603283807,0.05875903099470306
1761468661345485600,5.354485595703125,0.12020283496081828,-0.002226800070842728,0.044125813180767
1761468661355468500,5.364468505859375,0.1134703118354082,-0.002521627432107925,0.04372793643698096
1761468661365451300,5.374451171875,0.15671265671253204,-0.0028850082512479275,0.023081499915244056
1761468661375434500,5.3844345703125,0.09296645298898219,0.0043238636816386134,0.02558898009099066
1761468661385417500,5.39441748046875,0.14084873262643813,0.014252456601732409,0.012598182022105902
1761468661395400400,5.404400390625,0.12917466144561768,0.011020233214856125,0.0028423472864553333
1761468661405383400,5.414383544921875,0.10942191322743892,0.0003162263423204422,0.0009340248805237933
1761468661415366400,5.424366455078125,0.14114391618072986,0.010450383737916126,-0.02669213729361072
1761468661425349400,5.434349365234375,0.10508008463084698,0.0009509988482110202,-0.041570187580934725
1761468661435332600,5.44433251953125,0.1192956569880247,-0.0009476424139225855,-0.034720933607523326
1761468661445315300,5.4543154296875,0.10957038178741932,-0.0030776538796722886,-0.042483210772625166
1761468661455298300,5.46429833984375,0.14294249003529547,0.002623777198907919,-0.040041014385432935
1761468661465281500,5.474281494140625,0.1107733278363943,-0.009778548890957608,-0.015822377366153523
1761468661475264500,5.484264404296875,0.1085299328237772,-0.020600862080650404,0.002635476769856177
1761468661485247500,5.49424755859375,0.11556348472237586,-0.02733137134548742,0.007843676404817961
1761468661495230500,5.50423046875,0.1284329031676054,-0.02450109808931593,0.02740500283727888
1761468661505213400,5.51421337890625,0.12768471514880655,-0.006393564361473545,0.04873891929967794
1761468661515196400,5.524196533203125,0.11690905411243438,-0.006142539609316736,0.060705977511126545
1761468661525179400,5.534179443359375,0.12842939603626727,0.014465103838569483,0.05413457693129312
1761468661535162400,5.544162353515625,0.12872691767811775,0.007713268657913431,0.04296466958005912
1761468661545145600,5.5541455078125,0.1143634612828493,0.0033844913391396403,0.027951809365348888
1761468661555128300,5.56412841796875,0.1267816288292408,-0.004259397310414351,0.004267279222770594
1761468661565111300,5.574111328125,0.09670154786407947,-0.009572641922160983,-0.005390976889920421
1761468661575094500,5.584094482421875,0.11331073735952377,0.0029096769016236064,-0.011931621571886352
1761468661585077500,5.594077392578125,0.16299100632965563,0.020839082150161264,-0.011203047002432867
1761468661595060200,5.604060302734375,0.11436053867340087,0.012579066329682245,0.006113345480873249
1761468661605043500,5.61404345703125,0.11600655231475829,0.0012680654407478868,-0.011989133045938797
1761468661615026400,5.6240263671875,0.11196516796946525,0.010866535923909395,-0.010275794355990365
1761468661625009700,5.634009765625,0.10104162289500236,-0.00038735534977167845,-0.010373925534798763
1761468661634992400,5.643992431640625,0.14383797757029532,0.004185820617550053,-0.02227738959128037
1761468661644975400,5.653975341796875,0.12722878807485102,-0.0036589791652746496,-0.016536571783805264
1761468661654958600,5.66395849609375,0.12498188593089579,-0.004896106045064516,-0.0093411210214952
1761468661664941600,5.673941650390625,0.1257318275153637,-0.02765177153942641,0.003168757096072659
1761468661674924300,5.68392431640625,0.14264263030588625,-0.01573124218371231,0.0029938160876976324
1761468661684907500,5.693907470703125,0.11555822402536868,-0.02669591841958463,0.01853968720056582
1761468661694890500,5.703890380859375,0.11959727028310298,-0.01827191224300768,0.021500696997204794
1761468661704873200,5.713873291015625,0.11944880172312258,-0.021134621897479517,0.021813502973155117
1761468661714856400,5.7238564453125,0.13920038089752196,-0.014536050182930194,0.012971285084239207
1761468661724839400,5.73383935546875,0.1113660330325365,-0.009806299980985932,0.025453517143055795
1761468661734822400,5.743822509765625,0.12138999891877174,-0.003979388492368161,0.023977891632542013
1761468661744805400,5.753805419921875,0.12408289126455783,0.005162753058038652,0.025423647161177357
1761468661754788400,5.763788330078125,0.12842062820792197,0.00027857034620828926,0.011133415832323953
1761468661764771600,5.773771484375,0.11495032126009463,0.011539603746728971,0.000017567622731439768
1761468661774754600,5.783754638671875,0.11614800661206244,0.015103155146935023,-0.008493395318090916
1761468661784737300,5.7937373046875,0.13739713086783886,0.027599694292317144,-0.004981985097075812
1761468661794720500,5.803720458984375,0.12273264569938182,0.03671183799668215,0.01134307652763091
1761468661804703500,5.813703369140625,0.12393091557323932,0.01976675391064491,0.0021542143252445385
1761468661814686500,5.8236865234375,0.1306628541767597,0.012505133443791418,-0.01396041485259775
1761468661824669400,5.83366943359375,0.08726502647697926,0.001086046237614937,-0.009564791975845583
1761468661834652400,5.84365234375,0.11075754574537276,-0.02143908930334728,-0.017188573985709808
1761468661844634600,5.853634521484375,0.15610124681591986,-0.009910682804067619,-0.02073938920192886
1761468661854617300,5.863617431640625,0.13320669344067573,-0.018752503400761632,-0.012387251818319782
1761468661864600300,5.873600341796875,0.09370295056998729,-0.02045308307383675,-0.004552000748552382
1761468661874583600,5.88358349609375,0.14398410804271697,-0.014323964635096489,-0.007632800999958999
1761468661884566500,5.89356640625,0.11435878510773181,-0.02142154908007942,0.015594870486902073
1761468661894549200,5.90354931640625,0.1173527062267065,-0.027890822725999166,0.022924866315117105
1761468661904532500,5.913532470703125,0.12797814513742922,-0.006377590474206954,0.03597324892329052
1761468661914515500,5.923515380859375,0.12348843250274658,-0.012781831493321806,0.04109231353665236
1761468661924498400,5.93349853515625,0.13261574181020258,0.0029684259181143712,0.03303645568587817
1761468661934481400,5.9434814453125,0.10567921956777572,0.0032736239763442427,0.033344809248996896
1761468661944464400,5.95346435546875,0.14159341351389884,0.0012490502130240201,0.016953271959070114
1761468661954447600,5.963447509765625,0.14234160153269768,0.017491776449675672,0.0068885539373382924
1761468661964430300,5.973430419921875,0.10014262822866439,0.014161193555127828,-0.012480199931934475
1761468661974413300,5.983413330078125,0.13934943397939203,0.012695217222371137,-0.018545244725095108
1761468661984396500,5.993396484375,0.13171616262197494,0.012669712888356298,-0.013901309643080458
1761468661994379500,6.003379638671875,0.11091770474314688,0.014494046805263497,-0.003463634689687751
1761468662004362200,6.0133623046875,0.15281623379588127,0.012093374305125325,-0.00403861699947156
1761468662014345500,6.023345458984375,0.09804887081980705,-0.002654962355038151,0.008701722572837025
1761468662024328400,6.033328369140625,0.11929916411936282,-0.009620814745710232,-0.0005809553928440436
1761468662034311400,6.0433115234375,0.11914894199371337,-0.0138559406979708,0.011292245956114492
1761468662044294400,6.05329443359375,0.12049275781810283,-0.014761447303486056,0.005459667345113121
1761468662054277400,6.06327734375,0.09056406802237034,-0.02312834386480972,0.014833512459276244
1761468662064260600,6.073260498046875,0.1653892996430397,-0.011269102542544714,-0.01517112408292014
1761468662074243600,6.08324365234375,0.1222936697602272,-0.014695565293310208,-0.013862744898092931
1761468662084226300,6.093226318359375,0.08174538627266884,-0.015544679236202499,-0.011236574812699109
1761468662094209500,6.10320947265625,0.14429215107858182,0.0005239005765179172,-0.003833504615118727
1761468662104192500,6.113192626953125,0.097754271787405,0.003239036720152944,0.02448004160155542
1761468662114175200,6.12317529296875,0.1516243936628103,0.0019836526644648983,0.0042963911528233435
1761468662124158500,6.133158447265625,0.11017594646513461,-0.0002706382015021518,0.01712407108186744
1761468662134141400,6.143141357421875,0.12992869468331336,0.012261264518206007,0.016692894856678322
1761468662144124400,6.15312451171875,0.12873159385323524,0.009522071645548566,0.028686959806061348
1761468662154107400,6.163107421875,0.11346738922595977,0.0038701148650376123,0.0232826302442234
1761468662164090400,6.17309033203125,0.102390699416399,0.008200746214180253,0.008285940279602073
1761468662174073300,6.1830732421875,0.11256547195017337,-0.00030677352738566697,-0.00663325486886315
1761468662184056600,6.193056640625,0.13471242182850837,-0.0038013467780314385,-0.013171515797497703
1761468662194039600,6.20303955078125,0.13590835361480713,-0.002035072324448265,-0.004799623400648124
1761468662204022500,6.2130224609375,0.08937281241118908,0.0017834082514746113,0.004405153323500417
1761468662214005500,6.223005615234375,0.16778174773752688,0.005795598468324169,-0.013335181926609948
1761468662223988500,6.232988525390625,0.09909984117746352,-0.00692006332045421,-0.0028168429524404928
1761468662233971500,6.242971435546875,0.15296996305286883,-0.016023758856882342,-0.022534775585564784
1761468662243954400,6.252954345703125,0.0999982513219118,-0.013235242383205332,-0.0009213708949275314
1761468662253937400,6.2629375,0.13306757723093032,-0.02131309287007898,-0.0008792442196747288
1761468662263920600,6.272920654296875,0.10643149923980236,-0.018662751891231164,0.014371489004674366
1761468662273903400,6.2829033203125,0.16224866352975367,-0.004132076569739729,-0.00024414292022120206
1761468662283886300,6.29288623046875,0.12723287972807884,-0.013761709376145154,0.012982683261088096
1761468662293869600,6.30286962890625,0.10044774865508078,-0.011832782573602162,0.014421456493088044
1761468662303852500,6.3128525390625,0.13232114277780055,-0.003530092088598758,-0.005488258685357869
1761468662313835300,6.322835205078125,0.1128688388109207,-0.0018445912536466493,0.004448321178369224
1761468662323818500,6.332818603515625,0.126337392193079,0.002388114412664436,0.0014219956271350382
1761468662333801500,6.342801513671875,0.12109949153959751,0.000372125814598985,0.008942294429638422
1761468662343784400,6.352784423828125,0.12110007606148719,-0.00017671284035313873,0.008963967405329457
1761468662353767400,6.362767333984375,0.11915420269072055,-0.005791716877650469,0.006358246452920139
1761468662363750400,6.37275048828125,0.14129939900338648,-0.014184843858773818,0.004295080545148812
1761468662373733600,6.382733642578125,0.13157120119333265,0.0055101325904484836,0.005502510972996242
1761468662383716600,6.392716552734375,0.11466273649036883,0.008758334431168623,0.020694641311326995
1761468662393699300,6.40269921875,0.14264672195911407,0.009648159410362131,-0.0021376239500474183
1761468662403682600,6.4126826171875,0.11391513299345969,0.00884640087368898,0.000001812931173481047
1761468662413665500,6.42266552734375,0.10628478424549102,0.0009703337363433092,0.0024839851357275618
1761468662423648300,6.432648193359375,0.14578969615995882,0.001261987326410599,-0.008995234759850427
1761468662433631500,6.442631591796875,0.09790566295683384,-0.010701335424836724,0.0036024814713746306
1761468662443614500,6.452614501953125,0.12513619970977305,-0.0046310573341324926,-0.0038330068581970407
1761468662453597400,6.462597412109375,0.10673311253488063,-0.021152157554170114,-0.000628146402281709
1761468662463580400,6.472580322265625,0.17826105617582796,-0.01071454196628183,-0.008743223627004772
1761468662473563400,6.4825634765625,0.06348901409208774,-0.019538653376349246,0.013978717694268561
1761468662483546400,6.49254638671875,0.15177578483223914,-0.016584694375004618,-0.013257956538512371
1761468662493529600,6.502529541015625,0.11960486906766891,-0.022566335201030595,0.004402746737282723
1761468662503512300,6.51251220703125,0.1317266840159893,-0.02073177215105388,-0.0024578917132457717
1761468662513495600,6.52249560546875,0.10883329968452453,-0.019966395535436457,0.0010775250044418498
1761468662523478500,6.532478515625,0.132628016769886,-0.009964728245977312,-0.004794116108468733
1761468662533461500,6.54246142578125,0.11497253309190272,-0.00805095334679354,0.016068575246143153
1761468662543444500,6.552444580078125,0.11676526172757148,0.0018023412808077408,0.02017573200375773
1761468662553427500,6.562427490234375,0.12170388717353343,0.008521137274964712,0.025981924931332466
1761468662563410400,6.572410400390625,0.13816402358710764,0.018439838988706467,0.02682217058117967
1761468662573393700,6.5823935546875,0.11676584624946117,0.01285862305657938,0.02071556536834687
1761468662583375400,6.592375244140625,0.10853519352078438,0.0077880509271752085,0.007174444506899453
1761468662593358600,6.602358642578125,0.11317279019355773,0.0017860340334009378,-0.006004236250324174
1761468662603341600,6.612341552734375,0.11676292364001273,0.004302076541515998,0.0008619049258064478
1761468662613324300,6.62232421875,0.13816051645576954,-0.01020679337354377,-0.008730802536848933
1761468662623307500,6.6323076171875,0.11855740584135055,-0.0108537495075725,-0.002931336177582852
1761468662633290500,6.64229052734375,0.09790917008817196,-0.009995945368148386,-0.004831936501362361
1761468662643273500,6.6522734375,0.13008242394030092,-0.009232915973244235,-0.002915595185756683
1761468662653256400,6.66225634765625,0.10509528219997882,-0.014919834469282068,0.0005209368678741157
1761468662663239400,6.672239501953125,0.1395131001085043,-0.006155554354516789,-0.005964940852974541
1761468662673222700,6.68222265625,0.09447159685492515,-0.0238811760926852,0.0026993814520770683
1761468662683205400,6.692205322265625,0.12559738748073576,-0.004161129134288058,0.010388716678554191
1761468662693188400,6.702188232421875,0.1315782154560089,0.002738220191700384,0.019685692597646264
1761468662703171600,6.712171630859375,0.09686346042752265,-0.004279449151176959,0.020627097067027353
1761468662713154600,6.722154541015625,0.15971125400662423,0.003295945406006649,0.0063484146120725195
1761468662723137300,6.73213720703125,0.10209902299344539,-0.006584392492147162,0.02410943189060781
1761468662733120500,6.74212060546875,0.11422025341987609,-0.009837238541943951,0.003431979176099412
1761468662743103500,6.752103515625,0.1305284141421318,-0.007295504470146261,-0.009954910104861483
1761468662753086500,6.76208642578125,0.10329553930163383,-0.002078705970197916,-0.004479424136108718
1761468662763069400,6.7720693359375,0.16225333970487116,0.0047369653940200806,-0.010267515151412226
1761468662773052400,6.782052490234375,0.09312018224596977,-0.002414655359718017,0.006575263904198073
1761468662783035400,6.792035400390625,0.12304770299792289,0.011992160686664283,-0.012166252311668358
1761468662793018600,6.8020185546875,0.1155664073318243,0.008617546854144894,-0.017389635816030202
1761468662803001300,6.81200146484375,0.13606968165636063,0.009264101129374466,-0.025751253414037636
1761468662812984600,6.821984619140625,0.12723989399075508,-0.0017036118803778662,-0.02155013019607868
1761468662822967600,6.831967529296875,0.10045651648342609,-0.011775366997672244,-0.003327600919594988
1761468662832950300,6.8419501953125,0.1435521463662386,0.0018310422189068047,-0.011595019161817616
1761468662842933500,6.85193359375,0.1288899992853403,0.0001394678361946717,0.018841209164098836
1761468662852916500,6.86191650390625,0.13442542158067225,0.010551752620004117,0.03565048780890647
1761468662862899500,6.8718994140625,0.11048223593533038,0.01969571623473894,0.050598192099225704
1761468662872882400,6.88188232421875,0.13412380828559398,0.006923976877168752,0.034774047467671335
1761468662882865400,6.891865478515625,0.11572013658881186,-0.02368535669306293,0.026098856708733364
1761468662892848400,6.901848388671875,0.13891338064968586,-0.012921742287511005,0.019707511703809723
1761468662902831600,6.91183154296875,0.09910919352769851,-0.01760791820921004,0.014161650212854145
1761468662912814300,6.921814453125,0.13397709329128266,-0.016103208168107085,0.004076665721228346
1761468662922797600,6.931797607421875,0.11826397585272788,-0.007011079771886579,-0.0006142503076698631
1761468662932780500,6.941780517578125,0.12155483409166336,-0.007234061173070221,-0.01136255754623562
1761468662942763500,6.951763427734375,0.11152677655220031,0.007054567287163809,-0.011913163466588593
1761468662952746500,6.96174658203125,0.1032972928673029,-0.00036380551082547754,-0.013995814959541894
1761468662962729500,6.9717294921875,0.17273206362128257,0.011618569000763818,-0.03734359656157903
1761468662972712400,6.98171240234375,0.12918868997097013,0.010915357201430014,-0.018276305290334856
1761468662982695700,6.99169580078125,0.1167687688589096,0.02143257736416999,-0.021155029931268655
1761468662992678400,7.001678466796875,0.11676701529324054,0.019591356244543567,0.005769884071755223
1761468663002661400,7.011661376953125,0.10958499483466148,0.013736465337034313,0.00977254384185653
1761468663012644600,7.02164453125,0.15716916830837727,0.007024984999652951,-0.007076139798155054
1761468663022627300,7.03162744140625,0.09431962116360663,-0.008427691404428332,-0.009492347794142552
1761468663032610300,7.0416103515625,0.12604337768256663,-0.01804621372835245,-0.01151392588277813
1761468663042593500,7.051593505859375,0.11781330947577953,-0.026032166414381934,-0.009492493924614973
1761468663052576500,7.061576416015625,0.11826397585272788,-0.0350338446147507,-0.009841343894903548
1761468663062559500,7.0715595703125,0.126494044059515,-0.03461796642339322,0.005994646438071504
1761468663072542500,7.08154248046875,0.09552081364691258,-0.024000509889726525,0.008209911334747449
1761468663082525400,7.091525390625,0.13697159893214703,-0.00044620026438497003,0.021718285270640625
1761468663092508700,7.1015087890625,0.12215747615993022,0.009015702159143983,0.0347815914533101
1761468663102491400,7.111491455078125,0.11048457402288914,0.018569187289685943,0.038650158248655496
1761468663112474400,7.121474365234375,0.11601824275255203,0.0174854608733207,0.030478510264796203
1761468663122457600,7.13145751953125,0.11885960365831852,0.011019698925316334,0.015862302951165475
1761468663132440600,7.141440673828125,0.13097908051908017,0.009353277250169776,0.017186806720308957
1761468663142423300,7.15142333984375,0.10164835661649703,0.019399687863653526,0.015031596881221047
1761468663152406500,7.161406494140625,0.1122726264834404,0.004807245018100366,0.006016264614835381
1761468663162389500,7.171389404296875,0.14175240346789358,0.010889496674388646,-0.016736980593577026
1761468663172372500,7.18137255859375,0.1170610298037529,-0.011961802081018685,-0.013826833334495312
1761468663182355500,7.19135546875,0.10314590169787406,-0.013517813051096162,-0.04114482917517889
1761468663192342300,7.20134228515625,0.11137538538277149,-0.02317329725138843,-0.04113615724495612
1761468663202325200,7.2113251953125,0.1290337916702032,-0.015995373012614434,-0.03865846941927448
1761468663212308500,7.22130859375,0.133674310952425,-0.004645880443928763,-0.03223224489721469
1761468663222291200,7.231291259765625,0.09132686908841132,-0.005614903572597541,-0.009963760131597518
1761468663232274200,7.241274169921875,0.10419628753364085,0.00017252985558006913,0.005245435505965724
1761468663242257400,7.25125732421875,0.13636895686388015,-0.0007801586262183263,0.012396348440228029
1761468663252240400,7.261240478515625,0.08609247556626796,-0.027832324871257877,0.03023002452959772
1761468663262223400,7.271223388671875,0.1344271751463413,-0.027917299740971065,0.015123512948374263
1761468663272206300,7.281206298828125,0.1015063177973032,-0.0299434718063334,0.022309287133463657
1761468663282189300,7.291189208984375,0.1113835686892271,-0.028159739327873103,0.03418350226257462
1761468663292171300,7.301171142578125,0.11751871044337749,-0.009120637538074515,0.039077736010961234
1761468663302154200,7.311154296875,0.11751637235581874,-0.003615066958311945,0.03098379290581215
1761468663312137500,7.321137451171875,0.12679741092026234,0.014120030427677555,0.020943798333383164
1761468663322120200,7.3311201171875,0.15507774898707866,0.02445515375547111,0.004620453741727397
1761468663332103200,7.341103271484375,0.0857949539244175,0.01415111968568526,0.008996239406848325
1761468663342086400,7.35108642578125,0.12499708350002765,0.007064549825061112,-0.008359594604279845
1761468663352069400,7.3610693359375,0.11886311078965663,0.013476184132765046,-0.007947958763199857
1761468663362052000,7.371052001953125,0.14220482341051102,0.011180780371697618,-0.01130646171113476
1761468663372035300,7.381035400390625,0.10165127922594547,0.012132409407570958,0.003905122246337123
1761468663382018300,7.391018310546875,0.11960662263333796,0.013225985931092872,-0.004970226160623133
1761468663392001300,7.401001220703125,0.13606851261258124,0.004332138319639489,-0.02048090266252402
1761468663401984300,7.410984375,0.11766308735013008,-0.017059125220030544,-0.03831334120945539
1761468663411967200,7.42096728515625,0.09731178871691226,-0.026051866628695276,-0.030062805603374727
1761468663421950500,7.430950439453125,0.13996025935411452,-0.03251025812099687,-0.03659952759547159
1761468663431933400,7.440933349609375,0.1261930152863264,-0.04204490612032823,-0.020791754143405703
1761468663441916200,7.450916259765625,0.08130582581162452,-0.022451851109042763,-0.010061165224621072
1761468663451899400,7.4608994140625,0.15253507876694203,-0.02967545482018031,0.006419465987710282
1761468663461882400,7.47088232421875,0.1158756194114685,-0.013184813670488073,0.01775880248856265
1761468663471865300,7.480865234375,0.13697510606348515,-0.008388633469096385,0.018540815145149825
1761468663481848300,7.490848388671875,0.10585223804712295,-0.004948407054459676,0.02343608550657518
1761468663491831300,7.500831298828125,0.13922259272933005,0.0022433813128853214,0.011102089112298562
1761468663501814300,7.510814208984375,0.10734802956283092,0.011164934348594396,0.03647169539814349
1761468663511797200,7.52079736328125,0.1363759711265564,0.03250842235693708,0.04474913727745879
1761468663521780200,7.5307802734375,0.11422785220444202,0.030897055337275377,0.03685440197226125
1761468663531763200,7.54076318359375,0.1083896475702524,0.01159020598938223,0.014041581196873447
1761468663541746400,7.550746337890625,0.12230419115424156,0.004554946190887131,-0.010357659386587328
1761468663551729200,7.560729248046875,0.11601941179633139,0.003143627221393399,-0.018071928124921394
1761468663561712400,7.57071240234375,0.12050737086534499,-0.007033446867321618,-0.017000462968507782
1761468663571695400,7.5806953125,0.10928455058336257,0.00034912853150162844,-0.012809217257169074
1761468663581678300,7.59067822265625,0.11796353160142897,0.013037642018450424,-0.006394537042430602
1761468663591661300,7.600661376953125,0.12888824571967125,-0.00836793774093967,0.00035170864765532314
1761468663601644300,7.610644287109375,0.12544833439886569,-0.0253430836051004,-0.010193445268203503
1761468663611627300,7.620627197265625,0.10734159982204437,-0.025872071348689494,-0.017310067773796615
1761468663621610500,7.630610595703125,0.11616963392198085,-0.027113088952307587,-0.017971079832641408
1761468663631593200,7.64059326171875,0.11572013658881186,-0.029998704558331517,-0.0050295688321581105
1761468663641576200,7.650576171875,0.1462479613214731,-0.014159106629318557,-0.005218351136217825
1761468663651559400,7.660559326171875,0.13113339429795742,-0.01704768594398629,0.010303481513937004
1761468663661542400,7.67054248046875,0.09447276589870453,-0.007488497158442624,0.01232685426743701
1761468663671525000,7.680525146484375,0.139064187297225,-0.0022007568807108327,0.008197732273186556
1761468663681508400,7.69050830078125,0.10524784241318702,-0.0062185822539031505,0.014759173148008994
1761468663691491300,7.7004912109375,0.1285889705121517,0.018760001720627768,0.019231920948158947
1761468663701474300,7.710474365234375,0.11422317602932452,0.02958347025436815,0.038946565645653755
1761468663711457300,7.720457275390625,0.1457955413788557,0.04824781588106416,0.04607866884816903
1761468663721440300,7.730440185546875,0.1190080722182989,0.04631426770233083,0.029184689328284
1761468663731423500,7.740423583984375,0.12319441799223423,0.031168437890871425,0.015848000431177206
1761468663741406200,7.75040625,0.12753273945748805,0.008287328519090078,-0.014530264329537749
1761468663751389200,7.76038916015625,0.11152093133330344,-0.0012079144850373267,-0.02098382894967217
1761468663761372400,7.770372314453125,0.12139701318144798,-0.006426630947436206,-0.019023963586171158
1761468663771355400,7.78035546875,0.14219722462594508,-0.003528749514883384,-0.003168405469623394
1761468663781338000,7.790338134765625,0.12244564545154571,-0.00785312008659821,0.0176984643031843
1761468663791321300,7.8003212890625,0.11990239070951939,-0.01350823237199802,0.01532292167772539
1761468663801304300,7.81030419921875,0.11795768638253211,-0.020544067559228277,0.0033728100345004346
1761468663811287300,7.820287353515625,0.11810849303007125,-0.03189516756311059,-0.007997665956709534
1761468663821270300,7.830270263671875,0.1188560965269804,-0.04349088084467221,-0.009915066718240268
1761468663831253200,7.840253173828125,0.12184826408028603,-0.04362956779615488,0.0034473411420127375
1761468663841236500,7.850236572265625,0.11331716710031031,-0.022996890371711924,0.010576101609971373
1761468663851219500,7.860219482421875,0.11930442481637,-0.007330598616413771,0.011446564301569014
1761468663861202200,7.8702021484375,0.15102935037910936,0.0015344567253952844,0.0034072739931056274
1761468663871185400,7.880185302734375,0.10150281066596507,-0.0018170593593269586,0.018978000986017287
1761468663881168400,7.89016845703125,0.12843991743028163,0.00757329849821981,0.006099906043987721
1761468663891151000,7.900151123046875,0.1112310084760189,0.005907762739062309,0.01594632797280792
1761468663901134300,7.91013427734375,0.12335165438055991,0.005109689430240542,0.024670056881476193
1761468663911117300,7.920117431640625,0.13996084387600422,0.02030750972384121,0.017679124848474746
1761468663921100300,7.930100341796875,0.11751286522448062,0.014356638495414516,0.030928391190455293
1761468663931083300,7.940083251953125,0.12334931629300117,0.0125874551321147,0.017575810604472643
1761468663941065200,7.950065185546875,0.146988550555706,-0.0012801577373407781,-0.005679009184218011
1761468663951048400,7.96004833984375,0.08698270240426063,-0.017790969458804463,-0.004761848673527129
1761468663961031200,7.97003125,0.14579203424751758,-0.012420295571396126,-0.021252161029656415
1761468663971014100,7.98001416015625,0.1260398705512285,-0.019504267049557527,0.0018924444167874753
1761468663980997400,7.989997314453125,0.11930676290392875,-0.010902917844965122,0.002056316041876562
1761468663990980400,7.99998046875,0.1281365505695343,-0.00798437721687369,0.0014703054480021819
1761468664000963300,8.00996337890625,0.12933423592150212,-0.011330605205125174,0.0008561099392594769
1761468664010946300,8.0199462890625,0.1097317098289728,-0.019042193362605757,0.0032959819386247542
1761468664020929300,8.02992919921875,0.12020575757026672,-0.02705030764809344,0.0042081329140579325
1761468664030912500,8.03991259765625,0.11481880383491515,-0.028532655160338618,-0.007119545115041546
1761468664040895200,8.049895263671875,0.1300795013308525,-0.03632722715984564,-0.010214506322541273
1761468664050878200,8.059878173828125,0.10464169321358203,-0.02932937219571322,0.0015530974937835707
1761468664060861400,8.069861328125,0.11885960365831852,-0.01168254674822092,-0.00578123658283148
1761468664070844400,8.079844482421874,0.13457389014065266,-0.007453361912979744,-0.0033670515805715694
1761468664080827100,8.0898271484375,0.10105214428901672,-0.0030281293492531404,0.014418424285785294
1761468664090810400,8.099810302734374,0.11182663628160953,0.019592045797710306,0.019761831140355207
1761468664100793300,8.10979345703125,0.15537117897570132,0.04098547846158035,0.012073422929062508
1761468664110776300,8.1197763671875,0.10733633912503719,0.033125640939828005,0.02179917305370327
1761468664120759300,8.12975927734375,0.13412030115425586,0.023619808043027296,0.012709684139140882
1761468664130742300,8.1397421875,0.09551204581856727,0.02145816389657557,0.017604132516658863
1761468664140725200,8.149725341796875,0.12543898204863071,0.02390271207105834,0.004691906976164319
1761468664150708200,8.159708251953125,0.12753449302315711,0.015084222117601893,-0.0067058040818432346
1761468664160691200,8.169691162109375,0.10314064100086688,0.013632132746302521,0.008109218306094408
1761468664170674400,8.17967431640625,0.10777823767364024,-0.00232541074026376,0.020014024936291386
1761468664180657400,8.189657470703125,0.12184241886138915,-0.0033158922154922035,0.008084992613713256
1761468664190636800,8.19963671875,0.1148082824409008,-0.018734999710111878,0.009621874191635288
1761468664200620000,8.2096201171875,0.14937456890940665,-0.027568993193376808,-0.005043432960729115
1761468664210603000,8.21960302734375,0.11166413919627666,-0.03917179836942814,-0.0016348163939081132
1761468664220585700,8.229585693359375,0.11630465847849845,-0.04096900681739207,-0.007784205869119614
1761468664230569000,8.23956884765625,0.13994739987254143,-0.029865607097418978,-0.006016173283290118
1761468664240552000,8.249552001953125,0.09356091175079345,-0.038093807574105444,0.0020798110818956044
1761468664250535000,8.259534912109375,0.16134733077585697,-0.027807656220882198,-0.003918867643899284
1761468664260518000,8.269517822265625,0.10583353334665298,-0.028697467500343916,-0.004475743474834599
1761468664270500900,8.2795009765625,0.13381693429350852,-0.006430503404955379,-0.016304767755349166
1761468664280483800,8.28948388671875,0.12154665078520774,0.0011904381938511505,-0.001807209252170287
1761468664290467000,8.299467041015625,0.11436170771718024,0.011673523191548883,0.0038457476087613027
1761468664300449800,8.30944970703125,0.1146598138809204,0.02440473874248564,0.024101038521598093
1761468664310433000,8.31943310546875,0.1423439396202564,0.03218659739089198,0.03138156461832113
1761468664320416000,8.329416015625,0.13545768723785875,0.043747431155317464,0.04148666488279123
1761468664330399000,8.33939892578125,0.0799386291116476,0.03216639941965695,0.03530764745429624
1761468664340382000,8.3493818359375,0.12617489510774613,0.02343355562277138,0.0055250059325946494
1761468664350365000,8.359364990234376,0.11719371627271175,0.005228603102173656,-0.0023555958159733564
1761468664360348000,8.369347900390625,0.1068693061351776,-0.022260086830030196,-0.003474434644915163
1761468664370331100,8.3793310546875,0.13380290576815604,-0.03361262073917314,-0.013041153716365807
1761468664380313900,8.38931396484375,0.0865180075019598,-0.03182888826071285,0.0007170028626685962
1761468664390296800,8.399296875,0.13904255998730658,-0.034909633713192306,-0.0023911146539263425
1761468664400280000,8.409280029296875,0.09863982245028019,-0.041805010116961784,0.013812444049539043
1761468664410262800,8.4192626953125,0.11120879664421081,-0.021014831442711875,0.013491564364987425
1761468664420245800,8.429245849609375,0.1327583651512861,-0.013147404269548132,0.01652063899573404
1761468664430229000,8.43922900390625,0.14398001638948915,-0.0067296735811978575,0.011622226829151622
1761468664440212000,8.4492119140625,0.10791618483960629,-0.004878858082741498,0.009659799615805969
1761468664450195000,8.45919482421875,0.1213829846560955,0.005873732605297118,-0.006489873475953936
1761468664460178000,8.469177978515624,0.10971358965039253,0.012250446296669541,-0.010880048426031134
1761468664470160100,8.47916015625,0.14966566081047059,0.009551758964336477,-0.011677564612426795
1761468664480142800,8.489142822265626,0.08876315608024597,0.007203985695214942,0.012000818917155265
1761468664490125800,8.499125732421875,0.135151397767663,0.009862153787491843,0.006559742108080535
1761468664500109000,8.509109130859375,0.1177969428628683,0.00997330884465482,0.01456153625063598
1761468664510093000,8.519093017578125,0.14053952054679392,0.012407257993309757,0.02125159020749852
1761468664520074800,8.52907470703125,0.08172960418164729,0.011644781154254451,0.015101981536578386
1761468664530058000,8.53905810546875,0.13888999977409838,0.0025055759130278603,-0.014529542810330167
1761468664540041000,8.549041015625,0.10731588085889816,-0.003331587541545741,-0.001109157685143873
1761468664550024000,8.55902392578125,0.12751812641024587,0.0019190721288090571,-0.012663411011733114
1761468664560007000,8.5690068359375,0.13560147962272168,-0.0029117227282375096,-0.004968678090930916
1761468664569990000,8.578989990234374,0.11614742209017276,-0.009491658240975812,0.010934851919766515
1761468664579972900,8.588972900390624,0.1083639286071062,-0.009147502712113783,0.02131845403178595
1761468664589959000,8.598958984375,0.14607202023267746,-0.0121775819898583,0.006187008938705548
1761468664599942000,8.60894189453125,0.11375146686434745,-0.027587766392505726,0.00924265648254659
1761468664609925000,8.618925048828125,0.10028057539463042,-0.020280338589125313,0.017320625700429082
1761468664619907800,8.628907958984374,0.14756664270460604,-0.003695507216802798,0.021049108171649275
1761468664629890800,8.638890869140624,0.09878595292270183,-0.007612406665901653,0.029035047157946973
1761468664639874000,8.6488740234375,0.11689210297763347,0.00424769317288883,0.031476978683657945
1761468664649857000,8.65885693359375,0.12227847219109535,-0.0010756344414548948,0.02609896630658768
1761468664659839700,8.66883984375,0.13170739479362964,-0.015129737193183973,0.001929187097446993
1761468664669823000,8.678822998046876,0.0983382091552019,-0.027672325703687963,-0.007744202652294189
1761468664679806000,8.688805908203125,0.13021160327792167,-0.020059092487301675,-0.0072733794033061705
1761468664689789000,8.698788818359375,0.08202712582349776,-0.0005022367339814082,0.025008668585540725
1761468664699772000,8.70877197265625,0.16672025598585605,0.008843802491226233,0.029839102682983502
1761468664709755000,8.7187548828125,0.1023778399348259,0.014970135317835956,0.03595482735061087
1761468664719738000,8.728738037109375,0.12077975806593894,0.015107182868081144,0.008706243484327568
1761468664729720800,8.738720947265625,0.12781155639886854,0.013585416660900226,0.006682930096331983
1761468664739703800,8.748703857421875,0.1126946512877941,-0.009585026479698716,-0.002145094870449975
1761468664749687000,8.75868701171875,0.12166940038204192,-0.009558987856144084,-0.014431023472454398
1761468664759670000,8.768669921875,0.1270557695955038,-0.010320478314510545,-0.014336650586733593
1761468664769652700,8.77865283203125,0.1096972230374813,0.0008447391618741676,-0.0030897827088832855
1761468664779636000,8.788635986328124,0.09757423904538154,0.008615880053443834,0.0020242906355299054
1761468664789618000,8.798617919921876,0.13453531169593333,0.010248066098848357,-0.019241063235839826
1761468664799601000,8.808600830078126,0.11194003352820872,0.005451347041339613,-0.014434631068492307
1761468664809583900,8.818583984375,0.12720306911170481,0.001354748210357502,-0.026649631592445076
1761468664819566800,8.82856689453125,0.10909633453488349,-0.008794798550615086,-0.0164380889785476
1761468664829550000,8.838550048828125,0.14620704478919505,-0.00016271628104150295,-0.021168642898090183
1761468664839532800,8.84853271484375,0.1071527992516756,0.002758285732194781,-0.012377269280422478
1761468664849516000,8.85851611328125,0.1306464875638485,0.00664113221464213,-0.004906431076256558
1761468664859499000,8.8684990234375,0.1165817218542099,-0.0001427238057833165,0.0054344187394250185
1761468664869482000,8.87848193359375,0.1126905596345663,-0.012245071435230783,0.0004116495408117771
1761468664879465000,8.88846484375,0.12900164296627045,-0.007930345474695786,0.02140034189526923
1761468664889448000,8.898447998046874,0.1061070895910263,-0.0090210450545419,0.029213709926791488
1761468664899431000,8.908430908203124,0.13184358839392663,0.0064543409382691605,0.03352279616440646
1761468664909414000,8.918413818359374,0.10550444752275943,-0.00010049209925346076,0.024354844319308174
1761468664919396900,8.92839697265625,0.153835055449605,0.0007406851323554292,-0.004734243713971227
1761468664929379800,8.9383798828125,0.11103753173053264,-0.008233493139734491,0.005941381880873814
1761468664939363000,8.948363037109376,0.12764789026975631,-0.0024847020883578806,0.014156690909946337
1761468664949345800,8.958345703125,0.13543138375282288,-0.003716472373018041,0.02075871039032936
1761468664959328800,8.968328857421875,0.10146423222124576,-0.010912530490104108,0.012270502704009412
1761468664969312000,8.97831201171875,0.10460428381264208,-0.011975159319513477,0.002236526880413294
1761468664979295000,8.988294921875,0.1283972473323345,-0.008962191006774083,-0.009560047302069143
1761468664989278000,8.99827783203125,0.10490355902016162,-0.01229679248931352,-0.012752788061928004
1761468664999261000,9.008260986328125,0.14829787958860396,-0.0026638534809695557,-0.020894903990626334
1761468665009244000,9.018243896484375,0.13528349971473216,0.004523427674616686,-0.006817625859286636
1761468665019227100,9.02822705078125,0.0823129570275545,0.01743674462707713,0.01452733258693479
1761468665029209900,9.0382099609375,0.13798106823563575,0.01865393383053597,0.014778786597354336
1761468665039192800,9.04819287109375,0.1041641388297081,0.0033891812139889223,0.027051006334414703
1761468665049176000,9.058176025390624,0.12750702049434184,-0.010231242828210816,0.011725984031148254
1761468665059159000,9.068158935546874,0.12870412132441997,-0.00816599456120748,0.005711692177690565
1761468665069141800,9.078141845703126,0.11628478473424911,-0.009863085369253531,0.0053135871050413695
1761468665079125000,9.088125,0.11359189238846301,-0.009139228074112906,-0.005504132107924669
1761468665089108000,9.09810791015625,0.12212123580276965,-0.0011629336989950388,0.007341357472445816
1761468665099090700,9.108090576171875,0.1204769757270813,0.007228531048004515,0.01611364279715344
1761468665109074000,9.118073974609375,0.11643559138178824,0.006095092871552333,0.0042468163900543
1761468665119057000,9.128056884765625,0.11883213112950325,0.007452485130145214,-0.004282116032298654
1761468665129040100,9.1380400390625,0.1218231296390295,0.009992789863259532,-0.0009723247640300542
1761468665139022800,9.14802294921875,0.13529168302118777,0.004656127843307331,-0.0077213514996692535
1761468665149005800,9.158005859375,0.12092705758213997,-0.0032874424391426144,-0.0014882018642965703
1761468665158989000,9.167989013671875,0.13155132744908332,0.0031063685175031423,0.008760777550004421
1761468665168972000,9.177971923828125,0.1192827975064516,0.00720645621351432,0.02839790916503407
1761468665178954800,9.187954833984374,0.13320084822177886,-0.002730790370493196,0.014875735032651572
1761468665188940800,9.19794091796875,0.10985679751336574,-0.005780789058259688,0.0037257699243258683
1761468665198923800,9.207923828125,0.10731120468378066,-0.011435047393711283,0.0009773023332469164
1761468665208907000,9.217906982421875,0.12377192561924456,-0.015392201221385038,-0.010231763418018817
1761468665218889700,9.2278896484375,0.12422259199619293,-0.01310915918496903,-0.009169285285659134
1761468665228872000,9.237871826171874,0.11883622278273105,-0.013563803050713613,0.00014741824720986186
1761468665238855000,9.24785498046875,0.09938216525018215,-0.012797736881929448,-0.0015629932667128742
1761468665248837600,9.257837646484376,0.14188099828362463,-0.0074914745668182145,-0.012987409668555482
1761468665258820900,9.26782080078125,0.07319500007033347,-0.02085125207856763,0.014658959609968587
1761468665268803800,9.277803955078125,0.2030857008308172,-0.0034488435459323224,-0.013104601740860379
1761468665278786800,9.287786865234375,0.057341597378253936,-0.01817930205611046,0.016257595012220554
1761468665288769800,9.297769775390625,0.1444324363321066,-0.00439633069622796,-0.0006111496017081662
1761468665298752800,9.307752685546875,0.07424889303743838,0.021318632128299212,0.03896674991715699
1761468665308735700,9.31773583984375,0.1851309419453144,0.027271421319176443,0.017969709859462453
1761468665318719000,9.327718994140625,0.08966215074658393,0.013870905371662228,0.030985368374967945
1761468665328701700,9.33770166015625,0.13051321657299994,0.011483969135931693,0.005950314106000587
1761468665338684700,9.3476845703125,0.11031330910921096,0.002019587060948834,0.00023257578001357614
1761468665348668000,9.35766796875,0.12108838562369346,0.001716571826650761,-0.012535980673204175
1761468665358651000,9.36765087890625,0.0999900680154562,-0.012106165288039483,-0.00793985308855772
1761468665368633900,9.3776337890625,0.12318331207633018,-0.002045739848935045,-0.021837564268754793
1761468665378616800,9.387616943359374,0.12004150691926478,0.00407878461307846,-0.01738195483307354
1761468665388599800,9.397599853515626,0.11630056682527065,-0.0035119856097502633,-0.0020709473554277793
1761468665398582800,9.407582763671876,0.1321621528238058,0.011254631059197709,0.013053889900352805
1761468665408565800,9.417565673828125,0.11420505585074424,0.021819722651387565,0.013431322077731601
1761468665418548700,9.427548828125,0.11525193455517291,0.01093684294745326,0.0017343403787817805
1761468665428532000,9.437531982421875,0.13365969790518284,0.0007512704584514722,-0.01093760556585621
1761468665438514700,9.4475146484375,0.07365384975373744,-0.011524077384034171,-0.0036424572887364774
1761468665448497700,9.45749755859375,0.16134382364451885,-0.019458418613835238,-0.019881338467332532
1761468665458481000,9.46748095703125,0.10014496631622313,-0.03787548864830751,-0.015796882165293208
1761468665468463900,9.4774638671875,0.11570903067290782,-0.020166352254059165,-0.017340572509914637
1761468665478446800,9.48744677734375,0.13920564159452914,-0.010499314613291061,-0.014370178396999835
1761468665488429800,9.497429931640625,0.08683248027861118,-0.00918783928907942,-0.003561290944460779
1761468665498412800,9.507412841796874,0.14878361727893352,0.009873748327163048,0.00003429956182371825
1761468665508396000,9.51739599609375,0.1297825642108917,0.019403313726000487,0.016635191586380823
1761468665518378800,9.527378662109374,0.11676526172757148,0.01303503450283315,0.007692417666129768
1761468665528361700,9.53736181640625,0.1188601881802082,-0.004955635946267284,0.029326545484387314
1761468665538345000,9.547344970703126,0.13711656036078929,-0.014829384273430331,0.0428289280709112
1761468665548328000,9.557327880859376,0.09521569322049617,-0.02366297133131884,0.05331608645552769
1761468665558310700,9.567310546875,0.1399567522227764,-0.03356376749561168,0.04726533048262354
1761468665568294000,9.5772939453125,0.1258925710350275,-0.03294729326481465,0.050801190158305684
1761468665578276900,9.58727685546875,0.10913374393582344,-0.036543513958761466,0.034401433029305185
1761468665588259600,9.597259521484375,0.11137772347033023,-0.022602895218599588,0.01258659204901196
1761468665598242800,9.607242919921875,0.1290337916702032,0.02123081684752833,0.024518373451102523
1761468665608225800,9.617225830078125,0.1393605398952961,0.04358991620577871,0.02228446321946103
1761468665618208800,9.627208740234375,0.08833587057888508,0.022398358222981914,0.015817089269682765
1761468665628191700,9.637191650390625,0.1535772812962532,-0.005158369143866002,-0.00006770864108111709
1761468665638173700,9.647173583984374,0.12200433142483234,-0.035240432003559544,0.007251067106798291
1761468665648157000,9.657156982421874,0.12724164755642414,-0.0656134634667309,0.07666676783412694
1761468665658139600,9.6671396484375,0.1152700547337532,-0.07358943818144034,0.161475231471844
1761468665668123000,9.677122802734376,0.10179916326403617,-0.044958218017453325,0.051446831118082625
1761468665678105900,9.68710595703125,0.11885726557075976,-0.013248604188277386,-0.03279176934296265
1761468665688088800,9.6970888671875,0.10344283881783485,0.02034014248496387,-0.059897049448150205
1761468665698071800,9.70707177734375,0.07754968814849852,0.03058292048734147,-0.05556646833135746
1761468665708054800,9.7170546875,0.19711130259633064,0.029746291566686702,-0.07715606745472177
1761468665718037800,9.727037841796875,0.08443418696522713,0.03933826837697998,-0.04311687816681806
1761468665728021000,9.73702099609375,0.12797814513742922,0.04764378557330928,-0.04589590072636492
1761468665738003700,9.747003662109375,0.09939794734120368,0.03603896197010763,-0.03328988245767541
1761468665747986700,9.756986572265625,0.12259119140207766,0.03641164490713272,-0.017599086448783052
1761468665757970000,9.766969970703125,0.15431670148670673,0.02885832975101657,0.0007620658471016213
1761468665767953000,9.776952880859374,0.10718202534615993,0.005992111987690441,0.03144393949715886
1761468665777935600,9.786935546875,0.1246902095079422,-0.006305785613320768,0.04396432074243203
1761468665787918800,9.7969189453125,0.1246896249860525,-0.013331213570968246,0.04666920492011122
1761468665797901800,9.80690185546875,0.11451660601794719,-0.010319610664830543,0.03909179650235455
1761468665807884800,9.816884765625,0.11077449688017367,-0.039103199245780706,0.024732390661118552
1761468665817867800,9.82686767578125,0.13980126940011978,-0.04777627111286856,0.01640170249091461
1761468665827850800,9.836850830078125,0.11555880854725838,-0.03767319840870332,0.022194287018245086
1761468665837834000,9.846833984375,0.13575871601104736,-0.036120443408214485,0.022092055053054355
1761468665847816700,9.856816650390625,0.09610475101470947,-0.016062670661741867,0.010259135482134297
1761468665857799700,9.866799560546875,0.12094517776072025,-0.004560704644815996,0.022991145617514846
1761468665867783000,9.876782958984375,0.13186930735707283,0.008370554389711468,0.020432451277761717
1761468665877766000,9.886765869140625,0.12259236044585704,0.013737141190469265,0.01125653075533919
1761468665887748600,9.89674853515625,0.10957330439686774,0.025291768976394086,0.014926182011677882
1761468665897731800,9.90673193359375,0.1273784256786108,0.01633515376045834,0.002447260721377097
1761468665907714800,9.91671484375,0.11884674417674541,-0.003182351796585135,-0.027986296156840396
1761468665917697800,9.92669775390625,0.11585282305777073,-0.0030540127091808244,-0.04340735814652871
1761468665927680800,9.9366806640625,0.12094108610749243,0.015907343102712183,-0.03389551563404966
1761468665937663700,9.946663818359376,0.12468494881093502,0.035816601623431775,-0.015438976672291755
1761468665947647000,9.95664697265625,0.0868225434064865,0.04445943361588288,0.011919209614885039
1761468665957630000,9.9666298828125,0.1379968503266573,0.04201179386859294,0.01127815349868033
1761468665967612700,9.97661279296875,0.1281195994347334,0.0256658629857935,0.03928610436490271
1761468665977596000,9.986595947265625,0.11105798999667167,0.009465994076756759,0.05049776849863119
1761468665987579000,9.996578857421875,0.15550211187899113,-0.0023465950921876355,0.028616785213258115
1761468665997560800,10.006560791015625,0.08831132065951823,-0.031175808346574192,0.022978952856222166
1761468666007543800,10.016543701171875,0.13035714922845362,-0.020882113007712175,-0.014660174319520592
1761468666017526800,10.02652685546875,0.11629062995314597,-0.033185714263725095,-0.023580444147018716
1761468666027509800,10.036509765625,0.11374562164545059,0.006824599022767506,-0.016206864905403927
1761468666037492700,10.04649267578125,0.11943126606643199,0.05259814744452014,0.001407574376137927
1761468666047475700,10.056475830078124,0.12990356024205685,0.08285559427058324,0.01565202576792799
1761468666057459000,10.066458984375,0.120624859765172,0.10876978772794828,0.0020970453444868324
1761468666067441700,10.076441650390626,0.11373860738277435,0.09787371518230065,0.002066157015878707
1761468666077424600,10.086424560546876,0.1316916127026081,0.04797099453394767,-0.02052529436009936
1761468666087407900,10.096407958984376,0.10804302608966827,0.010604492020816541,-0.05631977091669105
1761468666097390800,10.106390869140625,0.1292909813016653,-0.01255257561497856,-0.061836470245243975
1761468666107373800,10.116373779296875,0.09442132797241211,-0.03694765147997532,-0.018228242064639924
1761468666117356800,10.126356689453125,0.1405067873209715,-0.0368222030359786,0.002153433440532535
1761468666127339800,10.13633984375,0.13361995041668415,-0.052661549803242086,0.014413369084754957
1761468666137323000,10.146322998046875,0.13287000883221625,-0.025592304559238253,0.02729124483107589
1761468666147305700,10.1563056640625,0.09501286412477493,-0.02652951234411448,0.045778694954328236
1761468666157288700,10.166288818359375,0.1478343537300825,-0.09996339007108472,-0.006663942268071696
1761468666167272000,10.17627197265625,0.10967384216189384,-0.13342413558363914,-0.020565827299887315
1761468666177255000,10.1862548828125,0.13780629619061946,-0.11211108837933279,0.013232086878316476
1761468666187234800,10.19623486328125,0.1304763916939497,-0.07928025653446093,0.05957042500940151
1761468666197218000,10.206218017578125,0.13841127634644507,-0.064366879205429,0.09370202812138013
1761468666207201000,10.216200927734375,0.12688976537883281,-0.0680968366811052,0.10292306186058559
1761468666217184000,10.22618408203125,0.11207564260661601,-0.08968801584020257,0.05733133171256631
1761468666227167000,10.2361669921875,0.1321276660323143,-0.07077029367405921,0.042648835963383314
1761468666237150000,10.24614990234375,0.13392156371176242,0.05432323593776673,0.14055353080583735
1761468666247133000,10.2561328125,0.15591361528933048,0.16803252589451148,0.2420949381828308
1761468666257116200,10.2661162109375,0.13779869740605352,0.20898264991492033,0.30408001398537304
1761468666267099000,10.276098876953125,0.11204758555591106,0.13873236152697355,0.2447069107795134
1761468666277081900,10.286081787109374,0.07297755792737007,-0.05300962345539592,-0.030623969450360163
1761468666287065000,10.296065185546874,0.11276947008967399,-0.19211765902750194,-0.31973847862724214
1761468666297047800,10.3060478515625,0.12099603116512297,-0.14701926535437815,-0.3258984260290861
1761468666307031000,10.316031005859376,0.10378419960141182,0.027075611052708698,-0.13163887786837294
1761468666317014000,10.326013916015626,0.1688742191493511,0.1569250573541969,0.031556391462264584
1761468666326996000,10.335995849609375,0.08297580485045909,0.13800265901293604,0.07467080824393779
1761468666336979000,10.34597900390625,0.14686521643698214,0.029539320585387756,-0.06057068809312768
1761468666346962000,10.3559619140625,0.10062544330954551,-0.0802761539703235,-0.17238350591193882
1761468666356945200,10.365945068359375,0.12321955243349074,-0.11230234576826914,-0.1677430779612623
1761468666366928000,10.375927978515625,0.13519523690938948,-0.039377303479425606,-0.011451907196966931
1761468666376910800,10.385910888671875,0.1157446865081787,0.0448058222010266,0.1736750618261285
1761468666386894000,10.39589404296875,0.1142459723830223,0.05743630362411495,0.25250408572806043
1761468666396877000,10.405876953125,0.10511340237855911,-0.011759621439268812,0.18986030855476854
1761468666406859800,10.41585986328125,0.127853641974926,-0.09560027209129184,0.029450989281386137
1761468666416843000,10.425843017578124,0.09762158531844616,-0.14379402883071452,-0.1439128694374114
1761468666426826000,10.435825927734374,0.10360475138127803,-0.11709562619309871,-0.23017405263409016
1761468666436809000,10.44580908203125,0.10405658680200576,-0.021741533715487458,-0.18724990686066448
1761468666446792000,10.4557919921875,0.13368892399966717,0.0638342564663384,-0.0860385625550989
1761468666456775000,10.46577490234375,0.12052373747825622,0.10011398665606976,-0.0062413146755192425
1761468666466758000,10.4757578125,0.12486556607484817,0.07301012218983378,0.0024547270752023906
1761468666476741000,10.4857412109375,0.11783318322002886,0.04160460130719002,-0.019774192865006625
1761468666486723800,10.495723876953125,0.1239712475836277,0.023181028466694988,-0.025081468960270283
1761468666496707000,10.50570703125,0.12562076835632324,0.02320942344411742,0.011945956057915463
1761468666506690000,10.51568994140625,0.12293138314187527,0.045576057654852044,0.0727150436668191
1761468666516673000,10.525673095703125,0.12891805633604525,0.07299745450450573,0.15828116640457882
1761468666526656000,10.535656005859375,0.13310440210998056,0.05900603715886827,0.18714460158897564
1761468666536639000,10.545638916015625,0.11828443411886691,0.009101384848332963,0.1373968660063576
1761468666546622000,10.5556220703125,0.11707973450422286,-0.05358038168121129,0.05707787754130549
1761468666556605000,10.56560498046875,0.11932079142928123,-0.09127252681897953,-0.008929923571832478
1761468666566588000,10.575587890625,0.12156243287622928,-0.09429264182513579,-0.035457746282359585
1761468666576571000,10.58557080078125,0.11018763690292835,-0.06611252186293713,-0.032063126274850216
1761468666586554000,10.59555419921875,0.11437515172064304,-0.04778888856584672,-0.022192706982512026
1761468666596536800,10.605536865234376,0.12050853990912437,-0.025267086626286617,-0.04152077264836989
1761468666606520000,10.61552001953125,0.11287585307359695,-0.03153075469750911,-0.07080934704281389
1761468666616503000,10.6255029296875,0.12260463540554047,-0.042578236678894606,-0.10826140894754789
1761468666626486000,10.635486083984375,0.11318155802190304,-0.033508292715018616,-0.10764655585167929
1761468666636469000,10.645468994140625,0.11976970424056052,-0.00022633326889481394,-0.07176569791957736
1761468666646452000,10.655451904296875,0.12261632584333419,0.03789546285725664,-0.0024838983707595615
1761468666656434200,10.66543408203125,0.12247019537091254,0.06462866738019511,0.057411539075616747
1761468666666417000,10.6754169921875,0.1281581778794527,0.07382338393463288,0.08825685965907759
1761468666676399900,10.68539990234375,0.12112754859030246,0.06348332870339508,0.10083290291461161
1761468666686383000,10.695383056640624,0.12531857053935527,0.046379551490885206,0.10656747364439069
1761468666696366000,10.705365966796874,0.12187690565288066,0.029776453809509985,0.09668003015201539
1761468666706348800,10.715348876953126,0.11738427040874957,0.03486277606389485,0.08532951923660002
1761468666716332000,10.72533203125,0.11917583000063896,0.013186886896565556,0.067221158958273
1761468666726315000,10.73531494140625,0.122463765630126,0.0034872073615202677,0.03901931122145615
1761468666736298000,10.745298095703125,0.13053776649236679,-0.01718062814127188,-0.0005598349730018526
1761468666746281000,10.755281005859375,0.11542086138129233,-0.05338601445315871,-0.034935877832723776
1761468666756264000,10.765263916015625,0.11736439666450023,-0.07883239403595216,-0.06256709520788863
1761468666766247000,10.775246826171875,0.12110475223660469,-0.07407680613985285,-0.06591131846872159
1761468666776230000,10.78522998046875,0.3539572302997112,-0.035715045511675994,-0.09627210693825036
1761468666786212900,10.795212890625,-0.04688391624987125,-0.061625161015545014,0.002135925183305517
1761468666796196000,10.805196044921875,-0.05797872623801231,-0.06518761187063064,0.021277473567426205
1761468666806179000,10.815178955078125,0.4036830919772386,0.016715878440043887,-0.0854706721398048
1761468666816161800,10.825161865234374,-0.18006021455228327,-0.039360535007715226,0.06317477877745405
1761468666826145000,10.83514501953125,0.2869651765227318,0.020434378373366778,-0.04962348814844154
1761468666836128000,10.8451279296875,0.005792027404904365,0.00981186207209248,0.04703274100287817
1761468666846111000,10.855111083984376,0.13701836068332193,0.030890082173794506,0.032568637244729325
1761468666856094000,10.865093994140626,0.07056874321997166,0.040186473570996896,0.07470370586654171
1761468666866077000,10.875076904296876,0.1366927819907665,0.06430809822289739,0.06699509511743672
1761468666876060000,10.885059814453125,0.1854623658567667,0.07342801880834159,0.0532045980382245
1761468666886043100,10.895043212890625,0.1716945372670889,0.046995180904888544,0.03263009424153715
