time,seconds_elapsed,z,y,x
1761468620888959000,0.111958984375,0.14269874440729619,0.027177468558563848,0.01954773173194844
1761468620898943000,0.12194287109375,0.11471885059177875,0.017607329120743087,0.006494946943293325
1761468620908926000,0.131926025390625,0.1154658695667982,0.0047628259210614485,0.010503159671346657
1761468620918909000,0.141908935546875,0.13147709316909312,0.0010322154248366131,0.002155990723799914
1761468620928892000,0.151891845703125,0.13656535621881485,0.006033754605753347,0.015176421312545426
1761468620938875000,0.161875,0.10050152466893196,0.011298602631664835,0.031585434893658386
1761468620948858000,0.171858154296875,0.13476853592991828,-0.005204980197991245,0.020720766699849628
1761468620958840800,0.1818408203125,0.14629238498508929,-0.011157225966174154,0.008797209703410044
1761468620968824800,0.191824951171875,0.1398614751547575,-0.020397681358479892,-0.00853578228824772
1761468620978807800,0.201807861328125,0.1018541083216667,-0.030917586668650618,0.007013687287503853
1761468620988791000,0.211791015625,0.12849135535657405,-0.030805321933212688,-0.0023520019196672363
1761468620998773800,0.221773681640625,0.09706687404513359,-0.01817324677465949,0.00852757614890579
1761468621008757000,0.231757080078125,0.1355260762989521,-0.014138748827879317,0.012797216292121447
1761468621018740000,0.241739990234375,0.13522797013521193,-0.007042379092448391,0.022416679330961777
1761468621028724000,0.251723876953125,0.11068681859672069,-0.005694836941012181,0.03396325167459435
1761468621038707000,0.26170703125,0.11966565934419632,0.0021633292134618383,0.0323019765320234
1761468621048690000,0.27168994140625,0.13343114984631538,0.007423039839952252,0.02232516512260772
1761468621058673000,0.2816728515625,0.1204115092754364,0.017934273219900206,0.019042878349195234
1761468621068655900,0.29165576171875,0.11591945855319499,0.019974496643501333,0.024432608563522806
1761468621078639000,0.30163916015625,0.11516893244683742,0.016726783426548354,0.010226233292953111
1761468621088621800,0.311621826171875,0.13073065871596334,0.014262489371979608,-0.007300550538022071
1761468621098605800,0.321605712890625,0.12130407420098781,0.010009065144625491,-0.006050755972904153
1761468621108589000,0.331589111328125,0.12384908250868319,0.001802884703502059,-0.016752575454930772
1761468621118572000,0.341572021484375,0.12026011810600756,-0.0033679877289105203,-0.011918844288703984
1761468621128554800,0.3515546875,0.09706453595757483,0.011099449630640447,0.023494578794739207
1761468621138537000,0.361536865234375,0.15617255848646164,0.012956548739410935,0.023949318558606318
1761468621148520000,0.37152001953125,0.10724164657890796,0.01636524293804541,0.03762945059852209
1761468621158503000,0.3815029296875,0.13552490725517272,0.00046023335631471124,0.017683577261306344
1761468621168487000,0.39148681640625,0.11816636069715022,-0.017099073637928813,0.008586571760568767
1761468621178470000,0.401469970703125,0.1268459262371063,-0.03257419020268135,-0.012361044231406413
1761468621188452900,0.411452880859375,0.10694178684949875,-0.03398467805511318,0.01610345019670203
1761468621198435800,0.421435791015625,0.1168166996538639,-0.010596313280938192,0.020808015725039875
1761468621208418800,0.431418701171875,0.14869126282036305,0.004192241225182079,0.0394711694750702
1761468621218401800,0.44140185546875,0.13028583755791187,0.006655407335166819,0.03910532270420808
1761468621228385000,0.451385009765625,0.12115677468478679,0.0027654598250752313,0.018905785133177415
1761468621238369000,0.461369140625,0.09541793779432774,-0.010151811783295123,0.001808583791926503
1761468621248351700,0.471351806640625,0.14285305818617344,-0.02609806212428957,-0.02746492546412628
1761468621258335000,0.4813349609375,0.09227437907159328,-0.03329744927620049,-0.010603026149515062
1761468621268318000,0.49131787109375,0.1516822613298893,-0.015135705709666944,-0.011294141085678711
1761468621278300700,0.50130078125,0.11412439182996749,-0.006062460110429674,0.006863761989376507
1761468621288284000,0.511283935546875,0.12115911277234553,0.01986214057651814,0.031038112342357635
1761468621298267000,0.521266845703125,0.1183154137790203,0.04033201495495159,0.049688064117520116
1761468621308251000,0.5312509765625,0.12549684971570968,0.03269883949565701,0.04966184739745222
1761468621318233900,0.54123388671875,0.12968611809909342,0.01588400332632009,0.019899860504711975
1761468621328216800,0.551216796875,0.11397416970431803,-0.0042391217073658475,-0.013052245932538061
1761468621338199800,0.56119970703125,0.12833879514336585,-0.011549339689454064,-0.01423083385839127
1761468621348183000,0.57118310546875,0.1177145252764225,-0.01568656279176939,-0.01723214826595504
1761468621358166000,0.581166015625,0.11905951014459132,0.009608868579589761,0.012891776407510042
1761468621368150000,0.59114990234375,0.12773849116265773,0.016504518977995028,0.0452734853785485
1761468621378132700,0.6011328125,0.12055530166029929,0.010750732091092504,0.03123352531660348
1761468621388116000,0.611115966796875,0.10125263529717922,0.00446473345705308,0.007327000153530388
1761468621398099000,0.621098876953125,0.14898819994032383,-0.008866352249751798,-0.025421701799263244
1761468621408081700,0.63108154296875,0.0834457604497671,-0.01847496053443756,-0.01768896125589963
1761468621418065000,0.64106494140625,0.11711363677382468,-0.011261316528310998,-0.012852188749215565
1761468621428048000,0.6510478515625,0.14958733487725256,0.011340185884223319,-0.006006583471037447
1761468621438032000,0.661031982421875,0.09556874444186687,0.012135067155538127,0.025133929799869656
1761468621448014800,0.671014892578125,0.15108604900240896,0.01652303644879721,0.026758142601372673
1761468621457997800,0.680997802734375,0.11711889747083186,0.013076951115531846,0.03208160264645703
1761468621467980800,0.690980712890625,0.11681903774142265,-0.004560179488430731,0.015401918897801077
1761468621477964000,0.700964111328125,0.12444997101128101,-0.0015800494327908381,0.008477384898206219
1761468621487947000,0.710947021484375,0.1257967094451189,-0.007655611053388565,0.014329513026471249
1761468621497929700,0.7209296875,0.11292495291233062,0.0006770681445021182,0.012155612186645157
1761468621507913700,0.730913818359375,0.1271381871819496,0.00564752263398841,0.013899793539429082
1761468621517897000,0.74089697265625,0.1332739134579897,0.005437176952091977,0.005078371843369677
1761468621527880000,0.7508798828125,0.11636486423313618,-0.002054535076743923,0.019163828714587723
1761468621537862700,0.760862548828125,0.11023030700087547,0.004345258096116595,0.008113474356103687
1761468621547846000,0.770845947265625,0.13132862460911274,-0.006713370900368318,-0.016031001448421737
1761468621557828900,0.780828857421875,0.10933189685642719,-0.020210501923039553,-0.01887027086180169
1761468621567811800,0.790811767578125,0.10753683013319969,-0.02503885366125032,-0.013632018581870943
1761468621577796000,0.800796142578125,0.12818740397393702,-0.01708935139493551,-0.005125023996690288
1761468621587778800,0.81077880859375,0.11502104840874672,-0.01658935685039032,0.0106035421727458
1761468621597761800,0.82076171875,0.11726619698703289,0.0010739265415584667,0.02761251267469488
1761468621607745000,0.8307451171875,0.11846446686089038,0.00835057104760781,0.0451743997850921
1761468621617728000,0.84072802734375,0.1210083061248064,0.00178684231757652,0.03659573733634315
1761468621627710700,0.850710693359375,0.11621873376071452,-0.0027515226312680168,0.03998650771921966
1761468621637694000,0.86069384765625,0.12025778001844882,-0.0034504464145516975,0.024386618563905355
1761468621647678000,0.870677978515625,0.1398603061109781,-0.007471847417741082,-0.004608777003665455
1761468621657661000,0.880660888671875,0.0931710356503725,-0.023651130196475422,0.009214699896541424
1761468621667644000,0.890643798828125,0.1332733289361,-0.008189507867535575,-0.002711738610151224
1761468621677627000,0.900626953125,0.1227992811948061,0.0016646681094774976,-0.00026994864833541216
1761468621687609900,0.91060986328125,0.11277414626479149,0.012723434103280305,0.00289744760771282
1761468621697593000,0.920593017578125,0.12579378683567047,0.00819382784962654,-0.005109497633995488
1761468621707575800,0.930575927734375,0.10424597189426421,-0.0027921925683738664,-0.011397227000817656
1761468621717559800,0.940559814453125,0.12504559881687163,0.0021644206254277376,-0.030225430552870965
1761468621727542800,0.950542724609375,0.12130641228854655,0.0058960860010003665,-0.014892430439125746
1761468621737526000,0.960526123046875,0.10664192712008952,-0.0033652386493980883,0.002581947351177223
1761468621747508700,0.9705087890625,0.11591945855319499,-0.0038059818539535623,0.010823052975209429
1761468621757491700,0.98049169921875,0.11143033044040203,-0.0011756698829820378,0.022191382675105703
1761468621767475000,0.990474853515625,0.10394845025241374,0.006236099644284695,0.03248554837142583
1761468621777458000,1.0004580078125,0.1250479369044304,0.00737092149364762,0.03825571557097137
1761468621787442000,1.01044189453125,0.10903671330213546,-0.00953866658732295,0.033290850572055206
1761468621797425000,1.0204248046875,0.11382453210055828,-0.02201267424048856,0.016532260934868828
1761468621807407900,1.030407958984375,0.11681611513197421,-0.02578379484361503,0.01383683413870167
1761468621817390800,1.040390869140625,0.13671850095391272,-0.010991331347357481,0.01077151458421722
1761468621827374000,1.0503740234375,0.11547113026380539,0.00035800595770124345,0.01531754681628663
1761468621837356800,1.060356689453125,0.1304360596835613,0.0043164110275451095,0.009268498743278905
1761468621847339800,1.07033984375,0.1217576631873846,0.006133557151840068,0.01348491542849224
1761468621857323800,1.08032373046875,0.12744564569592476,-0.0011221906966529787,-0.006600727139017545
1761468621867307000,1.09030712890625,0.11801906118094921,0.005617022464447654,-0.016025827516382558
1761468621877289700,1.100289794921875,0.11248246984183788,-0.012846010170178487,-0.02187879132828675
1761468621887273000,1.11027294921875,0.1299883159160614,-0.0022918235644930974,-0.002498767146328464
1761468621897256000,1.120255859375,0.13552666082084178,0.0110258912040852,-0.0017226408078335224
1761468621907239000,1.130239013671875,0.12116203538179397,0.012115878397878258,0.028528901433828285
1761468621917222000,1.140221923828125,0.11532499979138373,0.006619276575860567,0.029879389027599245
1761468621927206000,1.150205810546875,0.13208499593436718,-0.0012578865400282666,0.033198267784621566
1761468621937188900,1.16018896484375,0.1078413660377264,-0.015392991239251568,0.03208678114507347
1761468621947171800,1.170171875,0.14689561157524586,-0.016207823886629193,0.022914166824589483
1761468621957155000,1.180155029296875,0.11457096655368804,-0.017915856213797814,0.01802997041302733
1761468621967137800,1.1901376953125,0.11591712046563625,-0.026444377644197083,0.00972134794415906
1761468621977120800,1.200120849609375,0.11950842295587062,-0.01775332259584684,0.00370049848575145
1761468621987104000,1.21010400390625,0.12489537669122218,-0.013050702429423107,-0.003559861605777405
1761468621997088000,1.220087890625,0.122053431263566,0.010385456142388283,-0.004874602032732218
1761468622007070700,1.23007080078125,0.12399988915622234,0.003659970112540759,-0.011165591935720294
1761468622017054000,1.240053955078125,0.12205576935112476,0.0013333674956113098,-0.020377163726836442
1761468622027037000,1.250036865234375,0.11113280879855156,0.014683641960076056,-0.003969095427216962
1761468622037020000,1.26002001953125,0.11262918483614921,0.007968681890820152,0.009594958785246126
1761468622047003000,1.2700029296875,0.1346276661545038,0.022796760123153216,0.015742978287278674
1761468622056985900,1.27998583984375,0.13358137197196482,0.03339981823870912,0.025376876276847905
1761468622066969900,1.289969970703125,0.11337971094250679,0.03230701803332194,0.0365763111166656
1761468622076952800,1.299952880859375,0.12385434320569037,0.026441450468171385,0.024026288218377156
1761468622086936000,1.30993603515625,0.10544599533379077,0.01806447090425063,0.007094565937411971
1761468622096918800,1.319918701171875,0.15961422337293624,0.004330106192757375,-0.009790248461905866
1761468622106901800,1.32990185546875,0.11951193008720874,-0.021154705704282968,-0.009073688557231799
1761468622116885000,1.339885009765625,0.10335106888115406,-0.009762629802618175,-0.00743988594347611
1761468622126867700,1.34986767578125,0.12071019996106624,-0.007213064050814137,0.0007270219331840052
1761468622136851700,1.359851806640625,0.12909107481539248,-0.007682348363264463,0.02824338989017997
1761468622146835500,1.36983544921875,0.12250818929374217,-0.008801570784696377,0.026033056896948254
1761468622156818700,1.379818603515625,0.12086217565238475,-0.015835163782490416,0.015524645661748944
1761468622166801700,1.3898017578125,0.12639818246960638,-0.027664146963809616,-0.012275014482345432
1761468622176784600,1.39978466796875,0.119666243866086,-0.04912390002927277,-0.02517280963868834
1761468622186767600,1.409767578125,0.119666243866086,-0.029854017124325036,-0.01062773589908611
1761468622196750600,1.41975048828125,0.12924363502860067,0.007546940214256756,0.009559353182325139
1761468622206734600,1.429734619140625,0.13807517625987528,0.021046674185968003,0.025043429371668025
1761468622216717800,1.4397177734375,0.10500701939463615,0.03502369768007193,0.039866835995460856
1761468622226700500,1.449700439453125,0.1286503453105688,0.038463134076842105,0.033514969050977374
1761468622236683500,1.45968359375,0.1235614977389574,0.026062862946745008,0.032252671197312885
1761468622246666800,1.469666748046875,0.12954641736745834,0.014678020503465086,0.018486303912359288
1761468622256649700,1.479649658203125,0.12430734767019748,0.01008087457208894,0.010580928482138551
1761468622266632400,1.489632568359375,0.12296060923635958,0.00022549758525565266,0.0007480373217491433
1761468622276616400,1.499616455078125,0.1238578503370285,-0.006477694414393045,0.0064923211613669984
1761468622286599700,1.509599609375,0.11188567299246788,-0.004248839383781887,-0.0029172117541078476
1761468622296582700,1.519582763671875,0.13926993900239468,-0.017318246513674966,-0.019492909971904008
1761468622306565600,1.529565673828125,0.11218670176565647,-0.03310611425545067,-0.01475987183433026
1761468622316548600,1.539548583984375,0.11727671838104724,-0.031070114915817973,-0.01596618345074821
1761468622326531600,1.549531494140625,0.11024375100433825,-0.04017374652016442,-0.007355171368666924
1761468622336514800,1.559514892578125,0.11877309441864489,-0.0218015750733437,0.015704801701358517
1761468622346498800,1.569498779296875,0.14196867656707762,0.010626375059061683,0.04136175529491156
1761468622356481500,1.5794814453125,0.10979776080250739,0.015522873829770833,0.05403739560055546
1761468622366464500,1.589464599609375,0.12999766826629638,0.016618258717888964,0.045242597049940374
1761468622376447700,1.59944775390625,0.10799860242605208,-0.00018302841670811174,0.02000739883268252
1761468622386430700,1.6094306640625,0.11862170324921607,-0.00661074164295569,-0.01073295897238422
1761468622396413400,1.619413330078125,0.11323416499197482,-0.014029977524047717,-0.017464048192533662
1761468622406396700,1.629396728515625,0.12385843485891818,-0.0032513984448043626,-0.01055820976025425
1761468622416380700,1.639380615234375,0.10904431208670139,0.016030453459150155,0.006683363921171985
1761468622426363600,1.64936376953125,0.11936872222423553,0.022910445064119992,0.023441387302777728
1761468622436346600,1.6593466796875,0.13178630524873733,0.00771011771960184,0.021736040123039854
1761468622446329600,1.66932958984375,0.13522913917899132,-0.019603832133626563,-0.012411792604532092
1761468622456312600,1.6793125,0.10664660329520702,-0.028179457808495498,-0.02341586013587657
1761468622466295800,1.6892958984375,0.12729659261405468,-0.03948760458664037,-0.029418931908998636
1761468622476278500,1.699278564453125,0.14286065697073935,-0.009232806375389918,0.0010408142898231745
1761468622486261500,1.709261474609375,0.09363046985566616,0.012430483605270274,0.03953328405900392
1761468622496245500,1.71924560546875,0.1283463939279318,0.007623485182342119,0.04078696934795007
1761468622506228700,1.729228759765625,0.12804711872041225,0.018131161198602058,0.028627681066608054
1761468622516211500,1.73921142578125,0.11981705051362514,-0.003369599730684422,0.006592041509062983
1761468622526194700,1.749194580078125,0.12445581623017787,-0.0245749259439297,-0.004860377144557423
1761468622536177700,1.759177734375,0.1115881513506174,-0.015530650710850021,-0.009738166648219339
1761468622546160600,1.76916064453125,0.12266191855072975,0.0017569632025435566,0.005236028356803581
1761468622556143600,1.7791435546875,0.12251052738130092,0.024346373318484982,0.033315423324308355
1761468622566127600,1.789127685546875,0.10784487316906452,0.029330728469160385,0.040591834934917276
1761468622576110600,1.799110595703125,0.13343290341198444,0.016236250830092468,0.03557327612054068
1761468622586093600,1.809093505859375,0.116672907269001,0.006414913110178895,0.008226597608067095
1761468622596076800,1.819076904296875,0.13507891705334185,-0.021358397883106953,-0.01915879177986644
1761468622606059500,1.8290595703125,0.11502806267142295,-0.026463246741448527,-0.016476781587698497
1761468622616042500,1.83904248046875,0.11338146450817585,-0.011758388463407755,0.0016882499144645407
1761468622626025700,1.849025634765625,0.12385668129324913,0.006788354099029675,0.01820041334279813
1761468622636009700,1.859009765625,0.09243219998180865,0.0036376669491874052,0.02590535713036079
1761468622645992400,1.868992431640625,0.15722645145356653,-0.0014467190764378755,0.01517230225985404
1761468622655975700,1.8789755859375,0.1054535941183567,-0.009367474738880992,-0.00571739126611501
1761468622665958700,1.888958740234375,0.1252080959022045,-0.01941715958826244,-0.01860742780768778
1761468622675941600,1.898941650390625,0.12071779874563217,-0.012339846179750747,-0.0016390633107628673
1761468622685924600,1.908924560546875,0.10590484501719474,0.0061089615667006,0.008615318364440462
1761468622695907600,1.918907470703125,0.12521043398976325,0.010614118365687318,0.019194826641050166
1761468622705890600,1.928890625,0.10934767894744872,0.013894697239203379,0.03371320873654913
1761468622715874600,1.93887451171875,0.13478665610849858,0.007400174987595528,0.015143509990209712
1761468622725857800,1.94885791015625,0.12446107692718505,-0.009068747520633042,0.0038234718448715284
1761468622735840500,1.958840576171875,0.11982406477630138,-0.011896121000242418,-0.007501612368342466
1761468622745823700,1.96882373046875,0.11323884116709232,-0.007574869400798343,-0.0051249006991041825
1761468622755806700,1.978806640625,0.11638181536793708,-0.008640165111329406,-0.0015805015239398926
1761468622765789700,1.988789794921875,0.14062486074268818,0.00196565578347072,0.0072855584648670625
1761468622775772700,1.998772705078125,0.10501111104786395,0.004209799714758992,0.03247452465391252
1761468622785756700,2.008756591796875,0.13883154758512972,0.008095317644905299,0.02162733275128994
1761468622795739600,2.01873974609375,0.08465981241464614,-0.0037452052771579473,0.026745484049199148
1761468622805722600,2.02872265625,0.14406418754160402,0.007457444433053024,0.0102713008439634
1761468622815705600,2.03870556640625,0.13658230735361576,0.007703902607946656,0.004070309045678004
1761468622825688600,2.0486884765625,0.11503390789031982,0.00019775562838185578,0.0061887488046428185
1761468622835671600,2.058671630859375,0.12625555912852288,-0.0017553101015742867,0.010000945770251565
1761468622845654800,2.06865478515625,0.12341069109141826,0.001532785358116962,0.01291374164414592
1761468622855638800,2.078638671875,0.1316430973857641,0.01766712845000438,0.01419025068625342
1761468622865621500,2.08862158203125,0.11069441738128662,0.004567499711783603,0.013531622380740009
1761468622875604700,2.098604736328125,0.12341478274464607,-0.007563416425022296,-0.0053590702145826065
1761468622885587700,2.108587646484375,0.11787819140553474,0.0012257378360955044,-0.008005442837788724
1761468622895570400,2.1185703125,0.12610884413421153,-0.003569898942601867,-0.012172513089096173
1761468622905553700,2.1285537109375,0.135239076051116,-0.008872823089733719,-0.01406608088389039
1761468622915536600,2.13853662109375,0.11249357575774192,-0.022583359401067718,-0.016482097083632834
1761468622925519600,2.14851953125,0.10546119290292262,-0.020279247177159412,-0.0047479160462971775
1761468622935503600,2.158503662109375,0.1211737258195877,-0.015479135152744128,0.014951147489575668
1761468622945486600,2.168486572265625,0.13778583792448043,-0.00021165172299370167,0.022697268104320392
1761468622955469600,2.178469482421875,0.0963338835954666,-0.0032129021984757854,0.04048082600822672
1761468622965452500,2.18845263671875,0.1484089387476444,0.0037436526408884674,0.029809917687694542
1761468622975435800,2.198435791015625,0.12027648471891879,0.011359315276378765,0.03501172411448788
1761468622985418500,2.20841845703125,0.1397311267733574,0.004635774608445354,0.014015496907546185
1761468622995401700,2.218401611328125,0.1154880813986063,0.008728332018549554,0.010235923569905572
1761468623005385700,2.2283857421875,0.12820669319629668,0.011299424615572207,0.014584483301383443
1761468623015368700,2.23836865234375,0.12626140434741973,0.00820364599074237,0.009368835578905417
1761468623025351400,2.248351318359375,0.10845336045622825,0.006910053383093327,0.01141360731346067
1761468623035334700,2.258334716796875,0.1334428402841091,0.011607938008895143,0.005778213508683256
1761468623045317600,2.268317626953125,0.11892799271941185,0.00030000585988163947,-0.00103259901732672
1761468623055300600,2.278300537109375,0.14481646721363067,-0.009890475699678063,-0.01669993651881814
1761468623065283600,2.28828369140625,0.10112111787199973,-0.014790244139707646,0.0016198243207531048
1761468623075266600,2.2982666015625,0.1376344467550516,-0.030077404950885102,-0.009508024853887036
1761468623085250600,2.30825048828125,0.09409048858284949,-0.019704726091679184,0.0050884000470396125
1761468623095233800,2.31823388671875,0.12776128751635552,-0.0015912147141993044,0.006409944674116559
1761468623105216800,2.328216796875,0.13419804256558418,-0.017920605454151518,-0.004317443074006587
1761468623115199500,2.338199462890625,0.1113046582341194,-0.005440611018193885,0.015492620255402288
1761468623125182700,2.3481826171875,0.1256704527169466,0.008451981028891168,0.02090053458039183
1761468623135165700,2.358165771484375,0.12013093876838683,0.005565328809828497,0.012959256719728
1761468623145148200,2.368148193359375,0.10127601617276669,-0.005819043275993317,0.003225702314544469
1761468623155132400,2.37813232421875,0.1467670167595148,-0.0014817949563963337,0.0006618431759066879
1761468623165115400,2.388115478515625,0.11294950283169745,0.010771254289313218,0.012158658093679695
1761468623175098400,2.398098388671875,0.11878478485643863,0.018641010416881182,0.02037645590736065
1761468623185081600,2.40808154296875,0.1273135437488556,0.009868350632837973,0.01802875113689806
1761468623195064300,2.418064208984375,0.11444470982551574,0.01711041244927328,0.016177095388225277
1761468623205047300,2.42804736328125,0.1216267302840948,0.014822283245786091,0.012689047776488587
1761468623215030500,2.438030517578125,0.125516723459959,0.006233624559408053,-0.0010171959522180258
1761468623225013500,2.448013427734375,0.10636194113492965,-0.012603191557363606,-0.007144423827971332
1761468623234997200,2.457997314453125,0.1379354755282402,-0.014113929480453952,-0.017179340366483664
1761468623244980200,2.467980224609375,0.12476911996304989,-0.016602271130890585,-0.00850513142165728
1761468623254963500,2.47796337890625,0.13150515021979808,-0.016704361532186157,-0.006884722579014487
1761468623264946400,2.487946533203125,0.11549568018317222,-0.010515950654260814,0.007912640854646451
1761468623274929400,2.497929443359375,0.11863923890590668,0.002188107461691834,0.029507907100394366
1761468623284912400,2.507912353515625,0.1297135906279087,-0.00549412673714105,0.016119940107199363
1761468623294895400,2.517895263671875,0.11055939282476901,-0.0009885680793551728,0.010901123180100693
1761468623304879400,2.52787939453125,0.13390344353318215,-0.000036048560915514825,0.0042053701348137105
1761468623314862600,2.537862548828125,0.12268062325119972,0.008625264369719662,0.010617187105608172
1761468623324845300,2.54784521484375,0.09814064075648785,0.008642649329360574,0.027733134246524422
1761468623334828300,2.557828369140625,0.13330547764003275,0.029746784757031127,0.022990556529047898
1761468623344811500,2.5678115234375,0.11250585071742535,0.02013866966268979,0.02576268812350463
1761468623354794200,2.577794189453125,0.13659867396652697,0.013440715527161955,0.013298215483664534
1761468623364777200,2.587777099609375,0.0988876597315073,0.004068925372767262,0.01136333386437036
1761468623374760400,2.597760498046875,0.14048749809861183,-0.005163488276978023,-0.011941800472605972
1761468623384744400,2.607744384765625,0.11953706452846527,-0.028204007727862333,-0.019773270416399463
1761468623394727400,2.6177275390625,0.09664075758755207,-0.03979877116135321,-0.007239166606450453
1761468623404710400,2.62771044921875,0.14961422288417817,-0.03432511639008298,-0.007894493276602589
1761468623414693400,2.637693359375,0.10577098950445651,-0.02481036953446455,0.0033924828493501987
1761468623424676400,2.64767626953125,0.1300140348792076,-0.013715618911827914,0.018492596655827948
1761468623434659600,2.65765966796875,0.10667056869268417,-0.009328366571199148,0.025068435948761177
1761468623444642300,2.667642333984375,0.12537526916265487,-0.028499360245512795,-0.031151171662239355
1761468623454626300,2.677626220703125,0.10053718050420284,0.025901653636200353,0.03542998605917674
1761468623464609300,2.687609375,0.11804244205653666,0.049276670305035075,0.0520410387181444
1761468623474592500,2.697592529296875,0.1448281576514244,0.04225770862079225,0.04192979184067808
1761468623484575200,2.7075751953125,0.11430208648443221,0.017927957643545232,0.031411356968386095
1761468623494558200,2.71755810546875,0.13719722438156604,0.0026855127569288015,-0.0006866031578276306
1761468623504541400,2.72754150390625,0.10981237384974955,0.00013261340372264384,-0.005225995586556382
1761468623514524400,2.7375244140625,0.10158055207729338,0.010037770649301819,-0.006141114837210625
1761468623524507400,2.74750732421875,0.13494973771572114,0.006448513985681347,0.0032507362911012023
1761468623534491400,2.757491455078125,0.12851415171027183,-0.02189316234693397,-0.011347716170130296
1761468623544474400,2.767474365234375,0.12297872941493987,-0.01794366666933056,-0.028662117625749668
1761468623554457300,2.777457275390625,0.12672083855271338,-0.030047178775980135,-0.0322246050134534
1761468623564440600,2.787440673828125,0.1174438916414976,-0.03602420279239304,-0.026500373014598153
1761468623574423300,2.79742333984375,0.11235738215744495,-0.03001654617569875,-0.020343371055088936
1761468623584406300,2.80740625,0.118795306250453,-0.010983823894336818,0.012929039677977561
1761468623594389500,2.817389404296875,0.11924538810551166,0.004847362399357371,0.04658574615404941
1761468623604372200,2.827372314453125,0.13061784599125384,0.013115913152741267,0.05580649219888728
1761468623614356200,2.837356201171875,0.13196458442509174,0.03329481436111964,0.054934138944302685
1761468623624339500,2.84733935546875,0.10832242755293846,0.037925661632698025,0.058554375268076546
1761468623634322400,2.857322509765625,0.13046879290938376,0.02172440448417328,0.01774850485683419
1761468623644305400,2.867305419921875,0.1104161849617958,0.0022750322598963976,0.01490492916109506
1761468623654288400,2.877288330078125,0.11655015767216682,0.012411495777009986,-0.00844545538998209
1761468623664271400,2.887271240234375,0.11624912889897823,-0.006990274445875548,-0.023352581074740735
1761468623674254300,2.89725439453125,0.1330067869544029,-0.009948060238966718,-0.03108542208280414
1761468623684238300,2.90723828125,0.10846680445969104,-0.0034198868795065206,-0.02625096939736977
1761468623694221600,2.9172216796875,0.14093991804122924,-0.017128450429462826,-0.030603922176174816
1761468623704204300,2.927204345703125,0.0979945102840662,-0.043272813080623744,-0.02851727492811624
1761468623714187300,2.937187255859375,0.14034312119185924,-0.03770662575426977,-0.023730853502335957
1761468623724170500,2.94717041015625,0.1038327149182558,-0.013617359868856146,0.011048440962610765
1761468623734153200,2.9571533203125,0.13002163366377353,0.01506111523665022,0.04386856875037774
1761468623744136400,2.967136474609375,0.10383388396203518,0.008387715587066486,0.07439635238384362
1761468623754119400,2.977119384765625,0.1506710384607315,0.030305720114312134,0.06396385592906735
1761468623764103400,2.987103515625,0.10278583621382713,0.020034464936121366,0.05613748685207683
1761468623774086400,2.99708642578125,0.12328501888513564,0.003706165608135052,0.009586232056096195
1761468623784069400,3.0070693359375,0.12941899159550665,-0.010813390097720548,-0.006349419259070418
1761468623794052400,3.01705224609375,0.12732464966475962,-0.013678606803109868,-0.011178702579042873
1761468623804035300,3.027035400390625,0.10577741924524306,-0.007804463205859064,-0.0007291088589932769
1761468623814018600,3.0370185546875,0.11355857464075088,-0.015795699421782047,-0.012830561439297162
1761468623824001300,3.047001220703125,0.12178688928186893,-0.008795195842836983,-0.021880266332742756
1761468623833985300,3.0569853515625,0.14707505979537963,0.0019134643719298764,-0.027558307402580976
1761468623843968500,3.066968505859375,0.11400573388636112,0.008969762391876428,-0.008778884028852917
1761468623853951500,3.076951416015625,0.11699848596155643,0.009042297905124723,-0.019055975292786024
1761468623863934200,3.086934326171875,0.12088964818120002,0.010636494594276883,-0.030485414929618124
1761468623873917400,3.09691748046875,0.12507891656458378,0.01941643350247759,-0.022408153531211426
1761468623883900400,3.106900390625,0.08692191212773323,0.042735052942112085,0.013985046970355323
1761468623893883400,3.11688330078125,0.1270247899353504,0.020319693351979366,0.02853868760890327
1761468623903866400,3.126866455078125,0.13271218792200087,0.012701048741536214,0.05617431173112709
1761468623913850400,3.136850341796875,0.11520341923832893,-0.00874842495850753,0.07614789049259853
1761468623923833300,3.146833251953125,0.11445523121953009,-0.03311594152972102,0.05025389957304578
1761468623933816300,3.15681640625,0.08123334509730339,-0.05371862567469943,0.0344769916167017
1761468623943799600,3.166799560546875,0.17715514076054095,-0.047767137958342205,0.004937406169832684
1761468623953782300,3.1767822265625,0.08647709096968173,-0.020477870455221273,0.0020391685442533343
1761468623963765500,3.186765625,0.10233984601199626,0.005498652215208858,0.019162824067589825
1761468623973748500,3.19674853515625,0.1190998421549797,0.007974353579781018,0.01474717674953863
1761468623983731200,3.206731201171875,0.13630699754357337,-0.009995927101839334,-0.023986061239265836
1761468623993715200,3.216715087890625,0.09036766866743565,-0.00781624497519806,-0.05763687226409092
1761468624003698400,3.226698486328125,0.12628186261355875,0.0017757775008678436,-0.06339175512953661
1761468624013681400,3.236681396484375,0.12628244713544845,-0.009228468126989901,-0.046213250446692104
1761468624023664400,3.246664306640625,0.13301730834841727,0.0029614938538288695,-0.0147501815573778
1761468624033647400,3.2566474609375,0.11880173599123954,0.033106634845258665,0.02230967985910829
1761468624043630300,3.26663037109375,0.12314005745649337,0.032764662140328436,0.056826528562163
1761468624053613300,3.27661328125,0.11909808858931063,0.009338143613119609,0.06870250182352028
1761468624063596500,3.286596435546875,0.14842764344811438,-0.015748028921731747,0.021598430883791295
1761468624073580300,3.296580322265625,0.09036825318932533,-0.03327421453108545,-0.002154150393162854
1761468624083563300,3.306563232421875,0.13286650170087813,-0.02899941872213967,0.0006003907456761225
1761468624093546500,3.31654638671875,0.12239128491580485,0.00033786278539337216,0.03806655424099881
1761468624103529500,3.326529541015625,0.12074468675255774,0.017738421854237095,0.06610067616151645
1761468624113512200,3.33651220703125,0.123138888412714,0.0136709760525031,0.07004718986416701
1761468624123495400,3.346495361328125,0.11625380507409572,-0.017310816692467777,0.03969269413810689
1761468624133478400,3.356478515625,0.1360047997266054,-0.04296249132270459,-0.02137209304831922
1761468624143461400,3.36646142578125,0.08198562476933002,-0.043805504318373274,-0.03338155192965642
1761468624153445400,3.3764453125,0.1312163964062929,-0.0400030706949532,-0.06431126286094077
1761468624163428400,3.386428466796875,0.12059154201745986,-0.028616771513526325,-0.05026359898315277
1761468624173411300,3.396411376953125,0.1211912614762783,0.009935013527725823,-0.03791782995269168
1761468624183394600,3.40639453125,0.11819909392297268,0.030097954548569394,-0.01059162340608891
1761468624193377500,3.41637744140625,0.11819967844486236,0.02713301749548409,0.004954033077647909
1761468624203360300,3.4263603515625,0.13226619772017,0.025898854324338024,-0.0076735074696829535
1761468624213343500,3.436343505859375,0.11071896730065345,0.015495515465387142,-0.0055136534215183925
1761468624223327500,3.446327392578125,0.12164251237511634,0.005834149513579905,0.004258986318460665
1761468624233310500,3.456310546875,0.11700374665856361,0.005059251584368757,0.02268902999893762
1761468624243293200,3.466293212890625,0.12837503550052642,0.025564863996463825,0.046244339704699815
1761468624253276400,3.4762763671875,0.10996785667240619,0.018661212954693474,0.08817890818519518
1761468624263259400,3.48625927734375,0.12492986348271369,-0.007128975097090005,0.07130198939796537
1761468624273242400,3.496242431640625,0.10951368316411972,-0.025384497894300147,0.033989299431303514
1761468624283225300,3.506225341796875,0.13031214104294775,-0.04670020284657366,-0.01840284971287474
1761468624293208300,3.516208251953125,0.1154968492269516,-0.05042825149295386,-0.045329476182372305
1761468624303192300,3.5261923828125,0.1285159052759409,-0.009703583958605305,-0.023512603075196967
1761468624313175600,3.536175537109375,0.1294131463766098,0.018427440731436946,0.009640820920700207
1761468624323158300,3.546158203125,0.1077151093095541,0.023028084660996682,0.026739972190442492
1761468624333141200,3.556141357421875,0.1403355224072933,0.0065819448067341,-0.0036298352691810577
1761468624343124500,3.56612451171875,0.13479893106818197,-0.01816102661390323,-0.03682101115931291
1761468624353107500,3.576107421875,0.13016074987351894,-0.04470765905617736,-0.052196695070737036
1761468624363090200,3.586090087890625,0.12402560811936855,-0.033766121667297554,-0.06125931881126016
1761468624373074200,3.59607421875,0.10981120480597019,-0.0012044712857808917,-0.030221576361660844
1761468624383057400,3.606057373046875,0.1283674367159605,0.036024175392929465,0.02929054258924443
1761468624393040400,3.616040283203125,0.11669570362269878,0.05366413727479521,0.06412769102153834
1761468624403023400,3.6260234375,0.10352584092617034,0.04383414132439065,0.06249772433268372
1761468624413006300,3.63600634765625,0.15963994233608245,0.018639033088926223,0.03701766624257434
1761468624422989300,3.6459892578125,0.08870996458828449,-0.012956443708133883,0.038399882415169846
1761468624432972500,3.65597265625,0.15275485899746416,-0.006378458123886957,0.015962822449882515
1761468624442955500,3.66595556640625,0.1041202996879816,0.005184384934534318,0.04019826447349042
1761468624452939300,3.675939208984375,0.11923252862393856,0.004591871534637176,0.05483897147413808
1761468624462922200,3.685922119140625,0.11040098739266395,-0.001354232187126763,0.03685580847805831
1761468624472905500,3.695905517578125,0.11548632783293723,-0.029891769018559715,-0.0018927823435049504
1761468624482888400,3.705888427734375,0.13284253630340098,-0.05411456618972588,-0.04775785867334343
1761468624492871200,3.71587109375,0.1305973877251148,-0.06742486483682877,-0.08536918452670797
1761468624502854400,3.7258544921875,0.11174421869516372,-0.056148026512400244,-0.07967795061515644
1761468624512837400,3.73583740234375,0.1362877083212137,-0.02989900704352185,-0.03090587339797057
1761468624522820400,3.7458203125,0.1080067857325077,-0.004638149228622206,0.022484630000637842
1761468624532804600,3.7558046875,0.09528700489103793,0.010750448963302187,0.04967917299158871
1761468624542787300,3.765787353515625,0.1575368325769901,0.004361085852910764,0.03169700550935231
1761468624552770300,3.775770263671875,0.10157353781461716,-0.0022572500080335883,0.01746929062323179
1761468624562753500,3.78575341796875,0.13554302743375302,0.012057485574414021,0.003671368289389647
1761468624572736300,3.795736328125,0.1120499236434698,0.03654610777464695,0.02688796125981025
1761468624582719200,3.80571923828125,0.132549690836668,0.04426891144588589,0.01611067908850964
1761468624592702500,3.815702392578125,0.09753332251310348,0.04396828453149646,0.030102626157109624
1761468624602685400,3.825685546875,0.1397305422514677,0.024041293991263955,0.014322156270500272
1761468624612669400,3.83566943359375,0.11578735660612582,0.010108442999026737,0.00029330212445929644
1761468624622652400,3.84565234375,0.12611118222177028,-0.0030511996975867077,-0.0060871835597325116
1761468624632635400,3.855635498046875,0.10740706627368926,-0.011907633341522887,-0.004497722411202267
1761468624642618400,3.865618408203125,0.12760755825936793,-0.015258222411060705,-0.005671360167302191
1761468624652601600,3.8756015625,0.12326865227222442,-0.017164229562319815,0.006316074111894704
1761468624662584300,3.885584228515625,0.12551438537240028,-0.01865299768219702,0.016920967991510404
1761468624672567300,3.8955673828125,0.10830664546191691,-0.011715471770288421,0.020024039440229534
1761468624682550500,3.905550537109375,0.12671265524625777,-0.02246251406695228,0.009324284051125868
1761468624692534500,3.915534423828125,0.12102701082527637,-0.023324044533423148,0.0015687243211781605
1761468624702517200,3.925517333984375,0.10366904878914356,-0.02248739734645933,-0.004213722404628061
1761468624712500200,3.935500244140625,0.10845803663134575,-0.014168006888404487,-0.006983383480785414
1761468624722483500,3.9454833984375,0.1252174482524395,0.0011234008396277203,-0.0050323133450932795
1761468624732466400,3.955466552734375,0.11773556806445121,0.00783614155233372,0.006216846954543143
1761468624742449400,3.965449462890625,0.12043021397590636,0.028374094464606602,0.005973051094193943
1761468624752432400,3.975432373046875,0.10965747554898261,0.021538795951311477,0.0032160942359827456
1761468624762415400,3.985415283203125,0.11474340051114558,0.011656156498217024,0.0037919030962511894
1761468624772399400,3.9953994140625,0.1324012222766876,0.011410981531534343,0.0010984216619981451
1761468624782382600,4.005382568359375,0.10576397524178027,0.00801195021038875,0.023646001930208875
1761468624792362500,4.015362548828125,0.13359656954109667,0.005362499714107252,0.009334691280708648
1761468624802345200,4.02534521484375,0.09992635512948035,-0.001888430395373143,0.033638905957899985
1761468624812328400,4.035328369140625,0.12865619052946567,-0.004792691336362623,0.02444602516752202
1761468624822312400,4.0453125,0.11473930885791778,-0.011705055407551117,0.016327134850784204
1761468624832295400,4.05529541015625,0.11608663181364536,-0.02024638152059633,0.006169943639473058
1761468624842278400,4.0652783203125,0.12057575992643832,-0.023504940358549355,0.0007195829788222909
1761468624852261400,4.075261474609375,0.12252221781909466,-0.015981942708883434,-0.009011085349530913
1761468624862244400,4.085244384765625,0.11788520566821098,-0.025318163792975246,-0.007288115748134441
1761468624872227300,4.095227294921875,0.12896072643399237,-0.00410331169955898,-0.007937957958993502
1761468624882210600,4.10521044921875,0.12582009032070637,-0.000029632519860751926,-0.0029831805292516943
1761468624892193300,4.115193359375,0.10531973860561847,0.009947356986068188,0.00432007798908744
1761468624902176300,4.12517626953125,0.13539865052700042,0.005452351688337512,-0.001160380982304923
1761468624912160500,4.135160400390625,0.11624445272386073,0.0008743123162304982,0.0050201388501096515
1761468624922143500,4.1451435546875,0.12806523889899252,-0.0019855934598017482,0.005161967606749385
1761468624932126200,4.155126220703125,0.12222820330858229,-0.0007755509497597813,0.005564114100276492
1761468624942109400,4.165109375,0.1119020396053791,-0.004647510712011717,0.007496538901003077
1761468624952092400,4.175092529296875,0.13075579315721989,0.0041657459439011285,0.016115674924035556
1761468624962075400,4.185075439453125,0.12462182044684886,0.0126858466058271,0.020885533374082294
1761468624972058400,4.195058349609375,0.10636544826626777,0.016587635250762105,0.036105812094663264
1761468624982041300,4.205041259765625,0.11220014576911926,0.008748242295417003,0.02853260492798872
1761468624992025300,4.215025390625,0.14945990910530088,-0.006798829827271402,0.0011859903475968166
1761468625002008300,4.22500830078125,0.08631108675301075,-0.01687453503389843,0.007787923063011839
1761468625011991300,4.2349912109375,0.15200141028165817,-0.01806431564062368,-0.02850065715345554
1761468625021974300,4.244974365234375,0.11549041948616504,-0.027971121420594863,-0.011783344808151014
1761468625031957500,4.25495751953125,0.12297346871793269,-0.014676486133504658,-0.0014474634285317734
1761468625041940500,4.2649404296875,0.10277297673225402,-0.00992366558322683,0.007259711637557484
1761468625051923200,4.274923095703125,0.13958382725715637,-0.00974006634436082,0.0015131262429989873
1761468625061907200,4.2849072265625,0.12881108883023262,-0.004853139119595289,0.00650750503076706
1761468625071890400,4.294890380859375,0.12507131778001784,-0.005542742518684827,0.009295322818122804
1761468625081873400,4.304873291015625,0.11624269915819167,-0.005902680138568393,0.015433588111121206
1761468625091856400,4.3148564453125,0.1253700084656477,0.013539522559405303,0.023043168065696954
1761468625101839400,4.32483935546875,0.13285188865363598,0.008075188172329217,0.03330379681859631
1761468625111822300,4.334822265625,0.09648936641812324,-0.0003927073783241212,0.035009034400479866
1761468625121805300,4.344805419921875,0.1347971775025129,-0.006812511292751878,0.013982215692452154
1761468625131788500,4.35478857421875,0.13434884921312332,-0.019388303386536427,-0.0042673751208931205
1761468625141771300,4.364771240234375,0.1135492222905159,-0.01867688088128343,-0.004958005999866873
1761468625151759400,4.37475927734375,0.11609247703254222,-0.015257436959771439,-0.009672266371734439
1761468625161742300,4.384742431640625,0.11414835722744464,-0.010471558956685476,0.007721168836578726
1761468625171725600,4.3947255859375,0.12477321161627769,-0.006193420413183048,0.021368777713226154
1761468625181708300,4.404708251953125,0.12626958765387533,0.00839935122593306,0.025050813527102582
1761468625191691500,4.41469140625,0.11534662710130214,0.012161649201787077,0.017081090456666424
1761468625201674500,4.424674560546875,0.11848784773647784,0.0076700049049220976,0.001475278450641781
1761468625211657500,4.434657470703125,0.1261187810063362,0.013490468386444262,-0.007077021147566847
1761468625221640400,4.444640380859375,0.12117957103848456,0.005841081577865406,-0.005740836073784158
1761468625231624400,4.45462451171875,0.12088088035285473,-0.008190174587815999,-0.011690675255749374
1761468625241607400,4.464607421875,0.13435001825690268,-0.002847694748430513,-0.007920518200425431
1761468625251590400,4.47459033203125,0.07793488807380199,-0.0026554190127644687,0.002152447059843689
1761468625261573400,4.484573486328125,0.13554536552131174,0.002289458077470772,-0.005477002072404138
1761468625271556400,4.494556396484375,0.14093465734422206,-0.002461700238683261,-0.003923785847611725
1761468625281539300,4.504539306640625,0.09783902746140956,-0.010289101362135261,0.015207903296197764
1761468625291522600,4.5145224609375,0.11863865438401698,-0.004554293170338496,0.013765371771110221
1761468625301505300,4.52450537109375,0.12492343374192715,-0.005290155997104011,0.02498702300931327
1761468625311489300,4.5344892578125,0.10621814875006676,-0.00896915960367769,0.03207451531854458
1761468625321472500,4.544472412109375,0.12806523889899252,-0.008854689211421646,0.02166417589664925
1761468625331455500,4.55445556640625,0.12432429880499839,-0.01934805814111605,0.0012332772551570087
1761468625341438500,4.5644384765625,0.12043430562913417,-0.01891608733148314,0.005863804866326972
1761468625351421400,4.57442138671875,0.09649228902757168,-0.005407238471554592,0.025948986209533176
1761468625361404400,4.584404296875,0.13195640111863613,-0.0031646563096903264,0.02102438472234644
1761468625371387400,4.594387451171875,0.1342009651750326,-0.004706707253074273,0.012993359918729401
1761468625381371400,4.604371337890625,0.11175532461106777,-0.0002818308823741972,0.011296830799686722
1761468625391355400,4.61435546875,0.10681786820888518,0.00785245793289505,0.0015156652599573135
1761468625401338400,4.62433837890625,0.13510054436326027,0.004782247574161738,0.0017305866522714494
1761468625411321300,4.6343212890625,0.11220482194423675,0.0075240525290137155,0.010259272479452191
1761468625421304600,4.6443046875,0.13644669827520847,-0.010821934163779951,-0.006052048314269632
1761468625431287600,4.65428759765625,0.09350187503993511,-0.014707424694462679,-0.009184478288213721
1761468625441270300,4.664270263671875,0.1282183836340904,-0.030267255834024398,-0.026720883897482416
1761468625451253500,4.67425341796875,0.12432955950200557,-0.021557162725063972,-0.014835288857831619
1761468625461236500,4.684236572265625,0.13076514550745486,-0.015036003628280012,-0.01249879503455013
1761468625471220500,4.694220458984375,0.12672668377161025,-0.0019185972047736867,-0.00356554699447006
1761468625481203200,4.704203125,0.13046820838749407,-0.0012365697573637588,0.007880222722655162
1761468625491186400,4.7141865234375,0.11715163069665431,0.01507344956183806,0.005468215977749787
1761468625501169400,4.72416943359375,0.12732874131798744,0.015093802796700037,0.006957970478315837
1761468625511152400,4.73415234375,0.120742348664999,0.021058286991948262,0.01747876170447562
1761468625521135400,4.74413525390625,0.14513210903406143,0.018526708987983875,0.021747525064856745
1761468625531118300,4.754118408203125,0.10847031159102916,0.020035264087142422,0.03638601727553177
1761468625541101600,4.7641015625,0.11086334420740604,0.015249696611310355,0.03005348521918058
1761468625551084500,4.77408447265625,0.1255266603320837,-0.007422363986517302,0.023123964517214334
1761468625561068500,4.784068603515625,0.12836919028162955,-0.02050716961494181,0.011650822735973633
1761468625571051300,4.79405126953125,0.11355448298752308,-0.02330872366670519,-0.008944509219611064
1761468625581034500,4.804034423828125,0.12058803488612174,-0.041418568082642736,-0.022329142611403948
1761468625591017500,4.814017578125,0.1316612175643444,-0.029623619601665995,-0.012974988578399642
1761468625601000200,4.824000244140625,0.11624854437708854,0.00007109247483313084,-0.0016999905846081674
1761468625610983400,4.8339833984375,0.128372112891078,-0.0038571777516510333,0.010360992987989447
1761468625620966400,4.84396630859375,0.11191314552128315,0.0012760706506902352,0.01816532376310788
1761468625630949400,4.853949462890625,0.10846914254724979,0.011586073236959054,0.021221638027229345
1761468625640933600,4.86393359375,0.15994564728438854,0.008534974004072137,-0.011680847981479019
1761468625650916400,4.873916259765625,0.0782435156315565,-0.009145137225091457,-0.0023588152529438956
1761468625660899300,4.8838994140625,0.13405834183394907,0.00823796381887514,-0.011075018442282453
1761468625670882600,4.893882568359375,0.1301671796143055,0.00610380133439321,0.013758485372597351
1761468625680865500,4.903865478515625,0.12253624634444713,0.023016426189243794,0.021629323778976684
1761468625690848300,4.91384814453125,0.10936696816980838,0.01719241447718814,0.0283990462427726
1761468625700831500,4.92383154296875,0.12747194918096064,-0.007392859330819919,0.012723461502743885
1761468625710814500,4.933814453125,0.12717208945155142,-0.0173953531707637,-0.011673290296108462
1761468625720798500,4.943798583984375,0.10996201145350933,-0.01921960488928016,0.0006270686900475993
1761468625730781400,4.953781494140625,0.11774258232712745,-0.016913661467889324,0.0028903922458412123
1761468625740764400,4.963764404296875,0.1282189681559801,-0.009922327576088718,0.002249678622931242
1761468625750747400,4.973747314453125,0.12388006216883658,-0.022254606937314382,0.001600420933961868
1761468625760730600,4.983730712890625,0.1346539696395397,-0.004184373012557626,0.0022153242621803654
1761468625770713300,4.99371337890625,0.12492927896082401,0.006306342735746875,0.005918530728248879
1761468625780696300,5.0036962890625,0.11969254735112189,0.003354721821960993,0.008416612887987866
1761468625790679600,5.013679443359375,0.11789631158411502,0.0009251702872104942,0.003538777718553319
1761468625800663600,5.02366357421875,0.11460486882328987,-0.007647665208950639,-0.005921138243866152
1761468625810646500,5.033646484375,0.12522796964645386,-0.010466873648413456,-0.005039254542533308
1761468625820629200,5.043629150390625,0.12642448595464229,-0.003809712747577578,0.0005699956074124202
1761468625830612500,5.053612548828125,0.11056056186854839,0.0010265391692984849,0.009096950701810418
1761468625840595500,5.063595458984375,0.11833996369838713,0.019203101279051043,0.02030169647098519
1761468625850578400,5.073578369140625,0.14392916298508643,0.030050325147714465,0.014343801846727728
1761468625860561400,5.0835615234375,0.10786650047898291,0.011622560189291834,0.011577118178945965
1761468625870544400,5.09354443359375,0.1319575701624155,0.013059890382876619,-0.0028529691451694814
1761468625880527600,5.103527587890625,0.11414952627122402,0.0017585752043174578,-0.008453058741125277
1761468625890511600,5.11351171875,0.12282850728929041,-0.02952195845863316,-0.020688220703694967
1761468625900494300,5.123494384765625,0.12866495835781097,-0.03022089594164863,-0.013736963093956
1761468625910477300,5.133477294921875,0.09679273327887057,-0.021719116387702523,0.008214952836045996
1761468625920460500,5.14346044921875,0.13255670509934425,-0.003837619101232849,0.019959102711547164
1761468625930443500,5.153443603515625,0.1017325277686119,0.0007873235859442502,0.03653689698830712
1761468625940426200,5.16342626953125,0.1630845298320055,0.006246465774672106,0.03502908624124247
1761468625950409500,5.173409423828125,0.10382803874313831,0.0003299078078009188,0.049698279550857836
1761468625960392400,5.183392333984375,0.11849252391159534,0.0002914298277813941,0.013508401335356756
1761468625970376400,5.19337646484375,0.1551543213546276,0.002795635767630301,0.020608543063607064
1761468625980359400,5.203359375,0.09545008649826049,0.008582681036740541,-0.008097189941583201
1761468625990342400,5.21334228515625,0.11729834569096564,0.00652810486080125,-0.006542407380789518
1761468626000325400,5.223325439453125,0.15560440320968627,0.0016007634272566065,-0.019747916779434306
1761468626010308600,5.23330859375,0.12552549128830431,-0.014026150732301174,-0.018325035236310214
1761468626020291300,5.243291259765625,0.1300140348792076,-0.002870322138769552,-0.01207904895225074
1761468626030274300,5.2532744140625,0.10008885221481323,-0.0072792520216666155,-0.010390251048514619
1761468626040257500,5.263257568359375,0.12328209627568722,-0.019833412238955496,-0.00930890381890349
1761468626050241500,5.273241455078125,0.13330723120570181,-0.022776059828419237,0.0010161547726020217
1761468626060224500,5.283224609375,0.13315817812383174,-0.0011280633150134234,0.018615958174015394
1761468626070207200,5.293207275390625,0.1291203009098768,0.0024697419812437144,0.028618940637726336
1761468626080190500,5.3031904296875,0.09500175820887088,-0.004143643709947355,0.03886142637915909
1761468626090173400,5.31317333984375,0.1550058527946472,0.006676934180385433,0.03158974574259482
1761468626100156400,5.323156494140625,0.0963473275989294,0.016206275816936976,0.036012923346553
1761468626110139400,5.333139404296875,0.13136311140060425,0.011474507187842391,0.018248024477344006
1761468626120122400,5.343122314453125,0.1316612175643444,-0.00013103793456684798,0.019844449656200594
1761468626130106400,5.3531064453125,0.1208861410498619,0.0029543928261846304,0.003987790994532406
1761468626140089600,5.363089599609375,0.11774375137090683,0.010374633354274555,-0.007120997286611236
1761468626150068500,5.373068359375,0.13674538896083832,-0.000654984176857397,0.0025649916497990487
1761468626160051500,5.383051513671875,0.1350987907975912,0.0029770704488735642,-0.009278650244534947
1761468626170034400,5.393034423828125,0.09843699335455894,0.004290838194871321,-0.005065832022204995
1761468626180017400,5.403017333984375,0.13599486285448073,-0.01750101920205634,-0.016090271054720506
1761468626190000600,5.413000732421875,0.11968611761033535,-0.01587609858107753,-0.017378817594493737
1761468626199983400,5.4229833984375,0.11714169382452964,-0.010406238635513,-0.009566052351170218
1761468626209967400,5.43296728515625,0.11355156037807464,0.006821402418683282,-0.008452465086081065
1761468626219950300,5.442950439453125,0.16083821220993993,0.00755532901668921,0.005108849180024117
1761468626229933600,5.45293359375,0.07524374929368495,0.007623973806109279,0.017438064367906188
1761468626239916300,5.462916259765625,0.15350655414760112,0.026800397140788842,0.011415981933637522
1761468626249899300,5.472899169921875,0.09110708885788917,0.020006092791585252,0.032938945561577566
1761468626259882500,5.482882568359375,0.15993980206549166,0.014590127590880728,0.01464731940452475
1761468626269865500,5.492865478515625,0.08930793048143386,0.004486452098516747,0.020325196077581494
1761468626279848400,5.502848388671875,0.14527356333136557,0.0010527467562118544,0.005338885943079367
1761468626289832400,5.51283251953125,0.12522212442755698,-0.027618330494128165,0.007947867431654595
1761468626299815400,5.5228154296875,0.13629530710577964,-0.012668374881218187,0.0023644230098230764
1761468626309798400,5.53279833984375,0.10053075076341629,-0.0008121474999468773,0.011330797001370229
1761468626319781400,5.542781494140625,0.12132920864224433,-0.016675984821072777,0.010667072395631111
1761468626329764400,5.552764404296875,0.1463192729920149,-0.02079826151600573,-0.009108819236117414
1761468626339747300,5.562747314453125,0.13060790911912917,-0.030512960523669606,-0.018656381515949033
1761468626349730600,5.57273046875,0.10666764608323573,-0.007987989379488863,-0.006593749408959411
1761468626359713300,5.58271337890625,0.08736205711066722,-0.010195847287843935,-0.005020499609713442
1761468626369697300,5.592697265625,0.16352935099005697,0.005515137559128925,-0.008655120651866308
1761468626379680500,5.602680419921875,0.12417583024501799,0.027979966880753635,0.007260099796624854
1761468626389663500,5.61266357421875,0.09903788185715674,0.03744273238738533,0.018802132962457835
1761468626399646500,5.622646484375,0.11684534122645854,0.021677615333534777,0.006769937092927284
1761468626409629400,5.63262939453125,0.14033727597296236,0.017004116230318323,-0.006138415990048088
1761468626419612400,5.6426123046875,0.11998656186163424,0.02007586095901206,0.00997591179369483
1761468626429595400,5.652595458984375,0.13375439045131204,0.02287107660153415,0.011658759447257033
1761468626439578600,5.66257861328125,0.12836685219407082,0.012518929073703474,0.031700361943640745
1761468626449562400,5.672562255859375,0.12791677033901214,0.004564115878031589,0.02237729260206688
1761468626459545300,5.68254541015625,0.10247720865607261,-0.012701733728125691,0.013004036576370708
1761468626469528300,5.6925283203125,0.1303103874772787,-0.026273491756431757,-0.007300984362862073
1761468626479511600,5.702511474609375,0.12207973474860191,-0.04963182215194683,-0.01907195374662988
1761468626489494300,5.712494384765625,0.12312836701869964,-0.038531641868944276,-0.022781521454825995
1761468626499477500,5.7224775390625,0.12836685219407082,-0.028442757520335725,-0.010091656261007302
1761468626509460500,5.73246044921875,0.11445113956630229,-0.018063676319806835,0.00548706680869218
1761468626519443500,5.742443359375,0.14033961406052112,0.0013815037865424528,0.01034966787637677
1761468626529427500,5.752427490234375,0.13839666329920292,0.01781904020924121,0.015408225341001525
1761468626539410400,5.762410400390625,0.09530103341639042,0.007865723839844577,0.020903169495472683
1761468626549393400,5.772393310546875,0.14812427658736704,0.010551784586044959,0.005401489150780253
1761468626559376400,5.78237646484375,0.09066285222172736,0.011172281971410847,0.010672899348218925
1761468626569359400,5.792359375,0.13989420838057995,0.0037472876363899557,0.0030671598851215094
1761468626579342300,5.80234228515625,0.11370704320073127,0.010434163255477323,0.01428055018505547
1761468626589325300,5.8123251953125,0.13360767545700072,0.005509443037281744,0.0077429194440832355
1761468626599308500,5.82230859375,0.12687398328781127,0.002105781206791289,-0.0009652465692721306
1761468626609291300,5.832291259765625,0.12253507730066776,-0.004646775493072346,-0.0025504653675248847
1761468626619275300,5.842275146484375,0.10981588098108767,-0.022172449645772575,-0.00906850092546083
1761468626629258500,5.852258544921875,0.14872165795862674,-0.006975716197560541,-0.015772807169961742
1761468626639241500,5.862241455078125,0.09515139581263064,-0.010910525762685573,0.002546086019929498
1761468626649224400,5.872224365234375,0.14991875878870486,-0.004767890255246311,0.008976817753748036
1761468626659207400,5.88220751953125,0.1274737027466297,0.010950538112665525,0.020528102805116213
1761468626669190400,5.8921904296875,0.12911971638798714,0.010975014966796152,0.014822995631839147
1761468626679173400,5.90217333984375,0.11146247914433478,-0.0004935739369131625,0.012061928854091093
1761468626689156600,5.912156494140625,0.14632862534224986,-0.014268508120812476,-0.0020526673466432837
1761468626699140400,5.922140380859375,0.11580196965336799,-0.021416708508180452,0.0036484532046830278
1761468626709123300,5.932123291015625,0.11221008264124392,-0.012806472744233905,0.0017324315494857728
1761468626719106600,5.9421064453125,0.13375965114831923,0.007246751691284589,0.0018153971252031624
1761468626729089500,5.952089599609375,0.11310849278569221,0.004762908119452186,0.012982916156528516
1761468626739072300,5.962072265625,0.10787059213221073,-0.00392219667872414,0.0031997230564942583
1761468626749055500,5.972055419921875,0.1674286965161562,0.010502990707987919,-0.014408085554861463
1761468626759038500,5.98203857421875,0.09635025020837783,0.014180126584460958,0.006047098144516348
1761468626769021400,5.992021484375,0.14573182849287986,0.005751960255997255,0.007460207212297246
1761468626779005400,6.00200537109375,0.10158990442752837,0.013182101123593746,0.022905015403754076
1761468626788988400,6.011988525390625,0.12059329558312892,0.00565517165090423,0.014195995440450497
1761468626798971400,6.021971435546875,0.12762567843794823,-0.0029014707622816785,0.002128897220897488
1761468626808954400,6.031954345703125,0.11715163069665431,-0.005215839518723077,-0.007474208338186144
1761468626818937300,6.041937255859375,0.11550620157718658,-0.00998669348261319,-0.015009649910894221
1761468626828920300,6.05192041015625,0.1340624334871769,-0.018943582693184725,-0.021930512382369486
1761468626838903600,6.061903564453125,0.1238876609534025,-0.01277387194915209,-0.010243723283871076
1761468626848886500,6.071886474609375,0.11640636528730391,-0.021816822874825448,-0.008947893053363076
1761468626858870500,6.08187060546875,0.1122159278601408,-0.015442698432761243,-0.0028444844446144997
1761468626868853200,6.091853271484375,0.11341185964643954,-0.002038693620217964,0.011891120598139241
1761468626878836500,6.10183642578125,0.1381014797449112,0.01678104806416668,0.014675394721538759
1761468626888819500,6.1118193359375,0.11086860490441322,0.009512504666182212,0.02298935551922768
1761468626898802400,6.121802490234375,0.13181786943078042,0.007894831203320064,0.018922151746088637
1761468626908785400,6.131785400390625,0.12672785281538962,0.0016648507725680246,0.0006596831848612054
1761468626918768400,6.141768310546875,0.1321142220288515,0.004248177230078727,0.0031340008765226228
1761468626928752400,6.15175244140625,0.09979133057296276,0.00038938747665379195,0.008810831803386099
1761468626938735400,6.1617353515625,0.1594979035168886,0.00863722423557192,-0.004985880387481302
1761468626948718300,6.17171826171875,0.10009294386804103,-0.006559673609421588,0.00924570238958113
1761468626958701300,6.181701416015625,0.12807634481489658,-0.007073778877709992,0.010034619710990227
1761468626968684500,6.1916845703125,0.12194237210452556,-0.010214410424418747,-0.00012629326079040764
1761468626978667500,6.20166748046875,0.12463701801598072,-0.012933916782494633,-0.005148930028663017
1761468626988650200,6.211650146484375,0.13421324013471603,-0.02035782427212689,-0.01095773047185503
1761468626998633500,6.221633544921875,0.11640636528730391,-0.025167909701284952,-0.006670166512881406
1761468627008617500,6.231617431640625,0.11760346611738204,0.0016822950977133586,-0.004111467606551014
1761468627018600400,6.241600341796875,0.12792904529869556,0.00034435645826160903,-0.002884040136868134
1761468627028583400,6.25158349609375,0.1104208611369133,-0.006668006521835923,0.012442269941186532
1761468627038566400,6.26156640625,0.15142273361086844,0.0010065969263901933,0.00022216398385353385
1761468627048549400,6.27154931640625,0.09830079975426197,0.006318421332607977,0.011952312733465805
1761468627058532400,6.281532470703125,0.1445405728816986,0.015846392995980566,0.015648696733103134
1761468627068515600,6.291515625,0.11865385195314883,0.00532638265453279,0.026843163136858493
1761468627078498300,6.301498291015625,0.12104805361330509,0.014194675699621438,0.03577401829045266
1761468627088482300,6.311482421875,0.11850362982749939,0.014778119877073913,0.02224319049415644
1761468627098465500,6.321465576171875,0.1267331135123968,0.01969500384868588,0.023750677014235406
1761468627108448500,6.331448486328125,0.11760346611738204,-0.0006202873228117824,0.010471805551857687
1761468627118431200,6.34143115234375,0.11939853284060954,-0.008660933904722333,-0.0038427884666947646
1761468627128414500,6.35141455078125,0.12059504914879798,-0.010918448774237186,-0.016380180212273263
1761468627138397400,6.3613974609375,0.1397480779081583,-0.030646400477876885,-0.04043669003897812
1761468627148380200,6.371380126953125,0.09800035550296306,-0.022759053894691166,-0.035892014080355875
1761468627158363400,6.38136328125,0.11550737062096596,-0.01434333148926962,-0.02151204950828105
1761468627168347400,6.391347412109375,0.13391396492719648,-0.003586653714580461,-0.008493783477158285
1761468627178330000,6.401330078125,0.13406418705284595,0.02243368983126711,0.0121778422847623
1761468627188313300,6.411313232421875,0.10742869358360767,0.03234940957005601,0.028594518582522866
1761468627198296300,6.42129638671875,0.1418441734045744,0.027851011305418796,0.02957983982544392
1761468627208279300,6.431279296875,0.10847440324425697,0.023073015214689074,0.02369530269834213
1761468627218262300,6.44126220703125,0.14229250169396399,0.005042012755200266,-0.004167695872392505
1761468627228245200,6.451245361328125,0.10443301889896392,-0.013556957751396112,-0.006590420374134555
1761468627238228200,6.461228271484375,0.13001988009810447,-0.026585946105932814,-0.017358843385544605
1761468627248212200,6.471212158203125,0.11071721373498439,-0.02251597955354955,-0.01221481786086224
1761468627258195200,6.4811953125,0.12433482019901275,-0.01146317750965245,0.0033754632158903403
1761468627268178200,6.49117822265625,0.12762918556928635,-0.013404913561418652,0.016177867139782757
1761468627278161400,6.501161376953125,0.11371230389773845,-0.01098274618210271,0.013046998935262672
1761468627288144400,6.511144287109375,0.13585983829796314,-0.012751395255862734,0.00717259960968513
1761468627298127000,6.521127197265625,0.10847615680992603,-0.01320145427803509,0.005931239512772299
1761468627308110300,6.5311103515625,0.12912731517255305,0.0009322256490821018,0.010202171997353434
1761468627318093300,6.54109326171875,0.1294265903800726,0.011491983479028568,0.008892856664187274
1761468627328077300,6.551077392578125,0.11565934631228446,0.005814257503021508,0.004628774045500904
1761468627338060000,6.56106005859375,0.13795534927248954,0.014495741005428135,-0.00490997017363552
1761468627348043300,6.571043212890625,0.12149345929324626,0.019417209820612333,-0.010323126929323188
1761468627358026200,6.581026123046875,0.11072013634443283,0.014027360875275917,0.0071604022818151855
1761468627368009200,6.59100927734375,0.12643208473920822,0.0132692999164341,0.009577048669219948
1761468627377992200,6.6009921875,0.11431026979088782,-0.001784307867195457,0.006561226245691068
1761468627387975200,6.61097509765625,0.13017185578942297,-0.007136240521515719,0.012372415008791722
1761468627397958400,6.62095849609375,0.11071896730065345,-0.006986296957079321,0.0034105847616214303
1761468627407942400,6.6309423828125,0.12328852601647376,-0.02499415600299835,-0.0037374192629242315
1761468627417925400,6.64092529296875,0.10413374369144439,-0.02383819090090692,-0.005748297861032188
1761468627427908000,6.650908203125,0.13017185578942297,-0.021590023815049788,-0.018826290156180037
1761468627437891300,6.660891357421875,0.11565700822472572,-0.02243328797246795,-0.0026770828553009775
1761468627447874300,6.670874267578125,0.13241641984581948,0.007924271926935761,0.006247671351069584
1761468627457857300,6.680857177734375,0.11206453669071197,0.02169588164258748,0.03078880918982904
1761468627467840300,6.69084033203125,0.13660568822920321,0.014037521509686485,0.026263153025507927
1761468627477823200,6.7008232421875,0.11341244416832923,0.00766460264401976,0.01551509238211438
1761468627487807200,6.71080712890625,0.13151800970137117,-0.002505918406322598,0.0017949114596005529
1761468627497790500,6.72079052734375,0.11984510756433009,-0.016177063422184435,-0.010752079231385141
1761468627507773200,6.730773193359375,0.12867255714237688,-0.023580923637631347,0.0002685558422701433
1761468627517756200,6.740756103515625,0.12852291953861714,-0.005776446243282407,0.014495046885684131
1761468627527739400,6.750739501953125,0.1261287178784609,0.0043736850395798684,0.021533877747599035
1761468627537722400,6.760722412109375,0.11819850940108298,0.00937952136970125,0.02155202989222016
1761468627547705000,6.770705078125,0.1213397300362587,0.011519332710257731,0.002789082729257643
1761468627557688300,6.780688232421875,0.1451332780778408,0.003459100078465417,-0.01686433330029249
1761468627567672300,6.79067236328125,0.10906944652795791,-0.008507081350148655,-0.0213467348447768
1761468627577655300,6.8006552734375,0.11730068377852439,-0.017634883847949093,-0.035827858236385506
1761468627587638000,6.810637939453125,0.1276262629598379,-0.012960567327402531,-0.02641442546392791
1761468627597621200,6.820621337890625,0.11580489226281643,-0.013910374298947863,-0.002416463724314235
1761468627607604200,6.830604248046875,0.13510931219160555,0.004499398345057852,0.009340472567523829
1761468627617587200,6.840587158203125,0.1156575927466154,0.005729131936258636,0.02456964698061347
1761468627627570200,6.850570068359375,0.1340624334871769,0.0038477843022206794,0.018885641960869542
1761468627637553200,6.86055322265625,0.10982172619998454,-0.011616705837240442,0.025327685106568968
1761468627647537200,6.870537109375,0.13660744179487228,-0.007892278486629947,0.016781098296516573
1761468627657520400,6.880520263671875,0.11012100140750408,-0.0010325898841721936,0.01959800061446149
1761468627667503400,6.89050341796875,0.123138888412714,-0.007490648016333579,0.013574698904063551
1761468627677486000,6.900486083984375,0.12493453965783119,-0.006139644399331882,0.004047001235326752
1761468627687469300,6.91046923828125,0.123138888412714,-0.004725023794476874,-0.006298506489163264
1761468627697452300,6.920452392578125,0.11580664582848549,0.0007067371969809755,-0.0021578630204778164
1761468627707435300,6.930435302734375,0.11835106961429119,-0.016735181362135334,-0.009665736166248098
1761468627717418200,6.940418212890625,0.12613280953168868,-0.021846272731595673,-0.026070279068220407
1761468627727402200,6.95040234375,0.12104571552574633,-0.00880420569977723,-0.016690040745888837
1761468627737385200,6.96038525390625,0.13241758888959884,-0.0008818289024056866,-0.013690521003189496
1761468627747368400,6.970368408203125,0.11969897709190845,0.01663229637639597,0.00443378119636327
1761468627757351200,6.98035107421875,0.13750643646121025,0.036447049580654124,0.02247144172550179
1761468627767334100,6.990334228515625,0.10667992104291915,0.027742600761190988,0.032405665235361085
1761468627777317400,7.0003173828125,0.1497773044914007,0.012217525841179303,0.006712640248006209
1761468627787300400,7.01030029296875,0.07316168232262134,-0.007760879792459308,0.0007191674202913418
1761468627797283000,7.020282958984375,0.138702368247509,-0.012877907712361775,-0.018493459738930688
1761468627807267000,7.03026708984375,0.11446049191653727,-0.009738157515064813,-0.009688345290278084
1761468627817250300,7.040250244140625,0.13585983829796314,0.002872212701756507,-0.00794067507246509
1761468627827233300,7.0502333984375,0.12762977009117601,0.012524938689381815,0.01774550461557228
1761468627837216300,7.06021630859375,0.08887304619550704,0.0163959623032948,0.02564638196718879
1761468627847199200,7.07019921875,0.12852642666995526,0.007682225065678358,0.011587593907187691
1761468627857182200,7.08018212890625,0.10099076949059962,-0.008604454477131367,0.009520619473978876
1761468627867165400,7.09016552734375,0.1416916131913662,-0.011364169548009522,-0.022833128344477153
1761468627877148200,7.100148193359375,0.09589958383142948,-0.03363096011346206,-0.01158668515831232
1761468627887132200,7.110132080078125,0.1535118148446083,-0.007956936654099262,-0.009256173551245592
1761468627897115100,7.120115234375,0.11550444801151752,0.0005240101743722334,0.017214082886301912
1761468627907098400,7.130098388671875,0.11011749427616596,0.016028868856839833,0.010538737874804064
1761468627917081300,7.140081298828125,0.1143073471814394,0.01679641916323453,0.01951592552131042
1761468627927064000,7.15006396484375,0.12433072854578495,0.006091421343432739,0.008707535825693048
1761468627937047300,7.16004736328125,0.12986907345056534,-0.010382725329184904,-0.006901637181197293
1761468627947030300,7.1700302734375,0.10742226384282111,-0.012815555666410364,-0.004351395575958304
1761468627957014300,7.18001416015625,0.12867080357670782,-0.01294731055360753,0.013922996318503283
1761468627966997200,7.189997314453125,0.11909516597986221,-0.0019501887862803412,0.024863898953143507
1761468627976980200,7.199980224609375,0.11250994237065315,0.009038128620083444,0.0252891751605086
1761468627986963200,7.209963134765625,0.12103928578495979,0.0061153593414463095,0.01565106222012546
1761468627996946400,7.219946533203125,0.11505319711267947,-0.022487671341095118,-0.0010131819308036938
1761468628006929200,7.22992919921875,0.13271160340011118,-0.035295774353411975,-0.021594042403041382
1761468628016912100,7.239912109375,0.09575345335900783,-0.046131549812876614,-0.02702315477968659
1761468628026895400,7.249895263671875,0.11296236231327056,-0.03375372341002803,-0.020717583795497194
1761468628036878300,7.25987841796875,0.13196750703454016,-0.014328051721747033,0.004435827022977173
1761468628046862300,7.2698623046875,0.10862345632612705,0.021932549075828863,0.0390445917931851
1761468628056845300,7.27984521484375,0.12059329558312892,0.03669326116037555,0.04688865179049317
1761468628066828300,7.289828369140625,0.13375906662642956,0.06033430378767662,0.0619354919066187
1761468628076811300,7.299811279296875,0.10338438662886619,0.03927062366798054,-0.010867284842580557
1761468628086794200,7.309794189453125,0.09874386734664439,-0.013210491534438915,-0.039643210706883106
1761468628096777200,7.319777099609375,0.1701210043400526,-0.02919736614676658,-0.04566254862821661
1761468628106760200,7.32976025390625,0.09605272856652736,-0.008840637853182851,-0.0373246269996278
1761468628116744200,7.339744140625,0.09335925169885158,0.0020895926903933284,-0.0017263991009211167
1761468628126727400,7.3497275390625,0.14872633413374423,-0.005221817168360576,0.018801064383378252
1761468628136710100,7.359710205078125,0.14917524694502352,0.006034352827374823,0.040745116667333055
1761468628146694100,7.369694091796875,0.08333411676883697,0.0017697907180758191,0.028254514072393065
1761468628156677000,7.379677001953125,0.12987374962568282,-0.0035577016147319224,0.01328243795922026
1761468628166660000,7.38966015625,0.13211714463829993,-0.010483203728706576,0.032170701135438864
1761468628176643000,7.39964306640625,0.12283727511763572,-0.008779441151279025,0.029058729427633805
1761468628186626300,7.409626220703125,0.11475684451460838,0.007698180686635896,0.02037629607715644
1761468628196610300,7.4196103515625,0.11535481040775775,-0.0038262802898883816,0.007592555754538625
1761468628206593000,7.429593017578125,0.14902327125370501,-0.0139583872922929,-0.007748915360029787
1761468628216576000,7.439575927734375,0.108172205427289,-0.003969387688161805,-0.01798784830435179
1761468628226559200,7.449559326171875,0.10891980892419814,-0.0033983006687834856,-0.014991666729631833
1761468628236542200,7.459542236328125,0.1264285776078701,0.0047345725075341755,-0.007599697881378233
1761468628246525000,7.46952490234375,0.12343582553267478,0.0027797943111043423,0.008424992557265795
1761468628256508200,7.479508056640625,0.09964169296920299,0.001896837464114651,0.01518268208997324
1761468628266491100,7.4894912109375,0.11400748745203018,-0.008989837065525353,0.0017935917187714948
1761468628276475100,7.49947509765625,0.13705226295292378,0.0014050718917977064,0.002645071148686111
1761468628286458000,7.5094580078125,0.12313479675948619,0.01453351573254913,0.02584094099148642
1761468628296441000,7.519441162109375,0.11580255417525767,0.019144046301883644,0.03710830823467113
1761468628306424000,7.529424072265625,0.11370704320073127,0.01651274338364601,0.03849821452337782
1761468628316407300,7.5394072265625,0.12657353903651236,-0.0051013599933125075,0.015510571470623836
1761468628326390000,7.54939013671875,0.11505144354701041,-0.01928735919613391,-0.016291739310417323
1761468628336373000,7.559373046875,0.10697101294398308,-0.030099534584302454,-0.03371576145323925
1761468628346356200,7.569356201171875,0.10996434954106807,-0.021252832316514102,-0.026016850114241243
1761468628356340200,7.57934033203125,0.13315817812383174,-0.007516704906197265,0.0006569067058851942
1761468628366323200,7.5893232421875,0.12986556631922722,0.015419523053150624,0.018776587529247626
1761468628376306200,7.59930615234375,0.12477788779139518,0.03240994868483394,0.03108653632765636
1761468628386289200,7.6092890625,0.13181143968999384,0.020866568378708324,0.027283116323547435
1761468628396272000,7.619272216796875,0.13076222289800643,0.013750137669360264,0.014183574350294657
1761468628406255400,7.62925537109375,0.11699439430832863,0.018618634188291617,-0.013053889900352805
1761468628416238000,7.639238037109375,0.1075666407495737,0.003361736084637232,-0.02438897948435042
1761468628426221000,7.649220947265625,0.13779343670904637,-0.005931518073985353,-0.013810042029898613
1761468628436204300,7.659204345703125,0.14033786049485206,-0.0062876015026587986,-0.0038855772956507277
1761468628446188300,7.669188232421875,0.09230535873174667,-0.019214691252144984,-0.0004118733030976727
1761468628456171000,7.6791708984375,0.12118716982305049,-0.02921006579813547,-0.006213271324546076
1761468628466154000,7.689154052734375,0.12283259894251823,-0.03837335060127079,-0.0010704833423020317
1761468628476137200,7.69913720703125,0.12418050642013549,-0.03571912346517201,-0.0004415560553083196
1761468628486120200,7.7091201171875,0.11310849278569221,-0.01780161871698219,0.016315809739171527
1761468628496103200,7.719103271484375,0.13166414017379283,-0.0020400864262832327,0.022438498437125233
1761468628506086100,7.729086181640625,0.12732289609909056,0.012982929856260306,0.03806041219457984
1761468628516069000,7.739069091796875,0.10382745422124862,0.015354896851722151,0.031834824811154974
1761468628526053000,7.74905322265625,0.138693015897274,0.028826130814733914,0.01629495874738786
1761468628536036000,7.7590361328125,0.12866612740159034,0.02208119573232252,0.010175562551640906
1761468628546019000,7.76901904296875,0.0966436801970005,0.004354258819902315,-0.003156025478662923
1761468628556002000,7.779001953125,0.1467716929346323,0.001281139551452361,-0.019910295133758336
1761468628565985300,7.7889853515625,0.10816519116461276,-0.011717284701461904,-0.015393804090004414
1761468628575968000,7.798968017578125,0.126719669508934,-0.006480918417940847,-0.009786321205459535
1761468628585951000,7.808950927734375,0.09993336939215659,-0.003929443836840801,0.016393989541917106
1761468628595934200,7.818934326171875,0.15081249275803565,0.016679295589588583,0.022546685219067147
1761468628605918200,7.828918212890625,0.11460019264817237,0.01183748158160597,0.04922494468437508
1761468628615901200,7.838901123046875,0.11729308499395846,-0.009098306975257582,0.026131220041797496
1761468628625884200,7.84888427734375,0.10307692811489104,-0.022984487547865137,0.00624631507762242
1761468628635867100,7.8588671875,0.13270634270310402,-0.02551961378236301,-0.007604314690991304
1761468628645850000,7.86885009765625,0.11624562176764011,-0.03306080924242269,-0.004846873775590211
1761468628655833300,7.878833251953125,0.12238193256556987,-0.013311143463896587,-0.0030310839247424154
1761468628665816000,7.888816162109375,0.10247954674363136,0.008466831538151018,0.028616282889759165
1761468628675799000,7.898799072265625,0.13854337829351424,0.013202002267306669,0.020294951636367475
1761468628685783000,7.908782958984375,0.11579729347825049,0.0037718147228704762,0.004865071585983969
1761468628695766300,7.918766357421875,0.11460019264817237,0.005211035479442216,-0.0025486250368878245
1761468628705749000,7.9287490234375,0.1279179393827915,0.015147469212696886,-0.009958225439954548
1761468628715732200,7.938732177734375,0.10607026471197605,0.0026298142140498385,0.0015857896204106508
1761468628725715200,7.948715087890625,0.11370119798183441,0.0056120585949625814,0.005760412990511395
1761468628735698200,7.9586982421875,0.13225567632615565,0.010292964686499907,0.01841560416317079
1761468628745681200,7.96868115234375,0.12043547467291355,0.01187155281456653,0.018035395506815984
1761468628755664100,7.9786640625,0.11190496221482753,0.01076067352979444,0.02590797377913259
1761468628765648100,7.988648193359375,0.13150631926357745,0.008312499492964706,0.0050684121383586895
1761468628775631000,7.998631103515625,0.1404839909672737,-0.011118442025477997,-0.016422672213707117
1761468628785613000,8.008613037109376,0.07389291920661926,-0.01839289000786375,-0.015000909482012503
1761468628795596000,8.018595947265625,0.19091127891242504,-0.012477802478871307,-0.029398615206754766
1761468628805579300,8.028579345703125,0.08197393433153628,-0.01511722477148287,0.01338398037124425
1761468628815562000,8.03856201171875,0.12866086670458315,-0.0011918720991117879,0.014142785682179965
1761468628825545000,8.048544921875,0.0991840123295784,-0.017407646396756172,0.017862532291095704
1761468628835529200,8.058529296875,0.14497370360195636,-0.003031668446632102,0.0017531866431469098
1761468628845512200,8.06851220703125,0.11025602596402168,0.006981643614848144,0.01975779885263182
1761468628855495200,8.0784951171875,0.12088029583096503,0.005520749882585369,0.02953840270335786
1761468628865478100,8.08847802734375,0.13090543076097966,0.009642327891197055,0.02702782638822682
1761468628875461000,8.098461181640625,0.11564122613370417,-0.0033789429477648807,0.023130101997056042
1761468628885444000,8.108444091796875,0.11085340733528136,0.001692090405942872,0.0016670016304589808
1761468628895427300,8.11842724609375,0.12237550282478332,-0.0046262852608924725,0.0008822535940911621
1761468628905410000,8.12841015625,0.11504150667488575,-0.003446916450327262,-0.01473480132515542
1761468628915393000,8.13839306640625,0.13344868550300598,-0.008235831227293237,-0.0076750646725296965
1761468628925377000,8.148376953125,0.10501754078865051,0.01237727384699974,0.010065594804566353
1761468628935360300,8.1583603515625,0.11354688420295715,0.012461700727441348,0.001751748171309009
1761468628945343000,8.168343017578126,0.11294833378791809,0.014106504225824027,-0.0034987197028007355
1761468628955326200,8.178326171875,0.1262666650444269,0.0043270100533729415,-0.010139066466153599
1761468628965309200,8.18830908203125,0.1166904429256916,-0.0013616437420248984,-0.007367775121913291
1761468628975292200,8.198292236328125,0.11414777270555496,-0.004405975307407789,0.007484350706287659
1761468628985275100,8.208275146484375,0.11998305473029613,-0.0037574848034186287,0.005418211956718005
1761468628995258000,8.218258056640625,0.11653905175626278,-0.0013086303465766832,0.014867675023782067
1761468629005242000,8.2282421875,0.12536650133430957,-0.010756901536975056,0.0192161525568692
1761468629015225000,8.23822509765625,0.1400309865027666,-0.026236443115095605,0.0034318650116678326
1761468629025208300,8.248208251953125,0.11908289102017879,-0.03065618665295187,-0.004120422664564103
1761468629035191000,8.25819091796875,0.10366963331103324,-0.02716373686073348,0.00721732466740068
1761468629045174000,8.268174072265625,0.13733926320075987,-0.0011343423587502912,0.015388488594070077
1761468629055157200,8.2781572265625,0.09229775994718074,-0.004135122476774267,0.031009091743850147
1761468629065140200,8.28814013671875,0.14706570744514463,0.011845664888061583,0.022441457579191772
1761468629075123000,8.298123046875,0.08601181154549122,0.012685892271599731,0.011161486582760699
1761468629085107200,8.308107177734374,0.15350070892870427,0.006348629241203889,-0.015198738175630569
1761468629095090200,8.318090087890624,0.13001052774786948,-0.0001941251994576305,-0.009318114605243318
1761468629105073200,8.3280732421875,0.09918459685146808,-0.00021764763894025236,0.0015198665110394357
1761468629115056000,8.33805615234375,0.11788988184332846,-0.00285505150440149,0.00363162080089096
1761468629125039000,8.3480390625,0.13435118730068207,0.014035014458769,0.0153037603195291
1761468629135022000,8.35802197265625,0.09364625194668769,0.02065514041800052,0.037649132546526375
1761468629145005300,8.36800537109375,0.1364408530563116,0.017833808520110322,0.01729497980251908
1761468629154988000,8.377988037109375,0.1226724399447441,0.004588926092302426,0.02386798325097188
1761468629164972000,8.387971923828125,0.12371873412728308,-0.0012357797394972293,0.003085713888541795
1761468629174955000,8.397955078125,0.11129822849333286,-0.014805729403207077,-0.0023428961646044626
1761468629184938200,8.407938232421875,0.13314531864225865,-0.023933673464902674,-0.01460781394462101
1761468629194921000,8.4179208984375,0.1106990935564041,-0.025322584239766,-0.015429254429298453
1761468629204904200,8.427904296875,0.13090192362964154,-0.017632961318921298,-0.017988304962078108
1761468629214887200,8.43788720703125,0.09453881687223911,-0.0146219155352097,0.0054246188646182416
1761468629224870100,8.4478701171875,0.14526771811246872,0.0006226208437932655,0.006134963657637126
1761468629234853000,8.45785302734375,0.1033709426254034,0.0003775143757695332,0.02445087030599825
1761468629244836000,8.467836181640624,0.1307546241134405,0.004447996951383538,0.024707954906183292
1761468629254820000,8.477820068359375,0.11534019736051558,0.007746134314476512,0.02156775718431454
1761468629264803000,8.487802978515624,0.13075170150399207,0.014326129192719235,0.020541505709383637
1761468629274786300,8.497786376953124,0.10830430737435817,0.0096965651293518,0.02918090363573283
1761468629284769000,8.50776904296875,0.1265589259892702,0.009599443164118565,0.008799063733778893
1761468629294752000,8.517751953125,0.11698095030486583,0.012821560715511441,-0.0034611185056157407
1761468629304735200,8.5277353515625,0.1177273847579956,0.004250405719783157,-0.01289561233241111
1761468629314720300,8.53772021484375,0.12131868724822997,-0.009483945291978307,-0.03308398918861057
1761468629324703200,8.547703125,0.11548282070159911,-0.01481177098492626,-0.02984115764275193
1761468629334686000,8.55768603515625,0.12655775694549082,-0.012436305991280823,-0.016025590054364873
1761468629344669200,8.567669189453126,0.09737900873422622,-0.010535687401192262,0.008891002633818425
1761468629354653200,8.577653076171876,0.11758008524179459,0.0005001178421312943,0.026519972764211704
1761468629364636200,8.58763623046875,0.14092647403776645,0.000758745945431292,0.03702702772596385
1761468629374619100,8.597619140625,0.10845452950000763,0.002097081877104938,0.04007654235654045
1761468629384602000,8.60760205078125,0.13718378037810325,-0.0021365690706996246,0.040259383543580766
1761468629394585000,8.617585205078125,0.11413958939909934,-0.00734375035893172,0.03476347584130708
1761468629404568300,8.627568359375,0.14885726703703403,-0.005135504291509278,0.009048092891671694
1761468629414551000,8.637551025390625,0.0946872854322195,-0.002570896234200336,0.00884001679867506
1761468629424534000,8.647533935546875,0.15214929431974886,0.010947519605094566,-0.01391387686370872
1761468629434518000,8.65751806640625,0.08346563419401645,0.005071083586057647,0.008731587988138199
1761468629444501200,8.667501220703125,0.1253653322905302,0.004974212782573886,-0.018677113776723854
1761468629454484200,8.677484130859375,0.11489070002734661,0.00048310734182596205,-0.020109183273301457
1761468629464467000,8.687467041015625,0.10965396841764449,-0.004971020745066925,-0.01998922842175234
1761468629474450200,8.6974501953125,0.13479367037117482,0.007143802773463539,-0.002679959798976779
1761468629484433200,8.70743310546875,0.09124854315519332,0.005725994697678834,0.01663675335580483
1761468629494416100,8.717416015625,0.12491583495736121,0.015914293433306737,0.019368520973832345
1761468629504399000,8.727399169921876,0.10650807160735129,0.012009582178923301,0.043620448341360314
1761468629514383000,8.737383056640626,0.1087479594886303,0.0023668615620816126,0.04386359118116088
1761468629524366000,8.747365966796876,0.13732581919729708,-0.01078734234101139,0.03548675318113528
1761468629534349300,8.757349365234376,0.14884849920868873,-0.019833540103118864,0.010132910720002837
1761468629544332000,8.76733203125,0.1219143150538206,-0.020421770053543148,-0.00009198913238942622
