time,seconds_elapsed,z,y,x
1761468784277517800,0.118517822265625,0.12322715121805668,0.016498391772952162,0.020445297059603035
1761468784287500800,0.128500732421875,0.10257657737731933,0.002177139970161079,0.022328115131519735
1761468784297482800,0.138482666015625,0.11948562660217285,0.0003190853050982696,0.024086852449330034
1761468784307465700,0.1484658203125,0.13175532558858394,0.015934860155655768,0.014115107657387852
1761468784317447700,0.15844775390625,0.11753975323140621,0.005042376939737005,0.014187453657679724
1761468784327430700,0.1684306640625,0.12382336354553698,0.00024194382785790365,0.005723040122189558
1761468784337412900,0.178412841796875,0.12157821496725081,-0.00029143724846944675,-0.004794508834113366
1761468784347395600,0.1883955078125,0.11215163045227527,-0.02552098832211923,-0.024542914237314833
1761468784357378800,0.19837890625,0.12217851894795893,-0.024903045936732086,-0.031112871778733096
1761468784367360800,0.20836083984375,0.1280149700164795,-0.01390102651529014,-0.016034230018546803
1761468784377343700,0.21834375,0.11649345904886722,-0.01734676022210624,-0.00036546546166064215
1761468784387325700,0.22832568359375,0.11634382144510745,-0.007620605955377687,0.011809828672988805
1761468784397309000,0.238308837890625,0.10826339084208011,-0.008794460623897611,0.01607685445072129
1761468784407291600,0.248291748046875,0.11888824523091315,0.0021250601543521042,0.005783060930448118
1761468784417273900,0.25827392578125,0.1253226621925831,0.0026700309183623175,-0.006426345536357257
1761468784427256800,0.2682568359375,0.12607026568949223,0.005765170222375309,-0.013957405478181317
1761468784437238800,0.27823876953125,0.11933657352030276,0.0038140007636277003,-0.009319121535529848
1761468784447221800,0.2882216796875,0.1253226621925831,-0.007232823630631901,-0.0009054518065880983
1761468784457203700,0.29820361328125,0.11365151362121105,-0.009197796710801776,0.013544360848015639
1761468784467186700,0.308186767578125,0.11350246053934096,-0.012913033824670128,0.007347716431284789
1761468784477169700,0.318169677734375,0.11410101095438002,-0.012730565955321071,0.01927748397280229
1761468784487151600,0.328151611328125,0.11544774938821792,-0.0011303134959598537,0.025303100937872657
1761468784497134600,0.338134521484375,0.1129039101243019,0.007698858823359478,0.012123794559563975
1761468784507116800,0.34811669921875,0.11888941427469253,-0.003738363688184472,-0.01328354763749521
1761468784517099500,0.358099609375,0.12158347566425799,0.00974431440285989,-0.023389006378280463
1761468784527082800,0.368082763671875,0.12801730810403822,0.0038005653224972773,-0.019922284682362804
1761468784537064700,0.378064697265625,0.11799158865213394,-0.0037448199722013666,0.0014968144290149212
1761468784547047700,0.388047607421875,0.11305413224995135,-0.016807755691290366,0.013459178199036977
1761468784557029600,0.398029541015625,0.11125789648294448,-0.03974727386955637,0.024420187473366967
1761468784567012900,0.408012939453125,0.1256225219219923,-0.03007211228783708,0.018124309049418662
1761468784576994600,0.41799462890625,0.12592238165140152,-0.03545038724309998,-0.003942995154869277
1761468784586977800,0.427977783203125,0.12158289114236831,-0.0263786737305345,-0.01550880877180025
1761468784596960800,0.437960693359375,0.12487491842508315,-0.015186593363399151,-0.016256030959507915
1761468784606942700,0.447942626953125,0.12367723307311534,-0.007116008300951216,-0.009339335489785298
1761468784616925700,0.45792578125,0.1208341186016798,0.008415289151403703,0.008286321588803549
1761468784626908000,0.467907958984375,0.1151478896588087,0.014997337276948382,0.027984843985270708
1761468784636890600,0.477890625,0.13011165003478525,0.018893118589493677,0.028918403074913657
1761468784646873600,0.48787353515625,0.12023556818664073,0.01745457368635689,0.01852745105678914
1761468784656855800,0.497855712890625,0.12008534606099128,0.021752093925408552,-0.0030626960558467545
1761468784666838500,0.507838623046875,0.12113280928730964,0.005126969929426559,-0.021954820273141374
1761468784676820700,0.51782080078125,0.12307809813618659,0.0024132180295244323,-0.014367443017219192
1761468784686803700,0.5278037109375,0.12636954089701175,-0.008139325749990529,-0.002707567041821312
1761468784696785700,0.53778564453125,0.12217968799173831,-0.01522811040058732,0.013117134712159167
1761468784706768600,0.5477685546875,0.10691665240824222,-0.015246875608206027,0.005017360087845008
1761468784716752000,0.557751953125,0.10841244392395019,-0.006697185808903304,-0.001315662875561975
1761468784726733600,0.567733642578125,0.1323544605255127,0.0012209423591470112,0.0001885242924443446
1761468784736716800,0.577716796875,0.11140578052103518,-0.0136930006546434,-0.0018381797791691497
1761468784746698500,0.587698486328125,0.11080723010599612,-0.01820108919623308,0.0014358300729538313
1761468784756681700,0.597681640625,0.1253220776706934,-0.01871213029117789,-0.00488808941867901
1761468784766664700,0.607664794921875,0.11245382826924323,-0.020663620551978238,-0.006590173778962344
1761468784776646700,0.617646728515625,0.11484802992939948,-0.025831399128295015,0.008324632888752967
1761468784786629600,0.627629638671875,0.10871288817524909,-0.012570839640742633,0.028123186160170007
1761468784796611800,0.63761181640625,0.11365092909932135,-0.004952813801518641,0.03711588646963937
1761468784806594600,0.647594482421875,0.11544599582254886,-0.012110882562352343,0.025850042179971933
1761468784816576800,0.65757666015625,0.1296609836578369,-0.013443809383257756,0.01736541925680358
1761468784826559700,0.667559814453125,0.1114051959991455,-0.00488971797429549,0.0007334242745069787
1761468784836542700,0.677542724609375,0.11469663875997066,-0.0037006400496466083,-0.0033752166207181287
1761468784846524700,0.687524658203125,0.12412380779683589,-0.0055262668787414435,-0.005990034195035696
1761468784856508000,0.6975078125,0.1298094522178173,0.010535243301553419,-0.01678714444481302
1761468784866489600,0.707489501953125,0.12666647801697253,0.002240806334131048,-0.025797302779159505
1761468784876472800,0.717472900390625,0.11978256372213363,0.00852461244026199,-0.030769565633242017
1761468784886455800,0.727455810546875,0.12172843709290027,0.0094122545955237,-0.020430190822016445
1761468784896437800,0.737437744140625,0.11963467968404293,0.012464109596947673,-0.0237811726171989
1761468784906420700,0.747420654296875,0.1214309154510498,0.005223739697388373,-0.0013748639832017943
1761468784916403000,0.75740283203125,0.11828911029398441,-0.011465779317048145,0.01454477234550286
1761468784926385700,0.7673857421875,0.1100590420871973,-0.011074235274281818,0.02898965766323963
1761468784936367900,0.777367919921875,0.11589432411193847,-0.012593718192831147,0.020869089129357598
1761468784946350800,0.787350830078125,0.11379939765930175,-0.009936623246211092,0.017097352038300595
1761468784956333600,0.79733349609375,0.12083178051412105,-0.026477946553658694,0.01956961477019358
1761468784966315800,0.807315673828125,0.1245721360862255,-0.030347970087151042,0.02380863144628238
1761468784976298800,0.817298828125,0.11095452962219715,-0.022242304578167386,0.02510437947839964
1761468784986280700,0.82728076171875,0.1067646767169237,-0.0034510212324646997,0.016306429989472963
1761468784996263700,0.837263671875,0.12367372594177722,0.0014860324546854826,0.003138768383185379
1761468785006247000,0.847246826171875,0.12771394124329088,-0.0011499925898533546,-0.0018058529787231235
1761468785016228600,0.857228515625,0.1242716918349266,0.0063863645815959895,-0.002317332465085201
1761468785026211800,0.8672119140625,0.12292553792297839,0.014919224831217433,-0.0023680945379426703
1761468785036193500,0.877193603515625,0.12487082677185535,0.01540406290582614,-0.015887304961681364
1761468785046176800,0.8871767578125,0.12292612244486809,0.003951981893512129,-0.014214622509106992
1761468785056158700,0.89715869140625,0.12502163341939448,-0.002994077524245949,-0.021494815245689823
1761468785066142000,0.907141845703125,0.12651859397888182,-0.007220863764779642,-0.02902542537965346
1761468785076124700,0.917124755859375,0.12487374938130379,-0.01797281056542415,-0.031420665936137085
1761468785086107000,0.92710693359375,0.1142506485581398,-0.017514225743501446,-0.01113772668126039
1761468785096089900,0.93708984375,0.12098492524921893,-0.011897133638750529,0.013575591669918502
1761468785106071800,0.94707177734375,0.1328062959462404,-0.027901942341635,0.05031409162795171
1761468785116054800,0.9570546875,0.10257891546487807,-0.01843919281802373,0.06981833584462292
1761468785126037800,0.967037841796875,0.1164940435707569,-0.018542565285885937,0.0436139638016466
1761468785136019700,0.977019775390625,0.12173077518045902,-0.03013761070552282,0.006971026322711259
1761468785146002700,0.987002685546875,0.12636895637512205,-0.019377386983588804,-0.03659664608521852
1761468785155984600,0.996984619140625,0.12726678199768066,-0.008626313540845877,-0.04108397953314707
1761468785165967600,1.006967529296875,0.13025894955098627,0.004331564357959723,-0.015571859504072926
1761468785175950800,1.016950927734375,0.10960896023213863,0.007074999295483575,0.0028183362232055515
1761468785185932500,1.0269326171875,0.11559504890441893,0.011405076947133056,0.012915433561021927
1761468785195915800,1.036915771484375,0.11724047802388668,0.010781396657414734,0.014330791668104938
1761468785205897700,1.046897705078125,0.11140578052103518,0.010468245904881041,-0.00783946373729268
1761468785215880700,1.056880615234375,0.13415128081440925,0.0007162194092568824,-0.02199222282421542
1761468785225863700,1.06686376953125,0.12786708597838878,0.0018429618417969322,-0.015973935215652452
1761468785235846000,1.076845947265625,0.12442483657002448,-0.006468129718315322,0.028161652723746374
1761468785245828600,1.08682861328125,0.11769055987894535,-0.0005937498006911482,0.07525498764032963
1761468785255810800,1.096810791015625,0.10646657055318355,-0.001211179873191577,0.08461910594492218
1761468785265793800,1.106793701171875,0.11319967820048332,-0.003062830769876018,0.036760293948021716
1761468785275775700,1.116775634765625,0.12876140446960926,-0.0069056317946582565,-0.0241665780384792
1761468785285758700,1.1267587890625,0.13953531194031238,-0.028930634652113076,-0.08343779633902013
1761468785295741700,1.13674169921875,0.13040741811096668,-0.03853249581889249,-0.07700252086082474
1761468785305724000,1.146723876953125,0.12127952428162098,-0.042123177254619074,-0.037470771171781235
1761468785315706600,1.15670654296875,0.11933423543274402,-0.01933838156389538,-0.037806190838338805
1761468785325688800,1.166688720703125,0.12352467285990715,0.002152624014712637,-0.017912454113736747
1761468785335671800,1.176671875,0.11783902843892574,0.009571607592410873,0.0028876796989468854
1761468785345654800,1.18665478515625,0.1218798282623291,0.008722060395500738,-0.0035684650373412293
1761468785355636700,1.19663671875,0.13055939380228518,0.022019250111747532,0.0018306540598394348
1761468785365620000,1.206619873046875,0.12173077518045902,0.02776913257509004,0.014492930277122649
1761468785375601700,1.2166015625,0.12322715121805668,0.0222719850470894,0.023758483578066807
1761468785385585000,1.2265849609375,0.11260288135111331,0.011536930015741381,0.03720393007927341
1761468785395567900,1.23656787109375,0.11544658034443854,0.0076056663978612046,0.041574110270803794
1761468785405549800,1.2465498046875,0.12472411177754401,0.006032995412283344,0.02804465473097516
1761468785415532800,1.25653271484375,0.11739128467142582,0.0034706081385797003,0.006806757405400276
1761468785425514800,1.2665146484375,0.12292787601053715,-0.008318477142602206,0.00022724658434744924
1761468785435497700,1.276497802734375,0.12203063490986824,-0.01670285684497794,-0.0003674336564610712
1761468785445480700,1.286480712890625,0.1256213528782129,-0.0176044533187116,-0.0013690141977276652
1761468785455462700,1.296462646484375,0.11963643324971199,-0.021654917161248156,0.007977787645882927
1761468785465445600,1.306445556640625,0.1242757834881544,-0.021850451149791478,-0.016391528156772254
1761468785475427800,1.316427734375,0.12068506551980972,-0.030069118896441066,-0.02879911494364496
1761468785485410800,1.326410888671875,0.11604688432514666,-0.029493337435636202,-0.03630812060057651
1761468785495393800,1.336393798828125,0.12742051125466822,-0.022584434830013194,-0.04076731479940936
1761468785505375700,1.346375732421875,0.12816928379535675,-0.019936518703692126,-0.024013976726075633
1761468785515359000,1.35635888671875,0.11215806019306182,-0.012601620654785074,0.003964263988472521
1761468785525340700,1.366340576171875,0.11844342407286167,-0.011778933494514785,0.01977460614024894
1761468785535324000,1.376323974609375,0.11634849762022495,-0.0077550157364312325,0.03408546013202285
1761468785545305900,1.386305908203125,0.11200900711119174,-0.00804335855798272,0.0390022413556464
1761468785555288800,1.396288818359375,0.11604863789081572,-0.002118737728131236,0.03280876386024756
1761468785565271800,1.406271728515625,0.11904080544412135,0.0015773388837740639,0.02296432610924821
1761468785575253800,1.416253662109375,0.12203355751931666,-0.005108864021400222,0.008173440365435089
1761468785585236700,1.42623681640625,0.12218202607929705,-0.009239671082660788,0.01571946726423921
1761468785595219000,1.436218994140625,0.11664601926207542,-0.0011658183487699716,0.01878477083570324
1761468785605201700,1.44620166015625,0.12322948930561542,-0.002183536603262473,0.0055669613612000825
1761468785615185000,1.456184814453125,0.11888941427469253,-0.014102203651686431,0.008585530580952763
1761468785625166800,1.466166748046875,0.1229296295762062,-0.01331741565776756,0.003367243376816623
1761468785635149800,1.47614990234375,0.11918868948221206,-0.0163579706637538,-0.007962822972191497
1761468785645131800,1.4861318359375,0.11918868948221206,-0.017983726968371774,-0.030266372201323975
1761468785655115000,1.496114990234375,0.13699556432962418,-0.014147455007431562,-0.031036461524676994
1761468785665097700,1.50609765625,0.1263712944626808,-0.018702848722890485,-0.01697638340659905
1761468785675080000,1.516079833984375,0.1158972467213869,-0.009963750998442992,0.0032279262376716357
1761468785685063000,1.52606298828125,0.11529811178445816,-0.009009999074964435,0.003930507849343121
1761468785695044900,1.536044921875,0.12143383806049823,-0.0036349798038791048,-0.002130029732058756
1761468785705027800,1.54602783203125,0.13101122922301292,-0.00014236561487923608,-0.016325125556788406
1761468785715010800,1.5560107421875,0.12831775235533713,0.005144999347283737,-0.01913095849144738
1761468785724992800,1.56599267578125,0.12861644304096698,-0.00373789190367097,-0.007464732690365053
1761468785734975700,1.575975830078125,0.12352876451313495,-0.0006164231422138982,0.012966670557914766
1761468785744958000,1.5859580078125,0.11903963640034199,-0.002222202383771946,0.033590513938642104
1761468785754940700,1.595940673828125,0.11410159547626972,-0.005155939724761993,0.021751767415134234
1761468785764924000,1.605923828125,0.1245762277394533,-0.002520055102473998,0.0036265016677789388
1761468785774905900,1.61590576171875,0.11948854921162128,-0.005465309351321775,-0.011067890015174634
1761468785784888800,1.625888916015625,0.12726970460712908,-0.007237554604676552,-0.014207708711130545
1761468785794870800,1.635870849609375,0.12397767732441424,-0.021982032507052645,0.0024465095194173042
1761468785804854000,1.64585400390625,0.11470014589130878,-0.028247764671198092,0.009204018672322853
1761468785814836700,1.655836669921875,0.12741992673277855,-0.018288276572630276,0.010359230289165862
1761468785824819000,1.66581884765625,0.13131108895242213,-0.01911336346925236,0.008200305539474357
1761468785834802000,1.675802001953125,0.10452654240131377,-0.00903951400546066,-0.0076401965718367135
1761468785844783900,1.685783935546875,0.12338146499693393,-0.02118685440821573,-0.022459920251066794
1761468785854766800,1.695766845703125,0.11006430278420448,-0.019619244331889784,-0.029519106631132306
1761468785864749800,1.705749755859375,0.12442951274514198,-0.0036758740740930078,-0.023750617648730984
1761468785874731800,1.715731689453125,0.13714870906472204,-0.005838332498352974,0.005974010075419209
1761468785884714800,1.72571484375,0.12143676066994666,-0.010386202777770814,0.017871448533202054
1761468785894696700,1.73569677734375,0.1251771162420511,-0.00017655700590403283,0.027637546651251614
1761468785904679700,1.7456796875,0.11679682590961456,0.007847491780121344,0.02750043516892474
1761468785914663000,1.755662841796875,0.11155950977802276,0.00320198636635032,0.01862660286561586
1761468785924644600,1.76564453125,0.11589841576516628,0.008788089677793322,0.00030817318331683054
1761468785934627800,1.7756279296875,0.1262234104245901,-0.0027019261772569733,0.006614527335506864
1761468785944609800,1.78560986328125,0.12562369096577167,-0.0063848901479621415,0.010706486523989587
1761468785954592800,1.7955927734375,0.13235738313496112,-0.010338768598093883,0.02818088714717887
1761468785964575700,1.80557568359375,0.11410042643249034,-0.021276567101839464,0.03045393979583168
1761468785974558000,1.815557861328125,0.1094616607159376,-0.028410270889685486,0.016910140636819414
1761468785984540700,1.825540771484375,0.12921440893411634,-0.00883453633513709,-0.009571297065156976
1761468785994523000,1.83552294921875,0.13190730127990244,-0.01581683582464466,-0.036173810713400596
1761468786004505900,1.845505859375,0.11694354090392589,-0.01311649082476506,-0.04014547940690536
1761468786014488600,1.855488525390625,0.13295593355000018,-0.005942928238099557,-0.03576371152556967
1761468786024470800,1.865470703125,0.12906594037413596,-0.003186011052028334,-0.026634399773983748
1761468786034453800,1.875453857421875,0.13385492821633815,0.001742467173843761,-0.007708377853664569
1761468786044435700,1.885435791015625,0.11544950295388698,0.00014246065676852595,0.011243618758127558
1761468786054418700,1.895418701171875,0.11021218682229518,-0.0032601722667823193,0.010215264374366961
1761468786064402000,1.90540185546875,0.13161094868183135,0.005168727282743202,0.005315050693054217
1761468786074383600,1.915383544921875,0.10213234074115753,0.01425096903918893,0.017096705867617856
1761468786084366800,1.925366943359375,0.1248772565126419,0.008655732573219575,0.038775780222588214
1761468786094348800,1.935348876953125,0.11051146202981471,0.007182342973098275,0.048693335725436916
1761468786104331800,1.945331787109375,0.11260638848245143,0.005755450833492795,0.03332893810971873
1761468786114314800,1.955314697265625,0.11859130811095236,0.012269920465408358,-0.012531231432850471
1761468786124297000,1.965296875,0.1166466037839651,-0.006250307407794753,-0.04498981873211451
1761468786134279700,1.97527978515625,0.12158464470803737,-0.010221734072704566,-0.05807493032121565
1761468786144262000,1.985261962890625,0.11784428913593291,-0.017973207857646046,-0.0340286564774462
1761468786154244900,1.995244873046875,0.11365385170876979,-0.010975908874295419,-0.0022285696195322086
1761468786164227800,2.005227783203125,0.10527473042011261,-0.01961212275464786,0.02375367268892005
1761468786174209800,2.015209716796875,0.11859189263284206,-0.016385284504009178,0.020936553458555135
1761468786184192800,2.02519287109375,0.11111001244485377,-0.01719035951741971,0.005097218107734807
1761468786194174700,2.0351748046875,0.11934008065164088,-0.0026502941714308687,-0.007618868372729047
1761468786204158000,2.045157958984375,0.11694587899148463,-0.0034134617052972317,-0.014756720896018668
1761468786214141000,2.055140869140625,0.12308102074563503,0.009460900630641844,-0.0051923650283017195
1761468786224123000,2.065122802734375,0.11365385170876979,0.010117950612888671,0.01403517200568458
1761468786234105900,2.07510595703125,0.11544950295388698,-0.002003429083536321,0.028293731837929225
1761468786244087800,2.085087890625,0.11754384488463401,0.004451938478383818,0.01843390243826434
1761468786254070800,2.09507080078125,0.12367840211689471,0.005509364263823954,0.004811530750861857
1761468786264053800,2.1050537109375,0.1181418107777834,-0.0034068527263530993,-0.0219554436109378
1761468786274036000,2.115035888671875,0.12367957116067409,-0.012359941402997355,-0.032499248103215354
1761468786284018700,2.125018798828125,0.12412848397195339,-0.024238455964601596,-0.01201695720120333
1761468786294001000,2.1350009765625,0.1123071132749319,-0.029119451205502262,0.011454311499895993
1761468786303983900,2.14498388671875,0.11574877816140651,-0.0300481446070713,0.037828688081225845
1761468786313966600,2.154966552734375,0.10332827252745627,-0.021840167217794804,0.03709529805604834
1761468786323948500,2.164948486328125,0.11395195787250995,-0.024779504038742742,0.018372673770319668
1761468786333931500,2.174931640625,0.12487550294697283,-0.029365512088174,-0.007297527463873848
1761468786343913500,2.18491357421875,0.12487550294697283,-0.014274808855791342,-0.014680981928820256
1761468786353896700,2.194896728515625,0.12188216634988784,-0.01446681744668749,-0.01012783953595208
1761468786363879700,2.204879638671875,0.10886369482278824,-0.006965915181109448,-0.009508929036185144
1761468786373861600,2.214861572265625,0.1233785423874855,0.003260041263097082,-0.0022407874969998373
1761468786383844600,2.2248447265625,0.1238274551987648,0.014208676825510337,0.00029959943450521675
1761468786393826600,2.23482666015625,0.12113339380919932,0.0139039365666511,0.004859203534200787
1761468786403809500,2.2448095703125,0.11544716486632824,0.02779529449623078,-0.0023920759184402414
1761468786413792500,2.25479248046875,0.11933715804219246,0.01203009524398949,0.0008500386747880838
1761468786423774500,2.2647744140625,0.1152963582187891,0.00007691286296612816,-0.004298247466480825
1761468786433757400,2.27475732421875,0.1287643270790577,-0.0035114233499247346,-0.00913549489720026
1761468786443739600,2.28473974609375,0.12232991011738777,-0.009819842165859882,-0.012729783928964752
1761468786453722400,2.294722412109375,0.1187386076271534,-0.015901519575057317,0.005538970525865443
1761468786463705600,2.30470556640625,0.11365034457743167,-0.019538518662319985,0.025024192664946893
1761468786473687600,2.3146875,0.11514613609313964,-0.024712044276122468,0.030001501586905212
1761468786483670500,2.32467041015625,0.11589373959004878,-0.03883217745178844,0.013380651336419396
1761468786493652500,2.334652587890625,0.11619301479756831,-0.02398835366105195,0.002878267983207479
1761468786503635700,2.3446357421875,0.11694003377258777,-0.015858699921704827,0.010846050258306785
1761468786513618400,2.354618408203125,0.11694003377258777,-0.022376091592246666,0.002839319645729847
1761468786523600600,2.3646005859375,0.12232640298604965,-0.02026522778496146,-0.000476143311499618
1761468786533583600,2.37458349609375,0.1226250936716795,-0.015042643431620671,-0.018306088507245293
1761468786543566600,2.384566650390625,0.11619009218811988,-0.001548795064473961,-0.010882619409030302
1761468786553548500,2.394548583984375,0.12501871080994606,0.006090631325566209,-0.010652084889053367
1761468786563531500,2.404531494140625,0.11110182913839817,0.0029036989665750298,-0.014516806626343167
1761468786573513500,2.414513427734375,0.13100363043844698,0.0045002434472626186,-0.019890471621858887
1761468786583496400,2.424496337890625,0.12262392462790012,0.007029033270396758,-0.024880503028072414
1761468786593479700,2.434479736328125,0.11469371615052222,0.017593741270096507,-0.008095112148928456
1761468786603461400,2.44446142578125,0.12591712095439433,0.01189091966873966,0.0002909503371687606
1761468786613444600,2.454444580078125,0.12831132261455058,0.004707418212071934,0.011345008189813233
1761468786623426600,2.464426513671875,0.1304062490671873,-0.001427952441763773,0.017554151328513398
1761468786633409500,2.474409423828125,0.11888356905579567,0.003780926186154829,0.008247023908165283
1761468786643392500,2.484392578125,0.10571604444682597,-0.0006001061908304109,-0.020564548658253624
1761468786653374700,2.494374755859375,0.12083002694845199,-0.00014604770320875103,-0.04118872311583254
1761468786663357400,2.504357421875,0.11215104593038558,0.010541749532509128,-0.015571361747151239
1761468786673339600,2.514339599609375,0.11664075856506824,0.017534892930550265,0.010556899152579716
1761468786683322600,2.524322509765625,0.12636778733134268,0.012533430239802692,0.0165308133298764
1761468786693305600,2.5343056640625,0.11634265240132809,0.0037171222540448067,0.018733734768209977
1761468786703287600,2.54428759765625,0.11245265922546387,-0.004206544030581426,0.02035252019263571
1761468786713270800,2.554270751953125,0.11514672061502933,-0.013728981858544284,-0.0014662137947743757
1761468786723253500,2.56425341796875,0.10227847121357918,-0.023345920721802395,-0.0021280798035673795
1761468786733235700,2.574235595703125,0.1012315925091505,-0.017313570338557474,0.0014993854120140895
1761468786743218700,2.58421875,0.1135012914955616,-0.01640111111915903,0.01085193657639902
1761468786753200600,2.59420068359375,0.11290215655863284,-0.02176185270101996,0.030980756131932137
1761468786763183600,2.60418359375,0.1239753392368555,-0.01975489222620381,0.02502152806711383
1761468786773166600,2.61416650390625,0.11574527103006839,-0.017469569184444842,0.009620588700135704
1761468786783148500,2.6241484375,0.12038403674662113,-0.018576667343243026,-0.01001478478264762
1761468786793131500,2.634131591796875,0.12412497684061527,-0.010341404654819052,-0.026527464234211946
1761468786803113500,2.644113525390625,0.11380115122497081,-0.020248945653729606,-0.02388649387190817
1761468786813096400,2.654096435546875,0.12412731492817401,-0.017675677082641048,-0.013915596180048305
1761468786823079700,2.66407958984375,0.13624737631082534,-0.006928191257160506,0.004647239000664558
1761468786833061400,2.674061279296875,0.11095920579731464,-0.009846315755898831,0.014531807832652703
1761468786843044600,2.684044677734375,0.12442717465758323,-0.011022429738519713,0.027576149019948204
1761468786853026600,2.694026611328125,0.12876608064472675,-0.014366890461370348,0.025067616248142438
1761468786863009500,2.704009521484375,0.11649579713642597,-0.02240323989407625,0.022885995609452946
1761468786872992500,2.713992431640625,0.11305354772806167,-0.023303097643516957,0.022328459908103105
1761468786882974700,2.723974609375,0.11529811178445816,-0.018294733712880405,0.012191804594744463
1761468786892957400,2.73395751953125,0.12188216634988784,-0.02072597488121828,0.0220192044459749
1761468786902940400,2.7439404296875,0.11754209131896495,-0.01750115505772992,0.021163272603228686
1761468786912922600,2.753922607421875,0.12247954772114752,-0.00304059382189298,-0.014364787552540656
1761468786922905300,2.7639052734375,0.11245382826924323,0.0017717674752086166,-0.017523374881048222
1761468786932887600,2.773887451171875,0.11395020430684089,0.0017650597440311685,-0.013482335312338545
1761468786942870500,2.78387060546875,0.11514730513691901,-0.0030908398715197107,0.0030406280712224542
1761468786952853800,2.793853759765625,0.12397650828063488,0.0018695430318126454,-0.012840943552704993
1761468786962835500,2.80383544921875,0.12891513372659683,-0.0012213995876954869,-0.020166082826000638
1761468786972818700,2.813818603515625,0.1328062959462404,0.01241139987888746,-0.021224033197003882
1761468786982800400,2.82380029296875,0.11305471677184105,0.010328960731776896,-0.004686657695600297
1761468786992783600,2.83378369140625,0.1280184771478176,0.0074186913167533924,0.0036057762568700124
1761468787002766600,2.8437666015625,0.11021101777851582,-0.00014173799591662826,-0.0007417445782804861
1761468787012748500,2.85374853515625,0.11424831047058105,-0.00241252105566964,0.010220278476201928
1761468787022731500,2.8637314453125,0.09898585940897464,0.029935980336333157,-0.15797186299338936
1761468787032713700,2.873713623046875,0.21242226897478103,0.08623469704855233,-0.2942736546388827
1761468787042696400,2.883696533203125,0.16633213345110415,0.013795806866924977,0.24804791003679855
1761468787052679400,2.893679443359375,-0.1790343786358833,-0.05024372067232616,0.29788231012271715
1761468787062661600,2.90366162109375,0.3405073816180229,-0.0786931225625798,0.15664510790165512
1761468787072644400,2.913644287109375,0.08447568801939487,-0.02317115780994063,0.06845600711600855
1761468787082627600,2.923627685546875,-0.026107670202851294,-0.02532481272947043,-0.005643307683174498
1761468787092609500,2.933609619140625,0.24593407795429229,-0.06567429940903094,-0.05227067818897776
1761468787102592500,2.943592529296875,0.1537555604726076,-0.03746080233361572,-0.04859115399259608
1761468787112574500,2.953574462890625,-0.0012689970225095747,0.009698405459988861,0.006975122542516328
1761468787122557700,2.9635576171875,0.16871873632669449,-0.01965667199913878,0.011559351910103578
1761468787132540400,2.97354052734375,0.1143985325962305,-0.02090177212283015,-0.038003364228119604
1761468787142522600,2.983522705078125,0.0877636236488819,-0.004561743541143369,-0.06999762880112975
1761468787152505600,2.993505615234375,0.14013853853046893,-0.004486788312767749,-0.08032988431840203
1761468787162487600,3.003487548828125,0.10183189648985862,-0.020988018784311134,-0.06634027077078353
1761468787172470500,3.013470458984375,0.13714695549905298,-0.020249189965613184,-0.0033935514284297824
1761468787182453800,3.023453857421875,0.14028934517800806,-0.002744458707064041,0.05057331795287318
1761468787192435500,3.033435546875,0.047213586595654486,0.025916129686124622,0.055849733118992294
1761468787202418700,3.043418701171875,0.12263093889057636,0.005373421825276455,0.019286320299806536
1761468787212400600,3.053400634765625,0.17590192582905292,0.013694407160440458,-0.02829815000143135
1761468787222383600,3.063383544921875,0.08926116873025894,0.06606379648353904,0.012381739959563128
1761468787232366600,3.07336669921875,0.11245558183491229,0.09711403765510768,0.08396764716571196
1761468787242348500,3.0833486328125,0.11170797833800315,0.07459601684152148,0.041879596023401244
1761468787252331500,3.09333154296875,0.06995791784524917,0.015780639991612406,0.008048512511246372
1761468787262314500,3.103314453125,0.20493045191466808,-0.06315225185181479,0.027231806261418384
1761468787272296700,3.113296630859375,0.10886194125711918,-0.05753550794858019,0.05283656387685332
1761468787282279400,3.123279541015625,0.031048633736371994,-0.059768851924641056,0.02573988720322959
1761468787292261600,3.13326171875,0.17874036412537098,-0.10705089151347055,-0.03388999464213848
1761468787302244600,3.14324462890625,0.1316039344191551,-0.0869320225297939,-0.08175841015102342
1761468787312228000,3.15322802734375,0.08012918324768543,-0.05513789962178561,-0.05710554643294308
1761468787322210000,3.1632099609375,0.1533019714862108,-0.06580921893427148,-0.016281848104065282
1761468787332193000,3.173193115234375,0.12277531579732893,-0.04206926424345001,0.01991247339111287
1761468787342175200,3.18317529296875,0.10317220518290995,0.0009476315683015855,0.054864434708957556
1761468787352158000,3.193157958984375,0.12022972296774387,0.025638342507916967,0.05294758193669841
1761468787362141200,3.20314111328125,0.10960545310080051,0.03985824626362882,0.022709355834336017
1761468787372123100,3.213123046875,0.12367138785421848,0.04352766919110436,-0.010049219058500602
1761468787382106400,3.2231064453125,0.13384616038799285,0.04520142935591284,-0.009391435569780879
1761468787392088000,3.233088134765625,0.1067605850636959,0.04004293234788347,0.019773603776539674
1761468787402071300,3.2430712890625,0.11888064644634723,0.030258243693795518,0.05308626888818107
1761468787412054300,3.25305419921875,0.11109832200706005,0.010716578659741207,0.057127575601660645
1761468787422036200,3.2630361328125,0.10376491037905215,0.0025654320390938665,0.04226119748582132
1761468787432019200,3.273019287109375,0.11184417193830012,-0.008136126862617674,-0.004739778405614197
1761468787442002200,3.283002197265625,0.11408756695091724,-0.008230354759510373,-0.02827838813832495
1761468787451984100,3.292984130859375,0.13204407940208912,-0.01926715894161025,-0.04464764966436196
1761468787461967000,3.302967041015625,0.13279226742088793,-0.016880099408293606,-0.045273521911166605
1761468787471949000,3.312948974609375,0.11842647293806076,-0.02961106151419226,-0.024656174486596134
1761468787481932300,3.322932373046875,0.11633096196353435,-0.03214303681037854,-0.011000651731551625
1761468787491915300,3.332915283203125,0.12665595662295817,-0.030417934617400166,-0.01031339555317536
1761468787501897200,3.342897216796875,0.1179758065611124,-0.033652192414447196,-0.006432037774915807
1761468787511880200,3.352880126953125,0.10645254202783107,-0.028258039470040238,0.003715650389110669
1761468787521863200,3.36286328125,0.12141747144758701,-0.018474465060804503,-0.012871140044857747
1761468787531845000,3.37284521484375,0.1218663842588663,0.00013497660745633765,-0.010363614203338511
1761468787541828000,3.382828125,0.12560732435286046,0.00765299040886166,-0.0014839503808645532
1761468787551810300,3.392810302734375,0.11662906812727451,0.01718807166221086,0.017921505069872362
1761468787561793000,3.40279296875,0.12441022352278232,0.037338123518729116,0.03635835751704872
1761468787571776300,3.4127763671875,0.11228899309635161,0.040077104045543814,0.044923954988247715
1761468787581758200,3.42275830078125,0.11692717429101467,0.03989492501220666,0.027713849590742027
1761468787591741200,3.4327412109375,0.11946984451115131,0.035656508841027966,0.02086068206061609
1761468787601723100,3.44272314453125,0.1012140568524599,0.007017554036801448,0.0003159340813755989
1761468787611706400,3.452706298828125,0.1365279468178749,-0.011765492915984941,-0.011632565560075454
1761468787621689000,3.462689208984375,0.11228607048690319,-0.023795370105910114,-0.003057574639446102
1761468787631671300,3.47267138671875,0.10315759213566779,-0.03231795498586725,0.0021108409743988885
1761468787641654300,3.482654296875,0.1270990242153406,-0.04265882763443515,-0.02122354228994809
1761468787651636200,3.49263623046875,0.1284451781272888,-0.037388730327959634,-0.06988558782797773
1761468787661619200,3.502619140625,0.12575462386906147,-0.042331148316338656,-0.10202877990198321
1761468787671602200,3.512602294921875,0.1398223121881485,-0.035296612320339774,-0.07539102141042239
1761468787681584000,3.522584228515625,0.11513269208967684,-0.032744993892055936,-0.016094997462187892
1761468787691567000,3.532567138671875,0.10989537595808506,-0.04913982368418947,0.028153140623727813
1761468787701550300,3.54255029296875,0.1036105966001749,-0.030710124780295882,0.056134998067468404
1761468787711532000,3.552531982421875,0.10555588544905185,-0.028141080293175764,0.06156463103392161
1761468787721515300,3.562515380859375,0.12261457227766513,-0.022536672998417634,0.050647004243591795
1761468787731497200,3.572497314453125,0.11857377245426177,-0.025838333475869148,0.04205488409164827
1761468787741480200,3.582480224609375,0.1170779809385538,-0.02939657166342949,0.010984814841602929
1761468787751463200,3.592463134765625,0.12620704381167888,-0.03567406733060488,0.0012989172367379067
1761468787761445400,3.6024453125,0.11244096878767013,-0.0153426846824761,0.011059953303891234
1761468787771428000,3.612427978515625,0.10406067845523356,0.011684688472957349,0.016800264221290124
1761468787781411000,3.6224111328125,0.11633154648542403,0.036047291407035664,0.011299735142826102
1761468787791393300,3.632393310546875,0.12022270870506763,0.04521012868559919,-0.004554046575166284
1761468787801376000,3.6423759765625,0.11782909156680106,0.0546549977759365,0.0031218355146935208
1761468787811358200,3.652358154296875,0.10660627128481864,0.06373676004176959,0.023151669941470027
1761468787821341200,3.662341064453125,0.11558511203229427,0.04799194142385386,0.01678967889519408
1761468787831324200,3.67232421875,0.12067220603823661,0.04069735940231476,0.020239074996975248
1761468787841306000,3.68230615234375,0.12112053432762622,0.02714342472506687,0.025553319689142515
1761468787851289300,3.692289306640625,0.10316285283267497,-0.00454198795708071,0.027965317300893366
1761468787861271000,3.70227099609375,0.13383797708153725,-0.03142075270110508,0.0143939063324593
1761468787871254300,3.712254150390625,0.12336217577457427,-0.05592159277880564,0.020833615957177243
1761468787881237200,3.7222373046875,0.10121522589623927,-0.06862659617625176,0.03731971792906988
1761468787891219200,3.73221923828125,0.1303933895856142,-0.07499068784806877,0.04416504921261221
1761468787901202200,3.7422021484375,0.10450491509139537,-0.09549050984019412,0.049791816752939484
1761468787911185200,3.75218505859375,0.10390461111068724,-0.08199438346452079,0.05802659766746219
1761468787921167000,3.7621669921875,0.11707096667587756,-0.06318659251283389,0.03719300910974852
1761468787931150000,3.772150146484375,0.12200666951239109,-0.055145206145406696,-0.0019186520037008448
1761468787941132000,3.782132080078125,0.10808861879706382,-0.02649613066432066,-0.043274963938514696
1761468787951115000,3.792114990234375,0.13023439963161945,0.004591936037541018,-0.07403413147532846
1761468787961098200,3.80209814453125,0.13307809862494469,0.02963470953454962,-0.08713564620995894
1761468787971080200,3.812080078125,0.12888883024156092,0.04451150629641488,-0.08886862574871629
1761468787981063200,3.822063232421875,0.13472645035386085,0.04320514097216073,-0.07244368394610937
1761468787991045000,3.832045166015625,0.13906769442856312,0.045505590801103966,-0.05290808560994919
1761468788001028400,3.8420283203125,0.11363047083318233,0.04782499192568939,-0.011238004151382482
1761468788011011000,3.852010986328125,0.10375497350692749,0.04212465682565234,0.03167663400818128
1761468788020993300,3.8619931640625,0.1279968498378992,0.01306143731092452,0.04028171867297496
1761468788030976300,3.871976318359375,0.10749649812281131,0.009647103389370021,0.05253795538961421
1761468788040959200,3.881959228515625,0.10884265203475951,-0.006462624709424563,0.04096583304619417
1761468788050941200,3.891941162109375,0.1229080022662878,-0.01950845460090786,0.02880907464865595
1761468788060924400,3.90192431640625,0.12335691507756709,-0.02677257070223568,0.03342689347530249
1761468788070906000,3.911906005859375,0.11198445719182491,-0.03673684000719804,0.040737367185717445
1761468788080889300,3.921889404296875,0.105100542896986,-0.041181699720001776,0.05706930150920525
1761468788090872300,3.931872314453125,0.12619769146144388,-0.04821538861591834,0.059380144867999474
1761468788100854300,3.941854248046875,0.11033493641912936,-0.047814676027651874,0.03122852034792304
1761468788110837200,3.951837158203125,0.11826514489650726,-0.038467403826583174,0.005258011859748512
1761468788120819200,3.961819091796875,0.12529752775132655,-0.03539574586285744,-0.03187118389932438
1761468788130802200,3.97180224609375,0.11018354524970055,-0.01067425790495472,-0.04959132117819972
1761468788140785200,3.98178515625,0.11482289548814296,-0.006071917491941713,-0.03365147317852825
1761468788150767000,3.99176708984375,0.11572072111070156,0.004727408404041488,-0.023425655444106085
1761468788160750000,4.00175,0.1110825399160385,0.022374326610134446,-0.009877451821323484
1761468788170733300,4.0117333984375,0.11497311761379242,0.028506671335711144,-0.00704473544631619
1761468788180715000,4.021715087890625,0.12066051560044289,0.050544973207800645,-0.010088610353972762
1761468788190698200,4.0316982421875,0.11916413956284522,0.04561631203342695,-0.008301676704850979
1761468788200680200,4.04168017578125,0.11811726085841655,0.02960384175553918,0.000026582046248950064
1761468788210663200,4.0516630859375,0.12140928814113139,0.018305506268644238,0.01948773603986483
1761468788220646100,4.061646240234375,0.11048457402288914,0.0059471780090651,0.041367627913272004
1761468788230628400,4.07162841796875,0.1233522389024496,-0.00532128521266277,0.03887719477044884
1761468788240611000,4.081611083984375,0.1151221706956625,-0.010719564059627009,0.018944263113196937
1761468788250594000,4.091593994140625,0.11377484773993492,-0.031228200687514616,0.0031289685083786024
1761468788260576300,4.101576171875,0.11512100165188312,-0.02794002302943263,-0.008101719986228271
1761468788270559000,4.11155908203125,0.13307809862494469,-0.03174782466442557,-0.00022041498476173726
1761468788280541200,4.121541259765625,0.11601999631822109,-0.036828045971586836,0.013575972979119978
1761468788290524200,4.131524169921875,0.10853753160834312,-0.05453860942122992,0.04037397723342292
1761468788300507100,4.141507080078125,0.1118278053253889,-0.05787437994754873,0.04115574786141515
1761468788310489600,4.151489501953125,0.11152736107409,-0.05698302973154932,0.03382108499123715
1761468788320472800,4.161472900390625,0.11077800401151179,-0.05054721996381413,0.025940172715415245
1761468788330454500,4.17145458984375,0.12125146723091601,-0.058301496485550885,0.03019648301959969
1761468788340437800,4.181437744140625,0.10479016177356243,-0.0396884883204475,0.033687718102266076
1761468788350420700,4.191420654296875,0.11182312915027141,-0.01717568253809586,0.011535717589478007
1761468788360402700,4.201402587890625,0.12244564545154571,-0.0110468027030176,-0.010071745984139851
1761468788370385700,4.2113857421875,0.11466390553414821,0.006899506302081863,-0.029977762235002592
1761468788380368600,4.22136865234375,0.12783201466500757,0.034673231141432184,-0.046039820975391194
1761468788390350600,4.2313505859375,0.12678455143868922,0.04427337755844928,-0.056335397744085636
1761468788400333600,4.24133349609375,0.11885434296131134,0.044951030224841086,-0.032513664787635205
1761468788410315800,4.251315673828125,0.1398053610533476,0.05045018019697163,-0.005787689156504347
1761468788420298500,4.261298583984375,0.11436638389229774,0.03307971030571498,0.03662049275168683
1761468788430281700,4.27128173828125,0.11272037025094031,0.010257405890995868,0.05325678944976534
1761468788440263700,4.281263671875,0.12364274628162383,-0.030294207773031667,0.05754038505309727
1761468788450246700,4.29124658203125,0.12049918755888939,-0.051092610852932555,0.038519111180934124
1761468788460229600,4.301229736328125,0.12543722848296165,-0.0575591445524944,0.014609535544249229
1761468788470211800,4.3112119140625,0.11511164930164813,-0.052818151437328195,-0.011103185090841725
1761468788480194600,4.321194580078125,0.12319207990467548,-0.04485185329983942,-0.020230389367020686
1761468788490176800,4.3311767578125,0.11780629521310329,-0.019061359287379308,-0.027118436414282767
1761468788500159700,4.34115966796875,0.1196013619363308,0.0053420220400148535,-0.039495760493632404
1761468788510142700,4.351142822265625,0.12708441116809843,0.027253853696445,-0.046542203839845024
1761468788520124700,4.361124755859375,0.12154957339465618,0.02884238782979082,-0.035267986730765546
1761468788530107600,4.371107666015625,0.128284434607625,0.028020061429124325,-0.008777970713400281
1761468788540091000,4.3810908203125,0.11017945359647273,0.008836516517202835,0.032959033934958276
1761468788550072600,4.391072509765625,0.1137713406085968,0.011323520160501357,0.06562192990097683
1761468788560055800,4.401055908203125,0.11257365525662898,-0.0014319130913063418,0.05661164826904423
1761468788570037500,4.41103759765625,0.11212415792346,-0.010539666031632805,0.04885942214049864
1761468788580020700,4.421020751953125,0.1214005203127861,-0.015044754331960574,0.0439129330484895
1761468788590003700,4.431003662109375,0.11122399421334266,-0.007000391697802115,0.030757459636917336
1761468788599985700,4.440985595703125,0.11451543697416781,-0.006122523159527918,0.02642880561572965
1761468788609968600,4.45096875,0.1221457857221365,-0.008996881010953802,0.027174217155552467
1761468788619951600,4.46095166015625,0.12588555677235125,-0.019900732720969243,0.018350813564960843
1761468788629933600,4.47093359375,0.1239402679234743,-0.026915570785943418,0.00001610631800722331
1761468788639916500,4.48091650390625,0.12558569704294203,-0.037664211384649385,0.0014663827581331134
1761468788649898800,4.490898681640625,0.11855214514434337,-0.04316885494922753,-0.00719598961842712
1761468788659881500,4.500881591796875,0.1270809040367603,-0.05418916122931987,-0.019162020349991506
1761468788669864700,4.51086474609375,0.11855097610056399,-0.05597320423503406,-0.02269529990951996
1761468788679846700,4.5208466796875,0.11046996097564697,-0.041061909265234134,-0.018708070603990927
1761468788689829600,4.53082958984375,0.13112170386016367,-0.02721023375042714,-0.01917878882170189
1761468788699811600,4.5408115234375,0.12708265760242937,-0.000054202560708654346,-0.03930679552648216
1761468788709794800,4.550794921875,0.10613397759795189,0.02325984530696878,-0.03918325591178145
1761468788719777500,4.560777587890625,0.12319500251412391,0.02715666779913008,-0.037107796778017656
1761468788729759700,4.570759765625,0.14504384622871874,0.04519688104495872,-0.007796974019147455
1761468788739742700,4.58074267578125,0.10987959386706352,0.0364207369624637,0.029457464687945318
1761468788749725700,4.5907255859375,0.11721242097318171,0.03125093082584208,0.05588350752443075
1761468788759708700,4.600708740234375,0.10015431866645813,0.028305262445518745,0.06290626403437927
1761468788769691600,4.610691650390625,0.11631459535062312,0.011139487096795346,0.05532790576855186
1761468788779673600,4.620673583984375,0.12424480382800102,0.0017441174207022412,0.02706550521722529
1761468788789656600,4.630656494140625,0.10598784712553024,-0.012010527460416778,0.012917454271460883
1761468788799639800,4.640639892578125,0.12409458170235156,-0.023660114937240722,0.00009045019585173577
1761468788809621500,4.65062158203125,0.12005436640083789,-0.029816100833308882,0.0044745104989735406
1761468788819604700,4.660604736328125,0.11062661284208297,-0.029315364219958426,0.010473892477666958
1761468788829586700,4.670586669921875,0.1309773269534111,-0.030982642128341828,0.010205998789099975
1761468788839569700,4.680569580078125,0.10254676676094532,-0.03389566633109935,0.00738419196717441
1761468788849552600,4.690552734375,0.11062719736397265,-0.022906195863976606,0.02084322860231623
1761468788859534800,4.700534912109375,0.11691197672188282,-0.01552789592311601,0.035493123556417414
1761468788869517800,4.710517822265625,0.11421791533231734,-0.027978539825358893,0.035528797657997345
1761468788879500500,4.72050048828125,0.13187456805408,-0.007914832811732777,0.01677110205888748
1761468788889482800,4.730482666015625,0.12259645209908485,0.003913948013131449,0.003324317550542764
1761468788899465700,4.7404658203125,0.11451543697416781,-0.00042562983169191284,-0.012631189242564142
1761468788909447700,4.75044775390625,0.12334464011788368,-0.004516777881888265,-0.041915594351966866
1761468788919430700,4.7604306640625,0.13022855441272257,0.002085303818109969,-0.03411159693698864
1761468788929414000,4.770413818359375,0.11137480086088179,-0.011170011240866733,-0.01089820057065226
1761468788939395600,4.7803955078125,0.11676292364001273,-0.020471516062959563,-0.0031448008317500353
1761468788949378800,4.79037890625,0.11362053396105766,-0.02028485036746133,0.03857571847268846
1761468788959361800,4.80036181640625,0.10748597672879695,-0.02506051750378683,0.04220525691434741
1761468788969343700,4.81034375,0.12319792512357235,-0.01975957981776446,0.04799627967225387
1761468788979326700,4.82032666015625,0.11885785009264946,-0.012284180744556943,0.06111690096615348
1761468788989308700,4.83030859375,0.11930559386014937,-0.007724445355765055,0.05379382350249216
1761468788999291600,4.840291748046875,0.10793196693062782,-0.00007557171630614902,0.04423647048100829
1761468789009274600,4.850274658203125,0.12139818222522734,-0.010812563547235914,0.021471027944725937
1761468789019256600,4.860256591796875,0.11256839455962181,-0.003131531214456481,-0.005838017404521815
1761468789029239600,4.870239501953125,0.11541092450916766,-0.007885868153796764,-0.034300379241048354
1761468789039222800,4.880222900390625,0.12438918073475361,-0.004046589957961987,-0.05761538651806768
1761468789049204500,4.89020458984375,0.1309732353001833,-0.015656795557879376,-0.05283843617353123
1761468789059187700,4.900187744140625,0.1273825173318386,0.003122876694309525,-0.03791329990804661
1761468789069169700,4.910169677734375,0.13247078038156032,0.003478241743297258,-0.03496075654565357
1761468789079152600,4.920152587890625,0.1290302845388651,0.014006596648460254,-0.030434794420655813
1761468789089135600,4.930135498046875,0.12469196307361126,0.03155894189566606,-0.008598682323470712
1761468789099117800,4.940117919921875,0.11646306391060351,0.0351768994973856,0.03635293242326006
1761468789109100500,4.9501005859375,0.11900631865262984,0.03654608037518337,0.05673373571217526
1761468789119082800,4.960082763671875,0.09671090021431446,0.02472798848063685,0.05349535201257095
1761468789129065700,4.970065673828125,0.1360661745250225,0.011853686081024353,0.027821794344088994
1761468789139048700,4.980048583984375,0.1194569850295782,0.018571447745431215,0.02223164618683513
1761468789149030700,4.99003076171875,0.11227438004910945,0.008339483398012817,0.019530150409485213
1761468789159013600,5.000013671875,0.12349778485298156,-0.0005172544941335217,0.02837672024653293
1761468789168996600,5.00999658203125,0.1311287181228399,-0.03181862259502522,0.03264073893313762
1761468789178978600,5.019978515625,0.11287234594225883,-0.043443009415222326,0.026695137534872626
1761468789188961800,5.0299619140625,0.1291822602301836,-0.05692130330668296,0.03861357539820019
1761468789198943500,5.039943603515625,0.11406769320666789,-0.07305919462910387,0.029874164863210168
1761468789208926700,5.0499267578125,0.11705986075997352,-0.08081047090957873,0.015093094977224246
1761468789218909700,5.05990966796875,0.13187281448841096,-0.07141419933447614,-0.013682013469748198
1761468789228891600,5.0698916015625,0.11960253098011016,-0.05288122500248719,-0.0445481622121064
1761468789238874600,5.07987451171875,0.12947919735014438,-0.020386627958214373,-0.055064907450811
1761468789248857900,5.08985791015625,0.12124912914335727,0.003482178132898116,-0.03415064573916606
1761468789258839600,5.099839599609375,0.12573825725615023,0.020898644017404877,0.0007610977327218278
1761468789268822800,5.10982275390625,0.10478957725167273,0.02859756677284604,0.020384972573956474
1761468789278804700,5.1198046875,0.11735855144560337,0.026336871282267384,0.010499990466726013
1761468789288787700,5.12978759765625,0.13082593578398227,0.0058199103548511625,-0.007855353142879903
1761468789298770700,5.139770751953125,0.11272037025094031,-0.015271265697368653,0.00019965989110060035
1761468789308753000,5.1497529296875,0.11930442481637,-0.021833235153509302,0.00881517461836338
1761468789318736100,5.159736083984375,0.11691022315621376,-0.030025964741304048,0.014147397925215773
1761468789328718800,5.16971875,0.11810732398629188,-0.024180028891807887,0.0025284955643117427
1761468789338701000,5.179701171875,0.11750877357125282,-0.009122371695790206,0.015727123131020926
1761468789348684000,5.18968408203125,0.11047522167265414,-0.0035180768529971826,0.0259196916163899
1761468789358666000,5.199666015625,0.10269406627714633,0.0011005110138015879,0.026252430702093987
1761468789368649000,5.20964892578125,0.11272037025094031,-0.0015265890835929894,0.02672713097517844
1761468789378632200,5.219632080078125,0.12095102297961711,-0.0010560356907801179,0.03206932768677361
1761468789388614000,5.22961376953125,0.10643617541491984,-0.01392074385426822,0.026589873362379148
1761468789398597000,5.23959716796875,0.11182254462838172,-0.019989637130417393,0.00837689736553002
1761468789408580000,5.249580078125,0.12050211016833781,-0.01679589857342653,-0.019262996506434864
1761468789418562000,5.25956201171875,0.12199848620593547,-0.010359056759229861,-0.02450491118133068
1761468789428545000,5.269544921875,0.11317045210599899,-0.006663763029914116,-0.004367100035166368
1761468789438527000,5.27952685546875,0.1130213990241289,0.006925926805660128,0.009944612473133019
1761468789448510000,5.289510009765625,0.12409458170235156,0.0156057800399838,0.003791560602956451
1761468789458493000,5.299492919921875,0.12140110483467578,0.018968305000843247,0.004835617162636481
1761468789468475000,5.309474853515625,0.12379647553861141,0.0354651350043714,-0.008206847161403857
1761468789478457900,5.319457763671875,0.11616495774686336,0.030283987773116677,-0.013365718628768808
1761468789488441000,5.329441162109375,0.12694003426134587,0.015686553658614866,0.009201182827842422
1761468789498422800,5.3394228515625,0.11960837619900702,0.006230832097411621,0.038539126489078625
1761468789508406000,5.349406005859375,0.11182722080349922,-0.008840293076599483,0.05092957947805989
1761468789518388000,5.359387939453125,0.11661445508003235,-0.024408812129404395,0.0556415656944504
1761468789528371200,5.36937109375,0.09940554612576961,-0.045307679909095164,0.04055796919793356
1761468789538354000,5.37935400390625,0.11377017156481742,-0.0494324636549456,0.004211909473454579
1761468789548336000,5.389336181640625,0.12454407903552055,-0.04493986494343262,-0.022404043611674567
1761468789558319000,5.399319091796875,0.1178103868663311,-0.04327481324146502,-0.015747590530314482
1761468789568301800,5.4093017578125,0.11317220567166805,-0.03391720915933838,-0.0045262635190971194
1761468789578284000,5.419283935546875,0.1190080722182989,-0.03948313390749972,0.000993906408175826
1761468789588267000,5.42926708984375,0.11362111848294734,-0.017954546539660075,0.006280208214069717
1761468789598249000,5.4392490234375,0.12364683793485164,0.0005134289867368352,0.00308974617626518
1761468789608232000,5.44923193359375,0.12589198651313782,0.0064600874049327095,0.011823516988335177
1761468789618215200,5.459215087890625,0.11437047554552554,0.009536352474294836,0.015655921058333477
1761468789628196900,5.46919677734375,0.11107786374092102,0.014242202352487947,0.022873990077828057
1761468789638180000,5.47918017578125,0.11137713894844055,0.020609792022488544,0.026527005293196997
1761468789648163000,5.4891630859375,0.1059896006911993,0.039190840996615586,0.021096349413436837
1761468789658145000,5.49914501953125,0.11302315258979796,0.037615305625449395,0.013179210480186157
1761468789668128000,5.5091279296875,0.12409633526802062,0.02616543968851911,0.00808875090680085
1761468789678110000,5.51910986328125,0.11601532014310359,0.01808416084376513,-0.0007270904318429529
1761468789688093000,5.529093017578125,0.10898176824450492,0.006285203478773474,-0.0053967262106947595
1761468789698076000,5.539075927734375,0.13307459149360656,-0.00913793801603606,-0.014143319971719756
1761468789708057900,5.549057861328125,0.12334873177111148,-0.029400304840342138,-0.009130181684554555
1761468789718040800,5.559040771484375,0.11526888568997383,-0.04172109469317365,0.006065008260542526
1761468789728024000,5.569024169921875,0.10778642098009586,-0.04841758295740001,0.01764677978171967
1761468789738005800,5.579005859375,0.1215530805259943,-0.04432271485920064,0.02068654020326212
1761468789747989000,5.588989013671875,0.09746084179878234,-0.0380643851167988,0.011818913878453895
1761468789757972000,5.598971923828125,0.12035539517402648,-0.018358980888396034,0.011093723142752423
1761468789767954000,5.608953857421875,0.11377075608670711,-0.0071677630335412685,0.000340264805033803
1761468789777937000,5.61893701171875,0.11646306391060351,-0.0009072510380297899,-0.005041131405788474
1761468789787919000,5.628919189453125,0.11960486906766891,0.0045351238206319975,-0.008099610227532684
1761468789797901800,5.63890185546875,0.11870645892322063,0.009195968367430031,-0.007335608151671476
1761468789807885000,5.648885009765625,0.13067746722400186,0.00554001627205871,-0.006373325291043147
1761468789817867000,5.658866943359375,0.12334580916166304,-0.006405354693144909,-0.010373688072781079
1761468789827850000,5.66885009765625,0.11975567571520805,-0.016095990692742635,0.004019373442884534
1761468789837833000,5.6788330078125,0.13142740880846976,-0.019072081610793247,0.029545814258255993
1761468789847815000,5.68881494140625,0.10015256510078907,-0.03919350787773728,0.05661244285348802
1761468789857798000,5.6987978515625,0.11212357340157031,-0.06212197265573777,0.0460284227985423
1761468789867780000,5.708780029296875,0.12858254077136516,-0.060590032114414494,0.02027096340600401
1761468789877763000,5.71876318359375,0.1276841306269169,-0.061761724508600305,0.0022115522693609817
1761468789887746000,5.72874609375,0.11302022998034954,-0.05177388938167132,-0.002777570387977175
1761468789897728000,5.73872802734375,0.13037760749459265,-0.04289496991129126,-0.008694406916061416
1761468789907711000,5.7487109375,0.11586275992989539,-0.03765681581277167,0.0014053321867017075
1761468789917694200,5.758694091796875,0.11526420951485633,-0.01203240479044034,0.01420500073081348
1761468789927676000,5.768676025390625,0.12289572730660438,0.014092924366687656,0.013980000902479514
1761468789937659100,5.7786591796875,0.11616086609363556,0.010011051605734974,0.0011724047802388667
1761468789947640800,5.788640869140625,0.11047463715076446,0.029967756864218972,-0.019439846344105897
1761468789957624000,5.7986240234375,0.13082593578398227,0.047191607659286816,-0.011485558304819277
1761468789967607000,5.80860693359375,0.11481471218168735,0.040626097964122886,0.011393829467333853
1761468789977589000,5.818589111328125,0.11002630886137485,0.023215168198314495,0.03530166067150421
1761468789987572000,5.828572021484375,0.12154781982898712,0.0043785906852048355,0.04682540012882091
1761468789997555000,5.838554931640625,0.10658289040923118,-0.018539667792612454,0.04726258596968837
1761468790007537000,5.848536865234375,0.10987433317005633,-0.03519121571710566,0.03003548377160914
1761468790017519900,5.858519775390625,0.11915128008127211,-0.04290069183260202,0.0036406717570265754
1761468790027502000,5.868502197265625,0.12857786459624768,-0.03528132798623992,-0.00947014966206625
1761468790037484800,5.87848486328125,0.11870178274810314,-0.016818616153666515,-0.007734448443260044
1761468790047468000,5.888468017578125,0.1192997486412525,0.0022829357207891005,-0.009104855447052978
1761468790057450000,5.898449951171875,0.12438801169097423,0.022879709715850183,-0.0005324355094227939
1761468790067433000,5.908432861328125,0.11181786845326423,0.032503052062075585,-0.0002647381836781278
1761468790077416000,5.918416015625,0.11466039840281009,0.03965057202943135,0.0018285169016802683
1761468790087398100,5.928398193359375,0.11780337260365485,0.019724097512429577,0.00903493201599922
1761468790097380900,5.938380859375,0.10702946513295172,0.016574649046669946,0.00535364055421669
1761468790107363000,5.948363037109375,0.10852642569243907,0.0017763894222211092,0.00875853079399094
1761468790117346000,5.958345947265625,0.12274141352772712,-0.021951765232952312,0.024259165392490102
1761468790127328800,5.968328857421875,0.11286533167958258,-0.03682078054716112,0.030234586540283635
1761468790137311000,5.97831103515625,0.11346271305084228,-0.04836222234123852,0.022679604583466424
1761468790147294000,5.9882939453125,0.11705343101918697,-0.06102988940298091,-0.0033550688818329943
1761468790157277000,5.99827685546875,0.11884966678619384,-0.061917851218651045,-0.022287139233737253
1761468790167259000,6.0082587890625,0.10882394733428954,-0.06060030234667938,-0.015729484051465986
1761468790177242000,6.0182421875,0.11211655913889408,-0.0486170327859465,-0.011098677879082969
1761468790187223800,6.028223876953125,0.12782792301177978,-0.019538249234261455,0.005472914985753596
1761468790197207000,6.03820703125,0.10418518161773681,0.0022937072776141577,0.015010951385414226
1761468790207190000,6.04818994140625,0.11944880172312258,0.028283527821034656,0.0015212227844865992
1761468790217172000,6.058171875,0.12648176909983158,0.03452068919453304,-0.004679878611653112
1761468790227155000,6.068155029296875,0.11855156062245369,0.03878171220645308,-0.0072894446221180255
1761468790237138000,6.078137939453125,0.11690554698109626,0.044467895483551546,0.00692452029986307
1761468790247120000,6.088119873046875,0.11870061370432376,0.02253566378484247,0.03016382285901345
1761468790257102800,6.098102783203125,0.11406243250966071,0.0111465241923579,0.038286832228442653
1761468790267085000,6.1080849609375,0.11002280173003673,0.005285581999152782,0.0388051981133176
1761468790277067800,6.11806787109375,0.1192997486412525,-0.007802708498545689,0.03382934592950623
1761468790287051000,6.128051025390625,0.11944880172312258,-0.025543711610580794,0.029331559586222283
1761468790297033000,6.138032958984375,0.12139350605010986,-0.031186133377766236,0.034942467403714546
1761468790307016000,6.148015869140625,0.1047825629889965,-0.048906850611953996,0.030477528450684622
1761468790316999200,6.157999267578125,0.11420856298208236,-0.04817323910777922,0.009709305879916063
1761468790326981000,6.167981201171875,0.11959493219554423,-0.03579856820981949,0.0019370735763804985
1761468790336964000,6.177964111328125,0.12812369108796118,-0.03303404681637184,0.012851768624107352
1761468790346947000,6.187947021484375,0.10881985568106174,-0.01202719090085011,0.007849571856064722
1761468790356929300,6.19792919921875,0.12737433402538298,-0.000829356575010388,0.016741455839294938
1761468790366912000,6.207912109375,0.12662556148469448,0.009590580579295056,0.0015881140082376077
1761468790376894200,6.217894287109375,0.1257271513402462,0.028944533030013552,-0.004108216203539632
1761468790386877200,6.227877197265625,0.12512801640331744,0.027235886498203035,-0.040380046214605676
1761468790396860200,6.237860107421875,0.13291034084260464,0.02112405712098116,-0.07764684664634987
1761468790406842000,6.247842041015625,0.13380992003083228,0.015546421385428402,-0.08408818653915077
1761468790416825300,6.257825439453125,0.11854980705678463,0.0007496498943452024,-0.06134861822964158
1761468790426808000,6.26780810546875,0.12348960154652595,-0.01578675235527917,0.0019667015296639875
1761468790436790300,6.277790283203125,0.1136146887421608,-0.030801796535565515,0.06185198747478425
1761468790446773200,6.287773193359375,0.10269055914580821,-0.04397634454036597,0.11188300611134618
1761468790456755200,6.297755126953125,0.11062076762318611,-0.05521540357109624,0.10741059167133643
1761468790466738200,6.30773828125,0.12348843250274658,-0.047861474311444906,0.08344632670534774
1761468790476721400,6.317721435546875,0.11166530824005604,-0.0523708506278228,0.061845101076271385
1761468790486703000,6.327703125,0.11585340757966041,-0.04345336184587795,0.040970952179306186
1761468790496686300,6.337686279296875,0.12318389659821986,-0.012841875134466682,0.02896631103698164
1761468790506669300,6.34766943359375,0.11719722340404987,0.0034568333436764075,0.02120278262970969
1761468790516651300,6.3576513671875,0.11315467001497745,0.020269419902889056,0.018612154215155167
1761468790526634200,6.36763427734375,0.12018588382601737,0.014134886645158985,-0.0039027019603876394
1761468790536616200,6.3776162109375,0.11434884823560713,0.031139433275384362,-0.03283633913705125
1761468790546599200,6.38759912109375,0.13679448879957198,0.02189247736034449,-0.07985003751274197
1761468790556582100,6.39758203125,0.13380290576815604,0.005256718947560876,-0.09670271690785884
1761468790566564000,6.407564208984375,0.1306628541767597,0.012253502478502922,-0.07437084348325151
1761468790576547000,6.417547119140625,0.12303308995068073,0.00016729855591402155,-0.03210972819582093
1761468790586530300,6.4275302734375,0.11675064868032932,-0.0015913265953422524,0.020127865140885114
1761468790596512000,6.437511962890625,0.11615326730906962,-0.0037510870286729184,0.05350769090433605
1761468790606495200,6.4474951171875,0.11121581090688705,-0.008289913772643194,0.07359264391867909
1761468790616477200,6.457477294921875,0.11675298676788806,-0.020334763056947848,0.07689800104042514
1761468790626460200,6.467460205078125,0.11750000574290752,-0.01922477653803071,0.08324116865522228
1761468790636443100,6.477443115234375,0.1119628298819065,-0.023276531580288428,0.0722264975314727
1761468790646425300,6.48742529296875,0.10552665935456752,-0.027312098106148184,0.06611520701036788
1761468790656408000,6.497407958984375,0.10777005436718463,-0.02958948671991238,0.04512937789985444
1761468790666391000,6.50739111328125,0.11240765103995799,-0.025710309482295995,0.019490818479517474
1761468790676373200,6.517373291015625,0.1159971999645233,-0.01627275034051272,-0.03425913848178461
1761468790686356000,6.52735595703125,0.12093524088859557,-0.02262084186724387,-0.056515393953491
1761468790696338200,6.537338134765625,0.12707096716463565,-0.017156397882313466,-0.05918877331463154
1761468790706321200,6.547321044921875,0.1290168405354023,-0.006307103641683352,-0.0427459761949256
1761468790716304400,6.557304443359375,0.12752104901969433,-0.005697144204174401,-0.020720807799044994
1761468790726286000,6.5672861328125,0.1204892506867647,-0.008199295755077036,0.0008141933265607803
1761468790736269300,6.577269287109375,0.11196049179434775,-0.008121493836599984,0.012213087128079496
1761468790746252300,6.587252197265625,0.12423077530264853,-0.010052403104497351,0.033745900863176206
1761468790756234200,6.597234130859375,0.11689736367464065,-0.01138463923059171,0.02989568714185152
1761468790766217200,6.60721728515625,0.10462708016633987,-0.018421452807000603,0.02744344885125756
1761468790776200200,6.6172001953125,0.12512684735953808,-0.02882865156538319,0.029314265958126633
1761468790786182100,6.62718212890625,0.11929098081290722,-0.010108946464170003,0.030976454416150226
1761468790796165000,6.6371650390625,0.12078677232861518,-0.0011511006983673723,0.04815620120801031
1761468790806147000,6.64714697265625,0.11016250246167182,0.0015059390212089055,0.06481010206143838
1761468790816130000,6.657130126953125,0.11225567534863948,0.006932997008907841,0.047733377252635545
1761468790826113300,6.66711328125,0.12497370262444019,0.017722314394585555,0.016661650335043666
1761468790836095000,6.677094970703125,0.12482348049879073,0.02605404031947255,-0.011585465882183052
1761468790846078200,6.687078125,0.13260405137240885,0.02901289012506604,-0.03589294566211756
1761468790856061200,6.697061279296875,0.12482348049879073,0.02269219235369237,-0.031934225498442534
1761468790866043100,6.707043212890625,0.13828969579339026,0.022095432036940473,-0.020419591796188612
1761468790876026000,6.717026123046875,0.1302092651903629,0.018899539197125705,-0.01872554232859984
1761468790886008300,6.72700830078125,0.12003449265658855,0.014042614384979241,-0.013940595907275564
1761468790895991000,6.736990966796875,0.12946166169345377,-0.0034785973655016276,-0.0072212199578061695
1761468790905974300,6.746974365234375,0.10567045173943042,-0.010380702335457317,0.0037830256700515743
1761468790915956200,6.756956298828125,0.12931436217725276,-0.012563638148398603,0.008379171521007082
1761468790925939200,6.766939208984375,0.09774082778394222,-0.02273122060627211,0.04034638140702154
1761468790935922200,6.776922119140625,0.1139016889899969,-0.02358944030422717,0.0631550054979045
1761468790945904000,6.786904052734375,0.11090776787102222,-0.017299324900784993,0.07083970564845948
1761468790955887000,6.79688720703125,0.11000760416090488,-0.03171792043321766,0.05919250420825556
1761468790965869300,6.806869384765625,0.11090367621779441,-0.021657200449879746,0.014059377148468047
1761468790975852300,6.816852294921875,0.13514496802687645,-0.019356933284027034,-0.02720576307128649
1761468790985835000,6.8268349609375,0.12975859881341456,-0.006166619742047624,-0.04911626471208874
1761468790995817200,6.836817138671875,0.13245324472486972,-0.003768750549526885,-0.03914509759217035
1761468791005800200,6.84680029296875,0.09773848969638348,0.012645438105269568,-0.021669925217423586
1761468791015783200,6.856783203125,0.1261708034545183,0.002704717783020169,-0.0013473777546547353
1761468791025765000,6.86676513671875,0.13350304603874683,-0.0040497805684135526,0.026057282589329406
1761468791035748400,6.876748291015625,0.10956161395907402,-0.00031540207512443884,0.03295594692872837
1761468791045731000,6.88673095703125,0.12587211276888846,-0.022160099337564316,0.04089607401192188
1761468791055713300,6.89671337890625,0.11180559349358081,-0.01800009928950458,0.03638102600658312
1761468791065696300,6.9066962890625,0.1140501575499773,-0.01773361210673465,0.02876065522993449
1761468791075678200,6.91667822265625,0.1218313129454851,-0.01817382216339465,0.03189543242459185
1761468791085661200,6.9266611328125,0.11853870114088058,-0.00153271257829183,0.038426715623168274
1761468791095644200,6.93664404296875,0.11943711128532886,-0.008974525331961922,0.038325346741080284
1761468791105626000,6.946626220703125,0.13125906650424002,0.007851908801979153,0.028554446867038494
1761468791115609000,6.956609130859375,0.1258715282469988,0.004395142529906297,0.015791146544250657
1761468791125592300,6.96659228515625,0.10926175422966479,-0.003484965172084048,0.010702358338143677
1761468791135574000,6.976573974609375,0.12272855404615401,-0.009161678509582999,-0.005688827325333841
1761468791145557200,6.98655712890625,0.1258709437251091,-0.005241474000189919,-0.0176584702195134
1761468791155539200,6.996539306640625,0.13350187699496746,-0.0187747209407913,-0.026238278879155405
1761468791165522200,7.006522216796875,0.13709317948520183,-0.036281330775062084,-0.03591228511682711
1761468791175505200,7.016505126953125,0.12811609230339527,-0.0358418228296563,-0.03169010084453039
1761468791185487400,7.0264873046875,0.12213175719678401,-0.03160825864681974,-0.00007897438718937337
1761468791195470000,7.036469970703125,0.1139016889899969,-0.014589618417515885,0.033089332084008494
1761468791205453000,7.046453125,0.11958733341097831,-0.008471509996557143,0.04837082120622508
1761468791215435300,7.056435302734375,0.11689385654330253,0.002215786628128262,0.04089735265355557
1761468791225418000,7.06641796875,0.12183248198926448,0.006389565181435318,0.028909516515559515
1761468791235401200,7.076401123046875,0.11240531295239925,0.014814525772660271,0.023516886524669826
1761468791245383200,7.086383056640625,0.10656944640576839,0.013323991529026533,0.033002640181244346
1761468791255366100,7.0963662109375,0.12078501876294612,0.01516018256379757,0.03811001435681246
1761468791265348000,7.10634814453125,0.11913842059969901,0.015507154529186664,0.04956926004344132
1761468791275331300,7.116331298828125,0.11644377468824386,0.006794966502906754,0.0218800380038796
1761468791285314000,7.12631396484375,0.11404898850619792,0.0025193127482576526,-0.005801891211792826
1761468791295296300,7.136296142578125,0.12601941228508948,-0.007072469411679776,-0.02338338263838086
1761468791305279200,7.146279296875,0.12407529247999191,-0.017169663789262993,-0.03328158955336548
1761468791315262000,7.156261962890625,0.11524667385816574,-0.025186705733300185,-0.02047311208171304
1761468791325244000,7.166243896484375,0.12467384289503097,-0.021856093156000133,-0.0011377170593477785
1761468791335227000,7.176226806640625,0.12048398998975753,-0.034736624366999605,0.013957327846367842
1761468791345208800,7.186208740234375,0.11315174740552901,-0.02466368422290543,0.037166984185925685
1761468791355192000,7.196192138671875,0.12347615754306315,-0.024014714228303636,0.04396822516599204
1761468791365174800,7.2061748046875,0.10611761098504066,-0.016311974955914774,0.02762752301415894
1761468791375157000,7.216156982421875,0.12706687551140786,-0.015230745315668173,0.006926826421380974
1761468791385140000,7.226139892578125,0.1315560036242008,-0.0035957526197773404,-0.011364575973385945
1761468791395122700,7.236122802734375,0.12063245854973792,0.005844558455629157,-0.006152850940776988
1761468791405105000,7.24610498046875,0.11300094075798987,0.00470771789370483,0.022729604037920945
1761468791415087900,7.256087890625,0.11359890665113925,-0.0022775584333561707,0.029113948479900134
1761468791425070800,7.26607080078125,0.11748889982700347,0.007991037569812032,0.025783237721188925
1761468791435052800,7.276052734375,0.12676643126010895,0.0018821895967208546,0.00918007610773202
1761468791445036000,7.2860361328125,0.11449614775180816,0.007432096504309447,-0.004501635967916809
1761468791455017700,7.296017822265625,0.13050854039788246,0.008654983083726255,-0.009814350856700911
1761468791465001000,7.3060009765625,0.12811550778150557,0.0015475707936508114,-0.0077472165932878844
1761468791474984000,7.31598388671875,0.11479834556877612,-0.010568409210571552,0.0021636351741384716
1761468791484966000,7.3259658203125,0.10432429782748222,-0.0015876642003771848,0.0069979873948730524
1761468791494948900,7.335948974609375,0.1296136373847723,-0.005061101618982502,0.022836224483861585
1761468791504931800,7.345931884765625,0.10926292327344417,-0.006600799062609439,0.02612343859414104
1761468791514913800,7.355913818359375,0.10911387019157409,-0.0048394839119340755,0.03216104739110451
1761468791524896800,7.365896728515625,0.12033610595166683,0.006937652634427649,0.03741178469327278
1761468791534879000,7.37587890625,0.12198095054924488,0.018517317821842152,0.04707363470226992
1761468791544861700,7.38586181640625,0.11793956620395182,0.016588631906249793,0.03658686904329806
1761468791554845000,7.395844970703125,0.12287643808424473,0.008089454730521538,0.01214555201693438
1761468791564827000,7.405826904296875,0.11270049650669098,-0.0013528819073122577,-0.026157222132734022
1761468791574809900,7.415809814453125,0.13739128564894199,-0.012058439989062026,-0.0607110053126933
1761468791584792800,7.425792724609375,0.140384622246027,-0.03309966624835506,-0.04963637502947822
1761468791594775000,7.435775146484375,0.11255319699048995,-0.03134188106190413,-0.027363994973455555
1761468791604757800,7.4457578125,0.11255495055615901,-0.03671819238894386,-0.006817411230155266
1761468791614740700,7.45574072265625,0.11704583223462105,-0.049203997794468886,0.02505958135544788
1761468791624723000,7.465722900390625,0.10956512109041214,-0.03836582944851834,0.04622009117943234
1761468791634705700,7.47570556640625,0.13141162671744822,-0.02259460231428966,0.041433939181710594
1761468791644688000,7.48568798828125,0.11345511426627636,-0.009247261875716502,0.05056467798869125
1761468791654670800,7.4956708984375,0.124528296944499,-0.0006970052500109886,0.04963464886327274
1761468791664653800,7.50565380859375,0.12692191408276557,0.00945056018725154,0.04254987823409028
1761468791674635800,7.5156357421875,0.11360241378247737,0.02445877961781807,0.050501924083940684
1761468791684619000,7.525618896484375,0.12018646834790706,0.01787711793887429,0.047598727155453525
1761468791694601700,7.535601806640625,0.12108312492668628,0.02216095557080116,0.03670947707623709
1761468791704584000,7.545583984375,0.123774848228693,0.0263568226583302,0.023436692861351183
1761468791714567000,7.55556689453125,0.11748831530511379,0.023029034509067424,0.003068548124609515
1761468791724548900,7.565548828125,0.1192827975064516,0.00657503100875765,-0.012419738448970019
1761468791734531800,7.57553173828125,0.12646481796503067,0.004054299196615466,-0.026149984107771886
1761468791744514800,7.585514892578125,0.11314648670852184,-0.016657388576812808,-0.020348544987128115
1761468791754496800,7.595496826171875,0.11868366256952285,-0.024337447943224105,-0.024348948868061413
1761468791764480000,7.60547998046875,0.12092881114780903,-0.03625742930966662,-0.017968992906832137
1761468791774463000,7.615462890625,0.12766308783888816,-0.027389357743575236,-0.006286615121969953
1761468791784445000,7.62544482421875,0.13110533724725246,-0.028605740946147123,-0.0010999925645766779
1761468791794428000,7.635427978515625,0.12691489982008933,-0.012782866964716231,0.017811660620383918
1761468791804411000,7.645410888671875,0.11988193244338034,-0.00411898476354836,0.03126097044595517
1761468791814392800,7.655392822265625,0.12347440397739409,-0.00011041926740144844,0.029010067980317397
1761468791824375800,7.665375732421875,0.10596680433750152,0.013553777130332309,0.03551477369922213
1761468791834357800,7.675357666015625,0.10387129336297511,0.016268803676113018,0.04714877773113548
1761468791844340700,7.6853408203125,0.12063187402784824,0.02808822901122039,0.028448926966218275
1761468791854324000,7.695323974609375,0.12736556619703768,0.028787593469209966,0.00966042067031376
1761468791864305700,7.7053056640625,0.12003390813469886,0.03350597289376892,0.009891379881976171
1761468791874289000,7.715288818359375,0.1281143387377262,0.023799069033493287,0.0145756835069973
1761468791884271900,7.72527197265625,0.1269166533857584,0.0076286813764454555,0.017439434341085143
1761468791894254000,7.735254150390625,0.11105448286533355,-0.010488225822051753,0.019625518809049388
1761468791904236800,7.74523681640625,0.10925941614210605,-0.006788791348802624,0.007245600913814269
1761468791914219000,7.755218994140625,0.13006021210849283,-0.031020601801841984,-0.006860816547041759
1761468791924202000,7.765201904296875,0.11210428417921066,-0.05040929563073441,-0.004367360330070368
1761468791934184700,7.775184814453125,0.11345160713493824,-0.06468542080242186,0.004868007895164192
1761468791944167000,7.7851669921875,0.11943711128532886,-0.06025483621014282,0.017408043688978067
1761468791954150000,7.79514990234375,0.12392623939812182,-0.05679021513976622,0.02447045178930275
1761468791964132900,7.8051328125,0.12332710446119308,-0.046944729359284974,0.015262912285909987
1761468791974114800,7.81511474609375,0.11345102261304854,-0.025210312654462178,0.017405965896323324
1761468791984098000,7.82509814453125,0.11075754574537276,-0.0033482481278682822,0.011121378334658219
1761468791994080800,7.835080810546875,0.11943711128532886,-0.002091585430546547,0.008088732640491798
1761468792004063000,7.84506298828125,0.11824001045525073,0.016450446136621756,0.025779223699774593
1761468792014046000,7.8550458984375,0.11494681412875651,0.03269234810607741,0.041621310413395986
1761468792024028000,7.86502783203125,0.11434767919182777,0.038561265255650505,0.043741270842589434
1761468792034011000,7.875010986328125,0.12362462610304355,0.03723986904233461,0.029796523916581642
1761468792043993900,7.884993896484375,0.12212825006544589,0.022297320417745504,-0.0022092918136157095
1761468792053975800,7.894975830078125,0.11584288618564605,0.012070909028279128,-0.00727330633806996
1761468792063958800,7.904958740234375,0.1225771628767252,0.003567863390786806,-0.01133287022744771
1761468792073942000,7.91494189453125,0.12093114923536777,-0.009874723291408736,-0.01541990664564073
1761468792083923700,7.924923828125,0.11913549799025058,-0.014012130198458907,-0.014873406078247352
1761468792093907000,7.934906982421875,0.12272738500237464,-0.016030464875593314,-0.01359644951156806
1761468792103890000,7.944889892578125,0.11973521744906902,-0.024787801509629934,-0.0030912896793801334
1761468792113872000,7.954871826171875,0.11853870114088058,-0.036323694912332574,-0.001102015558304265
1761468792123854800,7.964854736328125,0.11614449948072433,-0.030960727124055846,0.027683449885901063
1761468792133836800,7.9748369140625,0.11030863293409347,-0.022133247863256836,0.03409360462257173
1761468792143819800,7.98481982421875,0.1133002159655094,-0.013732669369684298,0.03590220211423002
1761468792153802800,7.994802734375,0.10716448968946933,-0.014977737527334828,0.03466887919330038
1761468792163784700,8.00478466796875,0.12272738500237464,-0.011474675009556812,0.01999634771570563
1761468792173767000,8.014766845703125,0.11225216821730136,-0.01229915683469153,0.010338648725440725
1761468792183750000,8.02475,0.10761281797885894,0.00416230103217822,0.01720417341364082
1761468792193731800,8.03473193359375,0.1165904896825552,0.00809141379216744,0.0127597703585634
1761468792203714800,8.04471484375,0.11793722811639308,0.012707364317891188,0.011100965734291821
1761468792213697800,8.05469775390625,0.11928396655023098,0.004996101529040607,0.006983415446826256
1761468792223679700,8.0646796875,0.11075403861403464,0.006955179728785879,0.005210291127348318
1761468792233662700,8.074662841796876,0.11329846239984034,0.002536327815140248,0.026941577443457206
1761468792243646000,8.08464599609375,0.09608955344557761,-0.0023776792127959195,0.036038610343658364
1761468792253628000,8.0946279296875,0.1079109241425991,-0.013465178681560792,0.011853587899613193
1761468792263611000,8.10461083984375,0.12227496505975723,-0.006491558542964048,-0.013463845240999944
1761468792273592800,8.1145927734375,0.12736322810947895,-0.012763122226274572,-0.011865132206934503
1761468792283575800,8.124575927734375,0.1314034434109926,-0.026003337612119502,-0.014496567555912769
1761468792293558800,8.134558837890625,0.12257540931105614,-0.032903024864825416,-0.009570833557564764
1761468792303541000,8.144541015625,0.11479366939365863,-0.022740981665172147,0.008167026607668958
1761468792313523200,8.154523193359376,0.12452128268182278,-0.015560849486291408,0.009605914004100486
1761468792323506200,8.164506103515626,0.11883563826084136,-0.011604443435644497,0.007197807116177864
1761468792333488000,8.174488037109375,0.10013210683465003,0.004066033587715356,0.018844090674351898
1761468792343471400,8.184471435546875,0.11823825688958167,0.0018615754961327183,0.01975305417885538
1761468792353453000,8.194453125,0.12018354573845863,0.00778910352323437,0.030544195912149734
1761468792363436300,8.204436279296875,0.1191349134683609,0.00876735513372987,0.03756025781983044
1761468792373419300,8.214419189453125,0.11120353594720363,0.0052262039366440145,0.04142687012010719
1761468792383401200,8.224401123046874,0.11284896506667136,-0.0016964634744945214,0.03632102118134498
1761468792393384200,8.23438427734375,0.11988251696527004,0.007832296494278124,0.018247695683781057
1761468792403367200,8.2443671875,0.11778759051263332,-0.003392426908778725,0.006697890203446149
1761468792413349000,8.25434912109375,0.11524433577060698,-0.008055046712487818,-0.007890611685928889
1761468792423332000,8.26433203125,0.1251204176187515,-0.012779867865098639,0.003211934084095992
1761468792433315300,8.2743154296875,0.12227730314731597,-0.010883007568097673,0.013387884794804267
1761468792443297000,8.284297119140625,0.13035714922845362,-0.014695269607432419,0.023879591490374878
1761468792453280300,8.2942802734375,0.105667529129982,-0.01791645671870792,0.01957270177642349
1761468792463262200,8.30426220703125,0.13320143274366855,-0.019160273634188343,0.00800326914701145
1761468792473245200,8.3142451171875,0.12227847219109535,-0.014480799164623021,0.00475308084518183
1761468792483228200,8.324228271484374,0.11255202794671058,-0.0024480838469287847,0.00016116364477202297
1761468792493210000,8.334210205078126,0.1115057337641716,-0.009022714138531592,0.0027093502902425823
1761468792503193000,8.344193115234376,0.12257891644239426,-0.0070430132758658144,0.011709663084009662
1761468792513176300,8.35417626953125,0.11793898168206214,-0.0009346059774805325,0.016951673657028002
1761468792523158000,8.364157958984375,0.11434709466993809,0.005412208620083401,0.01541434455453418
1761468792533141200,8.374141357421875,0.12841361394524572,0.011917177488002926,0.010144952784245834
1761468792543124200,8.384124267578125,0.12542086187005042,0.011098201813403284,0.008710846594208852
1761468792553106200,8.394106201171875,0.11359949117302894,0.014372538175800581,0.009984254930354654
1761468792563089200,8.404089111328124,0.11928572011590004,0.011586753656971267,0.020227512423344886
1761468792573071400,8.4140712890625,0.12467384289503097,0.003950206351189991,0.012811162619083188
1761468792583054300,8.424054443359376,0.12153203773796557,0.005852572227903874,0.004638226860435679
1761468792593037000,8.434037109375,0.12048457451164722,0.0030410539045522453,0.016443874831940045
1761468792603019300,8.444019287109375,0.12168225986361503,-0.008223668719574926,0.03000323916955385
1761468792613002200,8.454002197265625,0.123178051379323,-0.018225373112474335,0.04147203356924001
1761468792622985200,8.463985107421875,0.11120645855665207,-0.022175568618043325,0.027074108648789112
1761468792632967200,8.47396728515625,0.11988543957471846,-0.014379160854476504,0.01156399840246886
1761468792642950400,8.483950439453125,0.12227964123487471,-0.012885798757872543,0.009039831953402609
1761468792652933000,8.49393310546875,0.11419979515373706,-0.016339747737185096,0.00250305972895585
1761468792662915300,8.503915283203124,0.11090659882724284,-0.007845683986347284,0.010460028349095955
1761468792672898300,8.513898193359376,0.12257774739861488,0.0015784442808828316,0.014892083379253743
1761468792682880300,8.52388037109375,0.12287760712802409,0.00702322915069526,0.0005657897897530347
1761468792692863200,8.53386328125,0.11659282777011394,0.016692709910299162,-0.0019434485182398928
1761468792702846200,8.54384619140625,0.12212941910922527,0.015744710161705734,0.0009034790452104062
1761468792712828200,8.553828125,0.11749123791456222,0.0027386260462546486,-0.006702356316009536
1761468792722811100,8.56381103515625,0.11838847901523113,0.00580257163180504,0.007747001964156516
1761468792732794400,8.57379443359375,0.11300094075798987,0.005067256794311106,0.013116885833698324
1761468792742776000,8.583776123046874,0.11764087551832199,0.005375307250863989,0.0055686395783443
1761468792752759300,8.59375927734375,0.12048457451164722,-0.005247656004159944,-0.009899928514612837
1761468792762742300,8.6037421875,0.10896306354403495,-0.007200954629556508,0.005331437855563126
1761468792772724200,8.61372412109375,0.11479893009066582,-0.0011785291311709443,0.008839847835316323
1761468792782707200,8.623707275390625,0.11794248881340026,-0.009917308907676487,0.014692912111920304
1761468792792689200,8.633689208984375,0.1255734220832586,-0.013630694274464622,0.015372674537007696
1761468792802672000,8.643672119140625,0.11240531295239925,-0.01741139327340061,0.034576406003721055
1761468792812655000,8.653655029296875,0.11988777766227722,-0.01826463768542744,0.03026573516379576
1761468792822637000,8.663636962890624,0.11390227351188659,-0.01414216234438354,0.01841179107115604
1761468792832620000,8.6736201171875,0.11883972991406917,-0.013330509176425403,0.009128295688144862
1761468792842603300,8.683603271484374,0.10597089599072933,-0.005099197148156235,0.007635910839075223
1761468792852585000,8.6935849609375,0.12377777083814144,0.004241913027717964,0.011089686288451776
1761468792862568200,8.703568115234376,0.11988719314038752,0.006891698596606147,0.018980124444444663
1761468792872550100,8.713550048828125,0.11210545322299002,0.012401300893269945,0.01716494651495013
1761468792882533000,8.723533203125,0.1095621984809637,0.007764077538187848,0.009291911584907211
1761468792892516000,8.73351611328125,0.11629647517204283,0.0037694549440697297,0.0051338922897353765
1761468792902498300,8.743498291015625,0.12018705286979675,-0.006965709685132606,0.011978328524134121
1761468792912481000,8.75348095703125,0.1134533607006073,-0.01758316736044362,0.023770683189225383
1761468792922464300,8.76346435546875,0.11240531295239925,-0.019976610968774185,0.022248346159886568
1761468792932446200,8.7734462890625,0.11614683756828308,-0.015096127184526993,0.008226054185372776
1761468792942429200,8.78342919921875,0.11719488531649112,-0.01567967182667926,0.001397272177832201
1761468792952412200,8.793412109375,0.11076105287671088,-0.02203718534394866,0.005598655690695159
1761468792962394000,8.80339404296875,0.12078677232861518,-0.023953971900837496,0.003396606468618847
1761468792972377300,8.81337744140625,0.11195756918489932,-0.019390961134503594,0.03424227867852896
1761468792982359300,8.823359375,0.10926350779533385,-0.016953283375513273,0.04026669920035637
1761468792992342300,8.83334228515625,0.11928864272534846,0.001550572747379192,0.01658316000504419
1761468793002325200,8.8433251953125,0.11898995203971863,0.0009787836167466594,0.00785659981847275
1761468793012307200,8.85330712890625,0.12512509379386902,0.019484023412549865,-0.003225524218031205
1761468793022290200,8.863290283203124,0.12811784586906433,0.012688424438692163,-0.012550675918837077
1761468793032273400,8.8732734375,0.1125555350780487,0.014252739729522727,-0.001807108787470497
1761468793042255000,8.883255126953125,0.11539864954948424,0.005855758557189256,0.0199094685832737
1761468793052238300,8.89323828125,0.12138473822176456,0.003338295843545347,0.023801087460643612
1761468793062221300,8.90322119140625,0.11510054338574409,-0.0010511718578782164,0.021650503564323298
1761468793072203300,8.913203369140625,0.12707155168652534,-0.01305442875646986,0.022253099966817534
1761468793082186200,8.923186279296875,0.11599836900830268,-0.011549814613489433,0.018257121099252253
1761468793092168200,8.933168212890624,0.1076186631977558,-0.014869469688646494,0.006072999770753085
1761468793102151200,8.943151123046874,0.12033727499544619,-0.012764929449226473,-0.0025443050547968595
1761468793112134100,8.953134033203124,0.11689619463086127,-0.010055651082575787,0.007882008254365063
1761468793122116000,8.9631162109375,0.12003916883170604,-0.004585156953593832,0.0036319313281448556
1761468793132099000,8.97309912109375,0.1110609126061201,-0.013072359422093721,0.0067109003820689395
1761468793142082300,8.983082275390625,0.11944178746044636,-0.007916729653763468,0.006362096077552996
1761468793152064000,8.99306396484375,0.12303308995068073,-0.007730384760317974,0.01076782022321131
1761468793162047200,9.003047119140625,0.10343056385815143,-0.002118628701099078,0.011239871881483123
1761468793172030200,9.0130302734375,0.11794599594473838,-0.0037749411158292784,0.019974149583629332
1761468793182012200,9.02301220703125,0.11330664570629596,-0.000648678875301266,0.03617163473933469
1761468793191995100,9.0329951171875,0.10821896717846392,-0.00837535842899233,0.04130127097906079
1761468793201977300,9.042977294921876,0.11854396183788776,-0.0051530553603981386,0.03312310192286968
1761468793211960000,9.0529599609375,0.10462649564445019,0.0017734668127726762,0.02144367414691951
1761468793221943000,9.062943115234376,0.131561264321208,0.00039639831439708357,0.006914396198070607
1761468793231925200,9.07292529296875,0.12467793454825878,0.005465466898237355,-0.01370688761610072
1761468793241908000,9.082907958984375,0.1249772097557783,0.010198338355740997,-0.0134828741684556
1761468793251891200,9.09289111328125,0.11854279279410838,0.00694424049295194,-0.006092124596331268
1761468793261873200,9.102873046875,0.11973989362418651,0.0010001928726007462,-0.0010100857914192602
1761468793271856000,9.112856201171875,0.11719663888216018,0.006773738197676721,0.010119777243793942
1761468793281839000,9.122839111328124,0.12916764718294144,0.000593889652119833,-0.0008529453012160956
1761468793291821300,9.1328212890625,0.11585048497021197,0.0004954901868972229,-0.0008171159360092133
1761468793301804300,9.14280419921875,0.1122597670018673,0.0004338967635936569,0.016671765303681602
1761468793311787500,9.15278759765625,0.12632570175528526,-0.007968785209630732,0.015359801355702802
1761468793321769500,9.16276953125,0.11839432423412799,-0.010907164761819877,0.026372225723438895
1761468793331752400,9.17275244140625,0.1122591824799776,-0.01045389543583151,0.019705675939749926
1761468793341734700,9.182734619140625,0.11345569878816604,-0.02114955003855284,0.011285163194779306
1761468793351717400,9.19271728515625,0.12033844403922557,-0.016218546210043133,0.009669914584443905
1761468793361700600,9.20270068359375,0.13051380109488964,-0.004883489733730676,-0.004919897912605665
1761468793371682600,9.2126826171875,0.11869301491975784,-0.003597820137633243,-0.00845505890196655
1761468793381665500,9.22266552734375,0.11585048497021197,0.0033578967348032165,-0.016018201332353054
1761468793391648500,9.2326484375,0.12228431740999221,-0.01508055287277093,-0.003239064119616523
1761468793401630700,9.242630615234376,0.11016425602734088,-0.005946110571629833,0.0009824260329362004
1761468793411613400,9.252613525390625,0.11749825217723846,-0.003996268845221493,0.013696165292686783
1761468793421595600,9.262595703125,0.12363397845327853,-0.01526914109729696,0.03141942611041013
1761468793431578600,9.27257861328125,0.11046586932241916,-0.0028980218548036642,0.03487568577781785
1761468793441561300,9.282561279296875,0.12528057661652564,-0.0032890949692897264,0.014978081162273883
1761468793451543600,9.29254345703125,0.12767360923290252,-0.0009149736910039791,0.012775159723940305
1761468793461526500,9.302526611328124,0.1121112984418869,-0.006829981304894318,0.02858615717955399
1761468793471509500,9.312509521484374,0.12752338710725306,-0.0026188447246415308,0.019233816077723166
1761468793481491500,9.322491455078126,0.11360708995759486,0.0003525043737434316,0.006438549714093096
1761468793491474700,9.332474609375,0.11510346599519253,-0.003200537619713577,-0.012498918332136235
1761468793501457400,9.34245751953125,0.13560498675405977,-0.005415405794989783,-0.02004942047665827
1761468793511439600,9.352439697265625,0.11136427946686744,-0.0035245534012006826,-0.01701103002829477
1761468793521422600,9.362422607421875,0.10866963355541229,-0.0008452095193322748,-0.007343421565368771
1761468793531404500,9.372404541015625,0.12004209144115448,-0.0030210191884543743,0.015139893261017277
1761468793541387500,9.382387451171875,0.12453005051016806,0.00825695107631327,0.02623746602840256
1761468793551370500,9.39237060546875,0.10941606800854206,-0.005608397912463988,0.022403491055825724
1761468793561352400,9.4023525390625,0.11779577381908893,-0.005039546232655993,0.009978788737370632
1761468793571335700,9.412335693359376,0.12408172222077846,0.0019791859810793537,0.003620327655319124
1761468793581318700,9.422318603515626,0.11944295650422572,-0.01088529656495084,-0.0028831724871881304
1761468793591300600,9.432300537109375,0.11076397548615932,-0.011051449195382883,-0.0015228393528377636
1761468793601283600,9.44228369140625,0.11749766765534878,0.003488216004273272,0.008518438427802175
1761468793611266600,9.4522666015625,0.11285831741690636,-0.002704390416512615,0.03465955880910623
1761468793621248500,9.46224853515625,0.11270867981314658,0.005897758509923005,0.03479385727983899
1761468793631231500,9.4722314453125,0.1100152029454708,0.012727690153289586,0.022964577270997686
1761468793641213700,9.482213623046874,0.11645020442903041,0.010512454939365852,0.003916438224795274
1761468793651196400,9.492196533203124,0.12303367447257041,0.013544876871246378,-0.020666986119421197
1761468793661179600,9.5021796875,0.11704875484406947,0.01158147355201072,-0.030860869779041965
1761468793671161600,9.51216162109375,0.12602876463532448,0.0002473303911508992,-0.02406799933509901
1761468793681144600,9.52214453125,0.1206418108999729,-0.0007976977078418713,0.011665623012883588
1761468793691127600,9.53212744140625,0.1097188503473997,-0.01299739905631868,0.034301954710204155
1761468793701109800,9.54210986328125,0.11136661755442619,-0.014766539037134497,0.04507053755181841
1761468793711092500,9.552092529296875,0.11076806713938712,-0.022891945859626867,0.051049296867591326
1761468793721075500,9.562075439453125,0.10553016648590564,-0.02874610611477401,0.03908242588581051
1761468793731057700,9.5720576171875,0.11869827561676502,-0.027543842769099863,0.018104213826172052
1761468793741040400,9.582040283203124,0.13590601552724837,-0.03462782794699305,0.0007176832826808094
1761468793751022600,9.592022705078126,0.10373393071889876,-0.03529386324082734,-0.0019094092513201758
1761468793761005600,9.602005615234376,0.12154080556631087,-0.01689003856370691,0.004313506684405729
1761468793770988500,9.611988525390625,0.12423486695587635,-0.001611689534180914,0.0018296083136461673
1761468793780970500,9.621970458984375,0.11121639542877673,0.009363670209198607,-0.0194660128318239
1761468793790953700,9.63195361328125,0.12229074715077877,0.016197361858119257,-0.019729714402463287
1761468793800936400,9.6419365234375,0.12767828540802,0.020995686067536008,-0.013143276083702221
1761468793810918700,9.651918701171875,0.1167553248554468,0.021678811776777728,0.004113294237456285
1761468793820901600,9.661901611328124,0.12408815196156502,0.019566957022226415,0.025122495090402663
1761468793830884400,9.67188427734375,0.11436112319529056,0.014363828571315388,0.04298409123315941
1761468793840866600,9.681866455078126,0.11076982070505619,-0.00021837029979215002,0.03423527354900725
1761468793850849500,9.691849609375,0.11585749923288821,-0.008733602990355575,0.028462672363780438
1761468793860831500,9.70183154296875,0.11331249092519283,-0.010604236292489804,0.015121987711568361
1761468793870814500,9.711814453125,0.11002046364247799,-0.014464962274674325,0.00792741829867009
1761468793880797700,9.721797607421875,0.10808569618761539,-0.021625423921993934,-0.007281695140502415
1761468793890779400,9.731779296875,0.2691343362778425,-0.005629830572026548,-0.04624403374402318
1761468793900762600,9.7417626953125,0.3653402095794678,0.007155964710359694,-0.059160529034258794
1761468793910745600,9.75174560546875,-0.5300947184503079,-0.07799969693832098,0.17884009817279875
1761468793920727600,9.7617275390625,0.41382513128519055,0.022308159188879653,-0.04661011341032572
1761468793930710500,9.77171044921875,0.1287549747288227,0.0005280002212559339,0.020968238654895683
1761468793940693500,9.781693603515626,-0.05320610500872135,-0.017322018506494348,0.020265926471282728
1761468793950675500,9.791675537109375,0.2761410001695156,0.021894427288835866,-0.07112118033780716
1761468793960658400,9.801658447265625,0.03880582373440265,-0.0027317573432286734,-0.009995570908812805
1761468793970640600,9.811640625,0.08878186078071594,0.0015013090826862024,0.009967038934072478
1761468793980623400,9.821623291015625,0.19307634799182413,0.01990856440097559,0.011820265585323795
1761468793990606600,9.831606689453125,0.09835340672433376,0.0058795355833543,0.04461819067443721
1761468794000588500,9.841588623046874,0.14354454758167265,0.000607601941996836,0.02805565333231352
