time,seconds_elapsed,z,y,x
1761468591244851200,0.114851318359375,0.12115677468478679,0.005505355950631201,0.032297957944031806
1761468591254834000,0.124833984375,0.12684417267143724,-0.0010035099201602862,0.016895468224072827
1761468591264817000,0.13481689453125,0.13118132509291172,-0.004160498946625739,0.0006513811473967508
1761468591274800000,0.144800048828125,0.12938567384779454,-0.005774414116400293,-0.007284037794638425
1761468591284784000,0.1547841796875,0.11995733576714991,0.005881646483694203,-0.008436577963782475
1761468591294767000,0.16476708984375,0.11756254958510398,0.015935171824553982,-0.010116242712992243
1761468591304750000,0.17475,0.11352174976170062,0.011481238322728312,-0.00442787204538472
1761468591314733000,0.184733154296875,0.10693886424005031,0.02882570612304844,0.0005013508179923519
1761468591324716000,0.194716064453125,0.13327566702365876,0.0346073171652155,-0.014992680509784258
1761468591334700000,0.204699951171875,0.12085691495537758,0.024357054542703552,-0.011586233067163266
1761468591344683000,0.21468310546875,0.12355156086683272,0.014458870460605249,-0.008822723170579411
1761468591354666000,0.224666015625,0.11397475422620773,0.00017495014152955264,-0.008361334470217115
1761468591364649000,0.23464892578125,0.12549626519381998,0.00325099201942794,-0.007707720266538672
1761468591374632200,0.244632080078125,0.13267887017428875,0.0012986478086793795,0.015356371856178157
1761468591384616200,0.2546162109375,0.12400105820000171,-0.027608110494213176,0.026931868900195693
1761468591394599000,0.264598876953125,0.12130816585421561,-0.03249801056077704,0.021687931231572293
1761468591404582100,0.27458203125,0.1304360596835613,-0.03472065961288754,0.008582128480891696
1761468591414565000,0.284565185546875,0.11397709231376647,-0.04460967400784138,-0.00826040397954639
1761468591424548000,0.294548095703125,0.12056290044486521,-0.044809817956131884,-0.016832951781339943
1761468591434531800,0.30453173828125,0.14435644848644733,-0.015290823206142522,-0.012388206232967786
1761468591444515000,0.31451513671875,0.11173545086681842,-0.0073447869719704606,0.012530450548138469
1761468591454498000,0.324498046875,0.12400690341889857,0.008411174094467424,0.014851016149925999
1761468591464481000,0.33448095703125,0.12535364185273645,0.024360324212023988,0.01934588445033878
1761468591474464000,0.344464111328125,0.12580255466401577,0.030957361556612883,0.014589812497049569
1761468591484448000,0.354447998046875,0.12595160774588585,0.02933805782566778,0.0036608879945706574
1761468591494431000,0.364430908203125,0.12804770324230194,0.016119625013368204,-0.008801958943763748
1761468591504414200,0.374414306640625,0.12505436664521694,0.015029035031376406,-0.0022665110267233103
1761468591514397200,0.384397216796875,0.12265958046317099,0.019808177332999184,-0.0005334766890387982
1761468591524381000,0.394380859375,0.13148819908499718,0.010219776152702979,-0.011447112290840595
1761468591534364000,0.404364013671875,0.13373217861950396,-0.0010870463180355726,-0.023515617016190662
1761468591544347100,0.41434716796875,0.12355623704195022,-0.0203096194825368,-0.022477369142789392
1761468591554330000,0.424330078125,0.1340308693051338,-0.023395853960886597,-0.02222069096798077
1761468591564312800,0.434312744140625,0.1313385614812374,-0.03188070977949537,-0.009258721701358445
1761468591574296800,0.444296875,0.11637597014904022,-0.026303475902741773,0.0031002219045069067
1761468591584280000,0.454280029296875,0.1284977850973606,-0.01651983071155846,0.0029301762669580057
1761468591594263000,0.464262939453125,0.12071721422374247,-0.0010555186686106025,0.02368358486108482
1761468591604246000,0.47424609375,0.10979425367116928,-0.008500528311775998,0.03940582632101141
1761468591614229000,0.48422900390625,0.12176409292817116,0.006581259820144623,0.029376535805687307
1761468591624213000,0.494212890625,0.11173778895437717,-0.0038726264825323592,0.00522914195829071
1761468591634196000,0.504196044921875,0.12924597311615943,0.0013784944121260196,-0.006704671570681967
1761468591644179200,0.51417919921875,0.12026830141246318,-0.001522898718342185,-0.020189386069774627
1761468591654162000,0.524161865234375,0.14286416410207747,0.009956070015486328,-0.017474368657148444
1761468591664145000,0.534144775390625,0.12400807246267795,0.026211094044707714,-0.005330561072728597
1761468591674129000,0.54412890625,0.12041618545055388,0.02830843165013939,0.003990320878336206
1761468591684112100,0.554112060546875,0.12161445532441138,0.030698066733032464,0.005774829674931242
1761468591694095000,0.56409521484375,0.1186205342054367,0.017652291640476322,-0.008299302084674127
1761468591704078000,0.574078125,0.11218728628754615,0.0034874539566924793,-0.012139104009838773
1761468591714061000,0.58406103515625,0.13747604132294655,-0.014059852072503418,-0.028080280883493833
1761468591724045000,0.594045166015625,0.11054185716807842,-0.02420542134467978,-0.0200584942656802
1761468591734028000,0.604028076171875,0.13433365164399147,-0.026069945708080192,-0.021584269927698185
1761468591744011000,0.614010986328125,0.13897417092621325,-0.030855156990885733,-0.012276384455524383
1761468591753994000,0.623993896484375,0.12401041055023669,-0.024050829004589467,-0.0010798174262279644
1761468591763977000,0.63397705078125,0.1183241816073656,-0.018906602550507523,0.012475989547697826
1761468591773961000,0.6439609375,0.12805237941741943,-0.013816800564248114,0.01517881419903133
1761468591783944200,0.653944091796875,0.12042203066945076,-0.00006053911477793008,0.01742603143681772
1761468591793927000,0.663927001953125,0.1249123278260231,0.004003463487699628,0.027553069538460113
1761468591803910100,0.67391015625,0.1280535484611988,0.021105738296289926,0.03083907807234209
1761468591813893000,0.68389306640625,0.1172784719467163,0.021959409683290868,0.026583758715423754
1761468591823877000,0.693877197265625,0.12939619524180887,0.026134969201730564,0.018331478676828553
1761468591833859800,0.70385986328125,0.12430734767019748,0.02175700984583236,-0.008213838591193779
1761468591843843000,0.713843017578125,0.12265958046317099,-0.002902776803378947,-0.02186537472428754
1761468591853826000,0.723825927734375,0.10993979962170124,-0.008886120962724089,-0.03848491208381019
1761468591863809000,0.73380908203125,0.12714987761974333,-0.005063713130354881,-0.05127399073524866
1761468591873793000,0.74379296875,0.1159282263815403,-0.014171034529129973,-0.038036634026770474
1761468591883776000,0.75377587890625,0.12176467745006084,-0.0014790367437293752,-0.011224231354356743
1761468591893759000,0.763759033203125,0.12550737110972404,-0.006167724282923154,-0.000817860288103111
1761468591903742000,0.773741943359375,0.13942366825938224,-0.004999096062080935,0.007445014209742657
1761468591913725200,0.78372509765625,0.12042203066945076,-0.0011793642439879477,0.014938740099151618
1761468591923709000,0.793708984375,0.12954992449879646,-0.00994567648563534,0.022776242491509766
1761468591933692000,0.80369189453125,0.12535890254974363,-0.001108303735195659,0.026715198508789763
1761468591943675100,0.813675048828125,0.13867723380625246,-0.003330213001789525,0.015388657557428813
1761468591953658000,0.823658203125,0.12580898440480232,-0.005022056812560185,0.027122975592082366
1761468591963640800,0.833640869140625,0.12999883731007575,-0.011930041536153294,0.009527432807255536
1761468591973624800,0.843624755859375,0.12266659472584723,-0.013120520829199813,-0.003973799001798033
1761468591983608000,0.853608154296875,0.1421188986927271,-0.00327039997279644,-0.005376966630876995
1761468591993591000,0.863591064453125,0.1186252103805542,0.014583538019889965,-0.003007392521901056
1761468592003574000,0.873573974609375,0.12116671155691146,0.018895697564003056,-0.012551648599794133
1761468592013557000,0.883556884765625,0.13388532335460185,0.012434292130707762,-0.02493489552985411
1761468592023541000,0.893541015625,0.12011749476492405,0.01023967272983864,-0.022924733884376474
1761468592033524000,0.90352392578125,0.12969488592743872,0.005535034136264585,-0.013034468247252516
1761468592043507200,0.913507080078125,0.12565467062592506,0.009426136990403755,-0.013324975626426748
1761468592053490000,0.923489990234375,0.12385960390269755,-0.004306076863198541,-0.010114069022214971
1761468592063473000,0.933472900390625,0.1211649579912424,-0.0069670534004922955,0.003471603367011994
1761468592073457000,0.943456787109375,0.10949322489798069,-0.02302874681469984,0.0036422563593368974
1761468592083440000,0.953440185546875,0.13268646895885466,-0.01551311048758216,0.007735179095622152
1761468592093423000,0.963423095703125,0.10724807631969452,-0.02371813558465801,0.00413302641781047
1761468592103406000,0.973406005859375,0.13582885863780975,-0.022417035523988306,0.01228756343666464
1761468592113389300,0.983389404296875,0.12415712554454802,-0.014767726347222924,0.01655398870948702
1761468592123373300,0.993373291015625,0.11099018545746803,-0.0027486730870557945,0.012310094928881153
1761468592133356000,1.00335595703125,0.11951894434988498,-0.006959861041302792,-0.0014978419088991358
1761468592143339300,1.01333935546875,0.1277484280347824,0.004301300223381258,-0.010477317410614341
1761468592153322200,1.023322265625,0.13103928627371786,0.02406743764609564,-0.011918488095677457
1761468592163305200,1.03330517578125,0.12041501640677452,0.02415537622445263,-0.01482782707058359
1761468592173289200,1.043289306640625,0.11981646599173545,0.03036587107002269,-0.00571263289260678
1761468592183272200,1.053272216796875,0.13463058876395226,0.03208339731132146,-0.008605226228688843
1761468592193255200,1.063255126953125,0.1237052901238203,0.02406507672565058,-0.016221541884727776
1761468592203238100,1.073238037109375,0.12475275335013866,0.006946846296102739,-0.01060855627458077
1761468592213221400,1.083221435546875,0.12565174801647663,-0.011194977860408835,-0.008467954916157759
1761468592223205000,1.093205078125,0.125652917060256,-0.01256925275514368,-0.0027321740434039384
1761468592233188000,1.10318798828125,0.12071721422374247,-0.019794696796918285,0.00280023431093432
1761468592243171300,1.11317138671875,0.1317909814238548,-0.02765641574850306,0.004894927868130616
1761468592253154300,1.123154296875,0.12386018842458724,-0.03380974161331542,0.01184120334207546
1761468592263137000,1.133136962890625,0.12251344999074935,-0.03450117620988749,0.01444564565285109
1761468592273121000,1.14312109375,0.11607903302907943,-0.02613019256191328,0.010798795316787436
1761468592283104300,1.153104248046875,0.12894845147430897,-0.014339856323972344,0.01162531383538153
1761468592293087200,1.163087158203125,0.12116729607880115,0.0011782408659812063,0.01365856866207905
1761468592303070200,1.1730703125,0.11967092004120349,0.00804809466942679,0.010943450784753075
1761468592313053200,1.18305322265625,0.12775310420989988,0.01115445862035267,-0.011711224853433668
1761468592323037200,1.193037109375,0.11997194881439208,0.012611936552822589,-0.024391760529903692
1761468592333020200,1.203020263671875,0.12790274181365965,0.02653861353259999,-0.028675337866926564
1761468592343003400,1.21300341796875,0.13059563415944575,0.025755418132501654,-0.022360857490496707
1761468592352986000,1.222986083984375,0.13373627027273177,0.03023197902466636,-0.014767730913800186
1761468592362969000,1.232968994140625,0.12805179489552973,0.03427189749865792,-0.010433323005260899
1761468592372953000,1.242953125,0.11503390789031982,0.023667446577036753,0.007622156308358535
1761468592382936300,1.252936279296875,0.12655600337982176,-0.010440624962304718,0.004001627723639831
1761468592392919300,1.262919189453125,0.12700491619110107,-0.023819787594536318,-0.0013255221158731728
1761468592402902000,1.272902099609375,0.12461071453094481,-0.03538459428118076,-0.0014349601399851963
1761468592412885200,1.28288525390625,0.11952362052500247,-0.043146574618760494,-0.014581222765217535
1761468592422869200,1.292869140625,0.12132160985767841,-0.04129064912034664,-0.010971905127679928
1761468592432852200,1.302852294921875,0.11383972966969012,-0.0400908220436424,-0.012523413452575913
1761468592442835200,1.312835205078125,0.11099836876392363,-0.0253884845162509,0.009202817662502638
1761468592452818200,1.322818115234375,0.11803133614063262,-0.0038941304948646575,0.021459364906395783
1761468592462801200,1.33280126953125,0.12970306923389435,0.012153904286748729,0.016043532136431893
1761468592472785200,1.34278515625,0.1320972708940506,0.04086469249296933,0.035944808280095455
1761468592482768400,1.352768310546875,0.11458850221037864,0.03402310580278281,0.03180079467738978
1761468592492751000,1.362751220703125,0.128353408190608,0.0335759556903271,0.00939322110149078
1761468592502734000,1.372734130859375,0.11308978808522224,0.028339246913511303,-0.020963156054401768
1761468592512717300,1.38271728515625,0.12909984264373778,0.0023563767006853594,-0.030587299834936854
1761468592522701300,1.392701416015625,0.12311609205901622,-0.0012472418484278023,-0.05565004126185085
1761468592532684000,1.40268408203125,0.13224398588836192,-0.009113221416599118,-0.05799855431648902
1761468592542667300,1.412667236328125,0.12251637260019778,-0.012122518201218917,-0.03401439733994193
1761468592552650200,1.422650146484375,0.1267079790711403,-0.019053048116760327,-0.016880713612935506
1761468592562633200,1.43263330078125,0.11892799271941185,-0.009837439471343532,0.006963765464862808
1761468592572617200,1.4426171875,0.1373340025037527,-0.005590983840893023,0.02128241460402496
1761468592582600200,1.45260009765625,0.12072364396452903,-0.006430535370996222,0.03449768277828116
1761468592592583200,1.462583251953125,0.11563654995858669,-0.014719786419114098,0.028423281068308277
1761468592602566100,1.472566162109375,0.12506313447356224,-0.01500016056334134,0.02389913187448401
1761468592612549400,1.48254931640625,0.1198275719076395,-0.012212119013699702,0.018945381924626418
1761468592622533000,1.492533203125,0.13060031033456324,0.0062503473653458055,0.009016711372719146
1761468592632516000,1.50251611328125,0.11294365761280059,0.006129584229621105,0.006656626611296087
1761468592642499300,1.512499267578125,0.12042553780078888,-0.002178736845147796,-0.014187985663930884
1761468592652482300,1.522482421875,0.11010054314136504,-0.01111118573420681,-0.029699059458053668
1761468592662465000,1.532465087890625,0.12132336342334747,-0.004651679997052997,-0.03687655900514219
1761468592672449000,1.542448974609375,0.128206108674407,0.007516079285112209,-0.044450026466720735
1761468592682432300,1.552432373046875,0.125212772077322,0.0027300277520902454,-0.0285179370818194
1761468592692415200,1.562415283203125,0.12955284710824488,0.014430726644932291,-0.016654763936530797
1761468592702398200,1.572398193359375,0.12700959236621856,0.010344105785270221,0.010770564736146479
1761468592712381200,1.582381103515625,0.13509060749113558,0.015611780522507614,0.020696595806395632
1761468592722364200,1.5923642578125,0.12745792065560818,0.018062320046359673,0.031444277423876336
1761468592732348200,1.60234814453125,0.12925240285694597,0.003917013613530434,0.02023411569406744
1761468592742331400,1.612331298828125,0.13134616026580334,-0.016219605655968188,0.004174130179756321
1761468592752314000,1.622314208984375,0.12999883731007575,-0.02951566114858724,-0.009801377210696228
1761468592762297000,1.632297119140625,0.12491057426035404,-0.02523500185443554,-0.014005505236494353
1761468592772280300,1.6422802734375,0.12146890937387943,-0.02274568752304185,-0.01580424348784145
1761468592782264300,1.652264404296875,0.12311492301523684,-0.024494960609474217,-0.009156763730803505
1761468592792247300,1.662247314453125,0.13957622847259044,-0.007307231440558098,0.0011671395166544243
1761468592802230000,1.67222998046875,0.12940262498259544,0.008108688583131879,0.004619111168012023
1761468592812213200,1.682213134765625,0.11728081003427505,0.0007458225317765026,0.002908083166158758
1761468592822196200,1.6921962890625,0.13598551050424576,0.0053414249600376934,-0.005287790510081686
1761468592832180200,1.70218017578125,0.12835282366871834,0.012605853871908037,-0.0016600878324825317
1761468592842163200,1.7121630859375,0.12670564098358153,0.013357265894254669,-0.0034460944664198904
1761468592852146200,1.722146240234375,0.12281506328582763,0.011472237598942591,-0.0023994029916590076
1761468592862129200,1.732129150390625,0.13029577443003654,0.0024255786125315353,-0.000683534417906776
1761468592872112400,1.7421123046875,0.1151829609721899,0.0004513833295786753,-0.01133696644725278
1761468592882096400,1.752096435546875,0.12790332633554935,-0.012268548208940773,-0.014196191803272813
1761468592892079000,1.7620791015625,0.1163812308460474,-0.020049055150477214,-0.01971743030962534
1761468592902062000,1.77206201171875,0.11174246512949466,-0.029379051989759316,-0.008679921732982621
1761468592912045300,1.78204541015625,0.13329144911468027,-0.014023378819902427,-0.003843290790193714
1761468592922028300,1.7920283203125,0.13104805410206316,0.0030461399299791083,0.009744427425647155
1761468592932012000,1.802011962890625,0.12775602681934833,-0.0062668098763795565,0.022841498880600556
1761468592941995300,1.811995361328125,0.12386544912159442,-0.007732160588051192,0.013640284086717292
1761468592951978200,1.821978271484375,0.12670856359302995,-0.002011079527507536,0.013281150184432045
1761468592961961200,1.831961181640625,0.11922551436126232,-0.000683274123002775,0.01070782909770496
1761468592971944200,1.841944091796875,0.1225157880783081,0.0021699050847208126,0.014263215457764454
1761468592981928200,1.85192822265625,0.12101765847504138,0.010209021863248199,0.007141309422277845
1761468592991911200,1.8619111328125,0.12355974417328834,0.009748587577533907,-0.008603130169725045
1761468593001894100,1.87189404296875,0.12326046896576881,0.000677374105178751,-0.017781863703741692
1761468593011877400,1.88187744140625,0.12999357661306857,-0.0002552808021660894,-0.016594033025507816
1761468593021860000,1.891860107421875,0.1133832180738449,0.002816957116872072,-0.01565169697436504
1761468593031844000,1.901843994140625,0.12790040372610093,-0.002404741320479661,-0.01756048060460016
1761468593041827300,1.911827392578125,0.11952011339366435,-0.009170714624342508,-0.020751732660271225
1761468593051810300,1.921810302734375,0.11368483136892318,-0.017223234307137316,-0.007092296348512172
1761468593061793000,1.93179296875,0.11428338178396225,-0.0223098396893125,-0.010654943566420116
1761468593071776300,1.9417763671875,0.11458265699148178,-0.018147262950032016,-0.003005634389654733
1761468593081760300,1.95176025390625,0.12909808907806872,-0.018006598670594395,0.007095766947232187
1761468593091743200,1.9617431640625,0.13074410271942616,-0.004111038348288275,0.01621621725563891
1761468593101726200,1.971726318359375,0.12251344999074935,-0.0016705726938787847,0.027979738551890475
1761468593111709200,1.981709228515625,0.10380758047699927,0.009376548527902923,0.03922684845833573
1761468593121696000,1.991696044921875,0.13358604814708233,0.0074581659522606055,0.03560340183074586
1761468593131678700,2.0016787109375,0.13373334766328335,0.009813770901388488,0.019220947462995536
1761468593141662700,2.011662841796875,0.13732289658784866,0.010543057856895029,0.013910529562574811
1761468593151646000,2.02164599609375,0.12041209379732608,0.006778796252817847,-0.0029695903953164816
1761468593161629000,2.03162890625,0.1260965691745281,0.00721927916246932,-0.017972367607429623
1761468593171612000,2.04161181640625,0.12400047367811202,0.0010088847815990446,-0.03253262978300918
1761468593181595000,2.051594970703125,0.12744213856458664,-0.011600750216282903,-0.04207106347489171
1761468593191579000,2.061578857421875,0.12115677468478679,-0.02383961567301303,-0.041069663313427006
1761468593201561900,2.071561767578125,0.12818974206149578,-0.035379018490342425,-0.04455893476787023
1761468593211545000,2.081545166015625,0.1049959134787321,-0.025309035205026156,-0.02557915738329757
1761468593221527800,2.09152783203125,0.12460019313693046,-0.0127493905284442,-0.011742789035476743
1761468593231510800,2.1015107421875,0.12086100660860538,0.005253363084094599,0.01281956055467017
1761468593241494800,2.111494873046875,0.12086100660860538,0.0166508823458571,0.025471545990090817
1761468593251478000,2.12147802734375,0.11622224089205264,0.02710639435003977,0.0385369847643422
1761468593261461000,2.1314609375,0.12355389895439148,0.03181519766207784,0.03897791976514272
1761468593271444000,2.14144384765625,0.12938801193535326,0.01767333442850504,0.024255845490819772
1761468593281427000,2.151427001953125,0.12355097634494304,0.022958330193301662,0.02313274147871416
1761468593291411000,2.161410888671875,0.12534604306817054,0.01699691473797429,0.011701429545204154
1761468593301394000,2.171393798828125,0.11771218718886375,0.006620450186217203,0.005288585094525479
1761468593311377000,2.181376953125,0.1184592061638832,-0.015103214512439444,-0.0034386646452127024
1761468593321360000,2.19135986328125,0.12579027970433235,-0.034425539990677496,-0.004137656927155331
1761468593331342800,2.2013427734375,0.12249766789972781,-0.028427217457909135,-0.006203380118194036
1761468593341326800,2.211326904296875,0.1316267307728529,-0.02461402954503428,-0.011808520348602905
1761468593351310000,2.22131005859375,0.1232476094841957,-0.01954110106176231,-0.010949268604186362
1761468593361292800,2.231292724609375,0.1177104336231947,-0.03037733774553053,-0.017293733126926236
1761468593371275800,2.24127587890625,0.11786065574884413,-0.013605395436426623,-0.028759586650854905
1761468593381259000,2.251259033203125,0.12294891879856586,-0.004964947197306901,-0.029999526542238888
1761468593391241700,2.26124169921875,0.12324936304986477,-0.0020379355683922767,-0.019463318551238624
1761468593401225700,2.271225830078125,0.12534487402439118,0.015380268754996358,-0.006146521664690226
1761468593411209000,2.281208984375,0.1138233630567789,0.028085747076477853,0.01500599664908368
1761468593421192000,2.29119189453125,0.11726561246514319,0.02653101931461133,0.02736263870000839
1761468593431175000,2.3011748046875,0.1263940908163786,0.01892471359593328,0.02699854092823807
1761468593441158000,2.311157958984375,0.1298357557028532,0.008967867262312211,0.03386373682287522
1761468593451142000,2.321141845703125,0.12489537669122218,0.013271062615257687,0.0405767149975989
1761468593461124900,2.331124755859375,0.12324644044041633,0.007799083777843043,0.026167222936940376
1761468593471107800,2.34110791015625,0.11980302198827265,-0.007261908161221071,0.02251911222555209
1761468593481091000,2.351091064453125,0.1180062016993761,-0.01454553496390581,0.011418904543085955
1761468593491073800,2.36107373046875,0.13835691581070422,-0.030784772335528395,-0.017429250873788257
1761468593501057800,2.371057861328125,0.12503975359797476,-0.03996827794278506,-0.03841505715141538
1761468593511041000,2.381041015625,0.11666063230931759,-0.045479844438494184,-0.04581252415869385
1761468593521024000,2.39102392578125,0.11621288854181766,-0.03265480855768546,-0.0523312036040239
1761468593531006700,2.4010068359375,0.11636311066746712,-0.010223397448472678,-0.03799887756595854
1761468593540990000,2.410989990234375,0.1226508126348257,0.017155155773297882,-0.019976898663141764
1761468593550974000,2.420973876953125,0.14240472989678382,0.026567008510022423,0.007989345652936027
1761468593560957000,2.43095703125,0.12459902409315109,0.05483260109885595,0.03900168423322029
1761468593570940000,2.44093994140625,0.1216051029741764,0.05204666474133264,0.04587747002053074
1761468593580923000,2.4509228515625,0.12534545854628085,0.036871421605721114,0.03893719046253245
1761468593590905900,2.46090576171875,0.12175240249037741,0.01825650004474446,0.016061255022790284
1761468593600889900,2.470889892578125,0.12234978386163711,-0.005713272213423624,-0.002572763964300975
1761468593610873000,2.480873046875,0.1193570317864418,-0.03729190290695988,-0.014018341885181144
1761468593620855800,2.490855712890625,0.11845979068577289,-0.03429033277106937,-0.009791052179504186
1761468593630838800,2.5008388671875,0.11561667621433734,-0.021362909661442973,0.004821305509493686
1761468593640822000,2.510822021484375,0.12489420764744281,-0.015335278835799545,0.01201525843446143
1761468593650805000,2.520804931640625,0.12025544193089008,-0.013894994066725484,0.001384462928608991
1761468593660789000,2.5307890625,0.11995792028903961,-0.025072221641312353,-0.016144960384024305
1761468593670771700,2.540771728515625,0.12175474057793617,-0.026841802296834066,-0.03282154342671856
1761468593680755000,2.5507548828125,0.14480068512260913,-0.01920833001001738,-0.039693666819063944
1761468593690738000,2.560738037109375,0.07312661100924014,0.008454378481954336,-0.02864780140602961
1761468593700721000,2.570720947265625,0.1512380246937275,0.012761779652559199,-0.011574346266547218
1761468593710705000,2.580704833984375,0.12415478745698928,0.024687989830388685,0.015127024646289646
1761468593720687900,2.59068798828125,0.1241542029350996,0.027229463607282376,0.027299117610277607
1761468593730670800,2.6006708984375,0.11502514006197452,0.02075118010442238,0.03443467771178111
1761468593740654000,2.610654052734375,0.14076046982109547,0.007175654649874195,0.024165623623831196
1761468593750636800,2.62063671875,0.12010872693657874,0.00011168934670276939,0.030510878164437597
1761468593760620800,2.630620849609375,0.12010755789279937,0.0034163934479001907,0.025893073037522845
1761468593770603800,2.640603759765625,0.11471885059177875,-0.006957079995749518,0.007858389916759915
1761468593780587000,2.6505869140625,0.12938333576023578,-0.017730096983886324,-0.011176455823029391
1761468593790570000,2.660570068359375,0.13641630313694475,-0.0224039157475112,-0.015650180870713664
1761468593800553000,2.670552978515625,0.11322189003229141,-0.012936606496502644,-0.022125770092988384
1761468593810537000,2.680536865234375,0.12160218036472796,-0.006084201584779657,-0.0311866585341515
1761468593820520000,2.69052001953125,0.11202420468032359,-0.006543946317327208,-0.028128805333492345
1761468593830503000,2.7005029296875,0.13132745556533335,0.010260176661750301,-0.017971595855872147
1761468593840486000,2.71048583984375,0.11786007122695445,0.016022544147330335,-0.011057642615796066
1761468593850468900,2.72046875,0.1346194828480482,0.008016434589261188,-0.02053766065132804
1761468593860452900,2.730452880859375,0.12399638202488422,0.007559128408972174,-0.027877223458909427
1761468593870435800,2.740435791015625,0.11307459051609038,-0.0020876244955928993,-0.01329451655608136
1761468593880419000,2.750419189453125,0.13402560860812662,0.0001548526349943131,-0.0050146361245075235
1761468593890401800,2.76040185546875,0.1277408292502165,-0.007247336213174276,0.015319204483833162
1761468593900385000,2.770385009765625,0.13537234704196452,0.01282646065291483,0.028546861782204357
1761468593910368000,2.780367919921875,0.11457155107557773,0.021311800528713502,0.0432750507034827
1761468593920352000,2.79035205078125,0.12399755106866359,0.020763098871079272,0.03858898894621525
1761468593930334700,2.800334716796875,0.12773907568454743,0.0010656290706712753,0.03224074329750146
1761468593940318000,2.81031787109375,0.11861001281142235,-0.016108258802560158,0.012304706367710605
1761468593950301000,2.820301025390625,0.11157587639093398,-0.021182187366252762,-0.009802797416225075
1761468593960284000,2.830283935546875,0.13327449797987936,-0.024397231289464978,-0.022606817908468656
1761468593970268000,2.840267822265625,0.12489362312555312,-0.028560771576547992,-0.012802289759460836
1761468593980251000,2.8502509765625,0.11217442680597305,-0.027446490191714835,-0.010840853493381292
1761468593990233900,2.86023388671875,0.1323755033135414,-0.008261865284270607,-0.0011356803658884018
1761468594000217000,2.870217041015625,0.1227986966729164,-0.001500641220761463,0.007822578817862086
1761468594010200000,2.880199951171875,0.11591536689996719,0.006944384910957888,0.009825296942400745
1761468594020183800,2.890183837890625,0.12474340099990368,0.000711020646453835,-0.003061634326633066
1761468594030166800,2.900166748046875,0.11322072098851203,-0.0007373652306851,-0.02766693257594015
1761468594040150000,2.91014990234375,0.13072832062840462,-0.009161814365256577,-0.03390462138911243
1761468594050133000,2.920133056640625,0.12100304542779922,0.004639322838978842,-0.04189498082220088
1761468594060115700,2.93011572265625,0.12683949649631976,0.007555091554671526,-0.03130761346612126
1761468594070099000,2.940098876953125,0.12040624857842921,0.02260236549563706,0.0014777763684047384
1761468594080083000,2.9500830078125,0.1386626207590103,0.029052139856643042,0.022471336694224735
1761468594090066000,2.96006591796875,0.12040624857842921,0.012981171724013984,0.03111879006286617
1761468594100049000,2.970048828125,0.13282616969048977,0.01745464104337152,0.030992222807439972
1761468594110032000,2.980031982421875,0.1257920332700014,0.006660709131369367,0.020144254586682654
1761468594120010800,2.9900107421875,0.12190087105035781,-0.004809172113705427,0.011828946648701093
1761468594129994800,2.999994873046875,0.13072890515029428,-0.02895144682799,0.003991896347492001
1761468594139978000,3.00997802734375,0.12264847454726695,-0.021343378410488365,-0.007194299984839745
1761468594149961000,3.0199609375,0.13042904542088507,-0.021988909772410987,0.0035555827228818085
1761468594159944000,3.02994384765625,0.11890753445327282,-0.011576319027924909,0.007713620284362696
1761468594169927000,3.039927001953125,0.11606558902561664,-0.008675834646332077,-0.0030963357472559437
1761468594179911000,3.049910888671875,0.11516776340305805,-0.018281077363574875,-0.01975972594823688
1761468594189894000,3.059893798828125,0.13327449797987936,-0.01350422291716095,-0.03152633425071835
1761468594199877000,3.069877197265625,0.11008125391900539,-0.007597697720536961,-0.033487373224576004
1761468594209859800,3.07985986328125,0.13058160563409327,-0.000708974819839932,-0.02193146679701749
1761468594219842800,3.0898427734375,0.12818681945204735,0.02698900591491256,-0.0017772799047874287
1761468594229826800,3.099826904296875,0.13028116138279439,0.03196131900134496,0.023536440608510747
1761468594239810000,3.10981005859375,0.10992986274957656,0.033724661712325174,0.026386112684896216
1761468594249792800,3.119792724609375,0.14060557152032852,0.02770298570343293,0.016233154690708032
1761468594259776000,3.12977587890625,0.12309680283665657,0.012548141468456014,0.016883024301030673
1761468594269759000,3.139759033203125,0.12534019784927367,-0.0016008273593382909,-0.006170601226598955
1761468594279742000,3.149741943359375,0.13072656706273555,-0.020688001507986335,-0.0179447032823693
1761468594289726000,3.159725830078125,0.1298269878745079,-0.023573151323129423,-0.018117803960107266
1761468594299709000,3.169708984375,0.12249474529027939,-0.01707635491604451,-0.008433920215815306
1761468594309692000,3.17969189453125,0.1296791038364172,0.0011688428499735891,0.0031957775337388738
1761468594319675000,3.1896748046875,0.12773381498754025,0.010302120673912576,-0.0022209594185231252
1761468594329657900,3.199657958984375,0.1221978081703186,0.0065715969426557415,0.0020770117700332773
1761468594339641900,3.209641845703125,0.11860650568008423,0.01604477881202474,0.017141040482977404
1761468594349624800,3.219624755859375,0.11501520318984984,0.015801508108060806,0.01406080648715142
1761468594359607800,3.22960791015625,0.14404314475357533,0.023026837985403833,0.007002553972136229
1761468594369591000,3.239591064453125,0.13386603413224218,0.014326334688696079,0.006443413118878379
1761468594379573800,3.24957373046875,0.12533493715226648,-0.006850331685645505,-0.0011347898833220823
1761468594389557800,3.259557861328125,0.12907470820248126,-0.020064581513172013,-0.025630175184481775
1761468594399541000,3.269541015625,0.11725333750545978,-0.03686190942528192,-0.03973224526378326
1761468594409524000,3.27952392578125,0.14044775061011314,-0.03512910341646056,-0.045219882894633336
1761468594419506700,3.289506591796875,0.10453647927343845,-0.0213915284011513,-0.024233533194311895
1761468594429490000,3.299489990234375,0.12698328888118265,0.0021269061932107434,-0.003817311532143503
1761468594439474000,3.309473876953125,0.13236965809464454,0.0144744150896091,0.010689179196162149
1761468594449457000,3.319456787109375,0.12443886509537697,0.025016993455891496,0.0372885145066306
1761468594459439900,3.32943994140625,0.12339198639094828,0.028340329192322676,0.03806750408906955
1761468594469422800,3.3394228515625,0.1293774905413389,0.02815998135646805,0.03375658208739478
1761468594479405800,3.34940576171875,0.13506255044043064,0.02559175656996667,0.02574633977690246
1761468594489389800,3.359389892578125,0.12982348074316977,0.0077053091137437146,0.01716654025041498
1761468594499373000,3.369373046875,0.12009645197689532,0.004903732229094021,0.010325784677290357
1761468594509356000,3.37935595703125,0.13311550802588462,-0.004792184446286409,0.003365622241888195
1761468594519338800,3.3893388671875,0.12578151187598705,-0.001410341721959412,-0.015052603136631659
1761468594529322000,3.399322021484375,0.12996961121559142,-0.015797772647859528,-0.017157073735748415
1761468594539305000,3.409304931640625,0.12188859609067439,-0.02443110159302596,-0.02803302137539722
1761468594549289000,3.4192890625,0.11650222687721251,-0.023518060135026463,-0.041400205875467506
1761468594559272000,3.42927197265625,0.1349076521396637,-0.026543906195648014,-0.051869024885795076
1761468594569255000,3.4392548828125,0.12368600090146065,-0.014755967410770244,-0.025962297782255336
1761468594579238000,3.44923779296875,0.12144202136695384,-0.0021307010189164427,0.0007103493595961481
1761468594589221000,3.45922119140625,0.12997136478126048,0.01657589914719574,0.015378318826504983
1761468594599205000,3.469205078125,0.12488427077531813,0.035051891728094774,0.033257642422197385
1761468594609187800,3.479187744140625,0.13116963465511797,0.038319748117355626,0.04128959880757611
1761468594619170800,3.4891708984375,0.12099310855567455,0.018930170655762777,0.03170130722513422
1761468594629154000,3.499154052734375,0.12503157029151915,0.019303031689301132,0.029978141260915435
1761468594639136800,3.50913671875,0.12517945432960986,0.015736566812801174,0.003310773082380183
1761468594649120800,3.519120849609375,0.12083937929868697,0.007309797856980003,-0.0015452795135090128
1761468594659103700,3.529103759765625,0.11754735201597213,-0.008037016152986324,-0.014431060005072504
1761468594669087000,3.5390869140625,0.11799568030536174,-0.011322399065783247,-0.02352350806170143
1761468594679070000,3.549070068359375,0.11769640509784221,-0.02008393923419062,-0.03736728796442039
1761468594689053000,3.559052978515625,0.12218611773252487,-0.017562183937919324,-0.03575790283929091
1761468594699037000,3.569036865234375,0.12428221322894095,-0.014397618959774263,-0.028640042791259472
1761468594709020000,3.57902001953125,0.11695113968849181,-0.00559921737969853,-0.018484573179576545
1761468594719003000,3.5890029296875,0.12233867794573307,0.01411555061538238,-0.009539369840221478
1761468594728985900,3.59898583984375,0.12278700623512268,0.02477412004414946,0.007721949721290729
1761468594738968800,3.60896875,0.12368424733579159,0.035259867356391625,0.02778369082340505
1761468594748952800,3.618952880859375,0.12173720492124557,0.027476935562328435,0.02174029160647187
1761468594758935800,3.628935791015625,0.12068798812925814,0.025906991965021005,0.0150599644591799
1761468594768919000,3.6389189453125,0.12532616932392118,-0.006256941502913832,-0.005020673139649443
1761468594778901800,3.64890185546875,0.12592471973896027,-0.01914563547077123,-0.022659566442435605
1761468594788885000,3.658885009765625,0.12801906166970728,-0.016326203269022517,-0.0251295093530789
1761468594798869000,3.668868896484375,0.12562544453144073,-0.018193006354477254,-0.015577627091156317
1761468594808852000,3.67885205078125,0.1169476325571537,-0.012031565681868231,-0.002495328513649292
1761468594818835000,3.6888349609375,0.11769815866351127,-0.019672673285868948,-0.007016582497488707
1761468594828818000,3.69881787109375,0.11680150208473204,-0.007701139828702435,-0.004036936499038711
1761468594838801000,3.70880078125,0.1182984626442194,0.0002798672541510314,0.011527068492141551
1761468594848785000,3.718784912109375,0.13894845196306704,0.02226567175402306,0.02224867952002678
1761468594858768000,3.728767822265625,0.12967150505185127,0.023049903767160138,0.025867902063648213
1761468594868750800,3.738750732421875,0.1238356385052204,0.015410969853936694,0.018559688808978535
1761468594878733800,3.74873388671875,0.12533143002092836,0.011740017123077996,0.0017172613798175007
1761468594888717000,3.758717041015625,0.12218728677630424,0.005400689999759197,-0.00811172535701189
1761468594898700000,3.768699951171875,0.12487901007831095,0.0002746430897619575,-0.025598601869284174
1761468594908684000,3.77868408203125,0.12787176215350626,0.00118211332350038,-0.023403096552425996
1761468594918666800,3.788666748046875,0.13146423368752003,-0.0033177827784791588,-0.018956300610862672
1761468594928650000,3.79864990234375,0.12218670225441455,0.007119124989933334,-0.00951586566704791
1761468594938633000,3.808633056640625,0.1280237378448248,0.005206185774388723,0.0008311809939797967
1761468594948615700,3.81861572265625,0.1262280865997076,0.00840744776742067,0.017642793159768917
1761468594958599700,3.828599609375,0.13266133451759815,0.0059577256608987226,0.013202034233347513
1761468594968583000,3.8385830078125,0.1358043087184429,-0.003086951430980116,0.009061518628825434
1761468594978566000,3.84856591796875,0.12577742022275923,-0.0031236073466716333,0.007274429716076701
1761468594988549000,3.858549072265625,0.12203589560687542,-0.011050660319160669,-0.0035474039830034596
1761468594998531800,3.86853173828125,0.11799568030536174,-0.009969925010902806,-0.013602902085240929
1761468595008515800,3.878515869140625,0.11485270610451698,-0.016312097111856563,-0.015735402335599065
1761468595018498800,3.888498779296875,0.13924422003924847,-0.010562274014018476,-0.008318796803010627
1761468595028482000,3.89848193359375,0.12024082888364791,0.004090255855163559,0.004140492771635763
1761468595038465000,3.908465087890625,0.1129085862994194,0.010027066592196933,0.013328829817636868
1761468595048447700,3.91844775390625,0.11709727016091347,0.0067324500601738686,0.002817103247344494
1761468595058431700,3.928431640625,0.13251052787005901,0.00270496180949267,-0.0005448246335377916
1761468595068415000,3.9384150390625,0.12248422389626502,0.015062937300978227,-0.013385811568726785
1761468595078398000,3.94839794921875,0.11904197448790073,0.000682497804868035,-0.0172219465323491
1761468595088381000,3.958380859375,0.12951602222919464,0.003584525689575821,-0.007891826395480894
1761468595098364000,3.968364013671875,0.11948971825540065,0.0030089634244795885,-0.010463699877215548
1761468595108348000,3.978347900390625,0.12517653172016144,0.0035966727850958702,-0.0030840379546862094
1761468595118334700,3.988334716796875,0.12098784785866737,0.014699182022502645,0.010607967186113818
1761468595128318000,3.99831787109375,0.1274216802984476,0.01438545359794516,0.010981750668259337
1761468595138299600,4.008299560546875,0.13460370075702666,0.007959023579908535,0.009285819770838134
1761468595148283000,4.018282958984375,0.123980015411973,0.007563713252544403,0.00925562556197401
1761468595158267000,4.028266845703125,0.11859306167662143,0.0019683454974787308,0.020589893162064252
1761468595168249900,4.038249755859375,0.12113573189675807,0.010655030331388116,0.016230857702344656
1761468595178232600,4.048232666015625,0.12607318829894065,-0.004686997905606403,0.007972942507406697
1761468595188215800,4.0582158203125,0.13475392288267612,-0.013287100434605962,0.0021310298124793915
1761468595198198800,4.06819873046875,0.11979133155047893,-0.014345094188093207,-0.016523776234313843
1761468595208182800,4.078182861328125,0.12682605249285697,-0.01650100728007965,-0.020194655899936333
1761468595218165800,4.088165771484375,0.11545476365089416,-0.004153091958304867,-0.022251917223306373
1761468595228148700,4.098148681640625,0.12039397361874579,-0.014189031410124153,-0.015530472614336759
1761468595238131700,4.108131591796875,0.1250339083790779,-0.02298985784272663,-0.022181678698421456
1761468595248115000,4.118114990234375,0.11231646562516688,0.0037618367515504358,-0.013241589925601146
1761468595258099000,4.128098876953125,0.11351298193335532,0.01715009143911302,0.0022104060584679243
1761468595268081700,4.13808154296875,0.13236673548519612,0.027247346323844974,0.017445320659177376
1761468595278064600,4.148064697265625,0.12862521086931228,0.02309294832444284,0.03155422233806457
1761468595288047900,4.1580478515625,0.117553197234869,0.017934857741789892,0.025932587630581108
1761468595298030800,4.16803076171875,0.12084405547380447,0.023325108545925465,0.02140910972361453
1761468595308014800,4.178014892578125,0.12428513583838939,0.012811011922033502,0.022013286161841825
1761468595317997600,4.18799755859375,0.12443360439836978,-0.002151821438758634,0.0037249205409549176
1761468595327980800,4.197980712890625,0.121740127530694,-0.00936909587380942,-0.006488151876325719
1761468595337963800,4.2079638671875,0.11321078411638737,-0.0189607119244989,-0.017225640893355012
1761468595347947000,4.217947021484375,0.13371172035336493,-0.012198058522306382,-0.021661741910967973
1761468595357931000,4.227930908203125,0.12189151870012283,-0.011052281454089097,-0.018621474599349312
1761468595367913700,4.237913818359375,0.11500760440528392,-0.009992050077742896,-0.021132101146830246
1761468595377896700,4.247896728515625,0.130720137321949,0.003979557455726899,-0.016172779972711576
1761468595387880000,4.2578798828125,0.13476152166724203,0.010112667082995175,-0.0003857296482659876
1761468595397862700,4.267862548828125,0.12428805844783783,0.010291329851839691,0.006879822641611099
1761468595407846700,4.2778466796875,0.12353928590714931,-0.001325576914800331,0.005264879991952329
1761468595417829600,4.28782958984375,0.11725450654923915,-0.005954652354400605,0.002818633050727658
1761468595427812900,4.297812744140625,0.12069734047949314,0.008338067759061232,-0.0032951919207582247
1761468595437795800,4.3077958984375,0.12383914563655853,0.014061459507700056,-0.004140058946795761
1761468595447778800,4.31777880859375,0.1266810910642147,0.007857257405598648,0.003316709632822312
1761468595457762800,4.3277626953125,0.13356325179338455,0.01164854858049657,0.015585755598684772
1761468595467745800,4.337745849609375,0.13446049289405346,0.01393343094754964,0.013492326983390375
1761468595477728800,4.347728759765625,0.11231354301571846,0.016260558720864356,0.0172124845842598
1761468595487711700,4.357711669921875,0.11231354301571846,0.004156379893934354,0.0049954062676522875
1761468595497694700,4.36769482421875,0.11904606614112853,-0.0037662891643820326,-0.013152998326695524
1761468595507678700,4.3776787109375,0.12488076364398001,-0.0028525353203294797,-0.022399079742189496
1761468595517661700,4.38766162109375,0.12383330041766166,-0.011728367784479632,-0.031035198866063728
1761468595527645000,4.39764501953125,0.12503098576962948,-0.016722326447139495,-0.03202269379976205
1761468595537627600,4.407627685546875,0.11964520107805728,-0.014193410757719538,-0.018873846491798758
1761468595547611000,4.41761083984375,0.11485738227963446,-0.009092082730447874,-0.008848232071171514
1761468595557595000,4.427594970703125,0.11874854449927806,0.0010563908848678692,0.0022555421081371604
1761468595567577900,4.437577880859375,0.12802666045427322,0.011818196925823575,0.014781197750149295
1761468595577560600,4.447560546875,0.12653028441667555,0.02043698132240679,0.03574269157042727
1761468595587543800,4.457543701171875,0.11665303352475166,0.03152501907646656,0.03719233782289084
1761468595597526800,4.46752685546875,0.126376555159688,0.028525366903026587,0.028178676923783494
1761468595607510800,4.4775107421875,0.11934241873919964,0.011721654915902763,0.02473487944572698
1761468595617493800,4.48749365234375,0.12263093889057636,0.011953102751332335,0.008080371237522923
1761468595627476700,4.497476806640625,0.11454817019999027,-0.01131106025443878,-0.021090988251729868
1761468595637459700,4.507459716796875,0.12861352043151855,-0.024943526360881513,-0.031124242556118405
1761468595647443000,4.51744287109375,0.11933598899841308,-0.030837995793530717,-0.043791731521347535
1761468595657427000,4.527427001953125,0.11903729831278323,-0.02956909923572093,-0.03932929505265783
1761468595667410000,4.537409912109375,0.11933774256408214,-0.01826104378912132,-0.0307702871524496
1761468595677392600,4.547392578125,0.11874153023660182,-0.008273468957096337,-0.017062184826796875
1761468595687376000,4.5573759765625,0.12981588195860386,-0.006873758227005601,0.009915331579721532
1761468595697358800,4.56735888671875,0.12143734519183635,0.004362971849320456,0.02181389569879975
1761468595707342800,4.5773427734375,0.12847031256854533,0.01312106425189413,0.023574553262349217
1761468595717325600,4.58732568359375,0.1362497143983841,0.018061968419910406,0.030273849971592423
1761468595727310800,4.597310791015625,0.12233400177061557,0.021568670499767177,0.01860946906772442
1761468595737293800,4.6072939453125,0.13220891457498074,0.01771655251572374,0.016971643299399874
1761468595747276800,4.61727685546875,0.12263093889057636,0.01759922801267821,0.016353675797837787
1761468595757259800,4.627259765625,0.1274181731671095,0.008643781840521841,-0.002914933032053523
1761468595767243800,4.637243896484375,0.11739128467142582,0.005635037611750886,-0.012651747973402962
1761468595777226800,4.647226806640625,0.12098317168354987,0.007885191158717497,-0.011733806578000076
1761468595787209700,4.657209716796875,0.13190554771423338,0.006028219914110377,-0.01094614506533835
1761468595797192700,4.667192626953125,0.11858780097961424,-0.0017426150167826563,-0.017089460992789827
1761468595807176000,4.677176025390625,0.128763742557168,-0.003916479323990643,-0.026534905471862293
1761468595817160000,4.687159912109375,0.12038403674662113,-0.02437226124498993,-0.02399476513552945
1761468595827142700,4.697142578125,0.12307809813618659,-0.01611289387848228,-0.015847109948610886
1761468595837126000,4.7071259765625,0.13325345519185067,-0.01673225418610964,-0.01887666406997014
1761468595847108900,4.71710888671875,0.12397592375874518,-0.011884343797480686,0.004235696774418466
1761468595857091600,4.727091552734375,0.11439970164000987,-0.002373451133072376,0.02487628351068124
1761468595867075600,4.73707568359375,0.12068506551980972,0.007081756688188761,0.03773892058867495
1761468595877058800,4.747058837890625,0.13145955751240251,0.008631744342856108,0.03597962386514991
1761468595887041800,4.757041748046875,0.1233785423874855,-0.0009021501712268218,0.023021746251755393
1761468595897024800,4.767024658203125,0.1274175886452198,0.006581520115048624,0.005742539407103322
1761468595907007700,4.7770078125,0.12427461444437503,0.013905063369590789,-0.004657050291914493
1761468595916991700,4.78699169921875,0.12771627933084964,0.007824304984067566,-0.009350103478971868
1761468595926974700,4.796974609375,0.13280161977112293,0.010253322229278274,-0.009899754984676837
1761468595936958000,4.8069580078125,0.12546820814311505,0.020057612916268407,-0.019374293127493
1761468595946941000,4.81694091796875,0.12412205423116683,0.015653313542716204,-0.023546902637020684
1761468595956923600,4.826923583984375,0.12771160315573216,-0.006197470967215486,-0.010460759001458063
1761468595966907600,4.83690771484375,0.11753624610006809,0.0055623011691030115,-0.006171290779765695
1761468595976891000,4.846890869140625,0.12651450232565403,-0.003360704038175754,-0.000566392577951774
1761468595986873900,4.856873779296875,0.12172492996156214,-0.01934344133150298,0.012185441069328225
1761468595996856600,4.866856689453125,0.12007716275453567,-0.016186105245165526,0.007896539103216492
1761468596006839800,4.87683984375,0.1217225918740034,-0.010363276276621036,0.008911068174312822
1761468596016823800,4.88682373046875,0.12097440385520458,-0.010389104837621562,0.0022119449950056148
1761468596026806800,4.896806884765625,0.13324468736350537,-0.010031546404492109,0.01067572605954483
1761468596036790000,4.9067900390625,0.12920271849632262,-0.005295882484992034,0.014258242455124854
1761468596046772700,4.916772705078125,0.1245633682578802,0.008258591048372909,0.006639725708845071
1761468596056755700,4.926755615234375,0.13129647590517998,0.010871088801440783,0.014747153916652314
1761468596066739000,4.936739013671875,0.12531038723289967,0.014811387392436154,0.01829957200149074
1761468596076723000,4.946722900390625,0.11797814464867114,0.025419176482036707,0.0074067691251635545
1761468596086705700,4.95670556640625,0.11797697560489177,0.018009503013733774,0.0007735690552275628
1761468596096688600,4.966688720703125,0.1205202303469181,0.001679404454305768,-0.004658251301734708
1761468596106671900,4.976671875,0.11139116747379302,-0.008210139663610607,-0.02675323809739202
1761468596116652500,4.986652587890625,0.11393383769392966,-0.006992781496793031,-0.025773328248527832
1761468596126635500,4.996635498046875,0.12545534866154193,-0.012597606633370742,-0.010961717093805782
1761468596136618500,5.006618408203125,0.1212654957562685,-0.010843666504975407,-0.009272562997043132
1761468596146601500,5.0166015625,0.12979542369246483,-0.009239889136725105,-0.0014366178075317293
1761468596156584400,5.02658447265625,0.12171791569888592,-0.006480895585054531,-0.006583314779913052
1761468596166568400,5.036568359375,0.12695523183047772,-0.014334508861997164,0.004966705329553224
1761468596176551700,5.0465517578125,0.11932546760439872,0.0018418741401750593,0.02086302928132936
1761468596186534700,5.05653466796875,0.1212695874094963,0.0032053582128370177,0.023988148165075107
1761468596196517400,5.066517333984375,0.11333762536644935,0.0015502479495713487,0.011644671556400135
1761468596206500600,5.07650048828125,0.12291326296329498,0.00444436195588205,0.018171963566448537
1761468596216484600,5.086484619140625,0.1306932493150234,0.004851778279570862,0.014376265644491648
1761468596226467600,5.096467529296875,0.1130348430275917,0.017779493650142104,0.00745357197553385
1761468596236450600,5.106450439453125,0.12201368377506733,0.016213522975053636,-0.00425536958926823
1761468596246433500,5.11643359375,0.13248831603825093,0.02045030659486074,-0.00671853569925297
1761468596256416500,5.12641650390625,0.1245592766046524,0.008033294392516837,-0.0045278526879847045
1761468596266399700,5.136399658203125,0.1137842000901699,0.011561409153160639,-0.006859012749022804
1761468596276383700,5.1463837890625,0.11138999843001365,0.004462833760911599,-0.010606241019908338
1761468596286366500,5.156366455078125,0.13877484896183012,-0.0023099437430733815,0.0014027657702798022
1761468596296349400,5.166349365234375,0.10480594386458396,-0.001972802476887591,0.006128301021410152
1761468596306332700,5.176332763671875,0.11213877097070217,-0.0028361778405727816,0.0005380386997247115
1761468596316315400,5.1863154296875,0.1163286238759756,-0.011671449965471401,-0.005287228821078315
1761468596326299400,5.19629931640625,0.1197708732843399,-0.007180330824991687,-0.0018721916466252876
1761468596336282400,5.206282470703125,0.11138999843001365,-0.008446131243417039,0.0019436996799893677
1761468596346265600,5.216265625,0.11827449724674224,-0.021544746201485394,-0.004068030323623679
1761468596356248600,5.22624853515625,0.13473404913842676,-0.0064441026720451185,-0.009402377088903449
1761468596366231600,5.2362314453125,0.11872341005802153,0.0037192077527986836,-0.013097669676574877
1761468596376215600,5.246215576171875,0.12201660638451575,0.013185672187013551,0.003053665649308823
1761468596386198500,5.256198486328125,0.12381225762963294,0.01917421311128419,0.00957793001863174
1761468596396181500,5.266181396484375,0.11857494149804114,0.01693326578408014,0.017459522714465856
1761468596406164700,5.276164794921875,0.12336159125268459,0.021997572569479235,0.02689152319007553
1761468596416147500,5.2861474609375,0.11632803935408592,0.01665436207773164,0.02324775529366452
1761468596426131500,5.29613134765625,0.1296446170449257,0.009536342199495992,0.012322347055678255
1761468596436114400,5.306114501953125,0.12560264817774294,0.0020159337991382926,0.00995295104321558
1761468596446097700,5.31609765625,0.12739654585719107,-0.005637608594750054,-0.009509079733234829
1761468596456080400,5.326080322265625,0.13173603636622427,-0.01345271192563232,-0.010510004970664158
1761468596466063600,5.336063720703125,0.11737199544906615,-0.01035313390851952,-0.01588053729417734
1761468596476047600,5.346047607421875,0.12066519177556037,-0.028978407900151795,-0.013654266946297138
1761468596486030600,5.356030517578125,0.12919570423364637,-0.015288106092670931,-0.019312384039536116
1761468596496013600,5.366013671875,0.12261340323388575,-0.02832812729787547,-0.023732867362909017
1761468596505996500,5.37599658203125,0.10779986498355865,-0.012960960053047164,-0.020376373708969914
1761468596515979500,5.3859794921875,0.13144435994327067,-0.001981337409792468,0.0019219353727530687
1761468596525963500,5.395963623046875,0.11274082851707935,0.013868366354703902,0.008816357361874543
1761468596535946500,5.405946533203125,0.12097089672386646,0.022869286503246985,0.012298801783309317
1761468596545929500,5.415929443359375,0.12635901950299738,0.02306018769915681,0.009284258001414128
1761468596555912400,5.425912353515625,0.12994973747134209,0.03308289777664467,0.0061714140773518
1761468596565895700,5.435895751953125,0.12875263664126396,0.026229985974845476,0.02670080465725623
1761468596575879700,5.445879638671875,0.1139367603033781,0.01976775855764281,0.01935823704183567
1761468596585862700,5.455862548828125,0.11213935549259185,0.006901801577978767,-0.0013154710793169214
1761468596595845400,5.465845458984375,0.12096622054874896,-0.009917879729834385,-0.017745755777321754
1761468596605828600,5.47582861328125,0.12006897944808005,-0.018462881937576458,-0.011837888006982393
1761468596615811600,5.4858115234375,0.12366028193831444,-0.02686227882928215,-0.017913531825970858
1761468596625795600,5.495795654296875,0.11767594683170318,-0.023503182226303033,-0.009637660849234089
1761468596635778300,5.5057783203125,0.11468436380028724,-0.020161132656247353,-0.005854434249782934
1761468596645761500,5.515761474609375,0.10899930390119551,-0.007638184994552284,0.0047573505949229
1761468596655744500,5.52574462890625,0.13069792549014092,-0.010445894792466423,0.020687933009327388
1761468596665727500,5.5357275390625,0.11917758356630802,-0.008070954955206253,0.016974465444148518
1761468596675711700,5.545711669921875,0.1280062021881342,0.01001484186486341,0.0020643349515506995
1761468596685694500,5.555694580078125,0.12112345693707466,0.005785396734718233,0.0016235643475316463
1761468596695677400,5.565677490234375,0.13145020516216754,0.023806243126373736,0.007873587485891766
1761468596705660700,5.57566064453125,0.1269604925274849,0.021723303939052856,0.006469862734386697
1761468596715643600,5.5856435546875,0.11513736826479434,0.029752492978610098,0.028768427544436415
1761468596725627400,5.59562744140625,0.11902736144065856,0.035529779472108926,0.02641443003050517
1761468596735610400,5.6056103515625,0.1315951665908098,0.02106477153166197,0.011262394240545108
1761468596745593600,5.615593505859375,0.13368892399966717,0.0034377650294918566,-0.004004111941670998
1761468596755576600,5.62557666015625,0.11722761854231357,-0.017803938538231884,-0.016854186365613713
1761468596765559600,5.6355595703125,0.12216624398827552,-0.02706071944425348,-0.01633703519029077
1761468596775542500,5.64554248046875,0.12994798390567303,-0.02516133839660324,-0.024044344464875755
1761468596785526500,5.655526611328125,0.11423603551089763,-0.024114044133643618,-0.008764837237191386
1761468596795509500,5.665509521484375,0.12097089672386646,-0.020162717258557675,-0.009447024514805525
1761468596805492700,5.67549267578125,0.1356353818923235,-0.007390923102060332,0.0009022871685447171
1761468596815475500,5.685475341796875,0.11543430538475513,0.0018466918791877104,0.011554563853843137
1761468596825458400,5.69545849609375,0.12052139939069748,0.002855855221999809,0.015948264201567506
1761468596835442400,5.7054423828125,0.1169300969004631,0.02030343633692246,0.021380308320815673
1761468596845425700,5.71542578125,0.12964929322004318,0.028886962190456687,0.03028935806797817
1761468596855408400,5.725408447265625,0.12635609689354896,0.02203858499987982,0.025741535737621595
1761468596865391600,5.7353916015625,0.12396072618961333,0.02867578082492109,0.024107381497416643
1761468596875374600,5.74537451171875,0.12605214551091193,0.021644265619781798,0.00937227421158459
1761468596885358600,5.755358642578125,0.1254524260520935,0.014188789381529204,-0.015457571774907409
1761468596895341600,5.765341552734375,0.12320727747380733,-0.008465114505100063,-0.03309846067195758
1761468596905324500,5.775324462890625,0.13682371489405631,-0.01797072363961488,-0.03926999804689549
1761468596915307500,5.7853076171875,0.08923954142034053,-0.03774037732682191,-0.04111669449266046
1761468596925290500,5.79529052734375,0.14266133500635622,-0.05191471349131316,-0.03759011866855435
1761468596935274500,5.8052744140625,0.10974456931054591,-0.04277952683807816,-0.03842270160175394
1761468596945257500,5.815257568359375,0.12934826444685457,-0.016992352727288378,-0.014289856869517824
1761468596955240400,5.825240478515625,0.11408698242902755,0.0033184723316458985,0.012736992271174676
1761468596965223400,5.835223388671875,0.1407236449420452,0.034109619609033685,0.04344379029993433
1761468596975206700,5.84520654296875,0.12456219921410083,0.06487702525123022,0.07325643880083225
1761468596985190700,5.855190673828125,0.11902443883121012,0.07135193862006999,0.08397256080284714
1761468596995173400,5.86517333984375,0.12096797411441802,0.05630278324927203,0.057231488067284224
1761468597005156600,5.875156494140625,0.1435609141945839,0.029538384437048808,0.025164598932769146
1761468597015139600,5.8851396484375,0.11004092190861701,0.0034106623934349045,-0.011405592970363795
1761468597025122600,5.89512255859375,0.11303250494003295,-0.02608336687865667,-0.04501763375422451
1761468597035105500,5.90510546875,0.11527648447453975,-0.03824829031634144,-0.04963031974802725
1761468597045089500,5.915089599609375,0.12201076116561889,-0.028432870880560946,-0.03190780784897506
1761468597055072500,5.925072509765625,0.12515490441024302,-0.019262439384008758,-0.010750330232293345
1761468597065055500,5.935055419921875,0.1199187573224306,-0.015119804887636564,-0.00459465258019045
1761468597075038500,5.94503857421875,0.11991934184432029,-0.024996635654452256,-0.00909547113077715
1761468597085022500,5.9550224609375,0.11453589524030684,-0.01772431569707114,-0.011060734188603236
1761468597095005400,5.96500537109375,0.12695873896181584,-0.026214327181410042,-0.027009948238241484
1761468597104988700,5.97498876953125,0.13369476921856402,-0.02345060265569482,-0.019926278154179453
1761468597114971600,5.9849716796875,0.12112696406841278,0.0001183382831979543,0.0008706407881109043
1761468597124954400,5.994954345703125,0.11783552130758762,0.026379486581287345,0.022526286318432537
1761468597134937600,6.0049375,0.1187339314520359,0.04500308463906404,0.04030193947709631
1761468597144921600,6.014921630859375,0.12112813311219214,0.0609841551316902,0.051138715016981584
1761468597154904600,6.024904541015625,0.13100187687277792,0.06409600810848642,0.0468571606736863
1761468597164887600,6.034887451171875,0.11573708772361278,0.041445168395200745,0.037906943232496264
1761468597174870500,6.04487060546875,0.12276713249087333,0.0196554664227413,0.017809505195915697
1761468597184853500,6.054853515625,0.11887421670556068,0.005352320813387632,-0.0000015572028467431664
1761468597194837500,6.06483740234375,0.1242588323533535,-0.018030751297739334,-0.012200195680465549
1761468597204820700,6.07482080078125,0.1221627368569374,-0.02235375646285247,-0.024892640990437937
1761468597214803500,6.084803466796875,0.10869418347477912,-0.03401168479304761,-0.03221790584460832
1761468597224786400,6.094786376953125,0.12126432671248911,-0.044446090077119874,-0.05039307514829561
1761468597234769700,6.104769775390625,0.11976911971867084,-0.04506201631864533,-0.03769472068734467
1761468597244753700,6.114753662109375,0.11228723953068255,-0.0313223772104131,-0.0344196856386261
1761468597254736400,6.124736328125,0.1167775366872549,-0.016416826994810254,-0.017934341718559153
1761468597264719400,6.13471923828125,0.11992284897565841,0.0009467930305516347,0.010526768875797279
1761468597274702600,6.14470263671875,0.1274047291636467,0.033384469972527586,0.031026517802686428
1761468597284685600,6.154685546875,0.11992226445376872,0.05103150548257399,0.05497521530678495
1761468597294669600,6.164669677734375,0.12066928342878817,0.06745883103851229,0.058384968951344485
1761468597304652500,6.174652587890625,0.12381050406396388,0.07062897637407295,0.05239974792874418
1761468597314635500,6.184635498046875,0.13338497261703014,0.055191077414015306,0.04398396159124095
1761468597324618500,6.194618408203125,0.12380524336695671,0.027916879615862852,0.020089683988387695
1761468597334601700,6.204601806640625,0.12544950344264508,0.012069609837047754,-0.007625471643451601
1761468597344584400,6.21458447265625,0.13248130177557468,-0.009227659842814318,-0.042113441311893984
1761468597354568400,6.224568359375,0.11661971577703951,-0.043930313441553154,-0.06050834061375353
1761468597364551400,6.234551513671875,0.1250000061094761,-0.053762793609988875,-0.06333874173408839
1761468597374534700,6.24453466796875,0.12515022823512553,-0.05712551607531495,-0.05268561109884176
1761468597384517400,6.254517333984375,0.1055494557082653,-0.03987690529832616,-0.03361626030125189
1761468597394500600,6.26450048828125,0.11707505832910536,-0.03730183064593002,-0.01475735565025825
1761468597404484600,6.274484619140625,0.12545768674910068,-0.016858675311063415,0.020354234942398033
1761468597414467600,6.284467529296875,0.1160322712779045,0.0032619746377458795,0.03975110066130291
1761468597424450600,6.294450439453125,0.12411270188093185,0.02664723870595917,0.06169083752974402
1761468597434433500,6.30443359375,0.12067045247256755,0.041007571562379594,0.062006958840787406
1761468597444416500,6.31441650390625,0.11887363218367099,0.037892590480158105,0.06359737897054292
1761468597454400500,6.324400390625,0.1199187573224306,0.04358478793951217,0.047784203257574695
1761468597464383500,6.334383544921875,0.13652619325220583,0.0418101794824237,0.04050892872470431
1761468597474366500,6.344366455078125,0.11542436851263045,0.03825218560674693,0.019673344572726636
1761468597484349400,6.354349365234375,0.11078443375229835,0.017871167688700368,-0.0013498208734905347
1761468597494332700,6.364332763671875,0.12200608499050139,0.001698300951020792,-0.036760348746948876
1761468597504316700,6.374316650390625,0.11602116536200045,-0.028313847610773518,-0.05014757138804998
1761468597514299600,6.384299560546875,0.12844342456161975,-0.05835247318753972,-0.08287529448489658
1761468597524282400,6.394282470703125,0.10450433056950569,-0.06337137449521105,-0.09501716584055683
1761468597534265600,6.404265625,0.12740122203230858,-0.050935187234939075,-0.07641662899795919
1761468597544248600,6.41424853515625,0.12126841836571693,-0.0456960079398239,-0.02978645461371634
1761468597554231600,6.4242314453125,0.11708148806989192,-0.01075396066121757,0.01606118195755407
1761468597564215300,6.43421533203125,0.12860533712506295,0.023928220971650444,0.050073177277855575
1761468597574198500,6.444198486328125,0.12516367223858832,0.039875224797893315,0.06906117906807921
1761468597584181500,6.454181396484375,0.13354454709291458,0.044873672406002874,0.07735736218048259
1761468597594164700,6.464164794921875,0.1336912620872259,0.048184660117514426,0.07869485786193982
1761468597604147500,6.4741474609375,0.12560966244041918,0.03913726134558674,0.05320380345378071
1761468597614131500,6.48413134765625,0.13189151918888092,0.031123680867115033,0.03302075122667011
1761468597624114400,6.494114501953125,0.12246259658634662,0.013986974065960384,0.007119129556510597
1761468597634097700,6.50409765625,0.11722411141097545,0.0013779555560089647,-0.01990183326608967
1761468597644080600,6.51408056640625,0.11004033738672733,-0.02085201469697058,-0.04031499532149173
1761468597654063400,6.5240634765625,0.1209644669830799,-0.027798783361259845,-0.056751321601215744
1761468597664046600,6.534046630859375,0.1196183130711317,-0.016382815127354115,-0.053586309098498895
1761468597674030600,6.544030517578125,0.10270984836816788,-0.022713447487563824,-0.048669708254677244
1761468597684013600,6.554013671875,0.10405775584578514,-0.022961312168254516,-0.03354122230366338
1761468597693996500,6.56399658203125,0.13383739255964755,-0.01996537718870677,-0.03655093008023687
1761468597703979500,6.5739794921875,0.12530980271100997,-0.018177183164260348,-0.009953448800137266
1761468597713962500,6.58396240234375,0.1266588792324066,0.007115814221417531,0.012920335781713947
1761468597723946500,6.593946533203125,0.11872808623313903,0.012694637267058714,0.039010374429752116
1761468597733929700,6.6039296875,0.12755787389874457,0.033908895705430764,0.05729948440273292
1761468597743912400,6.613912353515625,0.11304302633404731,0.02351711028695572,0.06213520203006919
1761468597753895400,6.6238955078125,0.1262099664211273,0.022429662110120988,0.047888732211128805
1761468597763878700,6.633878662109375,0.11453472619652748,0.009447458339645528,0.023930723455990663
1761468597773862700,6.643862548828125,0.13218962535262108,0.003974132361938245,0.0057270313107175745
1761468597783845400,6.653845458984375,0.12710077778100967,0.004237783700227737,-0.0059406146958936
1761468597793828600,6.66382861328125,0.12036708561182022,-0.0016840988957323134,-0.02122637356785126
1761468597803811600,6.6738115234375,0.12261106514632701,0.0025760108007350934,-0.02343647366564255
1761468597813794600,6.683794677734375,0.1309907709568739,-0.0010061631015501917,-0.021013050477579235
1761468597823777500,6.693777587890625,0.1242582478314638,-0.014674495105817913,-0.021609052742505446
1761468597833761500,6.703761474609375,0.10794833354353904,-0.013614724953775293,-0.011689693441637792
1761468597843744500,6.71374462890625,0.10764905833601951,-0.004183363798982463,-0.017996986025455408
1761468597853727500,6.7237275390625,0.12037000822126864,-0.00006714695207774639,0.0028624402264133095
1761468597863710700,6.733710693359375,0.12575871552228926,0.008050126796308904,0.0032881548251956698
1761468597873693400,6.743693359375,0.13264379886090755,0.01260680371997878,0.0018723149442113935
1761468597883677400,6.753677490234375,0.1363847389549017,0.010683772368682547,0.010221196358231826
1761468597893660700,6.76366064453125,0.13114742282330988,0.008289684872957878,0.016046267516212537
1761468597903643600,6.7736435546875,0.12336685194969177,0.0016808657590299844,0.013761567812249995
1761468597913626400,6.78362646484375,0.12411387092471123,-0.002204675004002638,0.011555326472246087
1761468597923609600,6.793609619140625,0.13219371700584887,0.005474193627387285,0.009206183229945599
1761468597933593600,6.803593505859375,0.1408715289801359,-0.002215155298821628,0.017030346650118006
1761468597943576600,6.81357666015625,0.12590659956037997,-0.002590829343954101,0.01598009781166911
1761468597953559600,6.8235595703125,0.11752630922794341,-0.005399822350079193,0.009434009769605472
1761468597963542500,6.83354248046875,0.11692834333479404,-0.009448723281547427,-0.00003948262701742351
1761468597973525500,6.843525390625,0.115880295586586,0.001997256498131901,-0.0038944638550048693
1761468597983508500,6.853508544921875,0.1293476799249649,0.006441390125150792,-0.010219538690685294
1761468597993492500,6.863492431640625,0.11333704084455966,0.0146494337297976,-0.009530752708925864
1761468598003475500,6.873475341796875,0.11393734482526778,0.003068392860982567,-0.018645257333735933
1761468598013458400,6.88345849609375,0.10361351920962333,-0.005663825314817949,-0.024462126918951978
1761468598023441700,6.893441650390625,0.11648235313296318,-0.015273063787166028,-0.016171738793095573
1761468598033424600,6.903424560546875,0.13234393913149833,-0.0008502966864034533,-0.005673953983187675
1761468598043408600,6.91340869140625,0.12142156310081481,0.0023851507040206343,-0.0010220547904260457
1761468598053391400,6.923391357421875,0.11917699904441832,0.009617156917322426,0.010933952304045669
1761468598063374600,6.93337451171875,0.11319266393780708,0.013852986122481524,0.016254279677127486
1761468598073357600,6.943357666015625,0.13309388071596623,0.0316418960549403,0.027747171905031426
1761468598083340500,6.953340576171875,0.1339917063385248,0.031208477640314956,0.024453107928857205
1761468598093323500,6.963323486328125,0.12321662982404231,0.008826750891725531,0.01795306925191544
1761468598103307500,6.9733076171875,0.1242623394846916,0.0132677746796282,0.00028751170448958874
1761468598113290500,6.98329052734375,0.11543430538475513,0.002462060998287052,0.0007313921476248651
1761468598123277300,6.99327734375,0.10795125615298748,-0.010692946622404269,-0.010100670684524811
1761468598133260300,7.00326025390625,0.12815174813866614,-0.017852673050784505,-0.021256668241415172
1761468598143243300,7.0132431640625,0.12007131753563881,-0.01749692298225127,-0.016365288603818043
1761468598153227300,7.023227294921875,0.11184241837263106,-0.014054107318306341,-0.0118487381945597
1761468598163210500,7.03321044921875,0.11872750171124935,-0.007066801147651858,0.004218553843372501
1761468598173193200,7.043193115234375,0.12142331666648387,0.003472662812937051,0.017134674674272536
1761468598183176200,7.05317626953125,0.13264730599224567,0.004167700438969768,0.02523237150593195
1761468598193159400,7.063159423828125,0.12755787389874457,0.0011170989630045368,0.026523493595281614
1761468598203143400,7.073143310546875,0.138780694180727,0.006968724767770618,0.03076531414981
1761468598213126400,7.08312646484375,0.120223877748847,-0.011585424782987684,0.0038015294411219655
1761468598223109000,7.093109130859375,0.11633505361676215,-0.02971845827826764,-0.011548362441919743
1761468598233092400,7.10309228515625,0.1471592309474945,-0.019326919454964807,-0.031681670942902564
1761468598243075300,7.113075439453125,0.09777999075055122,-0.002105182985169813,-0.013397999763442203
1761468598253058600,7.12305859375,0.1395294667214155,0.03233464582576416,0.0036143271727953103
1761468598263042300,7.133042236328125,0.1292033030182123,0.03984840528962668,0.02933562383998651
1761468598273025300,7.143025390625,0.1179804827362299,0.03959067223547026,0.03141688252687454
1761468598283008300,7.15300830078125,0.11917699904441832,0.01923222234225832,0.002982290046685375
1761468598292991500,7.162991455078125,0.12561083148419858,-0.008128521228185854,-0.030194464592449365
1761468598302974200,7.17297412109375,0.13339198687970638,-0.0325437265657587,-0.04168008682935033
1761468598312958200,7.182958251953125,0.10406477010846138,-0.049414927998255004,-0.028235622142255303
1761468598322941200,7.192941162109375,0.11753273896872997,-0.0420554138146108,-0.012549812835734336
1761468598332924400,7.20292431640625,0.12576397621929644,-0.007083998877624981,0.011442760342708788
1761468598342907400,7.212907470703125,0.12262158654034137,0.0019556001803372053,0.037670878587453625
1761468598352890400,7.222890380859375,0.12217267372906207,0.012012317558703944,0.05029128614109941
1761468598362873300,7.232873291015625,0.12890636589825152,0.01302729872094933,0.04456833278387785
1761468598372857300,7.242857421875,0.13234803078472612,0.01037438219252508,0.024612189214397222
1761468598382840300,7.25284033203125,0.1238186873704195,0.010990235368814319,0.008474380090367049
1761468598392823300,7.2628232421875,0.11274492017030716,0.0023633407310117037,-0.002280119426967576
1761468598402806300,7.27280615234375,0.12261924845278262,0.015449835993023589,-0.006290688508888706
1761468598412789200,7.282789306640625,0.11603460936546325,0.017252611098671333,-0.005117708339914679
1761468598422773200,7.292773193359375,0.12216916659772395,0.02210421128172893,-0.013722272414900361
1761468598432756500,7.302756591796875,0.12351473598778247,0.014609151951759122,-0.018660381837631575
1761468598442739200,7.3127392578125,0.11857611054182052,-0.005115982173709199,-0.026534275284199976
1761468598452722400,7.322722412109375,0.12336451386213301,-0.01857337027445901,-0.03773422158067114
1761468598462705400,7.332705322265625,0.10795125615298748,-0.011397199601354076,-0.03316116434435826
1761468598472688400,7.3426884765625,0.1238145957171917,-0.011188073195586911,-0.020330420241970567
1761468598482672000,7.352672119140625,0.13324351831972597,-0.0033375058256788176,0.009437822861620225
1761468598492655400,7.3626552734375,0.11932780569195747,0.01062451646211557,0.03243063527983613
1761468598502638300,7.372638427734375,0.11813187390565871,0.021206801217701285,0.04864909472491126
1761468598512621300,7.382621337890625,0.1296528003513813,0.024565514228190293,0.05175758670084178
1761468598522604300,7.392604248046875,0.11648352217674254,0.020875336207053622,0.041608962388476355
1761468598532587300,7.402587158203125,0.1176788694411516,0.0027003495664568618,0.019589406316052188
1761468598542571300,7.4125712890625,0.12486147442162036,-0.011141822901065461,-0.010862334672827273
1761468598552554500,7.422554443359375,0.11184300289452076,-0.027657730922754854,-0.02381096496726386
1761468598562537500,7.432537353515625,0.12605857525169847,-0.024529141440289094,-0.028572105821315197
1761468598572520200,7.442520263671875,0.12291735461652278,-0.03066620572346728,-0.0318752618528204
1761468598582503400,7.45250341796875,0.12501345011293888,-0.014320818263362161,-0.02295635743192397
1761468598592487400,7.4624873046875,0.12666063279807566,0.004612352633662522,-0.009501585979945958
1761468598602470400,7.472470458984375,0.12516659484803677,0.0005672419613227248,0.004548945708363316
1761468598612453000,7.482453125,0.1131961710691452,0.017971189430495724,0.014531985929165965
1761468598622436400,7.492436279296875,0.13683949698507786,0.01252986145967152,0.02660491566788405
1761468598632419300,7.50241943359375,0.12277356223165989,0.023837291285186073,0.027620732513768596
1761468598642402300,7.51240234375,0.12322072147727012,0.024629085550270973,0.02453851205683313
1761468598652386300,7.52238623046875,0.12471709751486777,0.03126126727347728,0.02036939597891178
1761468598662369300,7.532369384765625,0.11094926892518997,0.03038382228524424,0.02138077867827378
1761468598672352300,7.542352294921875,0.12935410966575145,0.013201993134152143,0.007239417768199928
1761468598682335500,7.55233544921875,0.12052549104392528,-0.009356866579898633,-0.014481105125299654
1761468598692318500,7.562318359375,0.12247077989280224,-0.03145315941665321,-0.028772596829477696
1761468598702302200,7.57230224609375,0.12890578137636183,-0.037772078506182874,-0.03790080575265456
1761468598712285200,7.58228515625,0.11783318322002886,-0.021918045626441014,-0.029503765214816666
1761468598722268400,7.592268310546875,0.11858312480449676,-0.031890171727584675,-0.007493748722295276
1761468598732251400,7.60225146484375,0.12008125440776347,-0.020831693428149445,0.02815395804105792
1761468598742234000,7.612234130859375,0.12427227635681629,-0.010588435935159212,0.043039127622335215
1761468598752217300,7.62221728515625,0.12038111413717269,-0.012551128009986132,0.05152891534438822
1761468598762201300,7.632201416015625,0.11873451597392558,-0.006902628128463402,0.037822863411926665
1761468598772184300,7.642184326171875,0.11514204443991184,-0.008250535606080666,0.020503466120781376
1761468598782167600,7.65216748046875,0.11544131964743137,0.004515331133129075,-0.0015074636871926486
1761468598792150300,7.662150390625,0.12247487154603004,0.01547870589448139,-0.005550976057490334
1761468598802133200,7.67213330078125,0.11618892314434051,0.01647139759310521,-0.0231466878056759
1761468598812116500,7.682116455078125,0.12337035908102989,0.021991115429229102,-0.034930840898002496
1761468598822100500,7.6921005859375,0.1140934121698141,0.038287928206985816,-0.023128138368832877
1761468598832083200,7.702083251953125,0.12022796940207481,0.048027149734552944,-0.005910141925816424
1761468598842066200,7.712066162109375,0.13294541215598582,0.06569463894416112,0.006824818218476139
1761468598852049400,7.72204931640625,0.11393909839093684,0.05850264964741654,0.011375777787412516
1761468598862032400,7.732032470703125,0.11453647976219654,0.02616058313359972,-0.011348944579414091
1761468598872016400,7.742016357421875,0.1312953068614006,-0.00999127832618542,-0.022952558039641007
1761468598881999400,7.751999267578125,0.12336392934024333,-0.026382395491003987,-0.03444886150076054
1761468598891982300,7.761982421875,0.1060065518260002,-0.037432119661825705,-0.01642794661044609
1761468598901965300,7.77196533203125,0.12306523865461348,-0.03421808951876592,0.011004336959403008
1761468598911948300,7.7819482421875,0.1203717617869377,-0.032227988847205416,0.03186986872507259
1761468598921931300,7.79193115234375,0.1356353818923235,-0.02401181673503015,0.04659572869194671
1761468598931915300,7.801915283203125,0.10660685580670833,-0.012880437596165575,0.060596142194792625
1761468598941898200,7.811898193359375,0.1295002401381731,-0.008072393427044152,0.046652728709345684
1761468598951881500,7.821881591796875,0.1317436351507902,-0.010449799216026439,0.02061284477938898
1761468598961864200,7.8318642578125,0.1323404320001602,-0.003908474114048295,-0.0038168868404580276
1761468598971847200,7.84184716796875,0.11618015531599521,-0.007686503948573954,-0.02266242055322509
1761468598981830400,7.851830322265625,0.11603051771223545,-0.0008504884826485067,-0.025197053597378543
1761468598991814400,7.861814453125,0.12126666480004787,0.00942874450602103,-0.022799189542257226
1761468599001797400,7.87179736328125,0.1293470954030752,0.03391770006639417,-0.022198817062890158
1761468599011780400,7.8817802734375,0.1241103637933731,0.04444460593950934,-0.01619707873032894
1761468599021763300,7.891763427734375,0.12081775198876857,0.029627218064549377,-0.02657087183438707
1761468599031746300,7.901746337890625,0.12410977927148341,0.031235772072616963,-0.0058615763766225425
1761468599041730300,7.911730224609375,0.12605565264225005,0.03632600331713911,0.008726729149930178
1761468599051713300,7.92171337890625,0.12770225080549716,0.035381854334822854,0.019009588000946678
1761468599061696300,7.9316962890625,0.12680442518293858,0.016470931802224368,0.027035685467696746
1761468599071679200,7.94167919921875,0.12889935163557528,-0.004391175030497834,0.019164783129235727
1761468599081662500,7.951662353515625,0.11288754351139067,-0.019355045004328712,0.016967200019722805
1761468599091645200,7.961645263671875,0.11782558443546294,-0.02923704513660632,-0.0020560055146226657
1761468599101629200,7.971629150390625,0.12830021669864652,-0.04859155128481798,-0.0194871195519343
1761468599111612400,7.9816123046875,0.12620529024600982,-0.04259771313092205,-0.01768893385643605
1761468599121590800,7.9915908203125,0.11677929025292395,-0.03397683267537504,-0.017248971536592578
1761468599131574000,8.001573974609375,0.12276596344709395,-0.0325627372269053,-0.013411512265563941
1761468599141555700,8.0115556640625,0.12216858207583427,-0.019032443720148874,-0.0019651214939309285
1761468599151539000,8.0215390625,0.12635960402488708,-0.009271722746826708,0.015403727262397296
1761468599161522000,8.03152197265625,0.12770751150250434,0.001441864804807119,0.018181046488624997
1761468599171504600,8.041504638671874,0.12860592164695261,0.02311038808301091,0.01614042120622471
1761468599181487900,8.05148779296875,0.1351899762123823,0.043531687779095954,0.031194759642216376
1761468599191470800,8.061470947265626,0.12052549104392528,0.048608415654650884,0.034950559378624894
1761468599201454800,8.071454833984374,0.12905308089256287,0.053437744640395975,0.0495274941277923
1761468599211437800,8.081437744140626,0.13458616510033608,0.05692185129595454,0.044939266721811144
1761468599221420800,8.0914208984375,0.12231412802636622,0.04994277409752831,0.03570736452871933
1761468599231403800,8.10140380859375,0.11558043585717677,0.022774945583567022,0.014468241077149287
1761468599241387000,8.111386962890625,0.11019231307804583,-0.012604100306238979,-0.027486205714172682
1761468599251369700,8.12136962890625,0.12066519177556037,-0.043826611038483676,-0.05542103197867982
1761468599261353700,8.131353759765625,0.1163245322227478,-0.052260905713634564,-0.07317950567367952
1761468599271336700,8.141336669921875,0.11273556782007217,-0.05746292676955927,-0.06830366609850898
1761468599281320000,8.15131982421875,0.11423369742333889,-0.048980472970590924,-0.040095763080241154
1761468599291303000,8.161302978515625,0.13069675644636153,-0.02468128152838908,-0.004497507782070897
1761468599301285600,8.17128564453125,0.1259095221698284,0.009257228430593385,0.02403951759270858
1761468599311268900,8.181268798828125,0.11169453433454037,0.016263467630580997,0.04216943211571779
1761468599321252900,8.1912529296875,0.12815467074811457,0.017487141373753547,0.055356350978324184
1761468599331235800,8.20123583984375,0.13339140235781669,0.014667279913742094,0.029545855357451363
1761468599341218800,8.21121875,0.11887538574934005,0.01662112652841024,0.015946889661811292
1761468599351201800,8.221201904296874,0.1134878474920988,0.016946253129816614,0.010606346051185392
1761468599361184800,8.231184814453124,0.13039631219506262,0.010579873602790757,0.015300102491141295
1761468599371168000,8.24116796875,0.12650514997541903,0.033587550229998306,0.018149075881205498
1761468599381152000,8.251152099609374,0.12051847678124904,0.03045765927301254,0.01771977195269428
1761468599391134700,8.261134765625,0.1199187573224306,0.02824092393845785,0.010529942646995185
1761468599401117700,8.27111767578125,0.1242588323533535,0.0033301947354804724,0.0004333590491209179
1761468599411101000,8.281100830078126,0.11887012505233287,-0.009641839267429895,-0.02659212011839263
1761468599421084000,8.291083984375,0.1196183130711317,-0.036022526858537456,-0.03922393041546456
1761468599431067600,8.301067626953126,0.13802549189925192,-0.049406548328977076,-0.054263897832809015
1761468599441051000,8.31105078125,0.08266074755191803,-0.0710564536716789,-0.06208213840227108
1761468599451033900,8.321033935546875,0.13069675644636153,-0.06602104418720119,-0.04084329807849135
1761468599461016800,8.331016845703125,0.1154354744285345,-0.039449523898842744,0.003857634409377351
1761468599470999800,8.340999755859375,0.11992577158510684,0.007777547799469903,0.06092417770591564
1761468599480982800,8.350982666015625,0.12635960402488708,0.059517754107248036,0.1103877991175279
1761468599490966800,8.360966796875,0.13608312565982342,0.08226886215750127,0.13359508997006342
1761468599500949800,8.37094970703125,0.13278759124577044,0.07591019101289566,0.10845327825783752
1761468599510933000,8.38093310546875,0.11153729794621467,0.060606923883710986,0.04743648579844739
1761468599520915700,8.390915771484375,0.1100374147772789,0.007450242940708994,-0.025353057009843177
1761468599530898700,8.400898681640625,0.12170739430487156,-0.03188461420305539,-0.09185840041553602
1761468599540882000,8.4108818359375,0.12679507283270358,-0.042196169425593684,-0.11553102549118921
1761468599550866000,8.420865966796875,0.10898936702907085,-0.03482754035373218,-0.09780799300232902
1761468599560848600,8.4308486328125,0.1332335814476013,-0.014518080701399594,-0.06541884507692884
1761468599570832000,8.440831787109374,0.12410861022770404,0.000776190270576626,-0.03853396625677123
1761468599580814800,8.45081494140625,0.1253086336672306,0.013335661417222582,-0.00557795539596118
1761468599590797800,8.4607978515625,0.11468436380028724,0.006389486407977528,0.017966919680754652
1761468599600780800,8.47078076171875,0.11573299607038497,-0.0010464083469705655,0.03674714677208103
1761468599610764800,8.480764892578126,0.12530921818912027,-0.003186589580285363,0.053819775361078785
1761468599620747800,8.490747802734376,0.10974749191999435,0.004154050939530134,0.0662794713611016
1761468599630730800,8.500730712890626,0.11423545098900795,0.0153903334912844,0.07728265297645702
1761468599640714000,8.5107138671875,0.11722469593286514,0.024110500469687393,0.0808665028125979
1761468599650696700,8.52069677734375,0.12245792041122913,0.014427356510912067,0.050553585772519
1761468599660680000,8.530679931640625,0.11677052242457867,-0.003320381160941906,0.02028569975083228
1761468599670664000,8.540663818359375,0.1300888536810875,-0.009257438493147491,-0.02420302389161661
1761468599680647000,8.55064697265625,0.11871698031723499,-0.02144430890115909,-0.05131590734794736
1761468599690629600,8.560629638671875,0.11617255653142929,-0.041257637333311135,-0.08216901851221918
1761468599700612900,8.57061279296875,0.12844400908350945,-0.037944243035581894,-0.08902966152932494
1761468599710595800,8.580595947265625,0.11094050109684467,-0.01934603971396573,-0.058232376772095445
1761468599720578800,8.590578857421875,0.12336159125268459,0.03151415518915746,-0.0000379528236342594
1761468599730563800,8.600563720703125,0.12381108858585357,0.06035480315301101,0.0477490954115754
1761468599740547800,8.6105478515625,0.13188976562321186,0.05060213305540383,0.05913291494154837
1761468599750530800,8.62053076171875,0.11273498329818248,0.028370126108964902,0.03918872667134274
1761468599760513800,8.630513671875,0.1113882448643446,-0.007615370374545454,0.008511826023925095
1761468599770496800,8.640496826171875,0.13218611822128296,-0.012502653792337514,-0.009734303323854691
1761468599780480000,8.65047998046875,0.1254518415302038,-0.015996852583647705,-0.013472275142627768
1761468599790462700,8.660462646484374,0.1335311030894518,-0.029476278986269606,-0.01639084317018278
1761468599800446700,8.67044677734375,0.12545125700831414,-0.028632270476757548,0.0037171025606803593
1761468599810429700,8.6804296875,0.13068740409612656,0.009424008965399116,0.03875718968654983
1761468599820413000,8.690412841796874,0.11811784538030623,0.02860103052170016,0.054617159116733816
1761468599830396000,8.70039599609375,0.1446025322020054,0.027348884169291703,0.04865378003318328
1761468599840379000,8.71037890625,0.1172176816701889,0.021765846172836608,0.028102766709937714
1761468599850363000,8.72036279296875,0.1182633913308382,-0.004478789381869137,-0.015592199039203114
1761468599860345900,8.730345947265626,0.12335048533678054,-0.009739481822471134,-0.03584103737836703
1761468599870328800,8.740328857421876,0.12080664607286452,-0.009704214146267622,-0.050489740455802526
1761468599880311800,8.750311767578125,0.11706629050076008,-0.0126663518874906,-0.05543536646470893
1761468599890294800,8.760294677734375,0.11961188333034514,-0.006950691354158334,-0.04614654188603162
1761468599900277800,8.77027783203125,0.1143763207644224,0.0015886574309319256,-0.02592908049924299
1761468599910261800,8.78026171875,0.1164730007827282,0.011459533380996435,-0.008533193038939497
1761468599920245000,8.790244873046875,0.12380582788884639,0.02255527038432192,0.02053687063346151
1761468599930227700,8.800227783203125,0.13083879526555536,0.02440607218304649,0.03835656842982862
1761468599940211000,8.8102109375,0.12874445333480833,0.019810291658272035,0.04375241785768885
1761468599950194000,8.82019384765625,0.117670686134696,0.014322649460844696,0.034266120778420006
1761468599960176600,8.8301767578125,0.1098889462172985,0.003207947462145239,0.04367999194229487
1761468599970160600,8.84016064453125,0.13622457995712756,-0.006346665612980723,0.028521572077320888
1761468599980143900,8.850143798828125,0.12170739430487156,-0.00931724238898605,0.01672965123706963
1761468599990126800,8.860126953125,0.11587035871446132,-0.018403027809388003,0.00072950158463791
1761468600000109800,8.87010986328125,0.12245675136744975,-0.02079571336589288,-0.022436758571187963
1761468600010092800,8.8800927734375,0.12290683322250842,-0.02141187250285875,-0.03053923660924192
1761468600020075800,8.89007568359375,0.10749474455714225,-0.014415405778214334,-0.031109291582158766
1761468600030059800,8.900059814453124,0.11722294236719608,-0.0011576456025242806,-0.028150903000868855
1761468600040042800,8.910042724609376,0.11632628578841686,0.010594112190697341,-0.004925345839280635
1761468600050026000,8.92002587890625,0.1282978786110878,0.04286048311979975,0.01778595992354676
1761468600060008700,8.9300087890625,0.12814765648543833,0.040244464535661974,0.03474319567168131
1761468600069992000,8.939991943359376,0.1279974343597889,0.03209135228891391,0.042181602044124154
1761468600079975000,8.949974853515625,0.12844634717106818,0.017606406672135925,0.021876119880587793
1761468600089959000,8.959958984375,0.11198679527938366,-0.0033790890782373025,0.0035338412485318256
1761468600099941600,8.969941650390625,0.1070481698334217,-0.016318051928607746,-0.007662990642245859
1761468600109924900,8.9799248046875,0.11797171490788459,-0.029612531952071003,-0.011430951173906214
1761468600119911700,8.98991162109375,0.11976911971867084,-0.026139238951471633,-0.0230882036506664
1761468600129894700,8.999894775390626,0.12949614848494528,-0.02064427196411416,-0.014335143616236746
1761468600139878000,9.0098779296875,0.11303601207137107,-0.025482199814845806,-0.008196449064975605
1761468600149862000,9.01986181640625,0.1209691431581974,-0.0010871285164263098,0.00012961316246073691
1761468600159844900,9.029844970703126,0.1134878474920988,0.004571856226492673,-0.003390797782340087
1761468600169827600,9.03982763671875,0.12501052750349045,0.015251135083148255,-0.009668421313678845
1761468600179810800,9.049810791015625,0.12411387092471123,0.02876407559630461,0.020678534993319772
1761468600189793800,9.059793701171875,0.11229016214013099,0.05203307917397469,0.043680622129957186
1761468600199776800,9.06977685546875,0.12949673300683498,0.05017080156658776,0.04358540899401996
1761468600209760800,9.0797607421875,0.12949497944116592,0.016376257522404195,0.025868308489024636
1761468600219743700,9.08974365234375,0.08984042992293834,-0.016063026854768396,-0.011021415958367288
1761468600229726700,9.099726806640625,0.12530571105778215,-0.0516635700081475,-0.061772501630941404
1761468600239710000,9.1097099609375,0.12874679142236709,-0.07528790352924261,-0.07518570809666998
1761468600249692700,9.119692626953125,0.11453238810896872,-0.049492249284475105,-0.053560635801125314
1761468600259675600,9.129675537109375,0.10136720158755778,-0.003358913939888589,0.0010490112960105762
1761468600269659600,9.13965966796875,0.12934943349063396,0.02790750443274155,0.05829584762947634
1761468600279643000,9.149642822265625,0.13324118023216724,0.05547671682182699,0.09001152130668051
1761468600289625900,9.1596259765625,0.1205202303469181,0.06238037699675187,0.07720399824967607
1761468600299608800,9.16960888671875,0.11677812120914459,0.0375614405633416,0.04043731566006317
1761468600309591800,9.179591796875,0.12470657612085341,-0.00449393215207383,0.004847207135730423
1761468600319574800,9.18957470703125,0.12395605001449585,-0.01783935234490782,-0.013046788872708565
1761468600329558800,9.199558837890624,0.12156009478867054,-0.023678954351739955,-0.03013431820331607
1761468600339541800,9.209541748046876,0.12889116832911968,-0.02011621580228675,-0.02880043925105128
1761468600349524700,9.219524658203126,0.11751754139959812,-0.011952107237488963,-0.016188178471243007
1761468600359507700,9.2295078125,0.10943886436223983,-0.0020677918505389243,-0.007132537027355283
1761468600369491000,9.239490966796875,0.11886544887721538,-0.0038440853746375065,-0.009629422743851318
1761468600379473700,9.2494736328125,0.11707096667587756,0.005874399325577542,0.004286481680162251
1761468600389456600,9.25945654296875,0.12934183470606803,0.008853940292750485,0.017664931926340794
1761468600399440600,9.269440673828125,0.12185936999619007,0.007983591765584424,0.024768672117474487
1761468600409424000,9.279423828125,0.1170692131102085,0.00481720015653409,0.02251860076889861
1761468600419406800,9.28940673828125,0.11901333291530608,0.016297762625827453,0.016034618177614174
1761468600429389800,9.299389892578125,0.11691840646266936,0.018449533832236194,-0.005255221681040712
1761468600439372800,9.309372802734375,0.10180617752671241,0.019099339510477147,-0.015611337564513087
1761468600449356800,9.319356689453125,0.13128536998927592,0.018499441955145447,-0.02527472651004791
1761468600459339800,9.32933984375,0.12425357165634632,-0.0012598501682514324,-0.03844331513151992
1761468600469322800,9.33932275390625,0.1281447338759899,-0.012457590807904489,-0.032618536234484054
1761468600479305700,9.3493056640625,0.1224590894550085,-0.011038093098532408,-0.018519868255243637
1761468600489288700,9.359288818359374,0.12231003637313842,-0.02942162618958391,-0.007098269431572407
1761468600499272000,9.36927197265625,0.11527823804020881,-0.028390579808526672,0.009913852008688263
1761468600509254700,9.379254638671876,0.1276964055866003,-0.00803581514316611,0.023761175575363447
1761468600519238700,9.38923876953125,0.12051380060613155,0.00045623303463216867,0.039677291072998194
1761468600529222000,9.399221923828126,0.12215922972559928,0.01196119015966542,0.061239974789973346
1761468600539204900,9.409204833984376,0.12904139045476912,0.029378631864651103,0.04934802307477221
1761468600549187800,9.419187744140626,0.11482464905381203,0.013895039732498116,0.037229413863690566
1761468600559170800,9.4291708984375,0.11811550729274749,0.0022330836811568586,0.01594585304877255
1761468600569153800,9.43915380859375,0.10734101530015468,-0.007004156840755604,-0.015218831115588544
1761468600579137800,9.4491376953125,0.12694354139268396,-0.02232026061862707,-0.03718983077197335
1761468600589120800,9.459120849609375,0.12634674454331396,-0.019376731679751538,-0.04627863926652353
1761468600599103700,9.469103759765625,0.11332944205999373,-0.02106419614292681,-0.042351346287573685
1761468600609086700,9.479086669921875,0.12320610843002795,-0.005102323541115038,-0.034660736986040136
1761468600619069700,9.489069580078125,0.11677110694646835,0.012407253426732495,-0.011686021913518196
1761468600629053000,9.499052978515625,0.11841770510971546,0.018195609303517265,-0.002720077180233784
1761468600639037000,9.509036865234375,0.13413023802638052,0.01464046040547546,0.006866899227956309
1761468600649019600,9.51901953125,0.12485212207138538,0.005570224180654623,0.018659975412255152
1761468600659003000,9.5290029296875,0.11901508648097514,0.007744417281425557,0.024751415021996945
1761468600668985900,9.53898583984375,0.11736965736150741,0.008162898421823047,0.031313152724341486
1761468600678968600,9.548968505859374,0.12200725403428077,0.007788087459793314,0.036539504503924396
1761468600688951800,9.558951904296874,0.126494044059515,0.012232093222648836,0.03706328634943347
1761468600698935800,9.568935791015624,0.1242500645250082,0.0068838777622207995,0.03171660982554313
1761468600708918800,9.578918701171874,0.12005728901028632,0.009674229999957606,0.01608064470984973
1761468600718901800,9.58890185546875,0.11721242097318171,-0.009036932176840491,-0.005232859152182937
1761468600728884700,9.598884765625,0.11287117689847946,-0.018009429948497562,-0.017555630899546665
1761468600738867700,9.60886767578125,0.11810732398629188,-0.018670300443447193,-0.03695534616266377
1761468600748851000,9.618850830078125,0.12125088270902633,-0.021562592385429888,-0.03705092005820479
1761468600758835000,9.6288349609375,0.12798632844388486,-0.024978675306076184,-0.030847631271556018
1761468600768817700,9.638817626953125,0.10913315941393374,-0.008995682284422218,-0.02277932949773967
1761468600778800600,9.648800537109375,0.12035597969591617,-0.003566738871135749,-0.017579450166551394
1761468600788783900,9.658783935546875,0.1184112753689289,0.0034875955205876377,-0.005573955074278637
1761468600798766800,9.668766845703125,0.11811258468329906,0.029088229516753925,0.011852062662807292
1761468600808749600,9.67874951171875,0.12634323741197584,0.027833452815841882,0.04012269218636211
1761468600818732800,9.68873291015625,0.11691606837511062,0.03992405520856846,0.05421277043377049
1761468600828716800,9.698716796875,0.12753800015449523,0.030648642667313104,0.049007922666519876
1761468600838699800,9.70869970703125,0.12753683111071587,0.026138823392940682,0.045096105817914935
1761468600848683000,9.71868310546875,0.11661270151436329,0.00047379609078634525,0.026683574961242264
1761468600858665700,9.728665771484375,0.11750994261503218,-0.02023321151176933,-0.007185285561322234
1761468600868648700,9.738648681640624,0.10613631568551063,-0.0370300097009167,-0.015488994393055327
1761468600878632000,9.7486318359375,0.12529109801054,-0.023838606459437868,-0.017473537540086546
1761468600888616000,9.758615966796874,0.12963175756335257,-0.043673352138954215,-0.014886443656333721
1761468600898598700,9.7685986328125,0.21869594241678714,-0.020846269942773506,-0.04387015791926533
1761468600908581600,9.77858154296875,0.3285422185361385,0.006515802501654252,-0.09877163213640451
1761468600918564900,9.78856494140625,-0.23124971904158592,-0.033179654415696855,0.05413427097061649
1761468600928547800,9.7985478515625,0.21526947509944439,0.03563569666515104,-0.026247918923757968
1761468600938530600,9.808530517578125,-0.0009667992055416107,0.03826172975322697,0.07966814160719514
1761468600948514800,9.818514892578126,0.13280045072734356,0.0681097326952964,0.06754069150253199
1761468600958497800,9.828497802734375,0.11004267547428608,0.05640101489278022,0.07529596810468937
1761468600968480800,9.838480712890625,0.12155424956977366,0.02364094672917854,0.03717100277391728
1761468600978464000,9.848464111328125,0.1628489675104618,-0.01306380393959116,-0.009373858813894912
1761468600988446700,9.85844677734375,0.1680856991201639,-0.04856206489542964,-0.047580748540768394
1761468600998429700,9.8684296875,0.11436463032662868,-0.05055265419075731,-0.05117908355998806
