time,seconds_elapsed,z,y,x
1761468794948605200,0.119605224609375,0.11211772818267345,-0.007530772818278637,0.011151855671312659
1761468794958588400,0.12958837890625,0.10897475398182868,-0.012259750697843264,0.009384325408982113
1761468794968570000,0.139570068359375,0.11256722551584243,-0.011639610647148219,0.01813852708772756
1761468794978553300,0.14955322265625,0.11511048025786876,-0.023433948348416014,0.03324947281547356
1761468794988535300,0.159535400390625,0.10313888743519782,-0.016005924089381004,0.03912383104185573
1761468794998518300,0.169518310546875,0.11885025130808352,0.0030482297098991694,0.016572958271438256
1761468795008501200,0.179501220703125,0.11615677444040774,-0.008069297858481877,0.00040932971956208347
1761468795018483500,0.1894833984375,0.12348901702463626,-0.006874300508055603,-0.011273303793626836
1761468795028466200,0.199466064453125,0.11630641204416751,0.00169052749487455,0.003550879148300737
1761468795038449400,0.209449462890625,0.11526011786162853,0.005457691729624639,0.00235373265244998
1761468795048431400,0.219431396484375,0.11511106477975845,0.0015819873740168986,0.007916919737542048
1761468795058414300,0.229414306640625,0.1148123740941286,-0.0016470668082387418,0.004360638328338973
1761468795068397300,0.239397216796875,0.11391513299345969,0.0006365323506033747,0.003173976693884469
1761468795078379500,0.249379638671875,0.11675824746489524,-0.0009059900918829953,0.008816512625501491
1761468795088362200,0.2593623046875,0.11930267125070095,0.005183651998883578,0.006978899101912975
1761468795098345200,0.26934521484375,0.11316694497466087,-0.0002320557610277319,0.008649649892305024
1761468795108327400,0.279327392578125,0.11945172433257102,-0.02137423705634428,0.029444207914150318
1761468795118310100,0.28931005859375,0.1016454340070486,-0.01895448539640056,0.02863881894855294
1761468795128292400,0.299292236328125,0.12005085926949977,-0.015967476933758006,0.026490431575896218
1761468795138275300,0.309275390625,0.11137129372954369,-0.01617284162150463,0.024174533016071652
1761468795148258300,0.31925830078125,0.11915303364694117,-0.028073832876398225,0.014460395697411149
1761468795158240300,0.329240234375,0.12394143696725368,-0.02192991416074801,-0.002922623148164712
1761468795168223500,0.339223388671875,0.11241875695586204,-0.010518182568898192,-0.005194586668140254
1761468795178206200,0.349206298828125,0.11675766294300556,-0.005045067795389332,0.00318317834706977
1761468795188188400,0.3591884765625,0.11017360837757587,-0.006513687605559243,-0.004389325566706247
1761468795198171400,0.36917138671875,0.12528759087920188,0.006906701515382156,-0.01620468664804939
1761468795208153300,0.3791533203125,0.12259469853341579,0.0029838463932988814,-0.028305435975454745
1761468795218136300,0.38913623046875,0.12259528305530547,-0.0034054162523927513,-0.029083443743782116
1761468795228119300,0.399119384765625,0.13082652030587197,-0.01209676042216597,0.003996152397501282
1761468795238101200,0.409101318359375,0.12259762114286422,-0.02902526783273788,0.017584710863558575
1761468795248084200,0.419084228515625,0.10553893431425095,-0.0204732970280922,0.049701887146895746
1761468795258067500,0.4290673828125,0.1208031389415264,-0.01807505394705804,0.05788781025127973
1761468795268049200,0.439049072265625,0.10793430501818656,-0.020958580343984068,0.05860014607198536
1761468795278032400,0.449032470703125,0.10538988123238086,-0.009720763422269374,0.043960119491349904
1761468795288015400,0.459015380859375,0.10254618223905562,-0.003589058017509524,0.02929957071249373
1761468795297997300,0.468997314453125,0.12154898887276648,-0.000013614679288002662,0.008851182080083526
1761468795307980300,0.478980224609375,0.1258873103380203,0.008367555290093878,-0.01744280904168263
1761468795317966000,0.488966064453125,0.12603753246366978,0.01369624977436615,-0.031095171725261023
1761468795327949000,0.498948974609375,0.12903145358264445,0.015117169972555711,-0.031792542872275224
1761468795337932000,0.50893212890625,0.12888181597888468,0.006619013426845777,-0.018647705019148995
1761468795347914000,0.5189140625,0.11092530352771282,0.006680988159350818,-0.0038547483325470236
1761468795357897000,0.52889697265625,0.12319558703601359,0.0030205037360457937,-0.01612981304724235
1761468795367880200,0.538880126953125,0.12125029818713665,-0.007813404564140364,-0.010020239559188484
1761468795377862000,0.54886181640625,0.12663842096626757,-0.018492232471291208,-0.001182921607675962
1761468795387845000,0.55884521484375,0.12768529967069625,-0.016516905818821394,0.019934456894057803
1761468795397828000,0.568828125,0.10419278040230273,-0.01498092385662021,0.05396524824637454
1761468795407810000,0.57881005859375,0.11795943994820117,-0.009661279186839237,0.06789193892588373
1761468795417793000,0.58879296875,0.11361994943916796,-0.013609966580267063,0.04695364331810269
1761468795427776000,0.59877587890625,0.11361994943916796,0.009676677685370668,0.01997045522262342
1761468795437758000,0.608758056640625,0.12364566889107227,0.013621696975611847,0.015626713230158202
1761468795447741000,0.618740966796875,0.1269382806956768,0.011250061057001584,0.01238586814540904
1761468795457723000,0.628722900390625,0.11466799718737601,0.006661010525468736,0.004395115986675955
1761468795467705900,0.638705810546875,0.11062719736397265,0.005419984930340433,-0.0007455759366042911
1761468795477689000,0.648689208984375,0.11661270151436329,0.006932378237688681,-0.018563474501529707
1761468795487670800,0.6586708984375,0.13367197286486626,0.0013230487434630048,-0.02872066571284085
1761468795497654000,0.668654052734375,0.13202654374539852,-0.005153246585821034,-0.028292795689590273
1761468795507637000,0.678636962890625,0.11511866356432437,-0.008377439646580023,-0.0009410345766227692
1761468795517619200,0.688619140625,0.12589315555691719,-0.009796137063286732,0.01731211360041052
1761468795527602000,0.698601806640625,0.10808628070950507,-0.012471996075881179,0.024238592961919492
1761468795537585000,0.7085849609375,0.11197568936347961,-0.017464156648743664,0.03280641892282292
1761468795547567000,0.718567138671875,0.11556699185371398,-0.030036965625931042,0.02594700888157822
1761468795557550000,0.728550048828125,0.12604162411689757,-0.03177794124147622,0.024485471261921337
1761468795567532000,0.738531982421875,0.11541735424995422,-0.03040178263362031,0.020252770162187517
1761468795577515000,0.748514892578125,0.10778583645820618,-0.019502392469590995,-0.002635855795769021
1761468795587498000,0.758498046875,0.10569091000556945,-0.014739756061485967,-0.017866532612778246
1761468795597480000,0.76847998046875,0.11885901913642882,-0.008247090694357757,-0.0114584465356078
1761468795607463200,0.778463134765625,0.128137135091424,-0.0017101092635901296,-0.000552236188435927
1761468795617446000,0.78844580078125,0.12005670448839664,0.00605279266636353,0.017282636344176715
1761468795627428000,0.798427978515625,0.12110475223660469,0.006982777267653727,0.023299800574732944
1761468795637411000,0.8084111328125,0.12110533675849437,0.01003915203892393,0.01871066441987641
1761468795647394000,0.81839404296875,0.11212708053290843,0.012790151797095313,-0.0071800111645832655
1761468795657376000,0.8283759765625,0.1254442427456379,0.007750134636159055,-0.002738425687677227
1761468795667359200,0.838359130859375,0.11781330947577953,0.0033194136173842707,0.010488103666109964
1761468795677341000,0.8483408203125,0.1152700547337532,-0.004699864522456482,0.026698982592928223
1761468795687324200,0.85832421875,0.12469722377061843,-0.012249366301146801,0.035216859331727024
1761468795697307100,0.86830712890625,0.11646598652005195,-0.02295979834789177,0.024516825381410305
1761468795707289000,0.8782890625,0.11347323444485664,-0.029504683096846562,0.005757408182672225
1761468795717272000,0.88827197265625,0.12305062560737132,-0.03339613529414637,-0.0019641488129738716
1761468795727255000,0.898255126953125,0.11437164458930492,-0.029826661043229976,-0.015136879320023581
1761468795737237000,0.908237060546875,0.11856149749457835,-0.02143329431680031,-0.01645087082830723
1761468795747220000,0.918219970703125,0.11975859832465648,-0.016600675112137104,-0.01496758260114584
1761468795757202000,0.928201904296875,0.13591887500882147,-0.010445202956011052,-0.0018021494845626876
1761468795767185000,0.938184814453125,0.11257599334418773,-0.0010597872767073566,0.01879964874442667
1761468795777168100,0.948168212890625,0.13367606451809405,-0.00011241828659840394,0.02410343597466126
1761468795787149800,0.95814990234375,0.12110592128038405,0.008985559324274072,0.03710212965563405
1761468795797133000,0.968133056640625,0.10644143611192702,0.008235072604645392,0.02884777639096137
1761468795807116000,0.978115966796875,0.13576923740506172,0.01255790366900037,0.011294684508373029
1761468795817098000,0.988097900390625,0.11616671131253242,0.008891063140967161,-0.004267069160216488
1761468795827081000,0.9980810546875,0.1187117196202278,0.007322547740698792,-0.006653416307480074
1761468795837064000,1.00806396484375,0.12020868017971514,0.004672339478002686,0.0022759912411216645
1761468795847046000,1.0180458984375,0.10868716921210288,0.003771749363733397,0.01011825200698804
1761468795857028900,1.02802880859375,0.11916180147528647,0.0027915355520701265,0.010677347194473259
1761468795867011000,1.038010986328125,0.10375029733180999,-0.013410861528303938,0.0033270163977053013
1761468795876994000,1.047994140625,0.11811609181463718,-0.017440149010426828,-0.016710161085310392
1761468795886977000,1.05797705078125,0.12784312058091163,-0.020949360424489714,-0.022288235212280412
1761468795896959000,1.067958984375,0.11527473090887069,-0.025040114036574957,-0.003361822849605232
1761468795906942200,1.077942138671875,0.11497545570135116,-0.02420092554936418,0.020727447602385655
1761468795916925000,1.087925048828125,0.11931436168849467,-0.024033096985076552,0.04316942120480816
1761468795926907100,1.0979072265625,0.12260580444931983,-0.009583345979265868,0.034334436774277124
1761468795936890000,1.10789013671875,0.11721826619207858,-0.0006802604674201575,0.013595769091555849
1761468795946872800,1.117872802734375,0.13038695984482765,0.0019947805570220225,-0.011996868827822617
1761468795956855000,1.12785498046875,0.12455167782008647,0.0036697922494116934,-0.020564608023758046
1761468795966838000,1.137838134765625,0.12544950344264508,0.003726764011113846,-0.009380096758436412
1761468795976820000,1.147820068359375,0.11078443375229835,-0.0020616792014610838,0.031119570947578175
1761468795986803000,1.157802978515625,0.11168109033107756,0.014130869198811706,0.0421412426342722
1761468795996786200,1.1677861328125,0.11661913125514983,0.008154590105314856,0.025053293178556486
1761468796006767900,1.177767822265625,0.11781564756333827,0.004008291216100042,0.01860688438499346
1761468796016751000,1.187751220703125,0.12140695005357265,0.006305993392586242,0.015335909023461863
1761468796026734000,1.197734130859375,0.11976093641221523,-0.016535667601507157,0.0025395192818250508
1761468796036716000,1.207716064453125,0.12544599631130696,-0.022560012774809728,0.006139206007914617
1761468796046699000,1.217698974609375,0.11048223593533038,-0.020663061146263498,0.004562015252490528
1761468796056682000,1.227681884765625,0.11871230414211749,-0.020367117256857453,-0.019187880877032874
1761468796066664000,1.237663818359375,0.1309825876504183,-0.019090092191519213,-0.019391742019215598
1761468796076647200,1.247647216796875,0.11766542543768882,-0.01516913191358908,-0.012878241072501986
1761468796086628900,1.25762890625,0.10958499483466148,-0.003967054452591401,0.0025943410418694836
1761468796096612000,1.267612060546875,0.12799100461900234,-0.003027138401987031,0.006108262880379333
1761468796106595000,1.277594970703125,0.11736673475205897,-0.00642082625691255,0.00825923950234428
1761468796116577000,1.287576904296875,0.11497311761379242,-0.000669716811341641,0.013374728485709055
1761468796126560000,1.29756005859375,0.11572130563259124,0.005085838197194971,0.025515554095176047
1761468796136543000,1.30754296875,0.11362637917995452,-0.00005422810500022024,0.02799003618361894
1761468796146525000,1.31752490234375,0.11856558914780616,-0.0026247553026754757,0.02473177417318802
1761468796156508000,1.3275078125,0.12889116832911968,-0.008660147311788751,0.01001988793273922
1761468796166491100,1.3374912109375,0.115274146386981,0.0007910964349968708,0.0026173474581213667
1761468796176472800,1.347472900390625,0.108690676343441,-0.003370587253017584,-0.0024660613199695945
1761468796186456000,1.3574560546875,0.12350538363754748,0.0018151097162466612,-0.001961545863933861
1761468796196438000,1.36743798828125,0.1110866315692663,-0.011871861058531793,-0.0011979228139854968
1761468796206421000,1.3774208984375,0.11647416982650756,-0.01515625188241829,0.014571610120078548
1761468796216404000,1.387404052734375,0.10764555120468139,-0.022773950069723648,0.03552549145605881
1761468796226386200,1.39738623046875,0.10390344206690788,-0.02720101839751005,0.028540167179936543
1761468796236369200,1.407369140625,0.12410393405258655,-0.03126108917696401,0.009286815284681506
1761468796246352000,1.417351806640625,0.11856734271347522,-0.007600482191023184,-0.007802522410522214
1761468796256334000,1.427333984375,0.12560089461207388,-0.01546494679718744,-0.00675463449251838
1761468796266317000,1.437317138671875,0.1247030689895153,-0.009831907062989193,0.011355388019932433
1761468796276300000,1.447300048828125,0.10809271045029163,0.0041254199271454125,0.020744914760417305
1761468796286282000,1.457281982421875,0.10809212592840194,0.010367644207773264,0.0334325103653362
1761468796296265200,1.46726513671875,0.11632219413518904,0.009869056169025133,0.022644263842026703
1761468796306247000,1.477246826171875,0.11781798565089702,0.013595335266715846,-0.006247123361798003
1761468796316230100,1.487230224609375,0.1351765322089195,0.007136052721025771,-0.03162109529550653
1761468796326213000,1.497213134765625,0.1294908877879381,0.0048422512577555605,-0.04178889466580003
1761468796336195300,1.5071953125,0.12664835783839226,0.002021127709952998,-0.013710604809992945
1761468796346178000,1.517177978515625,0.1190174245685339,-0.003490144812344806,0.008293963755853473
1761468796356161000,1.5271611328125,0.1163239477008581,-0.010917374486936023,0.01709781782918144
1761468796366143200,1.537143310546875,0.10794365736842154,-0.01484161585062975,0.011355789878731593
1761468796376126000,1.5471259765625,0.114677349537611,-0.023031975384824908,0.02063783309017308
1761468796386108200,1.557108154296875,0.12455343138575553,-0.019347633449430576,0.0051237225221702825
1761468796396091100,1.567091064453125,0.12051380060613155,-0.021175246168812736,-0.009494233790552243
1761468796406074000,1.57707421875,0.11931611525416373,-0.007522763612581184,0.011667920001246966
1761468796416056000,1.58705615234375,0.12245792041122913,-0.0018868691967712948,0.026136339174909515
1761468796426039300,1.597039306640625,0.1187163957953453,-0.0024015778240805957,0.028864375899313018
1761468796436022000,1.60702197265625,0.1205114625185728,-0.0063483090099733085,0.027641104014939626
1761468796446004200,1.617004150390625,0.12500059063136576,-0.006100110398320248,0.011215737520647235
1761468796455987200,1.6269873046875,0.11123393108546734,-0.009106879582424881,0.008588622153759934
1761468796465970000,1.636969970703125,0.1157230591982603,0.0024997951970348368,0.0008033066063653677
1761468796475952000,1.6469521484375,0.12769406749904155,0.0001394073290459346,-0.010031002981797791
1761468796485935000,1.65693505859375,0.12110942841172218,-0.006208591724495636,-0.010966324770264328
1761468796495917000,1.6669169921875,0.11766893256902694,0.0007819413038174388,-0.017301541974046267
1761468796505900000,1.676900146484375,0.12724573920965193,-0.005876813332483288,-0.02350962110024411
1761468796515883300,1.68688330078125,0.10509937385320663,-0.011122435497294645,-0.009633806658023969
1761468796525865000,1.696864990234375,0.11707155119776726,0.001911775309164659,0.007341225041705183
1761468796535848200,1.70684814453125,0.1260498074233532,-0.007165768010099418,0.016268152938853017
1761468796545831200,1.7168310546875,0.12260931158065795,-0.004878723368712235,0.015039647756936027
1761468796555813000,1.726813232421875,0.11168518198430538,-0.005277845646446803,-0.0015472933740820734
1761468796565796000,1.736796142578125,0.12186053903996943,0.001247232715273276,-0.003147618409921415
1761468796575778300,1.7467783203125,0.13128829259872435,-0.0018230267341656143,-0.002314021696569398
1761468796585761000,1.756760986328125,0.11587503488957882,-0.005829635451955255,0.015553387699043377
1761468796595744300,1.766744140625,0.11976561258733272,-0.004969487516750814,0.03409596554301679
1761468796605726200,1.776726318359375,0.11467793405950069,-0.009759534804878057,0.027557352987932972
1761468796615709200,1.786709228515625,0.12799568079411983,-0.00138642027778842,0.017949895480717532
1761468796625692200,1.796692138671875,0.11303192041814326,-0.014489807879918952,0.002801818913244642
1761468796635674000,1.806674072265625,0.1220101766437292,-0.008191639317473163,-0.005919389244774356
1761468796645657000,1.816656982421875,0.1372732122272253,0.0019285392142977798,-0.011975908238184637
1761468796655640000,1.82664013671875,0.1306897421836853,-0.005901863862882601,0.007844174161739647
1761468796665622300,1.836622314453125,0.10779577333033084,-0.006400099704359308,0.02289546212411951
1761468796675605000,1.84660498046875,0.11453005002140998,0.009193305482063442,0.026600221226457506
1761468796685588200,1.856588134765625,0.11916823121607303,0.006773547543075983,0.014702885516663081
1761468796695570200,1.866570068359375,0.13248656247258186,-0.0024315208711952435,0.006029818216152488
1761468796705553200,1.87655322265625,0.12590250790715216,0.0077813260713330236,-0.004200040939147584
1761468796715535000,1.88653515625,0.11677519859969615,-0.0024156069202552317,-0.01940800360084977
1761468796725518300,1.896518310546875,0.1139326686501503,-0.019218860537186265,-0.009786586066940798
1761468796735501000,1.9065009765625,0.11498071639835834,-0.019421931661502457,-0.011665645845769904
1761468796745483300,1.916483154296875,0.12979542369246483,-0.0210598944271449,0.0001492540112696588
1761468796755466200,1.92646630859375,0.11842238128483294,-0.031265173980325925,0.005541317746578715
1761468796765449000,1.936448974609375,0.10570435400903225,-0.027792269138793926,0.0021269153263652695
1761468796775431200,1.94643115234375,0.12919862684309483,-0.027292601104523053,-0.0141593121252954
1761468796785414100,1.9564140625,0.11049392637312412,-0.018551199541846287,-0.010597222029813565
1761468796795397000,1.966397216796875,0.10376081872582435,-0.014968667163245845,-0.0004894594507990405
1761468796805379000,1.976379150390625,0.12411211735904217,-0.007790068783503375,0.0026803342583123593
1761468796815362300,1.9863623046875,0.11692951237857341,-0.002265623969089938,0.030189564655045978
1761468796825344000,1.996343994140625,0.10076806665062904,-0.0012756385383167071,0.0359420866000466
1761468796835327200,2.0063271484375,0.14341478372216224,-0.014078028191655175,0.03568278264331166
1761468796845310200,2.016310302734375,0.10241349577009677,-0.010452907913498347,0.02214200427515898
1761468796855292200,2.026292236328125,0.10705226148664951,0.003492530278142658,-0.007238390288315713
1761468796865275100,2.036275146484375,0.11917290739119052,0.003604858945662272,-0.02029650883921422
1761468796875258000,2.046258056640625,0.1218663842588663,0.008563496845657936,-0.016395249917241745
1761468796885240000,2.056239990234375,0.11707739641666412,0.008431906926064402,-0.009711694199824705
1761468796895223000,2.06622314453125,0.11573065798282622,-0.001342244921810925,-0.0018068895917618647
1761468796905205200,2.076205322265625,0.11812485964298247,0.002919139135123987,-0.002738421121099964
1761468796915188000,2.08618798828125,0.11139175199568271,0.006094845134735806,-0.005564447460416704
1761468796925171200,2.096171142578125,0.1326414607733488,-0.0019445210930745815,-0.010188855858054012
1761468796935153200,2.106153076171875,0.11677987477481365,-0.005368858102124068,-0.01344356963795144
1761468796945136000,2.11613623046875,0.10675473984479904,-0.007661559020273853,-0.006716453340020962
1761468796955119000,2.126119140625,0.11648235313296318,-0.008925397522942512,-0.008078727269708178
1761468796965101300,2.136101318359375,0.10346388160586356,-0.01933514386061579,0.014342979862820356
1761468796975084000,2.146083984375,0.11184300289452076,-0.016311844808462775,0.02386544880059082
1761468796985067000,2.15606689453125,0.1199234334975481,-0.021657310047734062,0.035626284949411634
1761468796995049200,2.16604931640625,0.10481062003970146,-0.019942395888629835,0.018914383998163975
1761468797005032000,2.176031982421875,0.11618307792544365,-0.02660653908610111,-0.007226060529705137
1761468797015014100,2.18601416015625,0.12605974429547787,-0.03593355623371899,-0.015197473233728668
1761468797024997000,2.1959970703125,0.1060071363478899,-0.02295378188234754,-0.010508580198558047
1761468797034980000,2.20597998046875,0.12605915977358817,-0.012752349670510739,0.0012629052084404974
1761468797044962000,2.215962158203125,0.1268067632704973,-0.009758195656095632,0.017913481593620963
1761468797054945300,2.2259453125,0.11663082169294356,0.0031340747979920706,0.021615176522615364
1761468797064928000,2.235927978515625,0.12171791569888592,-0.004252583120904456,0.01693653088682331
1761468797074910200,2.24591015625,0.12800211053490637,-0.004854785370698664,-0.009282545534940435
1761468797084893200,2.25589306640625,0.12456044564843177,-0.014963436148990875,-0.026541348912380636
1761468797094876200,2.265876220703125,0.11677929025292395,-0.013879892395716159,-0.028911183316260573
1761468797104858000,2.275858154296875,0.127404144641757,-0.01286210278845392,-0.029005752564803696
1761468797114841300,2.28584130859375,0.1130389346808195,-0.012842304392729419,-0.0016469178236555306
1761468797124823000,2.295822998046875,0.12052081486880778,-0.002121207675608457,0.014950183941773137
1761468797134806300,2.30580615234375,0.11513327661156654,-0.0008929539408520213,0.0374887817525072
1761468797144789200,2.315789306640625,0.12396131071150303,0.004222003321672673,0.03647691042937804
1761468797154771200,2.325771240234375,0.10570493853092193,0.011571355158439836,0.01284414700665511
1761468797164754200,2.335754150390625,0.11109247678816318,0.017173379841510905,-0.005651057164790109
1761468797174737200,2.345737060546875,0.12216565946638583,0.02617457512633409,-0.0149913607689552
1761468797184719000,2.355718994140625,0.12261457227766513,0.025170298021193593,-0.024121487654582597
1761468797194702000,2.3657021484375,0.11947276712059975,0.02948363117566332,-0.011627533191931433
1761468797204684300,2.375684326171875,0.1291992113649845,0.021041068712377455,0.01439292908492498
1761468797214667000,2.3856669921875,0.12291443200707435,0.012497683072986546,0.011618071243842131
1761468797224650200,2.395650146484375,0.1230646541327238,-0.0009267263484129216,0.013186443938571027
1761468797234632200,2.405632080078125,0.12545885579288005,-0.018260665904852792,0.02545598309477791
1761468797244615200,2.415615234375,0.10840016896426677,-0.044022873396100476,0.035278256963030434
1761468797254598100,2.42559814453125,0.1091483569830656,-0.05323146777884103,0.026763174969516693
1761468797264580400,2.435580322265625,0.12007190205752849,-0.07295458347715902,0.02972581503423862
1761468797274563000,2.44556298828125,0.11782675347924232,-0.07011831887161825,0.024321932996972464
1761468797284546000,2.455546142578125,0.11483283236026763,-0.0564767013443401,0.019697017709258944
1761468797294528300,2.4655283203125,0.1172264494985342,-0.041225150702660904,0.027262950318353248
1761468797304511000,2.475510986328125,0.11752455566227435,-0.00553959843023913,0.022354911806900052
1761468797314494200,2.485494140625,0.1305418581455946,0.01848259813491022,0.011391317849839105
1761468797324472300,2.495472412109375,0.11587620393335818,0.020974348735273814,-0.02113949900199659
1761468797334455600,2.50545556640625,0.12679974900782107,0.039463282996136696,-0.04361515567831229
1761468797344437500,2.5154375,0.1323363403469324,0.0383172091003973,-0.04515955384240951
1761468797354420500,2.52542041015625,0.11049100376367568,0.029161388367798642,-0.02797281105418224
1761468797364403500,2.535403564453125,0.12680267161726952,0.024228185732336715,0.0015327488254988566
1761468797374385700,2.5453857421875,0.12395897262394427,0.0017012498182884881,0.011481585382600315
1761468797384368400,2.555368408203125,0.11183774219751358,-0.006462568768853088,0.020456539972824976
1761468797394351400,2.565351318359375,0.12081599842309951,-0.024688804964430162,0.02416142693932634
1761468797404333600,2.57533349609375,0.11019114403426647,-0.02421023908369243,-0.0035956727046752347
1761468797414316300,2.58531640625,0.10330722973942756,-0.021425065344572065,-0.017590519549837334
1761468797424299500,2.595299560546875,0.12680091805160046,-0.031456070609658486,-0.0214076621186221
1761468797434281500,2.605281494140625,0.10899462772607803,-0.016924333558953366,-0.014802815926913172
1761468797444264400,2.615264404296875,0.12081599842309951,-0.012423368877894244,-0.015656103721424005
1761468797454246400,2.625246337890625,0.13054244266748427,0.00012702191527496324,-0.01672167799316812
1761468797464229600,2.635229736328125,0.11288520542383193,-0.00505321685251547,-0.007590984851960092
1761468797474212400,2.64521240234375,0.1173743335366249,-0.011004495647962903,-0.01073942524578888
1761468797484194600,2.655194580078125,0.1098930378705263,-0.014350809259538072,-0.01814501162744127
1761468797494177500,2.665177490234375,0.11348434036076069,-0.012430072613316587,-0.021776107271946964
1761468797504160500,2.675160400390625,0.11453238810896872,-0.016600951390061527,-0.008636457050591706
1761468797514142500,2.685142578125,0.10690203936100005,-0.025515780140750573,0.01379607743662782
1761468797524125700,2.695125732421875,0.11348609392642975,-0.03384522163536167,0.03794751727147959
1761468797534107400,2.705107421875,0.10824936231672763,-0.04203832111591473,0.042409661479224446
1761468797544090600,2.715090576171875,0.11857377245426177,-0.01843767785601667,0.030549168914789333
1761468797554073600,2.725073486328125,0.12306348508894442,0.004341254349501104,0.024283797510247677
1761468797564055600,2.7350556640625,0.11124269891381264,0.024485930202936285,0.03251764227643143
1761468797574038500,2.74503857421875,0.11692892785668373,0.04973338739685714,0.02818174566370435
1761468797584021500,2.755021484375,0.10750234334170818,0.05073030774602666,0.027101151919341645
1761468797594003500,2.76500341796875,0.1196224047243595,0.027907940540870185,0.028180832348251715
1761468797603986400,2.774986328125,0.11004442903995514,0.007537571881001349,0.03258150129287969
1761468797613969700,2.7849697265625,0.10495616599023341,-0.020240093343704937,0.015976006158441303
1761468797623951400,2.794951416015625,0.11977028876245022,-0.04708682754398323,-0.002385643894365057
1761468797633934600,2.8049345703125,0.13009528342187404,-0.051378131529735395,-0.02115849139683414
1761468797643916500,2.81491650390625,0.1245592766046524,-0.054357832327112554,-0.021377070617536083
1761468797653899500,2.8248994140625,0.12201543734073639,-0.06413056796521413,-0.022903983357292598
1761468797663882500,2.834882568359375,0.1209685586363077,-0.045238354699662885,-0.020825670112739315
1761468797673864700,2.84486474609375,0.11692892785668373,-0.034414867899613455,-0.012592807160667144
1761468797683847400,2.854847412109375,0.11169161172509193,-0.015937899212824413,-0.00015338676369283348
1761468797693830400,2.864830322265625,0.11468494832217693,0.0008434028672025305,0.00486804899435956
1761468797703812600,2.8748125,0.11752806279361247,-0.000565571450277639,-0.005028943211073056
1761468797713795300,2.88479541015625,0.12276479440331459,0.014523296874278457,0.0013306686484487727
1761468797723777500,2.894777587890625,0.1000198786318302,0.0019393266114377183,0.014997511948528698
1761468797733760500,2.904760498046875,0.11722820306420326,0.003856773894974321,0.019384791688621044
1761468797743743500,2.914743408203125,0.12081950555443763,0.0002661355563206598,0.0025119508548872545
1761468797753725400,2.924725341796875,0.12066811438500881,0.006835163799265864,-0.006965710826776921
1761468797763708700,2.934708740234375,0.10136427897810936,-0.011184552364517002,0.0035807399970246476
1761468797773691400,2.94469140625,0.12785071936547757,-0.008902594890200998,0.00015021755907218903
1761468797783673600,2.954673583984375,0.12261340323388575,-0.01396131332667428,-0.004156452959170565
1761468797793656600,2.964656494140625,0.10555530092716216,-0.012011006951029411,-0.0017403956602327524
1761468797803639300,2.974639404296875,0.11243863070011138,-0.00765985226202174,-0.002089629223011434
1761468797813621500,2.98462158203125,0.11797522203922271,-0.00022239145648345583,0.0037701022563967853
1761468797823604500,2.9946044921875,0.11962123568058013,0.00840048602038296,0.015012344191479496
1761468797833586400,3.00458642578125,0.12381167310774326,0.02618091353557538,0.01266989098486956
1761468797843569400,3.0145693359375,0.111840664806962,0.03139175036890665,0.013332615510188042
1761468797853552600,3.024552734375,0.12231588159203528,0.03022792618734529,0.009837690633093006
1761468797863534300,3.034534423828125,0.10959668527245521,0.013642525134509196,0.013283218843932262
1761468797873517600,3.044517578125,0.12740297559797764,-0.0040639049918885575,0.007054243060178123
1761468797883500500,3.05450048828125,0.11154138959944247,-0.02130981178431539,0.004391942215478047
1761468797893482500,3.064482421875,0.11722703402042388,-0.04787881817189045,-0.003983338581700809
1761468797903465500,3.074465576171875,0.11528116064965724,-0.0513409641573904,0.008552984584798105
1761468797913448400,3.084448486328125,0.11572948893904686,-0.06362655483267736,0.013465845401841215
1761468797923430400,3.094430419921875,0.11438216598331928,-0.052726230803597715,0.01963281163293868
1761468797933413600,3.10441357421875,0.11842238128483294,-0.056816440992988645,-0.0016251306835329158
1761468797943396600,3.114396728515625,0.12006781040430069,-0.048428844136931,-0.014519436974846757
1761468797953378600,3.124378662109375,0.11887012505233287,-0.03654560773443663,-0.02091325706464704
1761468797963361500,3.134361572265625,0.11288462090194225,-0.012110186159319709,-0.02149573312771972
1761468797973343500,3.144343505859375,0.12665186496973038,-0.010398835072125075,-0.0210784712634515
1761468797983326500,3.154326416015625,0.12096622054874896,0.005884493173795635,-0.013488792452588676
1761468797993309400,3.164309326171875,0.11124036082625388,0.02406752441106364,0.015523773445491678
1761468798003291600,3.174291748046875,0.11423252837955951,0.040665676489262836,0.02193718871832825
1761468798013274400,3.1842744140625,0.12111527363061904,0.045169180187280285,0.018468841320904903
1761468798023257600,3.194257568359375,0.10585165352523326,0.03354151456460822,0.01586945421115961
1761468798033239600,3.204239501953125,0.12575345482528208,0.03731000253594247,0.0016384513894096015
1761468798043222500,3.214222412109375,0.13009352985620498,0.013595015606307425,-0.009032539129513316
1761468798053204500,3.22420458984375,0.10974340026676654,-0.002681428524389048,0.00039167076528538015
1761468798063187700,3.234187744140625,0.13084171787500382,-0.023112465875665657,0.007425117632606997
1761468798073170400,3.24417041015625,0.11557809776961803,-0.041490153747820294,0.013520785892894491
1761468798083152600,3.254152587890625,0.12201193020939827,-0.044512323713744986,0.008077855053450912
1761468798093135600,3.264135498046875,0.10854454587101936,-0.037944574112433474,-0.005489121768460609
1761468798103118300,3.274118408203125,0.12290917131006716,-0.04675369116605725,-0.014995475255069323
1761468798113100500,3.2841005859375,0.11467968762516975,-0.0314891623117961,-0.010239490066748113
1761468798123083500,3.29408349609375,0.11527765351831912,-0.03117194958878681,-0.012420880093285814
1761468798133066500,3.30406640625,0.10854454587101936,-0.021379143843613564,-0.01819902510331012
1761468798143048400,3.31404833984375,0.11871990292668341,-0.0006645077737397514,-0.023898921811929902
1761468798153031700,3.32403173828125,0.1265016428440809,0.007721753929290571,-0.01995932647383306
1761468798163013400,3.334013427734375,0.1164765079140663,0.0024258035164617464,-0.01647391377717722
1761468798172996600,3.34399658203125,0.11572890441715716,0.003959213354019448,-0.008584859294095077
1761468798182979600,3.3539794921875,0.12081716746687889,0.00842581910775043,0.004793855813564733
1761468798192961500,3.36396142578125,0.10061609095931053,0.0032358829277305628,0.0168997379738139
1761468798202944500,3.373944580078125,0.12007014849185943,-0.001098314490138,0.015367212910600937
1761468798212927500,3.383927490234375,0.11902385430932044,0.0026703856843334505,0.01438973704741802
1761468798222909400,3.393909423828125,0.11229016214013099,0.004285368576954352,0.014814716427261008
1761468798232892400,3.403892333984375,0.11318798776268958,0.013971235357422847,0.015957173593807966
1761468798242875600,3.413875732421875,0.11857435697615146,0.010070987932314165,0.006253945828229189
1761468798252857300,3.423857421875,0.10854863752424716,0.020814621279051062,0.007761222285754047
1761468798262840600,3.433840576171875,0.12216565946638583,0.026636411351268176,0.022429246551590037
1761468798272822500,3.443822509765625,0.105257194763422,0.023914699336374176,0.023558118150779045
1761468798282805500,3.453805419921875,0.121866968780756,0.017143170791270677,0.004366953904693946
1761468798292788500,3.46378857421875,0.11722878758609294,0.009652301295939832,-0.013909109357045963
1761468798302770700,3.473770751953125,0.12635726593732832,0.00747916592862748,-0.026276569629507137
1761468798312753400,3.48375341796875,0.10496025764346122,0.011129852760414359,-0.011137644482869654
1761468798322737200,3.493737060546875,0.1289034432888031,-0.004851189191103913,0.0081538885648828
1761468798332719000,3.503718994140625,0.11812953581809997,-0.011695995318260974,0.03941165784017648
1761468798342702000,3.5137021484375,0.10555997710227966,-0.014448945004923735,0.04362826175505761
1761468798352684000,3.52368408203125,0.12920271849632262,-0.037604489687201564,0.02216723918111529
1761468798362667000,3.5336669921875,0.11977613398134708,-0.0455239164756611,-0.023226374578918327
1761468798372650200,3.543650146484375,0.12441606874167918,-0.04780131878915708,-0.043412481846217994
1761468798382632200,3.553632080078125,0.12845686856508254,-0.05500832755852025,-0.030529235805035568
1761468798392615200,3.563615234375,0.11319441750347614,-0.05352891178887803,-0.018783496760646813
1761468798402598100,3.57359814453125,0.1236702188104391,-0.04435557138260919,-0.00901351020205766
1761468798412580400,3.583580322265625,0.12007891632020473,-0.024561564138857645,0.005907169084018096
1761468798422563000,3.59356298828125,0.12097674194276332,-0.0018182528057535817,0.018788031371869147
1761468798432546000,3.603546142578125,0.11184884811341762,0.013417766193125862,0.01538094460843131
1761468798442528300,3.6135283203125,0.11738543945252895,0.027024730248842388,-0.0006757255707867443
1761468798452511000,3.623510986328125,0.1179845743894577,0.031745429494651034,0.0019543398050125686
1761468798462493200,3.6334931640625,0.12561667670309543,0.027539764815603846,0.002441986324638128
1761468798472476200,3.64347607421875,0.11439385642111301,0.02760337267030263,0.022573230732697992
1761468798482459100,3.653459228515625,0.12052841365337372,0.02173386186568532,0.04133302695734892
1761468798492441000,3.663441162109375,0.10257014763653277,-0.0002918058568779088,0.04313687064207625
1761468798502424300,3.67342431640625,0.11678513547182083,-0.013393283630773658,0.03581460602916777
1761468798512407000,3.683406982421875,0.11708382615745067,-0.024219792363326994,0.00953226881257724
1761468798522389200,3.69338916015625,0.12426643113791942,-0.03591342676114291,-0.029527095858054235
1761468798532372200,3.703372314453125,0.12486439703106879,-0.03526176248595584,-0.0358106833392987
1761468798542355000,3.71335498046875,0.1304015728920698,-0.03588468700713711,-0.023083468110044487
1761468798552337200,3.723337158203125,0.1173831013649702,-0.036824020533729344,-0.01865649568038061
1761468798562320100,3.733320068359375,0.10825579205751418,-0.025372003738908095,-0.009669699955312534
1761468798572303000,3.74330322265625,0.11618775410056113,-0.019636033353197854,-0.00015332739818841218
1761468798582285000,3.75328515625,0.11903145309388637,-0.011328824239992536,0.00025727182985283434
1761468798592268300,3.763268310546875,0.12367080333232879,-0.005633965607738355,0.014385060872300527
1761468798602250000,3.77325,0.09778291335999965,0.006189445207675453,0.013086034037708303
1761468798612233200,3.783233154296875,0.12127601715028286,0.0219201188525185,0.0219078164933715
1761468798622216200,3.79321630859375,0.11573942581117153,0.022498021488462108,0.018251449410291387
1761468798632198100,3.8031982421875,0.11977847206890582,0.022915205720916855,0.025490163925592786
1761468798642181000,3.81318115234375,0.11558920368552207,0.02465730243118014,0.008359311476489528
1761468798652164000,3.8231640625,0.1102028344720602,0.006484432969967019,-0.008101226795883848
1761468798662146000,3.83314599609375,0.11125029769837856,-0.010638789299351628,-0.017037612074543722
1761468798672129300,3.84312939453125,0.12247370250225066,-0.018259190900396786,-0.010555990403704345
1761468798682111000,3.853111083984375,0.12681377753317355,-0.022109695741022003,-0.01757271446508821
1761468798692094200,3.86309423828125,0.12292319983541965,-0.021882273343449922,-0.01701813105593901
1761468798702077200,3.8730771484375,0.10706219835877417,-0.036400155398738566,-0.01723317117926199
1761468798712059100,3.88305908203125,0.12067980482280254,-0.03940646107525099,-0.013736967660533263
1761468798722042000,3.8930419921875,0.10392097772359847,-0.03575820195010165,-0.012203351185354403
1761468798732025000,3.903025146484375,0.12382336354553698,-0.03946760754480492,-0.0024389997831080106
1761468798742007300,3.91300732421875,0.11544365773499012,-0.03070346671064617,0.023521416569314897
1761468798751990000,3.922989990234375,0.10781213994324207,-0.022572317417245358,0.03566371261666063
1761468798761973200,3.93297314453125,0.11798749699890612,-0.01305739018182503,0.03594685867328662
1761468798771955200,3.942955078125,0.1094575690627098,-0.003963063834885543,0.043490227824123574
1761468798781938200,3.952938232421875,0.10751169569194316,0.0027997328436686073,0.03229472937390674
1761468798791920000,3.962920166015625,0.12337328169047831,-0.0027860028583047095,-0.0017075208705151453
1761468798801903400,3.9729033203125,0.113797059571743,0.007499748063174774,-0.012578860833705402
1761468798811886000,3.982885986328125,0.11574176389873027,0.01695393867935054,0.0003446806852472946
1761468798821868300,3.992868408203125,0.11813596555888652,0.0011182474571862257,-0.008567593065463007
1761468798831851300,4.002851318359375,0.12112813311219214,0.0007122016774985241,-0.008424161440203897
1761468798841834000,4.012833984375,0.1226245091497898,-0.009559164811013033,-0.01666876962899696
1761468798851816200,4.022816162109375,0.12187632113099098,-0.009638039875146932,-0.02767013374660164
1761468798861799200,4.032799072265625,0.12576748335063456,-0.010395298258034745,-0.026768695961427873
1761468798871782100,4.0427822265625,0.10900865625143051,-0.01147808738441672,-0.003588407280249521
1761468798881764000,4.05276416015625,0.10960720666646957,-0.014390862708713393,0.02220092225500848
1761468798891747300,4.062747314453125,0.09359539854228496,-0.019456098792585544,0.04642320796952117
1761468798901729000,4.07272900390625,0.12262392462790012,-0.025359418251970783,0.04046047733994201
1761468798911712300,4.082712158203125,0.11723580184876918,-0.008984628884156699,0.02203056152362842
1761468798921695200,4.0926953125,0.11828209603130817,-0.010069478678528684,-0.0040739942735293876
1761468798931677200,4.10267724609375,0.1033183356553316,-0.0024295632366047354,-0.011451761066494509
1761468798941660200,4.11266015625,0.1372860717087984,-0.0035892640843085246,-0.002936889135534875
1761468798951643100,4.12264306640625,0.1146907935410738,0.007955338352057152,0.004208283611107618
1761468798961625000,4.132625,0.1164858602643013,0.00359352413007291,0.0006264293692307547
1761468798971608000,4.142608154296875,0.1139414364784956,0.006052903405862162,-0.01373729188751895
1761468798981590000,4.152590087890625,0.13114976091086863,-0.002213155137980357,-0.034457519731251524
1761468798991573000,4.162572998046875,0.12636194211244584,0.00012216307706694351,-0.038029551265435294
1761468799001556200,4.17255615234375,0.13100070782899856,-0.006161347057775129,-0.013084380936739035
1761468799011538000,4.182537841796875,0.12366846524477004,-0.007051940934415324,0.015816171387652865
1761468799021521200,4.192521240234375,0.1121463697552681,-0.015564606637734686,0.030802559153968467
1761468799031504100,4.202504150390625,0.11364274579286575,-0.02564656919685658,0.029043559257965534
1761468799041486000,4.212486083984375,0.12157353879213333,-0.011808087665407219,0.028647879037843084
1761468799051469000,4.222468994140625,0.10466332052350044,-0.025000558344321324,0.032149735979223625
1761468799061452000,4.2324521484375,0.11139584364891052,-0.017958358490030513,0.01668365210429765
1761468799071434000,4.24243408203125,0.11334054797589778,-0.007722270523343467,-0.006312466515856795
1761468799081417000,4.2524169921875,0.1238145957171917,-0.0028203204010264016,-0.014051212108321488
1761468799091399200,4.262399169921875,0.11708031902611254,-0.012397991266398458,-0.010466325659141875
1761468799101382100,4.272382080078125,0.11378770722150802,-0.0035383607329669757,-0.004225714236521162
1761468799111365000,4.282365234375,0.1235135669440031,0.0002511451956321252,-0.004009637500159442
1761468799121347000,4.29234716796875,0.11737842518985271,0.00041998811089433727,0.0005174434362677857
1761468799131330300,4.302330322265625,0.1178279225230217,-0.010393625749112106,-0.012393457796820438
1761468799141313000,4.31231298828125,0.1160328557997942,-0.010399788345128762,-0.011271020504995248
1761468799151295200,4.322295166015625,0.11752981635928153,-0.010000655792595353,-0.005956830611755139
1761468799161278200,4.3322783203125,0.12037293083071708,-0.0028202984243733227,0.002312322929827496
1761468799171261200,4.34226123046875,0.11618307792544365,-0.008561766112875192,0.009232071156450547
1761468799181243100,4.3522431640625,0.10720423717796802,0.007753001305036014,0.019674956574500538
1761468799191226400,4.362226318359375,0.11034662685692309,0.01687540610851138,0.012520751138031482
1761468799201208000,4.3722080078125,0.1251607496291399,0.017071144451387226,-0.005626347415219061
1761468799211191300,4.38219140625,0.12575930004417896,0.015666781520709626,-0.014702912916126661
1761468799221174300,4.39217431640625,0.12411387092471123,0.01855494870177936,-0.03148754117686767
1761468799231156200,4.40215625,0.12351648955345153,0.010218612817145185,-0.0191215559088625
1761468799241139200,4.41213916015625,0.11184358741641044,-0.01245007992995088,0.009806925602070986
1761468799251122200,4.4221220703125,0.1063075805991888,-0.013255901578743942,0.024853267961274832
1761468799261104000,4.432104248046875,0.12396540236473083,-0.013997986367030535,0.014375498459511436
1761468799271087000,4.442087158203125,0.12007540918886661,-0.013765243906946853,0.030590418807207604
1761468799281069000,4.452069091796875,0.1058586677879095,-0.012972370787983526,0.03725552555248141
1761468799291052000,4.462052001953125,0.11154431220889091,-0.011320564443367766,0.026626058920612556
1761468799301035300,4.47203515625,0.11917466095685958,-0.014667067567899357,0.00579246579632163
1761468799311017000,4.482016845703125,0.11468553284406661,-0.010997290730685927,-0.009728969561611301
1761468799320999200,4.491999267578125,0.13638356991112233,-0.011064307535311672,-0.012670311109977773
1761468799330982100,4.501982177734375,0.12530980271100997,-0.008887099351902725,-0.01028404159452766
1761468799340964400,4.51196435546875,0.10944763219058513,-0.011712079945026198,-0.004063536811596714
1761468799350947300,4.521947265625,0.11273965947329997,-0.005148029271297855,0.00019777389469090848
1761468799360930300,4.531930419921875,0.11229016214013099,-0.00216871406428836,-0.01924082120724488
1761468799370912300,4.541912353515625,0.11094342370629309,-0.0010986106041324091,-0.02156228185817599
1761468799380895500,4.5518955078125,0.12351298242211341,-0.003452255920792231,0.00012544844399672001
1761468799390878200,4.561878173828125,0.11887538574934005,-0.0017910635474341688,0.008714381125010549
1761468799400860400,4.5718603515625,0.12216799755394459,-0.003084594791701238,0.005546336414990946
1761468799410843400,4.581843505859375,0.11752923183739185,-0.00838001405451214,0.004568805752880871
1761468799420825300,4.591825439453125,0.11498597709536552,-0.0058294048398034645,0.016923954533040523
1761468799430808300,4.601808349609375,0.1093003326743841,-0.017071573709649963,0.01503016297596041
1761468799440791300,4.611791259765625,0.11812778225243091,-0.01223439934416674,0.013254020148911513
1761468799450773200,4.621773193359375,0.11289046612083911,-0.016293524842127226,-0.0020079331557732076
1761468799460756200,4.631756103515625,0.12082184364199637,-0.01044499746003421,-0.007416016444121487
1761468799470739500,4.641739501953125,0.11004852069318294,-0.009271698772296076,-0.005828413892537355
1761468799480721200,4.65172119140625,0.11753040088117123,-0.01990380374417873,0.012284101971099153
1761468799490704400,4.661704345703125,0.1085515601336956,-0.010095178233721526,0.027882744450820608
1761468799500687400,4.671687255859375,0.10974924548566341,-0.01060941935768351,0.024023849666118622
1761468799510669300,4.68166943359375,0.12441373065412044,-0.003066406114462006,0.005514936629729345
1761468799520652300,4.69165234375,0.1119938095420599,0.0011086499388344236,-0.005013686276436783
1761468799530634200,4.70163427734375,0.11783084513247012,0.00011058737452694913,-0.020023135257931424
1761468799540617200,4.7116171875,0.12306757674217224,-0.015633226310979808,-0.016931895810901185
1761468799550600200,4.72160009765625,0.11199439406394958,-0.009210789764759829,-0.007760875225882045
1761468799560582100,4.73158203125,0.12172083830833434,-0.01089184617839055,-0.005470960490684956
1761468799570565000,4.741565185546875,0.12321779886782169,-0.017387368510419037,-0.003045432110503316
1761468799580548400,4.75154833984375,0.11513795278668403,-0.013421234508557244,-0.003293337890389375
1761468799590530000,4.761530029296875,0.11379121435284614,-0.01415287667628727,0.0011733500617323444
1761468799600513300,4.77151318359375,0.10840484513938427,-0.012975109592697117,0.012002590749133377
1761468799610495200,4.7814951171875,0.12112287241518496,-0.01219710639094701,0.023450328661059026
1761468799620478200,4.791478271484375,0.09747954649925232,0.003361537153115205,0.03857606096598319
1761468799630461200,4.801461181640625,0.13683482080996034,0.011387694270780775,0.017915216892980968
1761468799640443400,4.811443359375,0.11528642134666442,-0.0029869208414413147,-0.00928050884148106
1761468799650426000,4.821426025390625,0.10705635313987731,0.0031383839344620353,-0.018092011931724845
1761468799660409000,4.8314091796875,0.12651041067242622,0.007051562479324638,-0.02665263183370698
1761468799670391300,4.841391357421875,0.11349135462343692,0.004411289090875652,-0.014801249590911902
1761468799680374300,4.851374267578125,0.11693301950991153,0.005657007414964027,-0.006697031686920672
1761468799690357200,4.861357177734375,0.1205249065220356,-0.0006937624093319754,0.0014595374588156117
1761468799700339200,4.871339111328125,0.10765607259869575,-0.006962462848698487,0.0018224068213021382
1761468799710322400,4.881322509765625,0.10990122117698192,-0.01687522915364243,0.007233262022049166
1761468799720304000,4.89130419921875,0.12022680035829543,-0.026294436363049317,0.00739253053725697
1761468799730287400,4.901287353515625,0.11663608238995074,-0.014701910552417393,-0.004261744531127624
1761468799740270300,4.911270263671875,0.1293552787095308,-0.021100619163177906,-0.006341496247518807
1761468799750252300,4.921252197265625,0.122023620647192,-0.018664236028841697,0.009881990999123081
1761468799760235300,4.9312353515625,0.1199281096726656,-0.01038657267052913,0.021435819634026847
1761468799770218500,4.941218505859375,0.11918050617575644,-0.007315506078558974,0.010277954347035847
1761468799780200200,4.9512001953125,0.11304536442160605,-0.0007519471681196591,-0.008966675385646522
1761468799790183400,4.961183349609375,0.1137929679185152,0.01098248817048734,-0.018221186702768316
1761468799800165000,4.9711650390625,0.13998071762025355,0.01982369684582809,-0.02353265034938231
1761468799810148400,4.9811484375,0.11768413013815879,0.017185267783771267,-0.004935931165376678
1761468799820131300,4.99113134765625,0.11409224312603473,0.017468146695627365,0.011826905388664453
1761468799830113300,5.00111328125,0.12142507023215293,0.014555552892776904,0.012351399620226584
1761468799840096300,5.01109619140625,0.12516659484803677,-0.002904717027893639,-0.00040484077411238103
1761468799850079200,5.021079345703125,0.11648761382997035,-0.0016453957263714981,-0.027545457054162396
1761468799860061200,5.031061279296875,0.12262334010601043,-0.012836090422718553,-0.01493013210101053
1761468799870044200,5.041044189453125,0.12217501181662081,-0.01533406412624754,0.0013734529108274727
1761468799880027400,5.05102734375,0.10900631816387175,-0.023978791248262857,0.018660139809036625
1761468799890009000,5.061009033203125,0.1118494326353073,-0.02335360398804769,0.028777181673049924
1761468799899992300,5.070992431640625,0.11574001033306121,-0.014227134930808096,0.01758237734257709
1761468799909974300,5.080974365234375,0.12142682379782199,-0.02262844521838706,0.0036336574943503365
1761468799919957200,5.090957275390625,0.11933189734518528,-0.018662729058344846,-0.000146541464375332
1761468799929940200,5.100940185546875,0.1170867487668991,-0.008304400097366306,0.002681562667596154
1761468799939922400,5.11092236328125,0.13040391097962856,-0.0029354078520351322,0.0013034290150739252
1761468799949905200,5.1209052734375,0.12097615742087363,0.0037972545539814743,0.007441429446591064
1761468799959888100,5.13088818359375,0.11499123779237269,0.0086919084274763,0.003293484020861797
1761468799969870300,5.140870361328125,0.11514087539613246,-0.0009204946829151594,-0.021232163987820966
1761468799979853000,5.15085302734375,0.11573942581117153,0.006898727129836334,-0.029570473775477148
1761468799989836300,5.160836181640625,0.11319675559103488,-0.003067334556701826,-0.023799384127324446
1761468799999818200,5.170818359375,0.12202595873475074,-0.015331545658886897,-0.00465665756626986
1761468800009801200,5.18080126953125,0.10586568205058575,0.001768266622914234,0.005829984795115888
1761468800019784200,5.1907841796875,0.1212783552378416,-0.009309037391288438,0.026211929728346874
1761468800029766400,5.200766357421875,0.12472002012431621,-0.00216430874428479,0.0358634136069566
1761468800039749000,5.2107490234375,0.10362053347229958,0.008158609834950765,0.04315643842564895
1761468800049731300,5.2207314453125,0.10391863963603973,0.009938806070142891,0.03964547116262838
1761468800059714300,5.23071435546875,0.12426876922547817,0.013204118875868151,0.004158060394367203
1761468800069697300,5.240697265625,0.12172434543967246,0.009333868725979117,-0.006821776878018863
1761468800079679200,5.25067919921875,0.11573884128928184,0.007876429609415935,-0.00658474868517369
1761468800089662200,5.260662109375,0.11798282082378864,0.014624717130360659,-0.004499526209221221
1761468800099645400,5.2706455078125,0.11708499520123004,0.011709887987939873,-0.006627875440847128
1761468800109627100,5.280627197265625,0.1259141983449459,0.0039579786656919165,-0.015151533466461115
1761468800119610400,5.2906103515625,0.13025368885397912,-0.011347898833220824,-0.011949312492203898
1761468800129592000,5.300592041015625,0.10705986027121543,-0.018055177919520063,-0.012721726203383877
1761468800139575300,5.3105751953125,0.10810790801942348,-0.0325552343404619,-0.012628522361442447
1761468800149558300,5.320558349609375,0.1236702188104391,-0.02932681034586858,-0.014565618770709261
1761468800159540200,5.330540283203125,0.1145423249810934,-0.032015572222520126,0.00021688045396003872
1761468800169523200,5.340523193359375,0.10855682083070277,-0.02556224049782613,0.018111301154084502
1761468800179506200,5.350506103515625,0.12516659484803677,-0.01634419558343943,0.02634878548234701
1761468800189488000,5.360488037109375,0.11095043796896933,-0.00403766144317924,0.016608107216632924
1761468800199471400,5.370471435546875,0.10930442432761192,-0.003322495486214757,-0.012653519805381075
1761468800209454300,5.380454345703125,0.11648761382997035,-0.003365224378844141,-0.018150089661357924
1761468800219436300,5.390436279296875,0.12127601715028286,0.004492481692970614,-0.013440633328771217
1761468800229419300,5.400419189453125,0.11783435226380824,0.013225691386859398,0.013008621419942938
1761468800239401200,5.410401123046875,0.11588789437115192,0.01824270555647672,0.030287417272641323
1761468800249384200,5.42038427734375,0.10107377159893512,0.007610030904080485,0.03645033294970635
1761468800259367200,5.4303671875,0.11109949105083941,0.002315945938063669,0.013313029460306278
1761468800269349400,5.440349365234375,0.12621171998679637,0.005867413604009198,-0.000531403462961316
1761468800279332000,5.45033203125,0.10885375795066356,0.004063690933579346,-0.00828987666920293
1761468800289315300,5.4603154296875,0.12052549104392528,-0.008750864652410381,-0.016961980421910994
1761468800299297300,5.47029736328125,0.11109832200706005,-0.010203274825762491,0.0032853509467560796
1761468800309280300,5.4802802734375,0.1104991870701313,-0.011692620617663487,-0.003595211480371654
1761468800319264500,5.490264404296875,0.12740823629498482,-0.008475956130345002,-0.0028956027104984966
1761468800329246200,5.50024609375,0.11483926210105419,-0.006847413642774336,0.0009433361315634101
1761468800339229400,5.5102294921875,0.110050274258852,-0.006198094305011909,-0.00020418080259114503
1761468800349211100,5.520211181640625,0.11094868440330027,-0.007326626835839124,0.0030264031830476595
1761468800359194400,5.5301943359375,0.10511281785666941,-0.013131279685231857,0.005853703597420826
1761468800369177300,5.54017724609375,0.12591302930116652,-0.009671595084876753,0.01821161972340196
1761468800379159300,5.5501591796875,0.11229542283713817,-0.009535935774119571,0.030647135696816256
1761468800389142300,5.560142333984375,0.10586100587546825,-0.0037374004257930207,0.027076844028569757
1761468800399125200,5.570125244140625,0.12232172681093215,0.0008172420877061086,0.01589760715998709
1761468800409107200,5.580107177734375,0.11768237657248973,0.003349619813513709,-0.001680596330971457
1761468800419090200,5.590090087890625,0.11887947740256785,0.003785561832899111,-0.015515064982650801
1761468800429072400,5.600072265625,0.11618483149111271,0.004810793819456012,-0.006531178167299367
1761468800439055000,5.61005517578125,0.1091524486362934,-0.0018282029494934248,-0.0003945340092293918
1761468800449038300,5.620038330078125,0.1280062021881342,0.003637050461256876,-0.008861429479462094
1761468800459020300,5.630020263671875,0.12501403463482855,-0.009353942828805884,-0.02413844335596077
1761468800469003300,5.640003173828125,0.11424071168601513,-0.010701956479344516,-0.031351662670401854
1761468800478986200,5.649986328125,0.12232114228904246,-0.004273491480314987,-0.009547101055528036
1761468800488968400,5.659968505859375,0.11618658505678177,-0.0046952605563419635,0.00880634742451366
1761468800498951200,5.669951171875,0.12247136441469192,-0.00911522100661823,0.009966961302259004
1761468800508934100,5.67993408203125,0.11543839703798293,-0.007103560952976113,0.014958728007832541
1761468800518916400,5.689916259765625,0.11857961767315864,-0.005474730200215708,0.014430347619019448
1761468800528899000,5.699899169921875,0.1205249065220356,-0.013960700263676698,0.02517886492013931
1761468800538881300,5.70988134765625,0.12321838338971138,-0.012826985809300095,0.010091090005426667
1761468800548864300,5.7198642578125,0.11827975794374943,-0.003811875021911692,0.008787505726725793
1761468800558847200,5.72984716796875,0.10990005213320254,-0.013536333946831292,-0.004093703620997258
1761468800568829200,5.7398291015625,0.11468845545351504,-0.01250323032271699,0.0037720110856927927
1761468800578812400,5.7498125,0.09777940622866153,-0.013723605855461209,0.008676770794671029
1761468800588795400,5.75979541015625,0.1283066464394331,-0.006683498635201249,-0.01749982275881339
1761468800598777300,5.76977734375,0.11917875261008738,0.0034915410433430222,-0.02607057589574251
1761468800608760300,5.77976025390625,0.11424071168601513,0.0033741537498601245,-0.015390223893430083
1761468800618742300,5.7897421875,0.1265109951943159,0.006731997398202657,-0.008968346752924844
1761468800628725200,5.799725341796875,0.1217225918740034,-0.004206895371619611,0.008765348693844861
1761468800638708500,5.80970849609375,0.12950374726951122,0.004413775021373294,0.00817805489175953
1761468800648690200,5.819690185546875,0.11558803464174269,-0.0008321873534441692,0.013185589988622813
1761468800658673400,5.82967333984375,0.11678455094993113,-0.0053417434788018,0.020141236079111693
1761468800668656400,5.839656494140625,0.11858020219504832,-0.01027800800431869,0.01992710470466409
1761468800678638300,5.849638427734375,0.13758417787253857,-0.011751693861139938,0.02033328348591458
1761468800688621300,5.859621337890625,0.11199556310772896,-0.019029838487820232,0.03151669420611579
1761468800698604300,5.869604248046875,0.11813070486187935,-0.01801565191001864,0.026170940130832602
1761468800708586200,5.879586181640625,0.11648410669863224,-0.011854512631508987,0.018500058443075975
1761468800718569200,5.8895693359375,0.1257616381317377,-0.010584791806503199,-0.0034520264502847565
1761468800728551400,5.899551513671875,0.12321838338971138,-0.007056489816191606,-0.03705034466946963
1761468800738534100,5.9095341796875,0.11379121435284614,-0.009437222356710117,-0.03227306553137023
1761468800748517400,5.919517333984375,0.11094809988141059,-0.012338980813359376,-0.014885411609872244
1761468800758499300,5.929499267578125,0.12546236292421817,-0.00871759713704814,-0.015249865574669091
1761468800768482300,5.939482421875,0.13129822947084904,0.0009342201017017942,-0.01989275947706774
1761468800778465300,5.94946533203125,0.12441489969789982,-0.004330470377294114,0.009129419066151603
1761468800788447500,5.959447509765625,0.11154606577455997,0.0039680536767788,0.024473995453258974
1761468800798430200,5.96943017578125,0.1170820725917816,0.0032975836655998133,0.03335209750630893
1761468800808412400,5.979412353515625,0.11259235995709896,0.012981913792819249,0.019153750278567895
1761468800818395400,5.9893955078125,0.11513619922101496,0.012894667050917632,0.014766968295397236
1761468800828378000,5.999378173828125,0.12336509838402271,0.017808743719157062,0.013607171834982
1761468800838360300,6.0093603515625,0.10750234334170818,0.02150790762270335,0.003985932397586293
1761468800848343300,6.01934326171875,0.11543313634097575,0.022825125417823437,-0.0021750333509873597
1761468800858326300,6.029326171875,0.12890052067935465,0.024089306984608993,-0.011852382323215714
1761468800868308200,6.03930810546875,0.12366320454776286,0.010554768844286445,-0.029904678732482714
1761468800878291500,6.04929150390625,0.12725509155988693,0.005887516247943858,-0.03831983944890089
1761468800888274200,6.059274169921875,0.12575988456606865,-0.003914139523965423,-0.02222434422979131
1761468800898256400,6.06925634765625,0.11768062300682067,-0.008998789269427652,-0.004916112220054492
1761468800908239400,6.0792392578125,0.11857903315126896,-0.02171179616434965,0.013851223423657938
1761468800918221300,6.08922119140625,0.11603519388735294,-0.02838036894176621,0.04129703319536056
1761468800928204300,6.099204345703125,0.11289280420839785,-0.03120500247501768,0.053310684194625355
1761468800938187300,6.109187255859375,0.10720599074363708,-0.027350767882412762,0.023317619359213858
1761468800948169200,6.119169189453125,0.1118453409820795,-0.020462645486625842,-0.009028817369043826
1761468800958152200,6.129152099609375,0.11887830835878849,-0.021415489232051187,-0.03264256556404289
1761468800968135400,6.139135498046875,0.1301011286407709,-0.021834057137416676,-0.02204110118395183
1761468800978117000,6.1491171875,0.12336802099347113,-0.008295054026175057,-0.0072212199578061695
1761468800988100400,6.159100341796875,0.12276888605654239,-0.00807468470718595,0.020587998032500034
1761468800998082300,6.169082275390625,0.10915186411440372,-0.0040467238157580136,0.014554426089837215
1761468801008065300,6.179065185546875,0.11244506044089793,0.0033029065822222036,0.002791649145679548
1761468801018048300,6.18904833984375,0.1299526600807905,0.008444633406074717,-0.003116172958887182
1761468801028030500,6.199030517578125,0.12875614377260208,0.01812747140417341,-0.010654240313521586
1761468801038013200,6.20901318359375,0.11424188072979449,0.029740297934028784,0.0018850191621575503
1761468801047996200,6.21899609375,0.1390811384320259,0.017953206249233335,0.025272118994430638
1761468801057978400,6.228978271484375,0.08805296198427677,-0.01897434087434085,0.048177065899525764
1761468801067961000,6.238961181640625,0.10032324549257755,0.0021330796348484,-0.001689345893007703
1761468801077944300,6.2489443359375,0.13563713545799255,-0.006161282554871286,-0.013659413478872739
1761468801087926300,6.25892626953125,0.1302490126788616,-0.02894445768148871,-0.040797431376460004
1761468801097909200,6.2689091796875,0.10855272917747497,-0.006766467065029428,-0.06436414382564835
1761468801107891200,6.27889111328125,0.14641279649436473,-0.01668230838893796,-0.04575647398936562
1761468801117874400,6.28887451171875,0.10795710137188434,-0.009290892667355364,-0.0014193972446722909
1761468801127857200,6.298857177734375,0.10122399372458457,-0.002721081256409525,0.03890577697753906
1761468801137839400,6.30883935546875,0.11184826359152793,0.003483546679021674,0.07614560720396693
1761468801147822300,6.318822265625,0.09912906727194785,0.026799337694863788,0.06400495512443594
1761468801157805300,6.328805419921875,0.10511398690044879,0.012465648533485363,0.024948576995334586
1761468801167787300,6.338787353515625,0.1176835456162691,0.005353675945190479,-0.006117880092095583
1761468801177770500,6.3487705078125,0.1290560035020113,-0.00016305649104760958,-0.009749678989499806
1761468801187753200,6.358753173828125,0.10885434247255325,-0.006266348652075975,0.0084556479904335
1761468801197735400,6.3687353515625,0.11109890652894973,-0.020165765448880848,0.023601560000283642
1761468801207718400,6.378718505859375,0.11274375112652778,-0.04033086417748127,0.01589290358540602
1761468801217700400,6.388700439453125,0.11244447591900825,-0.04707214599808212,0.008085239208885467
1761468801227683300,6.398683349609375,0.12680910135805606,-0.055924159195227544,-0.0288794456042815
1761468801237666300,6.408666259765625,0.12725801416933535,-0.043987354558147486,-0.06489273884359281
1761468801247648300,6.418648193359375,0.12845511499941348,-0.035271069170418196,-0.06356274148200172
1761468801257631200,6.42863134765625,0.12067454412579535,-0.015726406178390606,-0.024944636039156465
1761468801267614500,6.438614501953125,0.11992694062888622,0.008685027166362852,0.007240367616270668
1761468801277596200,6.44859619140625,0.11109832200706005,0.031103985219378953,0.024067300648777743
1761468801287579400,6.458579345703125,0.12321896791160106,0.04494060929552652,0.02376901638852432
1761468801297561300,6.468561279296875,0.11109890652894973,0.04759708775421604,0.024453756382828578
1761468801307544300,6.47854443359375,0.11528934395611286,0.04365072018203791,0.013838108213758095
1761468801317527300,6.48852734375,0.1233697745591402,0.03875034438723232,0.02590935288546607
1761468801327512800,6.498512939453125,0.11454115593731402,0.035486059061391274,0.03148005199015606
1761468801337495800,6.508495849609375,0.11783259869813918,0.02156107399848988,0.032219015522883275
1761468801347478800,6.518478759765625,0.10945230836570262,0.007837960762550937,0.03816500508021563
1761468801357460700,6.528460693359375,0.11543722799420356,0.006068333870434435,0.030955703889066353
1761468801367443700,6.538443603515625,0.12276947057843207,-0.013951706389756872,-0.005784588450542651
1761468801377425700,6.54842578125,0.12127251001894473,-0.015727744185528716,-0.03836090667822864
1761468801387408600,6.55840869140625,0.13084931665956973,-0.02441784938580822,-0.04563759228347335
1761468801397392000,6.568391845703125,0.11828034246563911,-0.029983164495904928,-0.03490398485711776
1761468801407373600,6.57837353515625,0.11723287923932074,-0.026080101775913498,-0.031199732644855975
1761468801417356800,6.588356689453125,0.11723346376121044,-0.03182407052170019,-0.026856081983936016
1761468801427339800,6.59833984375,0.11753332349061965,-0.03243317429679446,-0.026263047994230872
1761468801437321700,6.60832177734375,0.12322013695538044,-0.03404932708942797,-0.01569125723319594
1761468801447304700,6.6183046875,0.10750877308249474,-0.033078484179719814,0.00201338564902544
1761468801457287700,6.62828759765625,0.12217325825095177,-0.01675794346650364,0.02365626302931923
1761468801467269600,6.63826953125,0.11304594894349575,-0.003974167752912035,0.04240862943276297
1761468801477252600,6.648252685546875,0.12277239318788051,0.007676575067959493,0.060815255705034356
1761468801487234800,6.65823486328125,0.12486673511862754,0.024140722078015094,0.0632010502964491
1761468801497217500,6.668217529296875,0.116036947453022,0.02149643409732962,0.05683601334313862
1761468801507200800,6.67820068359375,0.11334347058534622,0.025037337557598946,0.02494320213389583
1761468801517182700,6.6881826171875,0.1104991870701313,0.019846863092284183,0.006326700537186115
1761468801527165700,6.698165771484375,0.12426584661602973,0.006524758701311657,-0.02703040193780325
1761468801537148700,6.708148681640625,0.116633744302392,0.0020907651591056493,-0.019886914258170872
1761468801547131000,6.718130859375,0.12037468439638614,-0.020700137187063226,-0.02589426034761127
1761468801557113600,6.728113525390625,0.12426584661602973,-0.02224640993112698,-0.022000696108327247
1761468801567095800,6.738095703125,0.11678455094993113,-0.04163069016309455,-0.020174508161051197
1761468801577078800,6.748078857421875,0.12067571316957473,-0.04077623789138161,-0.028967744942242277
1761468801587061800,6.758061767578125,0.11109949105083941,-0.041202537012053654,-0.03227876918637194
1761468801597043700,6.768043701171875,0.12651333328187464,-0.03583698225775733,-0.019629048773273823
1761468801607026700,6.778026611328125,0.11843348720073699,-0.016491624105448136,0.011820722243050112
1761468801617010000,6.788010009765625,0.10810849254131316,0.014283632624708116,0.039189831783040426
1761468801626991900,6.797991943359375,0.11783435226380824,0.038714492189139124,0.048771474428987126
1761468801636974800,6.807974853515625,0.12351999668478965,0.06016953254686668,0.05372207800711039
1761468801646957800,6.817957763671875,0.11184767906963825,0.05542119637546129,0.027039964350592343
1761468801656939800,6.827939697265625,0.13504150765240192,0.05524016355301719,0.0018539162044180556
1761468801666922800,6.8379228515625,0.12651274875998497,0.03343328440018231,-0.03235022242080886
1761468801676904700,6.84790478515625,0.1280097093194723,0.002447282412619097,-0.04089606487876735
1761468801686887700,6.8578876953125,0.10945464645326138,-0.025781301492429336,-0.029486343722557647
1761468801696871000,6.867870849609375,0.11304653346538543,-0.030452302677882834,-0.02067028318820521
1761468801706852600,6.8778525390625,0.12471826655864715,-0.03791422920651966,-0.007250395819940604
1761468801716835800,6.8878359375,0.10765957973003387,-0.04792871716164518,-0.0036808393706334753
1761468801726818800,6.89781884765625,0.11364625292420387,-0.03741634213738143,-0.02251397025955375
1761468801736800800,6.90780078125,0.12756371911764144,-0.025313147407851646,-0.025700605505611745
1761468801746783700,6.91778369140625,0.12053192078471182,-0.022138547376170752,0.008083974266983568
1761468801756766000,6.927765869140625,0.10586802013814449,-0.0073931778495840254,0.0432464913292788
1761468801766748700,6.937748779296875,0.10631693294942378,0.0033574783221614777,0.07397743285202886
1761468801776731600,6.947731689453125,0.10481880334615706,0.027251561274658886,0.0816565846112091
1761468801786713900,6.9577138671875,0.10646423246562481,0.02557970308928052,0.0623380722249858
1761468801796696600,6.967696533203125,0.11035364111959933,0.0240291971280938,0.019561362965079022
1761468801806679800,6.9776796875,0.1305547176271677,0.011193884165154303,-0.03508726443557534
1761468801816661800,6.987661865234375,0.13264964407980442,0.006169787805023952,-0.0559522162459325
1761468801826644700,6.997644775390625,0.13773673808574677,-0.015982497548020908,-0.027337084133643656
1761468801836626700,7.007626708984375,0.11334639319479464,-0.01640914601185359,0.01224111221274361
1761468801846610000,7.01760986328125,0.12037877604961394,-0.021055090387864038,0.026893527917494064
1761468801856592600,7.027592529296875,0.11334463962912558,-0.031195015370543113,0.005796256055450067
1761468801866574800,7.037574951171875,0.11439151833355427,-0.03527585037681274,-0.037665161232720124
1761468801876557800,7.047557861328125,0.1381844818532467,-0.029106788086751476,-0.05184466219609603
1761468801886540500,7.05754052734375,0.12037819152772426,-0.030182404261897316,-0.04281132391556166
1761468801896522800,7.067522705078125,0.11469313162863254,-0.017223056210624053,-0.019028763058874756
1761468801906505700,7.077505615234375,0.11783552130758762,0.001674318999701063,0.010799325039749964
1761468801916488700,7.08748876953125,0.10511690950989723,0.014990974893176462,0.03945017691939138
1761468801926470700,7.097470703125,0.11678805808126926,0.01966360406342428,0.027574842978850937
1761468801936454000,7.107453857421875,0.104817049780488,0.031489593853347465,0.0176319566719234
1761468801946435600,7.117435546875,0.12352175025045871,0.0301237237440655,-0.023532581850723364
1761468801956418800,7.127418701171875,0.11888298453390597,0.04160461500692181,-0.03479535055060405
1761468801966401800,7.13740185546875,0.12292378435730933,0.03347861681267386,-0.01802993844698649
1761468801976383700,7.1473837890625,0.12142799284160137,0.015982238394761223,0.008646145044255536
1761468801986366700,7.15736669921875,0.12008125440776347,0.007988648679081233,0.027504565638059284
1761468801996349700,7.167349609375,0.11948153494894503,-0.010262771619280102,0.029909090046118945
1761468802006331600,7.17733154296875,0.10975450618267059,-0.022602360929059796,0.013668752129375935
1761468802016314600,7.187314697265625,0.12441840682923794,-0.014363992968096862,0.006860702382610179
1761468802026296800,7.197296875,0.12352058120667933,-0.03754335463409079,0.005161798643390648
1761468802036279600,7.207279541015625,0.11933014377951622,-0.02695726591964485,-0.0071756957490695635
1761468802046262800,7.2172626953125,0.11124912865459918,-0.019881913856067693,-0.004797591273766011
1761468802056244700,7.22724462890625,0.12516601032614708,-0.012537017286242916,-0.0033279251465806736
1761468802066227700,7.237227783203125,0.11828268055319785,-0.018185473785281646,-0.001318201892520301
1761468802076210700,7.247210693359375,0.1102028344720602,-0.017491225035471143,-0.002129458909900859
1761468802086193000,7.25719287109375,0.12007950084209441,-0.002142717396162334,-0.003297004851931706
1761468802096175600,7.267175537109375,0.11095160701274871,-0.00640222202114237,-0.007794165574130602
1761468802106157800,7.27715771484375,0.12801087836325167,0.006279463861975819,-0.005012498966348357
1761468802116140800,7.287140869140625,0.11020400351583957,0.005352758063160581,0.011835536219691857
1761468802126123800,7.297123779296875,0.1157405948549509,0.0005852217176521662,0.012967873851023614
1761468802136105700,7.307105712890625,0.12411971614360809,0.01598258431298891,0.013533732139435596
1761468802146089000,7.3170888671875,0.11439327189922333,0.012855695880553684,0.014643981236545369
1761468802156071700,7.32707177734375,0.10855740535259246,0.021859703035326673,0.005954332693992182
1761468802166054000,7.337053955078125,0.11843348720073699,0.0014180055802513378,0.00217579596939031
1761468802176036900,7.347036865234375,0.11514145991802215,0.005706786532065598,0.0071195907808141775
1761468802186019600,7.35701953125,0.12651333328187464,-0.003036094030822278,0.008293114372482523
1761468802196001800,7.367001708984375,0.1131955865472555,-0.011274085819983156,0.0001141096326522529
1761468802205984800,7.37698486328125,0.11439268737733363,-0.02070782045330852,-0.006838997440878301
1761468802215966700,7.386966796875,0.11678747355937957,-0.029507340844813733,-0.018999906857148745
1761468802225949700,7.39694970703125,0.11259762065410614,-0.030835806119733022,-0.013027759945252909
1761468802235933000,7.406932861328125,0.11678747355937957,-0.03253814164176583,-0.004074752325355075
1761468802245914600,7.41691455078125,0.10511632498800753,-0.034274498164409306,0.00796409248067066
1761468802255897900,7.42689794921875,0.12367138785421848,-0.01954375880972948,-0.0052927817790303375
1761468802265880800,7.436880859375,0.11978081015646456,-0.009425281898811226,-0.017984592334763145
1761468802275862800,7.44686279296875,0.11753624610006809,0.005659801018604776,-0.0196774042599136
1761468802285845800,7.456845703125,0.12307283743917942,0.01870579759015818,-0.01386768593469169
1761468802295828000,7.466827880859375,0.11933189734518528,0.03165196079122834,0.0007023715491173789
1761468802305810700,7.476810791015625,0.11349544627666473,0.0320103800241719,0.015869385712500662
1761468802315793700,7.486793701171875,0.11110124461650847,0.027420940191927364,0.020809298933250828
1761468802325775000,7.496775146484375,0.10736030452251434,0.02407675346371252,0.020303961493307723
1761468802335758300,7.50675830078125,0.12262275558412074,0.010893912554602139,0.009944941266695968
1761468802345741300,7.5167412109375,0.11888181549012661,0.0002054645816242555,0.004601287816953845
1761468802355723300,7.52672314453125,0.12082651981711387,-0.005561301659504534,0.014871561181033029
1761468802365706200,7.536706298828125,0.11753390801250933,-0.0010746115281479432,0.021577684923284685
1761468802375688200,7.546688232421875,0.12651216423809528,-0.010331100173224694,0.017441681097098625
1761468802385671400,7.55667138671875,0.13010346672832965,-0.01633798503836151,-0.00501823915396817
1761468802395654100,7.566654052734375,0.11409224312603473,-0.01853783659512992,-0.03231082199218217
1761468802405636400,7.57663623046875,0.12022796940207481,-0.041126622231630605,-0.06035710014137439
1761468802415619300,7.586619384765625,0.12546645457744598,-0.038236122671223706,-0.07448840088173747
1761468802425602300,7.596602294921875,0.12352116572856903,-0.025312441871664485,-0.04274321341568138
1761468802435584300,7.606584228515625,0.11903320665955543,-0.024706288105482234,-0.009922293326759245
1761468802445567500,7.6165673828125,0.11454524759054183,-0.002583754574129125,0.013371413150615989
1761468802455549200,7.626549072265625,0.10152677606344222,0.017382119229855015,0.0378789797966252
1761468802465532400,7.636532470703125,0.11304887155294417,0.023409795721271075,0.04953677797936834
1761468802475515400,7.646515380859375,0.12322422860860824,0.03724054261248093,0.0497312593718525
1761468802485497300,7.656497314453125,0.11589081698060034,0.049745548192108975,0.052891563733411015
1761468802495480300,7.666480224609375,0.12127718619406222,0.04240109914685599,0.03284332600026391
1761468802505463300,7.67646337890625,0.1175356615781784,0.02469135996440891,0.015714085552934555
1761468802515445200,7.6864453125,0.10780863281190395,0.001384075340363779,0.005838597359834239
1761468802525428200,7.69642822265625,0.10945406193137168,-0.015503324312507174,-0.013754681413737126
1761468802535410200,7.70641015625,0.11753390801250933,-0.018076473010942572,-0.05484873024974949
1761468802545393200,7.71639306640625,0.12920622562766074,-0.005740043772628997,-0.05674287343327887
1761468802555376400,7.72637646484375,0.12277356223165989,-0.01010876494272379,-0.03847951895606238
1761468802565358000,7.736358154296875,0.11753683062195777,-0.02020740350036649,-0.00853312454028055
1761468802575341300,7.74634130859375,0.10781038637757301,-0.015888745716807897,0.007461303190840408
1761468802585324300,7.75632421875,0.10736264261007308,-0.006523230610394966,0.017250848399847744
1761468802595306200,7.76630615234375,0.1128998184710741,-0.0033852054376591694,0.007308779510250315
1761468802605289200,7.776289306640625,0.11170271764099597,-0.005212161140737589,0.001750008305371739
1761468802615271400,7.786271484375,0.11409750382304192,-0.013656086727336514,0.012335875540820416
1761468802625254100,7.796254150390625,0.1193348199546337,-0.014413250353746115,-0.004033109707292169
1761468802635237000,7.806237060546875,0.11828794125020503,-0.011211198342847638,-0.010094955613079945
1761468802645219300,7.81621923828125,0.11484627636373042,-0.0029021523239382077,-0.01452611331080552
1761468802655202000,7.8262021484375,0.11813830364644527,0.014738758264353963,-0.006796726918441708
1761468802665185300,7.836185302734375,0.12217793442606925,0.023945624197600407,-0.006239013120578602
1761468802675167200,7.846167236328125,0.11230185257792472,0.028542030343459916,0.005824552851461339
1761468802685150200,7.856150146484375,0.11260112778544425,0.03469543384008575,0.015464597454026806
1761468802695132200,7.866132080078125,0.10975801331400871,0.03783830300965346,0.02044313250198029
1761468802705115400,7.876115478515625,0.11888590714335441,0.034368836800800634,0.017959387111559044
1761468802715098400,7.886098388671875,0.11768939083516597,0.03123865814944729,0.004521749457472469
1761468802725080300,7.896080322265625,0.11798808152079582,0.01294078263140982,0.002339494064543396
1761468802735063300,7.906063232421875,0.11514438252747058,0.004032847129099537,0.002728947756567504
1761468802745046300,7.91604638671875,0.12053075174093246,-0.007792369196799699,-0.005984517769701779
1761468802755028200,7.9260283203125,0.12142857736349105,-0.0232425493955845,-0.012392012475116643
1761468802765011200,7.93601123046875,0.11918459782898426,-0.029126154940924607,-0.03242577187505085
1761468802774993200,7.9459931640625,0.12442191396057604,-0.03375108849494718,-0.03320137077387189
1761468802784976100,7.95597607421875,0.11768822179138659,-0.05390690108868293,-0.026843941738281862
1761468802794959400,7.96595947265625,0.10796236206889152,-0.03967439586301334,-0.02286421988577349
1761468802804941000,7.975941162109375,0.13489713074564932,-0.0289503554160241,-0.0016034759741509331
1761468802814924300,7.98592431640625,0.09105272832214832,-0.02495035111060133,0.037338372397189956
1761468802824907300,7.9959072265625,0.12262567819356918,-0.0252652782616904,0.04087504035704769
1761468802834889200,8.00588916015625,0.10855974344015121,-0.015821337328181834,0.022908346721867565
1761468802844872200,8.0158720703125,0.1099064818739891,-0.010598853439540834,0.011048011704348028
1761468802854854400,8.0258544921875,0.1325017600417137,0.005776635756238829,-0.0023328177285846323
1761468802864837000,8.035837158203124,0.10900865625143051,0.02338371143194381,0.0030706122175324707
1761468802874820400,8.0458203125,0.1121504614084959,0.022147981924796476,0.023749138077697716
1761468802884802300,8.05580224609375,0.10451835909485817,0.02771714665952604,0.048163480332167816
1761468802894785300,8.065785400390626,0.11858370932638644,0.036637861728307325,0.05342297632952686
1761468802904768300,8.075768310546875,0.11125088222026824,0.02796679230534937,0.03917247422286309
1761468802914750500,8.08575048828125,0.12426818470358848,0.01903254760978161,-0.0012255369066959247
1761468802924733200,8.095733154296875,0.11483984662294387,0.006326300961675588,-0.03757165143010206
1761468802934715400,8.10571533203125,0.119030284050107,-0.0032652397404890504,-0.06021463206391781
1761468802944698400,8.115698486328125,0.12396890949606895,-0.010991400987660745,-0.06550344092072918
1761468802954681000,8.12568115234375,0.11529109752178192,-0.0072273197633854576,-0.0466442805414088
1761468802964663300,8.135663330078126,0.11514204443991184,-0.008231330865400377,-0.01863356232936494
1761468802974646300,8.145646240234376,0.10840952131450175,-0.009408645857841475,-0.01048132686545141
1761468802984629200,8.155629150390626,0.11499416040182113,-0.005640446722519118,-0.013029856004216708
1761468802994611200,8.165611083984375,0.11888473809957503,0.001854201615497004,-0.006057895816455129
1761468803004594400,8.175594482421875,0.11664075856506824,0.0053818277523736465,-0.0028592892881017175
1761468803014577200,8.1855771484375,0.11080547654032706,0.005147409358434379,0.008687616415671073
1761468803024559400,8.195559326171875,0.11619184575378894,0.014063282713672378,0.0187690755096497
1761468803034542300,8.205542236328125,0.10885901864767074,0.01780010946319671,0.016658138637128284
1761468803044524300,8.215524169921874,0.12262626271545886,0.013781983837549342,0.01605906763228122
1761468803054507300,8.22550732421875,0.12965923009216784,0.009279254174378002,0.026316107055451718
1761468803064490200,8.235490234375,0.10272387689352035,0.0038358952183159996,0.008951872825447935
1761468803074472200,8.24547216796875,0.12666530897319317,0.008904097294120583,0.004163526587351225
1761468803084455200,8.255455078125,0.11379589052796363,-0.005524993374507175,0.004542559350060764
1761468803094438400,8.2654384765625,0.12935878584086893,-0.0032309241956449113,-0.0010311194462934508
1761468803104420000,8.275420166015625,0.1191828442633152,-0.01105218327267794,0.0004316488659358583
1761468803114403300,8.2854033203125,0.11439502546489239,-0.012683550759108039,0.004664521212317049
1761468803124385300,8.29538525390625,0.13190204058289526,-0.015507195628382032,-0.0006631172509631142
1761468803134368300,8.3053681640625,0.11244856757223605,-0.008750354337401222,-0.004009753947879653
1761468803144351200,8.315351318359374,0.12007950084209441,-0.012353341557207749,-0.013740193947369698
1761468803154333400,8.32533349609375,0.11469313162863254,-0.00027149443473899735,-0.032068946377572134
1761468803164316200,8.335316162109375,0.1347457395762205,0.005326549334602896,-0.02490467392152641
1761468803174299100,8.345299072265625,0.12486965772807597,0.009581521631649229,-0.002924646141892299
1761468803184281300,8.35528125,0.11065408537089824,0.011927231949492124,0.010239677296415901
1761468803194264000,8.36526416015625,0.11245032113790511,0.011583561619464307,0.0031265619221609083
1761468803204246300,8.375246337890625,0.12247545606791972,0.022310595457849556,-0.006198834090528543
1761468803214229200,8.385229248046874,0.11304770250916481,0.011744778921519173,-0.007247792870900593
1761468803224212200,8.395212158203124,0.12067980482280254,0.009116918060893658,-0.008910410587186925
1761468803234194200,8.405194091796876,0.110803722974658,0.001692462581989821,0.004729110881127417
1761468803244177400,8.415177490234376,0.11170096407532691,0.005871598872070899,0.02383087296084268
1761468803254160100,8.42516015625,0.10766074877381324,-0.0013753902812313754,0.005046387536218389
1761468803264142300,8.435142333984375,0.1313040746897459,-0.016701398965186673,-0.008847821079217829
1761468803274125300,8.445125244140625,0.11334697771668434,-0.004381675408146111,0.0020791534947697072
1761468803284107300,8.455107177734375,0.1118494326353073,-0.006622563369845738,0.012926829454582183
1761468803294090200,8.46509033203125,0.11334639319479464,0.008604304921725998,-0.0002136062180623412
1761468803304073200,8.4750732421875,0.13264964407980442,0.00002577033714042045,-0.013480976755602751
1761468803314055200,8.48505517578125,0.114843353754282,0.0040113876408955544,-0.012677896194811909
1761468803324034800,8.495034912109375,0.10796060850322246,-0.005309391562180826,-0.017917196504224558
1761468803334017000,8.50501708984375,0.1185854628920555,-0.010483674086164683,-0.008980932239862158
1761468803344000000,8.515,0.11873510049581527,-0.009633173045428703,0.010626023432612418
1761468803353983000,8.52498291015625,0.12711480630636215,-0.007461726740881567,0.015381159237562678
1761468803363965000,8.53496484375,0.11888415357768535,-0.010225296002969843,0.0021268102950882167
1761468803373948200,8.5449482421875,0.12082944242656231,-0.0020476680861844215,-0.011994037549919448
1761468803383931000,8.554930908203126,0.12157821496725081,-0.0032451776249276007,0.002710213373345323
1761468803393913000,8.5649130859375,0.1164899519175291,0.01703597039001761,0.022133957966021262
1761468803403896000,8.57489599609375,0.1100549504339695,0.031528466842300255,0.03979430504878983
1761468803413878000,8.5848779296875,0.10810907706320286,0.028976138311251995,0.04070946539863944
1761468803423861000,8.594861083984375,0.10541501567363738,0.029249676289316264,0.011525070614588911
1761468803433844000,8.604843994140625,0.12217559633851051,0.02352586441556923,-0.03955724488990381
1761468803443826000,8.614825927734374,0.1369897191107273,0.00433730882674572,-0.05818286137483082
1761468803453809000,8.624808837890624,0.10062836591899395,-0.007200413490150822,-0.044630383435729885
1761468803463792000,8.634792236328124,0.12187807469666004,-0.022148758242931214,-0.04902118400689214
1761468803473774000,8.644774169921876,0.12292612244486809,-0.025457423849904442,-0.01162335934031289
1761468803483757000,8.654757080078125,0.10721358952820301,-0.011376483323599676,0.01711334190858761
1761468803493739000,8.664739013671875,0.10781272446513175,-0.007737270588008686,0.014832964470004662
1761468803503722000,8.674721923828125,0.12547054623067377,-0.0038363073519140016,0.002569624442432541
1761468803513705000,8.684705078125,0.11245265922546387,0.009951178069593152,0.003339738881960511
1761468803523687200,8.694687255859375,0.11619301479756831,0.023417341990198473,0.008294278849684632
1761468803533670000,8.704669921875,0.12217910346984863,0.026407605280785354,0.021031211755354887
1761468803543653000,8.714653076171874,0.10915887837707995,0.03000122302569216,0.04652915256202686
1761468803553635000,8.724635009765626,0.10960837571024894,0.015958783312293234,0.05678301364742219
1761468803563618000,8.7346181640625,0.1302583650290966,0.0024980102361470925,0.03607342821200145
1761468803573600000,8.74460009765625,0.10871055008769034,-0.0024688001246831845,0.013795581962994765
1761468803583583200,8.754583251953125,0.1120019928485155,-0.01606802839851589,-0.01705864116284065
1761468803593566000,8.76456591796875,0.11484510731995105,-0.02330712993124034,-0.03227871667073341
1761468803603548200,8.774548095703125,0.11065525441467762,-0.023628078114450907,-0.020289471743651664
1761468803613531100,8.78453125,0.12187749017477034,-0.003989510310871992,-0.003841738153924234
1761468803623513900,8.794513916015624,0.11095394510030746,0.005223610691580689,0.002944570118491538
1761468803633496000,8.80449609375,0.12038169865906238,0.0007798161329235881,-0.002464915109076537
1761468803643479000,8.81447900390625,0.1160416236281395,-0.003904690704785753,-0.016632481322775127
1761468803653461000,8.8244609375,0.11649112096130847,-0.016203148853156015,-0.0407341979810968
1761468803663444000,8.83444384765625,0.13265315121114254,-0.014890142583916894,-0.055150119782541876
1761468803673427200,8.84442724609375,0.11185352428853511,-0.01737222345692571,-0.023690297729661688
1761468803683409000,8.854408935546875,0.1205330898284912,-0.012314274488721275,0.019769822650565764
1761468803693392100,8.86439208984375,0.11918635139465332,0.008952769016235833,0.0531090469755698
1761468803703375000,8.874375,0.10781330898702143,0.01904447779288166,0.057709293612907636
1761468803713357000,8.884357177734374,0.10886018769145012,0.026811598954815417,0.03106907373620197
1761468803723340000,8.894340087890624,0.11110416722595691,0.025994403103704097,-0.007687853372155223
1761468803733322000,8.904322021484376,0.12217793442606925,0.023762636880087666,-0.025927521013107614
1761468803743305000,8.914304931640626,0.11798808152079582,0.025685538083931897,-0.026721920510521156
1761468803753288000,8.924287841796875,0.11888649166524409,0.03069899831479415,-0.003852382845524698
1761468803763270000,8.934269775390625,0.12262743175923824,0.02362740682759322,0.014489014437119476
1761468803773252900,8.9442529296875,0.10422142197489738,0.009050589667790336,0.03180413741194643
1761468803783236000,8.954236083984375,0.11514438252747058,0.004718809824466007,0.009514445461519062
1761468803793217800,8.9642177734375,0.1103553946852684,-0.002029955474624876,-0.01490783350423444
1761468803803201000,8.974200927734374,0.11963292611837387,-0.014450897216703742,-0.042512596697313706
1761468803813183000,8.984182861328126,0.1311556061297655,-0.02122607445704052,-0.03814309007592965
1761468803823166200,8.994166259765626,0.12517127102315426,-0.025844884230953175,-0.03159451096596894
1761468803833149000,9.00414892578125,0.11544541130065918,-0.013887256001553031,-0.0028168726351927033
1761468803843131100,9.014131103515625,0.10766367138326167,-0.02801232108066324,0.03786243052062346
1761468803853114000,9.024114013671875,0.11334990032613276,-0.029097951759747227,0.031476063084916676
1761468803863096800,9.034096923828125,0.1102075106471777,-0.016881976271548773,0.017307448841736184
1761468803873079000,9.0440791015625,0.11738953110575676,-0.01043601500255754,0.00029357383580645545
1761468803883062000,9.05406201171875,0.11604396171569824,-0.007072760530980303,-0.0055858395916060545
1761468803893044000,9.0640439453125,0.13025953407287597,0.003262990701186936,0.013708543000358621
1761468803903027000,9.07402685546875,0.12292729148864745,0.025801654727291314,0.019140479805041105
1761468803913010200,9.08401025390625,0.11484686088562011,0.03413777940772707,0.02445914951057639
1761468803922991900,9.093991943359375,0.11245324374735355,0.029656603989237917,0.02738793982133502
1761468803932975000,9.10397509765625,0.10796411563456058,0.02453428340628743,0.0014594301442499272
1761468803942958000,9.1139580078125,0.11888766070902347,0.012360489392268937,-0.023010996528877874
1761468803952940000,9.12393994140625,0.11320084724426269,0.0011763719942362513,-0.030767711602873168
1761468803962923000,9.133923095703125,0.11993395489156246,-0.0008966383124701679,-0.0239529604039737
1761468803972905000,9.143905029296874,0.10691606788635254,-0.01529492513416917,-0.0018508246316108852
1761468803982888000,9.153887939453124,0.11454758567810058,-0.018563652598042973,0.021034803368372375
1761468803992871200,9.16387109375,0.1136491755336523,-0.015086128663609269,0.01757636544361012
1761468804002852900,9.173852783203126,0.11724047802388668,-0.0029841691932291723,-0.006468536143691745
1761468804012836000,9.183836181640626,0.1075140337795019,-0.017720978670736076,-0.02867854132087668
1761468804022819000,9.193819091796875,0.11754033775329589,-0.010972536456986563,-0.03712390537931351
1761468804032801000,9.203801025390625,0.11769055987894535,-0.006982859466044464,-0.03372190121636959
1761468804042784000,9.213783935546875,0.11559563342630863,0.003723842828720808,-0.0005149363853503018
1761468804052766200,9.22376611328125,0.12128127784729004,0.005703021389112109,0.01933671019661706
1761468804062749000,9.2337490234375,0.10886135673522948,-0.002954754727432737,0.027083885690709575
1761468804072732000,9.24373193359375,0.11394845074117183,0.01563282331053633,0.011259585795528255
1761468804082714000,9.253714111328126,0.11753975323140621,0.01663811647911789,0.0016910948920994995
1761468804092696800,9.26369677734375,0.13190554771423338,0.0159065348185366,-0.0016536672248505056
1761468804102679000,9.273678955078125,0.11559446438252925,0.02950037681448739,0.005724074451939668
1761468804112662000,9.283662109375,0.10945873810648918,0.024423852151620667,0.011762505232810508
1761468804122645000,9.29364501953125,0.12172843709290027,0.020597503363073335,0.010160830773389898
1761468804132627000,9.303626953125,0.10930851598083972,0.002824493111000629,0.011172309370874427
1761468804142610200,9.313610107421875,0.10422142197489738,0.001803466942103114,-0.015996158463903704
1761468804152593000,9.323593017578125,0.13175415654480457,-0.005438562908291351,-0.029885314161598214
1761468804162575000,9.3335751953125,0.11080547654032706,-0.024005912150628864,-0.022197104596416464
1761468804172558000,9.34355810546875,0.1145464166343212,-0.020316387150040825,-0.009783163417282048
1761468804182541000,9.353541015625,0.12307634457051753,-0.0188543186657771,-0.007813075770577415
1761468804192523000,9.36352294921875,0.11334990032613276,-0.028417360500886567,-0.0034688565707881934
1761468804202506000,9.373506103515625,0.12038286770284175,-0.016698920455377082,0.005589075011597015
1761468804212488000,9.383488037109375,0.11948504208028315,-0.004336114666791399,0.002440356056555174
1761468804222471000,9.393470947265625,0.10826280632019042,0.003454952484666137,0.01398119049585657
1761468804232454100,9.4034541015625,0.11694178733825683,0.012899522464192705,0.015178953479637857
1761468804242435800,9.413435791015624,0.1123030216217041,0.009558309719420503,0.026004308009787928
1761468804252419000,9.423419189453124,0.11649287452697753,0.018802136387390783,0.011695120818715076
1761468804262401000,9.433401123046876,0.10975859783589839,0.015143358151515712,-0.017214452779060228
1761468804272384000,9.443384033203126,0.11125497387349605,0.01569022176180151,-0.02815306299191434
1761468804282367000,9.453366943359375,0.12547054623067377,0.014612065428053028,-0.02370184432027163
1761468804292349200,9.46334912109375,0.11694061829447745,0.013800867776176892,-0.017509220774821005
1761468804302332000,9.473331787109375,0.11349895340800285,0.015203063865943112,-0.0026633762736455536
1761468804312314000,9.483314208984375,0.10481997238993644,0.014641320063645252,-0.00909680913791526
1761468804322297000,9.493297119140625,0.12562076835632324,0.011576913824613438,-0.0145741148877074
1761468804332280000,9.503280029296874,0.12517185554504393,0.020635353438719174,-0.011624016927438788
1761468804342262300,9.51326220703125,0.10841185940206051,0.0072481330809067,0.008486349089373834
1761468804352245200,9.523245361328126,0.10033142879903316,0.014043765162449562,0.03964363083199132
1761468804362228200,9.533228271484376,0.119783732765913,0.01419349980597617,0.056158936065481974
1761468804372210200,9.543210205078125,0.12427286087870597,0.010207079926267033,0.03575290472047636
1761468804382193400,9.553193359375,0.12412263875305651,0.00009046960380510427,0.0035007746625691652
1761468804392175000,9.563175048828125,0.11409691930115222,-0.008762074457947164,-0.02351479731557192
1761468804402158300,9.573158447265625,0.10826105275452136,-0.02565979628789937,-0.039230807680822904
1761468804412141300,9.583141357421875,0.10826163727641105,-0.03822895542820915,-0.07306323604998179
1761468804422123300,9.593123291015624,0.12921207084655761,-0.045083794325613415,-0.07149698681368026
1761468804432106200,9.603106201171874,0.12861410495340822,-0.029678870619973166,-0.050233884264901274
1761468804442089200,9.613089111328126,0.11110825887918471,-0.017106692972092424,-0.0013065753868082538
1761468804452071200,9.6230712890625,0.12083528764545917,-0.00108690589578473,0.039680661207018415
1761468804462054100,9.63305419921875,0.10706862809956073,0.018695562748867085,0.07347407730661798
1761468804472036400,9.643036376953125,0.11739303823709488,0.038218461433658375,0.08015751429302617
1761468804482019000,9.65301904296875,0.11395020430684089,0.0476824507829966,0.06454102562936022
1761468804492002300,9.663002197265625,0.11201017615497112,0.03497722362326458,0.02925415153503418
1761468804501984300,9.672984375,0.21408406470716,0.03700418570649344,-0.0172657354417257
1761468804511967200,9.68296728515625,0.3213660432964563,0.030254179440031292,-0.04946991872165817
1761468804521950200,9.6929501953125,-0.4079723136037588,-0.05077259425148368,0.12088986737690866
1761468804531932400,9.702932373046876,0.344110374546051,0.018352982689160854,-0.07245974916492123
1761468804541915100,9.7129150390625,0.17950258066952227,-0.005053891564306104,-0.03793347961297259
1761468804551897300,9.7228974609375,-0.0319371070086956,-0.0291011300975224,-0.019848475094058085
1761468804561880300,9.73288037109375,0.22723405365943908,-0.015277355228149098,-0.10179303491734899
1761468804571863300,9.74286328125,0.09270458718240261,-0.01655054208529764,-0.042739989412133576
1761468804581845200,9.75284521484375,0.09479717554748057,-0.022960481051192617,-0.007592553471249993
1761468804591828200,9.762828125,0.15524959842264652,-0.012155972946248948,0.011645619121182244
1761468804601810200,9.77281005859375,0.13085866900980472,-0.0017881597751169464,0.023993363196309656
