time,seconds_elapsed,z,y,x
1761468611095772400,0.1177724609375,0.11689210297763347,0.030476674500736406,0.024828946370771154
1761468611105755400,0.12775537109375,0.12514613658189772,0.018018047079793178,0.005221068249689415
1761468611115738400,0.13773828125,0.11514145991802215,0.0017888242121087386,-0.01035087801935151
1761468611125721300,0.147721435546875,0.12458850269913672,-0.0001595470764208585,0.0017675759281031787
1761468611135706400,0.157706298828125,0.11876900276541709,0.0003917027313262224,0.008696945933019742
1761468611145689600,0.167689697265625,0.12177636788785456,0.008696160481730476,0.024789893002016467
1761468611155673600,0.177673583984375,0.12777590056359767,-0.015656099154846743,0.023337209975672884
1761468611165656600,0.187656494140625,0.1258446402400732,-0.017892251575924455,0.014141433975310064
1761468611175639300,0.197639404296875,0.12944880221188068,-0.025280580862099302,0.010089509969693608
1761468611185622500,0.20762255859375,0.1263157648831606,-0.03270058849474881,0.007540638337633572
1761468611195605500,0.21760546875,0.1103121400654316,-0.019674737378791905,0.017189733896334655
1761468611205589500,0.227589599609375,0.13949731801748275,0.0011065501695265993,0.02436316005650442
1761468611215572500,0.237572509765625,0.13185001813471317,0.01933879712242633,0.043626503622811286
1761468611225555500,0.247555419921875,0.1418044259160757,0.01956485183010809,0.04166062864363193
1761468611235538400,0.257538330078125,0.10946750593483448,0.03194279239738825,0.034241863119998016
1761468611245521700,0.267521728515625,0.14011983382999896,0.030945328625524415,0.008347328777750953
1761468611255505700,0.277505615234375,0.10492693989574908,0.026336638386826962,0.01001492862983141
1761468611265488400,0.28748828125,0.1409551156103611,0.03145746569901239,-0.003532763536297716
1761468611275471400,0.297471435546875,0.11162556075155734,0.02297826786963269,0.014431653660116716
1761468611285454600,0.30745458984375,0.15205051012039184,0.038437730207527054,0.006057053282950073
1761468611295437600,0.3174375,0.11842062771916388,0.02333110902844928,0.009836398291727527
1761468611305421600,0.327421630859375,0.1214478665858507,0.001992009500856511,-0.006479922904097475
1761468611315404300,0.337404296875,0.14063129048347472,-0.011153988262894562,-0.026502300110203214
1761468611325387500,0.347387451171875,0.11175883174240589,-0.03802860598394182,-0.03512870612423867
1761468611335370500,0.35737060546875,0.11700023952722549,-0.04974140173995401,-0.034601946870354006
1761468611345353500,0.367353515625,0.10577858828902244,-0.02401427355359774,-0.007584577944059856
1761468611355337500,0.37733740234375,0.1355605630904436,0.006298926614271476,0.010174037314835004
1761468611365320400,0.387320556640625,0.12748597770631312,0.013183512195968068,0.03819472436504438
1761468611375303400,0.397303466796875,0.1385626675158739,0.017919189815199934,0.039398825758066955
1761468611385286700,0.40728662109375,0.11581599817872047,0.02043652466468047,0.016330422786413692
1761468611395269400,0.417269287109375,0.13256839553713798,0.01282965269042179,-0.0037058733471902086
1761468611405253400,0.42725341796875,0.1113046582341194,0.010810535986931063,-0.00622982516712509
1761468611415236400,0.437236328125,0.13822422934174536,0.019789764893474057,-0.0063373954611364745
1761468611425219600,0.447219482421875,0.10140461098849773,0.02514641482210718,0.017522057423507795
1761468611435202600,0.45720263671875,0.15063830523490904,0.027760597642185164,0.008580699142208322
1761468611445185500,0.467185546875,0.12535773350596427,0.03230726919507142,0.008886687218304722
1761468611455168500,0.47716845703125,0.11070143164396286,0.019887261318042873,-0.0032925478725228455
1761468611465152500,0.487152587890625,0.14916414102911948,-0.01153222872444894,-0.03022446243849117
1761468611475135500,0.497135498046875,0.09679039519131183,-0.0301125995618524,-0.036923498852830375
1761468611485118500,0.507118408203125,0.1321048696786165,-0.03450652823843993,-0.04395896414730232
1761468611495101400,0.517101318359375,0.1294125618547201,-0.01756769579667598,-0.02070986171334516
1761468611505084400,0.52708447265625,0.12642682404220104,0.0019076785185374319,0.016578086537704803
1761468611515068400,0.537068359375,0.11640461172163485,0.01210485468036495,0.03748416494289413
1761468611525051600,0.5470517578125,0.12029928107261657,0.012343732337001711,0.030174782644445074
1761468611535034400,0.557034423828125,0.13032616956830023,0.013500633587432092,0.021091810235637238
1761468611545017600,0.567017578125,0.11864742221236228,-0.0008352635140530764,0.009294341004011221
1761468611555000600,0.57700048828125,0.15006313569545746,0.017733503650524653,-0.007706300061009824
1761468611564984600,0.586984619140625,0.12341653631031513,0.01961640392083209,0.00636237463876605
1761468611574967300,0.59696728515625,0.11024316648244857,0.02648300632126629,0.014329152266867458
1761468611584950500,0.606950439453125,0.12790274181365965,0.028990787891112268,0.01395877545136027
1761468611594933500,0.61693359375,0.12521511016488074,0.02216430287193507,0.004850855830963701
1761468611604916500,0.62691650390625,0.12746376587450503,0.014710840494255535,-0.016982667016913183
1761468611614900500,0.636900390625,0.13674305087327956,0.010470426445524207,-0.0472028825385496
1761468611624883500,0.646883544921875,0.1201326923340559,-0.009027634625532664,-0.033590299309510734
1761468611634866400,0.656866455078125,0.127765963691473,-0.012716255443822592,-0.01772944396333769
1761468611644849700,0.666849609375,0.12163199098110199,-0.004023839555447921,-0.0015430327574955298
1761468611654832400,0.676832275390625,0.13285890291631222,0.01070670571969822,0.022959923928766512
1761468611664816400,0.68681640625,0.13361176711022854,0.0014604005419183521,0.017045398088777437
1761468611674799400,0.69679931640625,0.12328735697269438,-0.005492117443145253,0.020865604830905795
1761468611684782600,0.706782470703125,0.14154256010949612,-0.0038114160808967426,0.01764505361551419
1761468611694765600,0.716765625,0.1178928044527769,0.0017405783233232796,0.007095401621051132
1761468611704748300,0.726748291015625,0.11578969469368457,-0.0008216733801178634,0.00922221191613935
1761468611714731500,0.7367314453125,0.13523673796355723,0.00006589114333037286,-0.002641819745674729
1761468611724715500,0.746715576171875,0.129399702373147,0.011116263768123462,0.0017632742123212665
1761468611734698500,0.756698486328125,0.11563771900236607,0.01645965235638432,0.012222708906373008
1761468611744681500,0.766681396484375,0.14407353989183902,0.011682309286203235,-0.0030428017619997263
1761468611754664400,0.77666455078125,0.1096580600708723,0.008369764371844939,-0.003999394667358137
1761468611764647400,0.7866474609375,0.1511111834436655,0.0041328391881426795,-0.01712428571099881
1761468611774631400,0.79663134765625,0.10487491744756698,-0.0033233631358947605,-0.022062212470639497
1761468611784614700,0.80661474609375,0.11804478014409542,0.007823916825000197,-0.023825783510482867
1761468611794597400,0.816597412109375,0.12747019561529158,-0.00006314206381794065,-0.015589746787212788
1761468611804580400,0.826580322265625,0.12193769592940806,-0.0013093929649796337,0.005422714601899497
1761468611814563600,0.8365634765625,0.11311842965781688,-0.00461006477845367,0.0052759219757746905
1761468611824547600,0.846547607421875,0.12524141364991664,-0.0064935084714554244,-0.0034379202931188045
1761468611834530600,0.856530517578125,0.12479250083863734,-0.0010750362198334187,-0.000045939767267554994
1761468611844513500,0.866513427734375,0.12613339405357837,-0.00956543586323969,0.00013309289433527738
1761468611854496500,0.87649658203125,0.13061492338180541,0.003146641162387095,-0.0016010830876650288
1761468611864479500,0.8864794921875,0.13150690378546714,0.0071098274386255066,0.009979108397779055
1761468611874462500,0.89646240234375,0.12851122910082338,0.013257974804821424,0.01558348144320771
1761468611884446500,0.906446533203125,0.1240232700318098,0.02933067823681049,0.03286954272033181
1761468611894429400,0.916429443359375,0.11055413212776183,0.024712398185860365,0.04930260846388992
1761468611904412400,0.926412353515625,0.1309030926734209,0.020364199213986283,0.03351835745130666
1761468611914395600,0.936395751953125,0.12940671663582323,0.008000214106822386,0.009293656017421744
1761468611924378400,0.94637841796875,0.12716215257942676,-0.0021261298750760035,-0.0002884980851784348
1761468611934362400,0.9563623046875,0.11713526408374308,-0.014852710350090637,-0.025086286699282936
1761468611944345600,0.966345703125,0.1449678583830595,-0.0063692108049290255,-0.03525956596229225
1761468611954328600,0.97632861328125,0.1126467204928398,-0.0016048550804844126,-0.02442687750905752
1761468611964311300,0.986311279296875,0.11668985840380192,-0.006689697763836011,-0.0032216928597074
1761468611974294500,0.99629443359375,0.1666740787565708,0.009344559654174371,-0.01192073485169094
1761468611984278500,1.006278564453125,0.10203238749802113,0.011568405149527825,0.001721850789966993
1761468611994261500,1.016261474609375,0.1391430977523327,0.011802551832119933,0.009362953827390446
1761468612004244500,1.026244384765625,0.10936463008224963,0.0111876530704787,0.019167121216794474
1761468612014227500,1.0362275390625,0.13105974453985691,0.008329144667088985,0.01854956470718607
1761468612024210400,1.04621044921875,0.12088146487474441,0.005847712248051539,0.021960482828947712
1761468612034193400,1.056193359375,0.12776304108202458,0.005992134820576757,0.019570194725506005
1761468612044177400,1.066177490234375,0.13629063093066215,0.007901429907465353,0.03125567321632988
1761468612054160600,1.07616064453125,0.11698621100187301,0.012675197347649372,0.033134614264150146
1761468612064143400,1.086143310546875,0.12970540732145308,0.010447314997995272,0.008028764347871765
1761468612074126600,1.096126708984375,0.11354279254972933,-0.0132029658151092,-0.009406669671530836
1761468612084109600,1.106109619140625,0.10620938092172146,-0.028645664247870444,-0.02739617564342916
1761468612094093600,1.116093505859375,0.17609189544320106,-0.023295905284327453,-0.03486748420505319
1761468612104076300,1.126076171875,0.08271627713143825,-0.0212588967311196,-0.007383949938579462
1761468612114059500,1.1360595703125,0.15200024123787878,0.008057762113492935,-0.008547130232746713
1761468612124042500,1.14604248046875,0.10456687441170215,0.018675889934017323,0.023792136969207785
1761468612134027300,1.15602734375,0.12955869232714176,0.020237344264192506,0.017038639554427935
1761468612144011300,1.16601123046875,0.11833528752326965,0.010132161801331675,0.0014700634194072335
1761468612153994200,1.175994140625,0.14676526319384575,0.0007628101991955191,-0.0021311074442928657
1761468612163977500,1.1859775390625,0.11129764397144316,0.000915434344485402,0.007732799908868037
1761468612173960400,1.19596044921875,0.11937573648691177,0.015814815114205703,0.019497202554531395
1761468612183943200,1.205943115234375,0.11937281387746333,0.013270564858336002,0.025298408779734743
1761468612193926400,1.215926513671875,0.11578092686533928,0.014220431195385753,0.01711131663157139
1761468612203910400,1.225910400390625,0.12146715580821037,0.009417108867154456,0.0066202264239313075
1761468612213893400,1.235893310546875,0.13044775012135504,-0.0034398839213419705,-0.0008134261415805667
1761468612223876400,1.24587646484375,0.14930442628264426,-0.008165368940122425,-0.010899387880740687
1761468612233859300,1.255859375,0.09767769941985606,-0.010598304308624937,-0.008510720912227406
1761468612243842300,1.26584228515625,0.14331892213225364,-0.012859271510550751,-0.01204523344761692
1761468612253826300,1.275826416015625,0.10366612617969512,0.0015384113813051953,0.0006785614152671769
1761468612263809500,1.2858095703125,0.12491875756680965,-0.0015355435707839205,-0.0024847614538623017
1761468612273792300,1.295792236328125,0.12193126618862152,0.0016636132301297037,0.0035926633302588015
1761468612283775200,1.305775146484375,0.12432897498011589,0.009751103761605918,-0.0034840107574360445
1761468612293758500,1.315758544921875,0.11355272942185402,-0.004200200769351795,0.010397644337103702
1761468612303742500,1.325742431640625,0.11743746190071105,0.012844361635786481,0.025551520457700826
1761468612313725400,1.335725341796875,0.17235329343676567,0.025388205955037844,0.02146558458462823
1761468612323708400,1.34570849609375,0.10725801319181918,0.013367883186391554,0.028747151860967275
1761468612333691400,1.35569140625,0.11429039604663849,0.008905949041200801,0.006397633181815035
1761468612343674400,1.36567431640625,0.12132160985767841,-0.0018194339795038104,-0.008090367475152016
1761468612353657300,1.3756572265625,0.1153355211853981,-0.000014329919451847671,-0.008444962199637666
1761468612363641300,1.385641357421875,0.12162146958708762,0.0037845828728983177,-0.004150000385497696
1761468612373624300,1.395624267578125,0.11264321336150168,0.003051487391954288,0.010281918136100285
1761468612383607300,1.405607177734375,0.1431722071379423,0.011314101594896054,0.007703550981497392
1761468612393590500,1.415590576171875,0.11983107903897762,0.0023359275677008553,0.009510413173795676
1761468612403573200,1.4255732421875,0.11863690081834792,-0.006314128749980591,0.0031671998932259154
1761468612413557200,1.43555712890625,0.15395312887132168,-0.00648859940089751,-0.0006564957139315083
1761468612423540500,1.44554052734375,0.10083002597093582,-0.01641151606545318,0.014163618407654574
1761468612433523500,1.4555234375,0.13135434357225895,-0.013062817558902314,0.004029027187218889
1761468612443506200,1.465506103515625,0.12252572495043278,-0.005546318148681894,0.0038955917995888737
1761468612453489400,1.475489501953125,0.13030746486783026,-0.005904200808797031,-0.0018907958823954686
1761468612463472400,1.485472412109375,0.11773907519578933,-0.006724033858277834,-0.007085542380739935
1761468612473456400,1.495456298828125,0.10591653545498847,0.010377263702778146,0.000029413324152119458
1761468612483439400,1.505439453125,0.160086517059803,0.025831501876283434,-0.00220781224258244
1761468612493422300,1.51542236328125,0.11309914043545723,0.02515059780688025,0.013408101032348348
1761468612503405300,1.5254052734375,0.11998247020840644,0.028016933323699048,0.010258518994203767
1761468612513388300,1.53538818359375,0.11698738004565239,0.013152039345470256,-0.0020121526731643824
1761468612523372300,1.545372314453125,0.12716156805753706,0.006093458036892116,-0.01257550896599423
1761468612533355300,1.555355224609375,0.11937749005258083,0.0053959407594054935,-0.004460993430274538
1761468612543338200,1.565338134765625,0.1487058758676052,0.007177115954598411,-0.008228830664348787
1761468612553321500,1.575321533203125,0.12012450902760029,0.00612436006523203,0.022833562169317156
1761468612563304400,1.585304443359375,0.12311959919035434,0.0037615673234919086,0.027028337844880297
1761468612573288400,1.595288330078125,0.13793781361579893,-0.0012813222145428881,0.016264467711001634
1761468612583271200,1.605271240234375,0.11295008735358715,-0.0186110217039939,0.007910951221059077
1761468612593254400,1.61525439453125,0.14512392572760582,-0.020236883039888926,-0.021080882416246456
1761468612603237400,1.6252373046875,0.09963175609707832,-0.030028643038868902,-0.029702114498242733
1761468612613220400,1.635220458984375,0.12566869915127754,-0.021388016703235917,-0.017173330750805325
1761468612623203300,1.645203369140625,0.13225333823859692,0.004684869880601764,0.00777295838932041
1761468612633187300,1.655187255859375,0.12821429198086262,0.02616114025602583,0.016429869139473884
1761468612643170300,1.66517041015625,0.13270458913743496,0.034702379604103044,0.021327089429390614
1761468612653153500,1.675153564453125,0.10831365972459316,0.02281269291122444,0.012724004925438202
1761468612663136300,1.68513623046875,0.13405074304938316,0.0007057599494466558,-0.005313212645705789
1761468612673119200,1.695119140625,0.12821429198086262,0.004611868576472625,-0.005205770215857774
1761468612683103200,1.705103271484375,0.10591361284554004,0.0009033877136651426,-0.00004350578158628195
1761468612693086500,1.71508642578125,0.12506371899545193,0.0041806832181289786,-0.0008219154087128117
1761468612703069400,1.7250693359375,0.1476601662069559,0.006164673809311352,-0.0011560062012868002
1761468612713052200,1.73505224609375,0.08990180472135544,-0.00011523757723625749,0.016920707696606405
1761468612723035400,1.745035400390625,0.1377881760120392,-0.002758728690189309,0.009696222636057064
1761468612733018400,1.755018310546875,0.12252689399421214,-0.006655635664029978,0.018109871815401128
1761468612743002400,1.76500244140625,0.10397007756233215,-0.010888350463495589,0.015273278416297397
1761468612752985300,1.7749853515625,0.16906418876349924,-0.0021329432083526624,-0.00020359628070145845
1761468612762968300,1.78496826171875,0.09334580769538879,-0.008020425777789204,0.013405525482771918
1761468612772951300,1.794951416015625,0.13973346486091612,-0.010148135688598268,0.003748648476414382
1761468612782934500,1.8049345703125,0.10755962648689746,0.008275322987465188,0.009821698479517362
1761468612792918500,1.81491845703125,0.14018003958463668,0.011193046198226511,0.008300946052488871
1761468612802901200,1.8249013671875,0.12282207754850387,0.014894695461448282,0.021362457570293918
1761468612812884200,1.83488427734375,0.15140344438850878,0.02681712907988112,0.008666715191537513
1761468612822867500,1.844867431640625,0.10037409889698028,0.0033419445387786254,0.0029140197166008875
1761468612832850400,1.854850341796875,0.13838263477385043,-0.009247108895378187,-0.01700757769588381
1761468612842833400,1.86483349609375,0.12701076140999792,-0.00922429884194862,-0.02827690400071442
1761468612852817400,1.8748173828125,0.12551613893806934,-0.014806432656105607,-0.01892015615182463
1761468612862800400,1.88480029296875,0.11803367422819137,-0.0022365771127631886,0.004816259441617876
1761468612872783400,1.894783447265625,0.13584171811938284,0.013962099919607862,0.03021874965033494
1761468612882766300,1.904766357421875,0.10516542482674121,0.019661932696145957,0.04720064491569064
1761468612892749300,1.914749267578125,0.14287410097420214,0.013032089060498402,0.02167089333180338
1761468612902733300,1.9247333984375,0.10935410868823528,-0.007983893159683793,0.006496823806548491
1761468612912716300,1.93471630859375,0.10650807160735129,-0.014391412981273605,-0.0002229494351428002
1761468612922699500,1.944699462890625,0.13643383879363535,-0.008356845524767413,0.0022358236275147646
1761468612932682200,1.95468212890625,0.12984978422820567,-0.002813829011446796,0.00846555746309459
1761468612942665200,1.964665283203125,0.1232651451408863,0.012344403623859397,0.02256490586234722
1761468612952648400,1.9746484375,0.13239479253590106,0.007878259094431996,0.011515473952470347
1761468612962632400,1.984632568359375,0.11773089188933372,-0.015027779222629031,-0.006666905976715497
1761468612972615200,1.994615234375,0.1021679965764284,-0.03374206493827514,-0.022500119830714538
1761468612982598400,2.004598388671875,0.10366437261402606,-0.0323063787125051,-0.03502043714390602
1761468612992581400,2.014581298828125,0.16142682575285433,-0.016034056488610803,-0.036943779022456144
1761468613002564400,2.024564453125,0.09827917244434356,-0.005299115621694364,0.005042126919631846
1761468613012548400,2.03454833984375,0.12072539753019809,0.015707733443961477,0.0317351409960771
1761468613022531300,2.04453125,0.12312076823413372,0.031065059714787638,0.045314931633789086
1761468613032514300,2.054514404296875,0.13554127386808396,0.024279943319037555,0.031831619073916226
1761468613042497300,2.064497314453125,0.11967851882576942,0.012025935092102735,0.025664935970609076
1761468613052480500,2.07448046875,0.11234569171965121,-0.005619050024752505,0.0036756380391307175
1761468613062463200,2.084463134765625,0.12581249153614044,-0.012088428701949304,-0.009094087457866407
1761468613072447200,2.094447265625,0.12176993814706802,-0.01480245516730938,-0.007176216338877566
1761468613082430500,2.104430419921875,0.11698036578297615,-0.010989888308942318,-0.0015062170115998014
1761468613092413400,2.114413330078125,0.07837152592539787,-0.01641656669990625,0.016002547105494886
1761468613102396200,2.124396240234375,0.1979360629826784,0.008854410650208592,-0.003426394252106547
1761468613112379400,2.13437939453125,0.07687865701913833,0.0006869913168950006,0.02265863942725118
1761468613122362400,2.1443623046875,0.13254443013966083,-0.00023268537786789238,-0.01856303611011244
1761468613132341500,2.154341552734375,0.12625965078175067,-0.019063163085398262,-0.02263662852484267
1761468613142324500,2.164324462890625,0.11353928541839121,-0.020025911736907435,-0.018502825788897462
1761468613152307500,2.174307373046875,0.12102058108448982,-0.005650490909209474,-0.00009969751480966806
1761468613162290700,2.184290771484375,0.14122282663583755,0.021450802574027327,0.015168817961402237
1761468613172273400,2.1942734375,0.12955050902068616,0.02249382708724588,0.03229201682701241
1761468613182257400,2.20425732421875,0.11937456744313239,0.02179609518062789,0.039075352257629856
1761468613192240400,2.214240478515625,0.13568565077483652,0.01452741935190279,0.021787007691874166
1761468613202223600,2.2242236328125,0.12431260836720466,0.014187620337749831,0.007810755949327721
1761468613212206300,2.234206298828125,0.11234101554453373,-0.005895432980451733,0.0017332854994339868
1761468613222189300,2.244189208984375,0.1346370185047388,-0.01728343092862051,-0.014109951991657725
1761468613232173600,2.254173583984375,0.11832651969492435,-0.017958179251872933,-0.016623679245100356
1761468613242156500,2.264156494140625,0.12086977443695068,-0.019993119145580565,-0.011221952632302417
1761468613252139500,2.274139404296875,0.12640695029795168,-0.004961951522622257,-0.00837420765152201
1761468613262122500,2.28412255859375,0.11832768873870372,-0.003940462987776845,0.0024369037241442127
1761468613272105500,2.29410546875,0.119226098883152,0.0032063765595667063,0.00759850143813528
1761468613282088400,2.30408837890625,0.12536299420297145,-0.003653138512955047,0.011425133354472927
1761468613292072400,2.314072509765625,0.10815174716114997,0.004545018451916985,0.01726842515573371
1761468613302055700,2.3240556640625,0.10485504370331764,0.008579151072516106,0.027605589743563905
1761468613312038400,2.334038330078125,0.21035247696340084,0.0319682464990532,-0.002056379973958246
1761468613322021400,2.344021484375,0.07851999448537826,0.01863372215956915,0.03434413161780685
1761468613332004600,2.354004638671875,0.14121698141694067,0.020955511604063212,0.0012144766565645112
1761468613341987300,2.3639873046875,0.10126257216930389,-0.005085934095317497,-0.008409922852297313
1761468613351971300,2.373971435546875,0.1208645137399435,-0.013996878972044213,-0.021747958889696745
1761468613361954600,2.38395458984375,0.13268646895885466,-0.008275807044655085,-0.02080031647577416
1761468613371937500,2.3939375,0.1398702429831028,-0.015620918243611231,-0.019171368133649228
1761468613381920500,2.40392041015625,0.09512859945893287,-0.020293828258360735,-0.007466203128243796
1761468613391903500,2.413903564453125,0.1337351012289524,0.000929435470374301,0.005706778540555388
1761468613401887500,2.423887451171875,0.10724982988536358,-0.004993954096082598,0.027379288440709932
1761468613411870500,2.433870361328125,0.1475035143405199,0.01357554372085724,0.026312435527332124
1761468613421853400,2.443853515625,0.11772504667043686,0.024503787803323938,0.050816830685432066
1761468613431836400,2.45383642578125,0.13044365846812725,0.022527779589197598,0.04783412508021574
1761468613441819400,2.4638193359375,0.10275777916312218,0.016263627460785208,0.04687812582990154
1761468613451802400,2.47380224609375,0.14989362434744835,0.014339299201546236,0.01613145244847983
1761468613461786600,2.48378662109375,0.1111351468861103,-0.007807678076252341,-0.004182331752520986
1761468613471769600,2.49376953125,0.12938976550102232,-0.00774094211612828,-0.03205055448764469
1761468613481752300,2.50375244140625,0.11921382392346858,-0.03015447964193299,-0.05186164986351505
1761468613491735600,2.513735595703125,0.12220774504244326,-0.03259705962161533,-0.05977721789418719
1761468613501718500,2.523718505859375,0.11697159795463084,-0.027460290388204155,-0.044046176639874465
1761468613511701500,2.533701416015625,0.11996610359549521,-0.025790197184938003,-0.03219402721209917
1761468613521685200,2.543685302734375,0.14720248556733131,-0.015031774977734311,-0.012881177381682209
1761468613531668500,2.55366845703125,0.12146598676443099,-0.008526119410758837,0.02827737892474979
1761468613541651500,2.5636513671875,0.12565759323537348,-0.001543325018440373,0.043141131258662785
1761468613551634400,2.573634521484375,0.13628537023365497,0.005028573318314738,0.04845206974889151
1761468613561617400,2.583617431640625,0.1256611003667116,-0.006192192003899253,0.05351526228943839
1761468613571601400,2.593601318359375,0.12985153779387473,-0.03587871164078824,0.05201199072017334
1761468613581584400,2.60358447265625,0.12581190701425074,-0.05276630708565935,0.03146888214217033
1761468613591567600,2.613567626953125,0.11444120269417762,-0.06750405841972679,0.0013803575756493956
1761468613601550600,2.623550537109375,0.11564064161181449,-0.064730173259601,-0.03630769590889103
1761468613611533300,2.633533203125,0.10786416239142417,-0.054378779217018745,-0.08905318853538483
1761468613621516500,2.6435166015625,0.11340718347132206,-0.043974769071210174,-0.15095179163087158
1761468613631500500,2.65350048828125,0.11655717193484305,-0.04473247383702546,-0.19004209486246107
1761468613641483500,2.6634833984375,0.11237842494547366,-0.05828712090032641,-0.2119414631878957
1761468613651466500,2.673466552734375,0.11747779391109943,-0.045067071519675664,-0.19555475733671338
1761468613661449500,2.683449462890625,0.09683891050815582,0.0016072388338157907,-0.12384610510030761
1761468613671432400,2.693432373046875,0.13755144464671612,0.06528075634706765,-0.007170119958231225
1761468613681415700,2.703415771484375,0.13037702297270298,0.14143431396204978,0.17535170806776731
1761468613691399700,2.713399658203125,0.20086101051867006,0.2823998048359528,0.4054159071192145
1761468613701382400,2.72338232421875,0.13846096070706843,0.336816783471778,0.5583563518166542
1761468613711365400,2.733365478515625,0.14967910481393337,0.13604080262174828,0.3486538631945848
1761468613721348600,2.7433486328125,0.09834580793976783,-0.09707668305309489,0.08196001540403812
1761468613731331600,2.75333154296875,0.12467501193881034,-0.0935858817952685,-0.0378605833401205
1761468613741315300,2.7633154296875,0.09264613499343395,-0.0479073592797853,-0.039836609820555896
1761468613751298300,2.77329833984375,0.13169628887772558,0.025857567899301645,-0.001340975413331762
1761468613761281500,2.783281494140625,0.13213935647010802,0.10605092069068923,0.02172875643230509
1761468613771264500,2.793264404296875,0.11537409963011741,0.0847118531291373,-0.017113083896972237
1761468613781247500,2.80324755859375,0.12749065388143063,-0.0013463502747705206,-0.14697908860761671
1761468613791230500,2.81323046875,0.09756254860758781,-0.11165294194882736,-0.2944238584982231
1761468613801214500,2.82321435546875,0.1250987903088331,-0.17703699427358804,-0.35150636654887346
1761468613811197400,2.833197509765625,0.09757073191404342,-0.15697072312682867,-0.28211474081687626
1761468613821180700,2.8431806640625,0.12047171503007412,-0.07249295274820178,-0.10238247044417076
1761468613831163400,2.853163330078125,0.13768822276890277,0.04750260527064092,0.10733624779349192
1761468613841146400,2.863146484375,0.14188099828362463,0.11320849169460125,0.265471594252903
1761468613851129600,2.873129638671875,0.11853811661899089,0.11148516590017825,0.29997519074873996
1761468613861113600,2.883113525390625,0.149511931553483,0.05956258419624064,0.23728140042126178
1761468613871096300,2.893096435546875,0.12930617887079715,-0.009643912493507377,0.15487225301023572
1761468613881079600,2.90307958984375,0.12975100002884865,-0.037617819526232776,0.10326345452978275
1761468613891062500,2.9130625,0.13453531169593333,-0.014642474266048519,0.07402229490706232
1761468613901045500,2.92304541015625,0.11103694720864295,0.02980452455994673,0.07158001632147934
1761468613911029500,2.933029541015625,0.13063596616983414,0.03456864738895092,0.045379644600185565
1761468613921012500,2.943012451171875,0.12240180630981921,0.012716607070271856,-0.01645162888013292
1761468613930995500,2.952995361328125,0.11341887390911579,-0.029088928203075192,-0.11349158295230008
1761468613940978400,2.962978515625,0.11266951684653759,-0.07445641657458618,-0.19280003353478387
1761468613950961700,2.972961669921875,0.12868074044883251,-0.09305061500794254,-0.22538700102064757
1761468613960944400,2.9829443359375,0.10848375559449196,-0.07386788523006252,-0.20881087354458866
1761468613970928400,2.992928466796875,0.13108370993733406,-0.022988570067938415,-0.12775204476397484
1761468613980911600,3.00291162109375,0.12360650592446326,0.02380479552138131,-0.01733692838125862
1761468613990894600,3.01289453125,0.13079320255815982,0.06801709510893561,0.07718393270918168
1761468614000877300,3.022877197265625,0.14097148222327233,0.07532105688017326,0.13120557361817917
1761468614010860500,3.032860595703125,0.1304974344819784,0.0713063504792517,0.17187509973207488
1761468614020844500,3.042844482421875,0.12675474082231522,0.048907161139207886,0.1675897505630739
1761468614030827500,3.05282763671875,0.11971768179237842,0.03915201595672406,0.15928765829969196
1761468614040810500,3.062810546875,0.1381190154016018,0.005663843581127002,0.13169548516012727
1761468614050793500,3.07279345703125,0.1268903499007225,-0.011396761209936811,0.10894946427694521
1761468614060776400,3.0827763671875,0.12823124311566353,-0.02700022142867092,0.043105863582459276
1761468614070759400,3.092759521484375,0.14543722946047782,-0.05559581772342789,-0.044109209105838085
1761468614080743400,3.102743408203125,0.09799977098107338,-0.09203711798330769,-0.10827284365701488
1761468614090726400,3.112726318359375,0.1071270802885294,-0.10507744514918886,-0.1659348046965897
1761468614100709400,3.12270947265625,0.10802724399864673,-0.08726310851452872,-0.1536623292312026
1761468614110692600,3.132692626953125,0.12508943795859814,-0.045368177924677726,-0.11997602220131083
1761468614120675600,3.142675537109375,0.11521627871990203,0.006581679945252835,-0.0617416726678377
1761468614130658300,3.152658203125,0.12824001094400883,0.06431392974206246,-0.006677413670998066
1761468614140642000,3.16264208984375,0.1405149706274271,0.0920969766780734,0.04790311236293055
1761468614150625000,3.172625,0.1355786832690239,0.08097365298150107,0.07961473091952502
1761468614160608000,3.18260791015625,0.13483166429400442,0.05371784022341016,0.07197691581773105
1761468614170591000,3.192591064453125,0.12944587960243226,0.01735473803258501,0.05058450606716797
1761468614180574000,3.202573974609375,0.12241291222572326,-0.005094569492922164,0.05738327196235768
1761468614190558000,3.212557861328125,0.1257049395084381,-0.02830930843297392,0.0776074827503413
1761468614200541000,3.222541015625,0.12196224584877491,-0.017250894065620376,0.10219957902478054
1761468614210524000,3.23252392578125,0.12854396232664583,0.005904287573765031,0.10966896505737676
1761468614220507000,3.2425068359375,0.11911503972411155,-0.0038060868852306156,0.08754832779723219
1761468614230489900,3.25248974609375,0.1478431215584278,-0.03477566860259976,0.03072865366754122
1761468614240473000,3.26247314453125,0.10774024375081062,-0.06151831680731847,-0.02593779352866113
1761468614250457000,3.27245703125,0.10863806937336921,-0.08736618529651313,-0.09186296699279918
1761468614260439800,3.282439697265625,0.11357611029744148,-0.06076008688511792,-0.12380031146351247
1761468614270423000,3.292423095703125,0.1306371352136135,-0.011427937232912518,-0.11317261666362173
1761468614280406000,3.302406005859375,0.12719897745847702,0.03832653405116871,-0.06982248686335515
1761468614290388700,3.312388671875,0.10879589028358459,0.08823999072266742,-0.024853057898720724
1761468614300372700,3.322372802734375,0.1399222654312849,0.09143412885516881,-0.014436946323164737
1761468614310356000,3.33235595703125,0.14650748904049396,0.07744201738978736,-0.01949589194685686
1761468614320339000,3.3423388671875,0.11538462102413177,0.043809404175356025,-0.015332442991319112
1761468614330322000,3.352322021484375,0.12660744130611418,0.029909578669886104,0.011576045033289118
1761468614340305000,3.362304931640625,0.11314122601151466,0.02376942738047801,0.04399821844545659
1761468614350288000,3.372287841796875,0.1284030925512314,0.07087566287782975,0.1651303381795995
1761468614360272000,3.38227197265625,0.13423545196652412,0.10201840463844128,0.2477396478052251
1761468614370255000,3.392255126953125,0.12659984252154827,0.03322781810609158,0.1715755687962286
1761468614380238000,3.402238037109375,0.13078618829548358,-0.0707947248624172,0.03970748528186232
1761468614390220800,3.412220703125,0.10295125590860843,-0.12867403671341016,-0.06901328480574302
1761468614400204000,3.4222041015625,0.11013327636718749,-0.1256476928958669,-0.12669972269944846
1761468614410188000,3.43218798828125,0.12749182292521,-0.0880727626632899,-0.11498533777454867
1761468614420171000,3.4421708984375,0.11372691694498062,-0.017892082612565717,-0.07407837247585412
1761468614430153700,3.45215380859375,0.10968611712157726,0.03279482438315172,-0.028378724973951466
1761468614440137000,3.462136962890625,0.1276443831384182,0.05805195130442734,-0.018848511121142653
1761468614450120000,3.472119873046875,0.14575345580279828,0.0629937505215872,-0.017223718364327213
1761468614460103000,3.48210302734375,0.14246376660764218,0.05621161610078997,-0.008473019250342622
1761468614470087200,3.492087158203125,0.1092442185729742,0.04129929365110584,0.027080666253739036
1761468614480070000,3.50206982421875,0.12705050889849662,0.044614354749536136,0.07319127374328672
1761468614490052900,3.512052978515625,0.1294441260367632,0.06317829047536942,0.0949883507380262
1761468614500036000,3.5220361328125,0.12944120342731474,0.056384716778527945,0.11531082513555883
1761468614510018800,3.532018798828125,0.13108312541544437,0.021288013227749616,0.10759857939095235
1761468614520001800,3.542001708984375,0.11850947504639625,-0.01705637157394085,0.04684417789452709
1761468614529985800,3.55198583984375,0.11057400587201117,-0.06493359144378918,-0.037039814142300745
1761468614539969000,3.561968994140625,0.13631167371869085,-0.10963957456611097,-0.09231763369143009
1761468614549952000,3.571951904296875,0.11192074430584907,-0.12142192842699587,-0.10718369671343825
1761468614559935000,3.58193505859375,0.12164952663779258,-0.09527869372041896,-0.07904669437375851
1761468614569918000,3.59191796875,0.12494330748617648,-0.05273199839068111,-0.03774755141970235
1761468614579902000,3.60190185546875,0.11686521497070788,-0.032252662064158354,0.007260460556228645
1761468614589885000,3.611885009765625,0.12734218532145022,-0.036192325900914146,-0.0003124406497692689
1761468614599868000,3.621867919921875,0.11163315953612327,-0.05064571190222632,-0.016770270941825583
1761468614609851000,3.631850830078125,0.13543021470904348,-0.025413034435617737,-0.021241018581134266
1761468614619833900,3.641833740234375,0.1263058280110359,0.01645330938056577,0.007449471189151517
1761468614629817000,3.651817138671875,0.11762976960241794,0.052281953068240544,0.07655899204413871
1761468614639801000,3.661801025390625,0.14815817885696886,0.09349550009807571,0.10543960212562233
1761468614649783800,3.67178369140625,0.10760638823807239,0.10001962290350347,0.12438287885813042
1761468614659767000,3.68176708984375,0.13663432980179785,0.08895595697229727,0.0888560859275516
1761468614669750000,3.69175,0.10864917528927326,0.05515827568953391,0.030859440440358592
1761468614679733000,3.70173291015625,0.11538052937090396,0.025045146404718978,-0.011716074558487161
1761468614689717000,3.711717041015625,0.13438333600461483,0.013462612265138885,-0.023610606389841995
1761468614699700000,3.721699951171875,0.1173223110884428,0.012172914947895332,-0.01825358200187329
1761468614709683000,3.731682861328125,0.1119330192655325,0.021094289887091142,-0.01120086417850107
1761468614719666000,3.741666015625,0.11133213076293468,0.01822194018801674,-0.027085337862279263
1761468614729649000,3.75164892578125,0.1309340723335743,0.004681750908331014,-0.06001297201197594
1761468614739631900,3.7616318359375,0.11686813758015632,-0.022791051901574245,-0.060357095574797126
1761468614749615900,3.771615966796875,0.11522329298257827,-0.0358122953410726,-0.060961084783356635
1761468614759598800,3.781598876953125,0.10729308450520038,-0.017961371289379895,-0.031182923073950222
1761468614769582000,3.79158203125,0.13512743237018585,-0.0029790432102512567,-0.0032937899815384296
1761468614779564800,3.801564697265625,0.12390636565387249,0.03881363714809995,0.049961076939199114
1761468614789548000,3.811548095703125,0.14709960971474648,0.07573077932537998,0.10051376309599727
1761468614799532000,3.821531982421875,0.11701777518391608,0.09938371788645163,0.12988695616712792
1761468614809515000,3.831514892578125,0.1595119320422411,0.08761879921755752,0.09311098515936173
1761468614819497700,3.841497802734375,0.11296996109783648,0.05224119636616669,0.04758662572570611
1761468614829481000,3.85148095703125,0.1182026010543108,0.010273136608023196,-0.004786425992357545
1761468614839464000,3.8614638671875,0.1494733531087637,-0.021669865851919167,-0.04894215938735287
1761468614849447000,3.871447021484375,0.11236030476689338,-0.049420188695262185,-0.05221698437351733
1761468614859431000,3.881430908203125,0.11190963838994503,-0.047326632215804416,-0.03737248929592315
1761468614869414000,3.891413818359375,0.11505144354701041,-0.07112597981051076,-0.023043309629592112
1761468614879396900,3.90139697265625,0.11490122142136096,-0.06781562685323879,0.0008067635053535923
1761468614889380000,3.911380126953125,0.1368985336959362,-0.053443822754733264,0.010768368212482891
1761468614899363000,3.921363037109375,0.0905091229647398,-0.049050332469562995,0.02547658749138936
1761468614909347000,3.93134716796875,0.14258359359502792,-0.042994142269715666,0.01877610347205773
1761468614919329800,3.941329833984375,0.11624679081141948,-0.04730942535267677,0.02839654832500964
1761468614929313000,3.95131298828125,0.13899229110479355,-0.017415596807771362,0.020793927834182976
1761468614939296000,3.9612958984375,0.1122071600317955,0.013523626303952187,0.039607929330947804
1761468614949278700,3.97127880859375,0.15335750106573104,0.04758939763810485,0.05033468689140863
1761468614959262700,3.9812626953125,0.11639525937139987,0.06182148273866623,0.05941122499285265
1761468614969246000,3.991245849609375,0.1397387255579233,0.04586453747372143,0.04068612105567008
1761468614979229000,4.00122900390625,0.11863865438401698,0.00951403903614264,-0.001783992773364298
1761468614989211000,4.0112109375,0.1145984390825033,-0.021162706347648053,-0.0477338658764027
1761468614999193900,4.02119384765625,0.1186380698621273,-0.04266428012768738,-0.07442700325043405
1761468615009177900,4.031177734375,0.12447510545253752,-0.05924056743395049,-0.06495170248921495
1761468615019161000,4.0411611328125,0.12103694769740105,-0.049749845341313624,-0.029054861536691894
1761468615029144000,4.05114404296875,0.11385668080449103,-0.03304818722286727,-0.0008453556498046964
1761468615039126800,4.061126708984375,0.1345072546452284,-0.023155957957520148,0.03429493588095065
1761468615049110000,4.071110107421875,0.1433376268327236,-0.022384014603798276,0.03764536055370699
1761468615059093000,4.081093017578125,0.12493337061405181,-0.03337495322551112,0.03627048287077341
1761468615069077000,4.091076904296875,0.12194295662641524,-0.05451913296920247,0.019770055546006186
1761468615079059700,4.101059814453125,0.10219371553957461,-0.05416132337432354,0.016781130262557415
1761468615089043000,4.11104296875,0.12538871316611766,-0.03674076269706711,0.05418006460741162
1761468615099026000,4.12102587890625,0.12628770783245563,0.008719769686181099,0.10687694145236164
1761468615109009200,4.131009033203125,0.13436755391359329,0.05539987045964226,0.13104699465613812
1761468615118993200,4.1409931640625,0.13556348569989204,0.0885878725785762,0.11969839257001876
1761468615128976000,4.150975830078125,0.12284195129275322,0.07608771670400165,0.08314997410727665
1761468615138959000,4.160958984375,0.1384013394743204,0.05832008245501201,0.007722232849081047
1761468615148942300,4.1709423828125,0.12463234184086322,0.04465293776083272,-0.06815144381201825
1761468615158925300,4.18092529296875,0.10323241093754768,0.04768709499207325,-0.12146612376174888
1761468615168908000,4.190907958984375,0.12358137148320675,0.04553361131919082,-0.12697634768374264
1761468615178892000,4.20089208984375,0.12148586050868034,0.052037759915669446,-0.12085236664442345
1761468615188875300,4.210875244140625,0.11131167249679565,0.039796177345467726,-0.10204099092958495
1761468615198858200,4.220858154296875,0.14498422499597072,0.026193836949230172,-0.08010551011115312
1761468615208841000,4.230841064453125,0.09605389761030673,0.0024627003191038965,-0.0329702174826758
1761468615218824200,4.24082421875,0.13316577690839768,-0.015263843867671675,0.0021413776765577494
1761468615228808200,4.25080810546875,0.13391688753664494,-0.03229244151869789,0.03631131263808347
1761468615238791200,4.260791259765625,0.10608604680299759,-0.060648986626882104,0.09837450431128963
1761468615248774400,4.2707744140625,0.12524141364991664,-0.07281743546221404,0.11499469012478365
1761468615258757000,4.280757080078125,0.12913316039144992,-0.06957696483680047,0.12318954088771715
1761468615268740000,4.290739990234375,0.11850889052450657,-0.04508388565715868,0.13204794272645376
1761468615278723300,4.300723388671875,0.13571546139121055,-0.0013337145554833114,0.12289920703847892
1761468615288707300,4.310707275390625,0.13032616956830023,0.04684266179087571,0.09787545048166066
1761468615298690000,4.32068994140625,0.12149521285891532,0.06804814326774794,0.04874248122994322
1761468615308673000,4.330673095703125,0.1309194592863321,0.0685225330135785,-0.019924593087169342
1761468615318656300,4.34065625,0.11864742221236228,0.06372737572549377,-0.09417502506114542
1761468615328639200,4.35063916015625,0.12104045482873915,0.06232804402131587,-0.1437390929062385
1761468615338623200,4.360623291015625,0.13061726146936417,0.04915293432751205,-0.1699346514550969
1761468615348606200,4.370606201171875,0.127325818708539,0.04668752146151382,-0.13058991680471227
1761468615358589200,4.380589111328125,0.11789923419356345,0.01787657451617997,-0.08050921380752697
1761468615368572200,4.390572265625,0.10997019475996493,-0.02835495137271937,-0.0360149691731669
1761468615378555400,4.400555419921875,0.12179390354454517,-0.06767884873105212,0.0030609858726616947
1761468615388538000,4.4105380859375,0.12104922265708445,-0.08615916586061939,0.04569376575038768
1761468615398522000,4.420522216796875,0.1319751058191061,-0.07537843592348509,0.08276445452156476
1761468615408505000,4.430505126953125,0.14828969628214836,-0.0495154657632811,0.1299858590974938
1761468615418488300,4.44048828125,0.10788812778890132,-0.0277291065253783,0.16910590901337563
1761468615428471000,4.450470947265625,0.13362462659180163,0.009553348133224062,0.15503356278548017
1761468615438454300,4.460454345703125,0.12943302012085914,0.022455508937430566,0.11970687727057375
1761468615448438300,4.470438232421875,0.12015256607830524,0.03275840592947788,0.07358668453535065
1761468615458421200,4.480421142578125,0.11730711351931095,0.06694672136448789,0.021882408057479187
1761468615468404200,4.490404296875,0.12209200970828532,0.07947899397695436,-0.007117923980113118
1761468615478387200,4.50038720703125,0.1282236443310976,0.07720634547038935,-0.05736564954069908
1761468615488370200,4.5103701171875,0.11340659894943236,0.07916000942196696,-0.0897939421663992
1761468615498354200,4.520354248046875,0.12373042456507682,0.055867789365490896,-0.1158148656675592
1761468615508337200,4.530337158203125,0.1389940446704626,0.029909427972836418,-0.12410216222060844
1761468615518320000,4.540320068359375,0.10757014788091182,-0.0015063311760313807,-0.10945561456764116
1761468615528303000,4.55030322265625,0.12852058145105838,-0.007253172298916615,-0.08412754130200482
1761468615538286300,4.560286376953125,0.11684884835779666,-0.015231667764275333,-0.02066065227675717
1761468615548269300,4.570269287109375,0.15500935992598533,-0.007459143199794925,0.027526492058788425
1761468615558253300,4.58025341796875,0.10697627364099026,-0.00408236480965279,0.09192273435601964
1761468615568236000,4.590236083984375,0.130319155305624,0.0034361073619453234,0.10564756405418738
1761468615578219300,4.60021923828125,0.12014204468429088,0.007656113376887515,0.10725952929547056
1761468615588202200,4.6102021484375,0.13854454733729363,-0.0031085056756623088,0.08586160768615081
1761468615598185200,4.620185302734375,0.12238193256556987,-0.018718276904174127,0.06787180032015312
1761468615608169000,4.6301689453125,0.12522329347133634,-0.02408485000520013,0.05094358517052605
1761468615618152200,4.640152099609375,0.12701543758511544,-0.03472627650292125,0.021560199498943982
1761468615628135200,4.65013525390625,0.11593991681933402,-0.029376832633209414,0.0008995061229914427
1761468615638118100,4.6601181640625,0.12147592363655567,-0.025649094514083117,-0.01633927737972699
1761468615648101000,4.67010107421875,0.1365881525725126,-0.01413165236681234,-0.03200907626636326
1761468615658084000,4.680083984375,0.11952829670011997,-0.013036719569843262,-0.027233212767215444
1761468615668068000,4.690068115234375,0.11773264545500278,-0.01613364897214342,-0.022597931349114513
1761468615678051300,4.70005126953125,0.12431670002043246,-0.012822857623454182,-0.030752272005146367
1761468615688034300,4.710034423828125,0.11788228305876254,-0.014091133126756175,-0.03951730103858281
1761468615698017000,4.72001708984375,0.13060440198779105,-0.008637498230207711,-0.03941613765247166
1761468615708000300,4.730000244140625,0.11264964310228824,-0.020396361617650835,-0.012718127740500493
1761468615717984300,4.739984375,0.11639175224006175,-0.004606722043897025,0.020533153439569286
1761468615727967200,4.74996728515625,0.13629530710577964,0.009040242945356294,0.04958553532480728
1761468615737950200,4.7599501953125,0.12252806303799152,0.017273434690991414,0.07746617458350956
1761468615747933200,4.76993310546875,0.12477379613816737,0.021174784944509153,0.07070375407675747
1761468615757916200,4.779916259765625,0.11803951944708824,0.012467226285929792,0.060986164425685996
1761468615767899400,4.7898994140625,0.1210299334347248,0.01068450758762192,0.03635334341521375
1761468615777883400,4.79988330078125,0.12147709268033503,0.011934489382407628,0.018589928683615288
1761468615787866000,4.8098662109375,0.12521627920866013,0.003892605258058756,-0.0006220591547898948
1761468615797849000,4.81984912109375,0.11459084029793738,-0.011076374715729616,-0.019824091854761354
1761468615807832300,4.829832275390625,0.13613748619556426,-0.00938098724100273,-0.03184619558854029
1761468615817815300,4.839815185546875,0.14017828601896762,-0.02830002001482062,-0.016106907095690258
1761468615827799000,4.849799072265625,0.13030454225838184,-0.031267386487009934,-0.01246942280959338
1761468615837782300,4.8597822265625,0.11444529434740543,-0.03456113536935299,0.0014553864400833844
1761468615847765200,4.86976513671875,0.11040741713345051,-0.05453732621301897,0.037682847586460406
1761468615857748200,4.879748291015625,0.12208207283616065,-0.07021908953208476,0.047493526915041724
1761468615867731200,4.889731201171875,0.10876549514532088,-0.08634939120309428,0.04192818440548144
1761468615877714200,4.899714111328125,0.10547405238449573,-0.07757838452002033,0.03875174632645212
1761468615887698200,4.9096982421875,0.12956746015548706,-0.05529589862851426,0.05286520544944796
1761468615897681200,4.91968115234375,0.12133856099247932,-0.013268299836013466,0.059501350961718706
1761468615907664400,4.929664306640625,0.11251052689254283,0.02453956236960366,0.05439112724193837
1761468615917647000,4.939647216796875,0.11116378845870495,0.07180536777626256,0.03819271963762585
1761468615927630000,4.949630126953125,0.12986790440678594,0.1187511931140907,-0.0022515052538365126
1761468615937614000,4.959614013671875,0.11894377481043338,0.13495181094179862,-0.03835475093207787
1761468615947597300,4.969597412109375,0.1225333237349987,0.13714028829624875,-0.06983817762283143
1761468615957580000,4.979580078125,0.11295476352870464,0.14078229806041345,-0.06932009486574679
1761468615967563300,4.989563232421875,0.11445055504441261,0.13528824895508587,-0.06738177004719619
1761468615977546200,4.999546142578125,0.1132522851705551,0.11021335586607456,-0.05360969910724088
1761468615987529200,5.009529296875,0.11833762561082839,0.07698988057496026,-0.02967613067361526
1761468615997513200,5.01951318359375,0.109209147259593,0.03418184002845082,0.0006778946949867531
1761468616007496200,5.02949609375,0.12207739666104316,-0.017339092938881365,0.023742292778380213
1761468616017479200,5.039479248046875,0.1151911442786455,-0.06967723317376803,0.05076633347405586
1761468616027462100,5.049462158203125,0.11444237173795699,-0.10196659225281328,0.049857296904316166
1761468616037445400,5.0594453125,0.10456512084603309,-0.11046554966201073,0.06210269256653264
1761468616047429000,5.06942919921875,0.13748480915129183,-0.0868336675886996,0.06238105285018682
1761468616057412000,5.079412109375,0.11593524064421654,-0.06566406570938416,0.07240300944242627
1761468616067395300,5.089395263671875,0.11817922017872333,-0.02606266658392269,0.05326105919950641
1761468616077378300,5.09937841796875,0.12685644763112067,-0.003958852594415657,0.03398192897560075
1761468616087361000,5.109361083984375,0.13897475544810295,0.012403129807463846,0.010761678176792338
1761468616097344300,5.11934423828125,0.12640344316661356,0.03342281095522921,-0.022022848574630913
1761468616107328300,5.129328369140625,0.11966916647553444,0.03602756379325874,-0.05534230418666265
1761468616117311200,5.139311279296875,0.11338438711762427,0.044444423276418815,-0.07816222142311743
1761468616127294200,5.149294189453125,0.1319406190276146,0.04675272761825472,-0.06539279732021969
1761468616137278000,5.15927783203125,0.12281272519826889,0.04842900853371247,-0.039578885899554
1761468616147261000,5.169260986328125,0.12101824299693106,0.041518233631411564,-0.009029045697906985
1761468616157245000,5.179244873046875,0.12101882751882076,0.03228293390483595,0.0377332717326004
1761468616167228000,5.189227783203125,0.12775310420989988,0.009901376119605265,0.06331625590764452
1761468616177211100,5.199211181640625,0.1316442664295435,-0.008253878340637311,0.060583931167190894
1761468616187193900,5.20919384765625,0.12535831802785397,-0.03729592149495147,0.05885534924233798
1761468616197176800,5.2191767578125,0.11607903302907943,-0.061755326733854594,0.06210103946556337
1761468616207160000,5.22916015625,0.13134206861257552,-0.07683808754673227,0.0577060741759371
1761468616217144000,5.23914404296875,0.1211655425131321,-0.08652039125529118,0.05827306040893308
1761468616227126800,5.249126708984375,0.12954524832367897,-0.07453705319589934,0.04930341218148823
1761468616237110000,5.259110107421875,0.10724924536347388,-0.07000000798788387,0.02651318226382136
1761468616247093000,5.269093017578125,0.1157797578215599,-0.05790705837444402,0.011085010113334282
1761468616257076000,5.279075927734375,0.1199713642925024,-0.037970039630541574,-0.009158704526140354
1761468616267060000,5.28906005859375,0.10590718310475349,0.0019321188400499522,-0.01569432597311679
1761468616277043000,5.29904296875,0.14840718518197535,0.03739250003749039,-0.01628979394850321
1761468616287026000,5.30902587890625,0.12162380767464637,0.08772120927926153,-0.007638509221537969
1761468616297009000,5.3190087890625,0.1205769289702177,0.10572911399095318,-0.005802233705087564
1761468616306992000,5.3289921875,0.1335954004973173,0.11662483034357428,-0.017327375101624055
1761468616316974800,5.338974853515625,0.13254793727099895,0.09861499853627756,-0.01855427741492167
1761468616326958800,5.348958740234375,0.11608780085742473,0.06759256782024167,-0.02241140493422281
1761468616336942000,5.358942138671875,0.11563830352425575,0.05452823415768798,-0.012645793156651779
1761468616346925000,5.368925048828125,0.12222177356779575,0.02272759931050241,0.009925889506353995
1761468616356907800,5.37890771484375,0.12611118222177028,-0.008201947224000469,0.03712861580376047
1761468616366891000,5.38889111328125,0.1160848782479763,-0.03930843036114238,0.04594095914422069
1761468616376874000,5.3988740234375,0.11877835511565207,-0.058455609335028566,0.044162902921298514
1761468616386858000,5.40885791015625,0.12087328156828879,-0.0660492565015331,0.05384165839932393
1761468616396841000,5.418841064453125,0.12102233465015888,-0.05900701897297986,0.04234222226620186
1761468616406824000,5.428823974609375,0.12760580469369887,-0.04333496876375284,0.024627519214269703
1761468616416807000,5.438806884765625,0.12775544229745864,-0.04057520346052479,0.01932926667567808
1761468616426790000,5.448789794921875,0.11728197907805442,-0.02308674234594218,0.019034402781794777
1761468616436774000,5.45877392578125,0.1199760404676199,-0.006823777038860134,0.017789046929776668
1761468616446756900,5.4687568359375,0.11354162350594997,0.008957409800379536,0.00000749375328887254
1761468616456739800,5.47873974609375,0.11713292599618434,0.009703825987200251,-0.009067779406253248
1761468616466723000,5.48872314453125,0.12611176674365995,0.02716907518955413,-0.014557225401699542
1761468616476706000,5.4987060546875,0.11129705944955348,0.033528568318067116,-0.0177388054467272
1761468616486688800,5.508688720703125,0.14556640879809857,0.04285227241388056,-0.018985882898373527
1761468616496672800,5.5186728515625,0.10726035127937793,0.03639055645333137,-0.0001382622597971931
1761468616506656000,5.528656005859375,0.12551613893806934,0.0331211154617602,0.022517600688477978
1761468616516639000,5.538638916015625,0.11833411847949027,0.027429561889800242,0.03876557848898228
1761468616526622000,5.5486220703125,0.11953005026578903,0.010725214057345873,0.04978794886199757
1761468616536605000,5.55860498046875,0.12057575992643832,0.004517413492361083,0.04914279652598779
1761468616546589000,5.5685888671875,0.13374270001351832,-0.011245511604403145,0.030662241934402843
1761468616556572000,5.578572021484375,0.12476502830982207,-0.027481419941200874,0.012309706769813782
1761468616566555100,5.58855517578125,0.11533727475106716,-0.033835008485312575,0.00811564804688096
1761468616576537900,5.598537841796875,0.11608370920419692,-0.01819462292282842,0.006455222287680954
1761468616586520800,5.608520751953125,0.10665770921111106,-0.008789715950121171,0.01050014573035296
1761468616596504000,5.618504150390625,0.12865560600757597,0.010582618115725926,0.007343910189135931
1761468616606488000,5.628488037109375,0.11025251883268355,0.02792481176056899,0.014628276777337305
1761468616616471000,5.638470947265625,0.13225041562914847,0.03707462516077794,0.006739418657077476
1761468616626453800,5.648453857421875,0.12267360898852347,0.045784818734438154,-0.0031642681506229564
1761468616636437000,5.65843701171875,0.11938216622769832,0.03358879690559115,-0.0079231759483926
1761468616646420000,5.668419921875,0.11160101083219051,0.026420024087652563,-0.0028085317818215116
1761468616656403000,5.67840283203125,0.13270049748420715,0.014633825168712063,0.007968608825583942
1761468616666387000,5.688386962890625,0.11833470300137997,0.0200406983140856,0.022764538353984242
1761468616676370000,5.698369873046875,0.1316518652141094,0.006111308787413872,0.03716639053088147
1761468616686353000,5.708352783203125,0.1190823064982891,0.014711890807026066,0.03830888423004653
1761468616696336100,5.718336181640625,0.1306032329440117,-0.013543070789938792,0.02156939201897476
1761468616706318800,5.72831884765625,0.11593816325366496,-0.021542846505343913,0.017847366688004695
1761468616716302800,5.738302734375,0.12282090850472449,-0.028742649215785784,0.019253730921167878
1761468616726285800,5.748285888671875,0.13329612528979778,-0.02758390763471834,0.011319038064917549
1761468616736269000,5.75826904296875,0.1166857667505741,-0.026201449433527885,0.018981951075349935
1761468616746251800,5.768251708984375,0.10770634148120879,-0.0020076454614056274,0.023592481644684447
1761468616756235000,5.778235107421875,0.13673662113249302,0.014607101558567955,0.020512480544298887
1761468616766218000,5.788218017578125,0.1106996780782938,0.013105021865968592,0.011350990406027994
1761468616776202000,5.798201904296875,0.1237181496053934,0.0168845586709911,-0.005125033129844814
1761468616786185000,5.80818505859375,0.10695639989674091,0.020573905575065873,-0.0017144346684915945
1761468616796168000,5.81816796875,0.1291033497750759,0.0222321211108705,-0.0032457541553070767
1761468616806151000,5.82815087890625,0.12371581151783466,0.01758775220401585,0.004441247550188564
1761468616816134000,5.8381337890625,0.11234218458831309,0.021800113768619483,0.006418118847417645
1761468616826117000,5.8481171875,0.13119652266204357,0.023592002154071815,0.011054391212784684
1761468616836101000,5.85810107421875,0.11817863565683365,0.012170882821013218,0.018812754821171982
1761468616846083800,5.868083740234375,0.128802905523777,-0.002786785740894265,0.016546673052711413
1761468616856066800,5.87806689453125,0.12565934680104254,-0.0056474130361340935,0.015723227840615434
1761468616866050000,5.888050048828125,0.11219137794077395,-0.026430454150121657,0.017331973644928073
1761468616876032800,5.89803271484375,0.1180278290092945,-0.030581308485567567,0.01828913737244438
1761468616886016800,5.908016845703125,0.12446166144907474,-0.034484855262748894,0.02073687301785685
1761468616896000000,5.918,0.11368775397837161,-0.019556768988352267,0.02076306690503843
1761468616905983000,5.92798291015625,0.12042261519134044,-0.01307553547658026,0.020818893312080762
1761468616915966000,5.937966064453125,0.11518529905974864,-0.003130566810420714,0.017724941318156197
1761468616925949000,5.947948974609375,0.1353857910454273,0.01727978223338723,0.009679750991868786
1761468616935932000,5.957931884765625,0.11937398292124271,0.028369957145606167,0.008629767014901153
1761468616945916000,5.967916015625,0.12864976078867912,0.033851913954340854,-0.003121383423544466
1761468616955899000,5.97789892578125,0.12460896096527575,0.04911100858165882,-0.0018045241047395391
1761468616965881900,5.9878818359375,0.1157797578215599,0.032683591694175264,-0.013452634293818846
1761468616975864800,5.99786474609375,0.11877250989675521,0.01665765457993839,-0.009219184275413864
1761468616985848000,6.00784814453125,0.13403554548025132,0.00355613071215339,-0.0046918065114645285
1761468616995831000,6.0178310546875,0.11817395948171615,-0.012913819275959394,-0.0014159494788385926
1761468617005815000,6.02781494140625,0.12685410954356194,-0.009996415725606493,0.016713229825231244
1761468617015797800,6.0377978515625,0.11637947728037834,-0.02038074392341077,0.0360913862770889
1761468617025781000,6.047781005859375,0.11637889275848864,-0.020609374180668962,0.04902092371198814
1761468617035764000,6.057763916015625,0.1175748245447874,-0.00011726970411837101,0.05722168819247744
1761468617045747000,6.067746826171875,0.1228121406763792,-0.007883556324057281,0.05690891874914523
1761468617055731000,6.07773095703125,0.1225116964250803,-0.0037908893160987643,0.05825847932773176
1761468617065714000,6.0877138671875,0.12924363502860067,0.013184713205788283,0.035861829004646274
1761468617075697000,6.09769677734375,0.12190963887870311,0.0021932950934628022,0.014643191218678839
1761468617085680000,6.10768017578125,0.12385375868380069,-0.0013543463515583425,0.0001482858968898654
1761468617095662800,6.117662841796875,0.12460194670259951,0.002437894671410322,-0.02112850268394686
1761468617105645800,6.127645751953125,0.1196621522128582,-0.006003519297693855,-0.03888294409122318
1761468617115629800,6.1376298828125,0.11951251460909842,0.006103303577471524,-0.0491817859626608
1761468617125613000,6.147613037109375,0.10933774207532405,0.007292435730225406,-0.01903920682107564
1761468617135596000,6.157595947265625,0.14629939924776553,0.03527901044827886,-0.011287350585288368
1761468617145578500,6.16757861328125,0.09826572844088077,0.03911277079172432,0.02757332687519956
1761468617155561700,6.177561767578125,0.15602818157970905,0.04730262115255464,0.03242217797874473
1761468617165544700,6.187544677734375,0.12954232571423052,0.03441934771190863,0.04823452714122831
1761468617175528700,6.19752880859375,0.12415654102265834,0.01855368832645472,0.03285112571422942
1761468617185511700,6.20751171875,0.12744739926159382,0.018741858709161167,0.03806269548321142
1761468617195494700,6.21749462890625,0.125800216576457,0.014859103558259083,0.028581444471818394
1761468617205477600,6.2274775390625,0.12041267831921577,0.009581377784465439,0.030629536108043975
1761468617215460900,6.2374609375,0.12160744106173514,0.00034848464410752055,0.023484240063815377
1761468617225443600,6.247443603515625,0.1307329968035221,-0.009258918064180761,0.01009238691336941
1761468617235427600,6.257427490234375,0.11621639567315578,-0.026633589206519537,-0.004744089254550636
1761468617245410600,6.26741064453125,0.11427110682427882,-0.03830013010143302,-0.016240876772860065
1761468617255393800,6.277393798828125,0.12833879514336585,-0.03137635415366385,-0.016386025431170126
1761468617265376800,6.287376708984375,0.12624503773450851,-0.007758742634300142,-0.005508844815660267
1761468617275359700,6.29735986328125,0.1020031614035368,0.00286475548108574,0.02388646875573322
1761468617285343700,6.30734375,0.12833879514336585,0.028320144920819437,0.040891347604454495
1761468617295326700,6.31732666015625,0.12235270647108554,0.019690510336658917,0.033336973002413284
1761468617305309700,6.327309814453125,0.1292342826783657,0.007054567287163809,0.023943217611382715
1761468617315292700,6.337292724609375,0.12773673759698867,-0.020664081776281817,0.0012315967547241599
1761468617325275600,6.347275634765625,0.1097802251458168,-0.03633417292386293,-0.0015051073333248496
1761468617335258600,6.357258544921875,0.126240361559391,-0.01981898642138112,0.00926806035186164
1761468617345242600,6.36724267578125,0.13148001577854157,0.005251298991171643,0.03157711002330761
1761468617355225900,6.377225830078125,0.12998539330661296,0.03559913208100479,0.05193635450096335
1761468617365208600,6.38720849609375,0.1157709899932146,0.03492002724304329,0.06233727307396475
1761468617375191800,6.39719189453125,0.1241495267599821,0.03320997648872435,0.020359084647451526
1761468617385174800,6.4071748046875,0.1257961249232292,-0.0018418924064841121,-0.01267300995714031
1761468617395157500,6.417157470703125,0.1275917761683464,-0.028668825927749275,-0.046465996798477134
1761468617405141500,6.4271416015625,0.12385142059624195,-0.029556495482474562,-0.046080006855307144
1761468617415124700,6.437124755859375,0.12205635387301444,0.0003571611409075558,-0.019753547369199802
1761468617425107700,6.447107666015625,0.13388006265759467,0.03875170522725675,0.030840521110757253
1761468617435090700,6.457090576171875,0.11787059262096881,0.06842019145053345,0.04969084972965065
1761468617445073700,6.46707373046875,0.1356780519902706,0.05981735810833051,0.049389903154852796
1761468617455056600,6.477056640625,0.11951543721854686,0.03127209919474553,0.03605677618801128
1761468617465040600,6.48704052734375,0.1281938337147236,-0.005734447432192973,-0.006951746233506128
1761468617475024000,6.49702392578125,0.10350246005058288,-0.03715520241658669,-0.02978164144128095
1761468617485006600,6.507006591796875,0.11158347517549991,-0.048683590649557296,-0.020844132784614337
1761468617494989600,6.516989501953125,0.10619652144014835,-0.013847611261042765,0.01809605791918002
1761468617504972800,6.526972900390625,0.13103577914237977,0.027284700925857757,0.04648807163296733
1761468617514955800,6.536955810546875,0.11397650779187679,0.04744887948913965,0.08924933216199278
1761468617524939800,6.546939697265625,0.15767010356783867,0.05773020397019572,0.06948627717893105
1761468617534922500,6.556922607421875,0.11592004307508467,0.02485519505687989,0.0329486632379936
1761468617544905700,6.56690576171875,0.12803835089206694,-0.01800476747311186,-0.03225464852526784
1761468617554888700,6.576888671875,0.11711363677382468,-0.051607305209687905,-0.060897033970663324
1761468617564871700,6.58687158203125,0.1308808808416128,-0.037796053036814554,-0.04763560226685367
1761468617574854700,6.596854736328125,0.12489537669122218,-0.01181976782840211,0.0006893385376082733
1761468617584838700,6.606838623046875,0.13043372159600258,0.023688338668015785,0.04884379531310405
1761468617594821600,6.616821533203125,0.12459785504937171,0.0394942352568265,0.07419757840873208
1761468617604804900,6.626804931640625,0.1284890172690153,0.02527247975403443,0.04518541893602814
1761468617614787600,6.63678759765625,0.1121761803716421,-0.01076784762267489,0.006347072038357146
1761468617624770600,6.6467705078125,0.12459610148370265,-0.03419858566727489,-0.04169548532788176
1761468617634753800,6.65675390625,0.11232523345351218,-0.02807427126781549,-0.04201857066925149
1761468617644737800,6.66673779296875,0.13791560178399084,-0.0052598339240765195,-0.016376796378521248
1761468617654720800,6.676720703125,0.10170388619601727,0.026873485209885983,0.03631074181592557
1761468617664703500,6.686703369140625,0.12504910594820975,0.04346098346333019,0.05837847984505351
1761468617674686700,6.696686767578125,0.11681845321953296,0.03728325380962342,0.06462934780020732
1761468617684669700,6.706669677734375,0.11861351994276045,0.008925722320750356,0.020904434437374584
1761468617694653700,6.71665380859375,0.11352467237114906,-0.029098600213718597,-0.030827022308367303
1761468617704636700,6.72663671875,0.1229518414080143,-0.06064241988877765,-0.046834574382542626
1761468617714619600,6.73661962890625,0.17382921120822428,-0.007734621973196044,0.03827575371200219
1761468617724602600,6.7466025390625,0.11920914774835109,0.06609004516964778,0.20516802353020755
1761468617734585900,6.7565859375,0.04797755670547485,0.04472261459671426,0.20936848916104062
1761468617744568600,6.766568603515625,0.13311959967911244,-0.02624711520615965,0.00752206150132697
1761468617754552600,6.776552490234375,0.14927987636327741,-0.0374703282137867,-0.10016666669137775
1761468617764535600,6.78653564453125,0.12578677257299423,0.05807334571890533,-0.07836339741786942
1761468617774518800,6.796518798828125,0.10812953532934189,0.15345849548848345,-0.027344714884250422
1761468617784501800,6.806501708984375,0.10857435648739337,0.18246833513993768,0.02639821411464363
1761468617794484700,6.816484619140625,0.1410416248500347,0.14410630965027957,0.020300984084932132
1761468617804467700,6.8264677734375,0.12936580010354518,0.0575943391634617,-0.028126417013583704
1761468617814451700,6.83645166015625,0.09494798219501972,-0.042877219625469296,-0.09052991002444177
1761468617824434700,6.8464345703125,0.11859130811095236,-0.11518734488636255,-0.11612723781866952
1761468617834417700,6.856417724609375,0.11664601926207542,-0.13221956383315844,-0.07058279001163319
1761468617844400600,6.866400634765625,0.13744856879413128,-0.10143526185508817,0.0033392639579251406
1761468617854383600,6.876383544921875,0.11934651039242744,-0.06768345640751067,0.044556624079775065
1761468617864366800,6.886366943359375,0.10587971057593822,-0.07755436432361602,0.058928999000438485
1761468617874350800,6.896350830078125,0.12398702967464924,-0.07982688496601767,0.024824941482511347
1761468617884333600,6.90633349609375,0.12728314861059187,-0.05430722095130477,-0.01325608880841173
1761468617894316800,6.91631689453125,0.09616086511611938,-0.0199663407365093,0.001277413224405609
1761468617904299800,6.9262998046875,0.12190087105035781,0.03408825716059655,0.03900585351826157
1761468617914282800,6.93628271484375,0.15707038410902022,0.07884214824498631,0.06576369929211213
1761468617924265700,6.946265625,0.08524316526055335,0.08578443253040313,0.07798782383743673
1761468617934249700,6.956249755859375,0.16485270854830741,0.08939464065050706,0.057129909122642125
1761468617944232700,6.966232666015625,0.10260229634046554,0.05941389644055161,0.03999797896130476
1761468617954215700,6.976215576171875,0.1371679982870817,0.03171824466020334,0.009773909248458222
1761468617964198700,6.98619873046875,0.09721358903944492,0.018594623125041836,0.03563236306374892
1761468617974181600,6.996181640625,0.1536257966130972,0.02520393542931415,0.03895115048922598
1761468617984164600,7.00616455078125,0.09840659821629523,0.012342056403146125,0.04940990932984277
1761468617994148600,7.016148681640625,0.1450935305893421,0.0153890685493825,0.045678230254538356
1761468618004131800,7.0261318359375,0.11052607507705688,-0.009969710381771437,0.03945293513205834
1761468618014114600,7.036114501953125,0.1296785193145275,-0.0028884468839270993,0.03889706394812092
1761468618024097800,7.046097900390625,0.12443886509537697,0.010831446344219148,0.0746684381903382
1761468618034080800,7.056080810546875,0.11949848608374596,-0.012913312385883181,0.04578506989618763
1761468618044063700,7.066063720703125,0.10782441490292549,-0.08821992518217302,-0.04323499725430738
1761468618054047500,7.076047607421875,0.10108955368995666,-0.15603382586920633,-0.11878984462404622
1761468618064030700,7.08603076171875,0.14388941549658774,-0.13539249478084966,-0.11188307917658238
1761468618074013700,7.096013671875,0.08642857565283775,-0.035054421611898576,0.0006683733813930302
1761468618083996700,7.10599658203125,0.11530980222225189,0.06292217398956418,0.08639741332959383
1761468618093979600,7.115979736328125,0.13506371948421,0.10873836967637762,0.10714794041346758
1761468618103962600,7.125962646484375,0.1220446634352207,0.10188417466636747,0.0503669588929275
1761468618113946600,7.135946533203125,0.10318915631771088,0.06439724237765185,-0.028700709770200773
1761468618123929900,7.145929931640625,0.11695756942927836,0.04032189541973639,-0.096133008994814
1761468618133912800,7.155912841796875,0.12698328888118265,0.0484389636721462,-0.09107793582864106
1761468618143895600,7.1658955078125,0.12129822898209094,0.08733942515375093,-0.038321177456039
1761468618153878800,7.175878662109375,0.12174597274959087,0.12176493317838757,0.0211015872775577
1761468618163861800,7.18586181640625,0.12414017440974712,0.09206404252285137,0.05103544643875211
1761468618173845800,7.195845703125,0.12114449972510337,0.030913732477440496,0.0317848573227413
1761468618183828500,7.205828369140625,0.12862637991309164,-0.049401689490769056,-0.016733610459556802
1761468618193811700,7.215811767578125,0.13760755874812602,-0.11268081455868668,-0.07913750532921403
1761468618203794700,7.225794677734375,0.09735679690241814,-0.13446961691542528,-0.06089890626734122
1761468618213777700,7.235777587890625,0.10139993481338024,-0.11601266239513643,-0.01612906412857119
1761468618223760600,7.2457607421875,0.12280220380425452,-0.05443057790291495,0.05439724188889376
1761468618233744600,7.25574462890625,0.11637129397392272,0.008117410745704545,0.13190099940327926
1761468618243727600,7.2657275390625,0.12774550542533397,0.02784652235996909,0.15437277905549854
1761468618253710800,7.2757109375,0.1198141279041767,0.0056717072271741924,0.14129387344489805
1761468618263693600,7.285693603515625,0.12579787848889826,-0.024564879473950713,0.08642046541161835
1761468618273676500,7.295676513671875,0.13253040161430835,-0.036475956014730034,0.025817409418849274
1761468618283659800,7.30565966796875,0.08868658371269703,-0.02588152416362427,-0.005661272598127834
1761468618293643800,7.315643798828125,0.11517127053439616,0.01501138521025423,0.011098855975596233
1761468618303626800,7.325626708984375,0.13851356767714024,0.061298847104050216,0.04157816539141349
1761468618313609700,7.335609619140625,0.14405015901625157,0.11911916790995745,0.03092016221822705
1761468618323592700,7.3455927734375,0.11950783843398094,0.11985102584846317,0.004284193824953399
1761468618333575700,7.35557568359375,0.12953238884210586,0.1071316559989471,-0.02618473576074466
1761468618343559000,7.365558837890625,0.13761165040135384,0.07394104636439587,-0.043206903670984315
1761468618353543000,7.37554296875,0.1209995382964611,0.02874452607904095,-0.047630149773601436
1761468618363525600,7.385525634765625,0.112319972756505,-0.006056487027369439,-0.04080122163558844
1761468618373508600,7.395508544921875,0.10992343300879001,-0.01467326669653412,-0.014965481975604778
1761468618383491800,7.405491943359375,0.1317699386358261,-0.037914359353971666,0.016757767653279007
1761468618393474600,7.415474609375,0.11800503265559673,-0.05748454037974588,0.03368491879040375
1761468618403457500,7.42545751953125,0.11935118656754493,-0.06750027272717561,0.03897291022988502
1761468618413441500,7.435441650390625,0.11531038674414157,-0.070965341322124,0.023192253113607876
1761468618423424800,7.4454248046875,0.11366320405900478,-0.053569102235371244,0.01836206104476005
1761468618433407700,7.45540771484375,0.14613865572810172,-0.012963882662495598,0.03625552733023651
1761468618443390700,7.465390625,0.0904740516513586,0.0026631593612255525,0.08019791936865076
1761468618453373700,7.475373779296875,0.14688684374690056,0.0011439504373120144,0.05941540341104846
1761468618463356700,7.485356689453125,0.12488660886287689,0.014024680294422432,0.03791241399205755
1761468618473340700,7.495340576171875,0.1018412488400936,0.01745433964927215,0.007875176654779352
1761468618483323600,7.50532373046875,0.11620470523536204,0.023029874759283846,-0.005254824388818815
1761468618493306600,7.515306640625,0.1386503457993269,0.048421692876936866,0.012093104877066798
1761468618503289600,7.52528955078125,0.12607786447405814,0.07019955828113016,0.04951578542368952
1761468618513272800,7.53527294921875,0.12098901690244673,0.10245260393777862,0.06730000091472174
1761468618523255600,7.545255615234375,0.11694587899148463,0.08315504300803878,0.07557901369661559
1761468618533239600,7.555239501953125,0.13519582143127917,0.04174929787435103,0.03736476264719386
1761468618543222800,7.565222900390625,0.13429331963360308,0.0025141610782826317,-0.007173805186082609
1761468618553205800,7.575205810546875,0.1051093107253313,-0.02349831882151775,-0.03582623710145708
1761468618563188700,7.585188720703125,0.1197708732843399,-0.0314017580229789,-0.04657181352681946
1761468618573171700,7.595171630859375,0.14969780951440334,-0.04362967282743193,-0.04025801357040182
1761468618583154700,7.60515478515625,0.10540449427962302,-0.04236335638577584,-0.024809410553239285
1761468618593138700,7.615138671875,0.10465513721704482,-0.03887617642371915,-0.03205451827670913
1761468618603121700,7.62512158203125,0.14640519770979882,-0.040604657883872276,-0.029882955524441784
1761468618613104600,7.635104736328125,0.11962065115869044,-0.029482343400875105,-0.007022793042566627
1761468618623087600,7.645087646484375,0.1318921037107706,-0.0011178935474483295,0.01219926409870386
1761468618633070600,7.655070556640625,0.11767770039737224,0.019062213237327524,0.040379516491643154
1761468618643053800,7.6650537109375,0.1209685586363077,0.048850626912689765,0.06489312243608292
1761468618653037800,7.675037841796875,0.12605565264225005,0.060034859616798344,0.08206610612701624
1761468618663020500,7.6850205078125,0.12530512653589249,0.051726008819066915,0.07585962530286051
1761468618673003800,7.695003662109375,0.12171090143620968,0.015514900585869327,0.06220630363805685
1761468618682986800,7.70498681640625,0.12066110012233257,-0.03847344997487962,-0.0004596853670431301
1761468618692969700,7.7149697265625,0.08265081067979335,-0.07907940020011738,-0.05275111864968203
1761468618702952700,7.72495263671875,0.1333785428762436,-0.08585859374515711,-0.09499478047881275
1761468618712936700,7.734936767578125,0.094173490691185,-0.06766793004481587,-0.0625510893545812
1761468618722919700,7.744919677734375,0.13846972853541373,-0.009517865827889181,-0.01716610642557498
1761468618732902700,7.754902587890625,0.10944237149357795,0.035910508718271734,0.05131709009145852
1761468618742885600,7.7648857421875,0.12201485281884669,0.06248761393062304,0.06639801970685366
1761468618752868600,7.77486865234375,0.1259054305166006,0.03476168117644265,0.051885770524619144
1761468618762851800,7.784851806640625,0.1152788225620985,0.012883433270850219,0.04764400020244065
1761468618772835800,7.7948359375,0.15119243198633192,-0.008121566331014036,0.026763722958788275
1761468618782818800,7.80481884765625,0.10570143139958381,-0.009037932257261126,0.040928688506735485
1761468618792801500,7.814801513671875,0.11527589995265006,-0.008428129795845597,0.04542008620842825
1761468618802784800,7.82478466796875,0.12634732906520366,-0.017355359087092802,0.0465190284602344
1761468618812767700,7.834767822265625,0.144004566308856,-0.020929491246817634,0.010643239428894594
1761468618822750700,7.844750732421875,0.09552081364691258,-0.02564205741852056,0.0006858222731156274
1761468618832734500,7.854734375,0.13083645717799663,-0.014033594253240153,-0.016020137561112643
1761468618842717700,7.8647177734375,0.1291910280585289,0.005231808839412406,-0.02287317266049795
1761468618852700700,7.87470068359375,0.1232084465175867,0.021005734820803625,-0.02693200589751359
1761468618862683600,7.88468359375,0.09807049812972544,0.031189882537699304,-0.0037830256700515743
1761468618872666600,7.89466650390625,0.1363794782578945,0.034725705680763344,-0.00008650010651908815
1761468618882649600,7.904649658203125,0.12844810073673724,0.06542141149335075,0.0159711701531196
1761468618892632800,7.9146328125,0.11931903786361217,0.07261694445405155,0.033211118133040146
1761468618902616800,7.924616943359375,0.13757482552230357,0.06047056132005527,0.028962461412348782
1761468618912599800,7.934599853515625,0.10569909331202507,0.03155730477771722,0.011838015871145762
1761468618922582500,7.94458251953125,0.12081249129176139,-0.012514864819939247,-0.04152483690213412
1761468618932565800,7.954565673828125,0.10614859064519405,-0.05855874091594014,-0.08088221183838322
1761468618942548700,7.964548828125,0.14446049338281153,-0.07445357616352848,-0.09561075695268809
1761468618952531500,7.974531494140625,0.07817337300479411,-0.06356176423446741,-0.05466859247644897
1761468618962515700,7.984515625,0.1486585295945406,-0.01613588202842511,-0.019521181651740334
1761468618972498700,7.994498779296875,0.10437047505676746,0.0004529176995391026,0.03849801816055551
1761468618982481700,8.004481689453126,0.12696984487771987,0.017782183364150113,0.08111518034404143
1761468618992465000,8.01446484375,0.11574936268329619,0.03024016233112197,0.09893622984727844
1761468619002447600,8.024447509765626,0.1281704528391361,0.03421835438024718,0.0805104011176154
1761468619012430600,8.0344306640625,0.12098784785866737,0.01815157836554572,0.05803199536178726
1761468619022414600,8.04441455078125,0.12338204951882362,-0.0048805066171335055,0.04768446464356966
1761468619032397800,8.054397705078125,0.11724632324278354,-0.002370259095565416,0.05271668665711768
1761468619042380500,8.064380615234375,0.1386450851023197,0.027637669948837717,0.07331343881823123
1761468619052363500,8.074363525390625,0.1130564703375101,0.037144443560554644,0.0998416999201756
1761468619062346800,8.0843466796875,0.13235738313496112,0.023844264448666944,0.07825098655195906
1761468619072329700,8.094329833984375,0.11708908685445785,-0.006049824391142464,0.02359724458476994
1761468619082313700,8.104313720703125,0.13968378050029276,-0.035418829910922794,-0.03668308682623319
1761468619092296700,8.114296630859375,0.09105039023458956,-0.05254896997397299,-0.06082071276486385
1761468619102279700,8.12427978515625,0.14686580095887183,-0.036516945612244306,-0.09102392235277221
1761468619112262700,8.1342626953125,0.09703647890686988,-0.03237419695144053,-0.0702690615870757
1761468619122246000,8.144245849609375,0.14193185168802738,-0.004841028556693345,-0.06746738423772622
1761468619132228600,8.154228515625,0.10631927103698254,0.014667827903013676,-0.039848309391504154
1761468619142216000,8.1642158203125,0.142684131360054,0.027509814918623303,-0.03011941289512906
1761468619152199000,8.174198974609375,0.10782207681536674,0.031371938273450355,-0.011620012039178982
1761468619162182000,8.184181884765625,0.14613397955298424,0.03658473645171616,0.013753704166202805
1761468619172164900,8.194164794921875,0.09420973104834555,0.028086911553679962,0.060864652371290136
1761468619182148000,8.204148193359375,0.14807926840186117,0.044112136281863785,0.06907076888033188
1761468619192131000,8.214131103515625,0.12204290986955166,0.03877351063368842,0.10035964111336507
1761468619202113800,8.22411376953125,0.11470891371965408,0.027318032373301684,0.10126658162414096
1761468619212097800,8.234097900390625,0.11380875000953673,0.009473597427899948,0.1006035054723732
1761468619222081000,8.2440810546875,0.11395604952573776,-0.0097598487570649,0.07055932237107772
1761468619232064000,8.25406396484375,0.13176175532937048,-0.025510179233737287,0.044433650720654985
1761468619242046700,8.264046630859376,0.13026421024799345,-0.028367833687178788,0.03535819033144507
1761468619252030000,8.274030029296876,0.10422609815001486,-0.04050432561482303,0.028694111066055482
1761468619262013000,8.284012939453126,0.14657295549213886,-0.04557793451810721,0.0015255838657729326
1761468619271997000,8.293996826171876,0.1109568677097559,-0.04718352025095373,-0.024062007985729723
1761468619281980200,8.303980224609376,0.10990823543965816,-0.045013637999119234,-0.05218415068299509
1761468619291963000,8.313962890625,0.11215338401794434,-0.04196002714873757,-0.056229092391976154
1761468619301945900,8.32394580078125,0.14313070608377457,-0.018815134007926098,-0.052191571371047754
1761468619311929000,8.33392919921875,0.1184416705071926,0.011390518698818049,-0.015280050650378688
1761468619321912000,8.343912109375,0.1088654483884573,0.05258351613096893,0.016086471662437544
1761468619331895800,8.353895751953125,0.14029109874367712,0.08707573271626606,0.05207612373125739
1761468619341878800,8.363878662109375,0.12996551956236363,0.0960980381461326,0.059782830217643634
1761468619351862000,8.373862060546875,0.12577274404764174,0.06840009851057548,0.025364797679986804
1761468619361845000,8.383844970703125,0.11754092227518557,0.027660740297171287,-0.00014941384147386998
1761468619371828000,8.393827880859375,0.12187865921854972,0.002300632492033765,-0.02254431516546756
1761468619381811000,8.40381103515625,0.1286111823439598,-0.029326129925856367,-0.018115100546367464
1761468619391795000,8.413794921875,0.10825871466696262,-0.03936159902021754,-0.00019376900643110274
1761468619401778000,8.42377783203125,0.14596914438009262,-0.04973263847818598,0.01051604655238334
1761468619411761200,8.43376123046875,0.10646598603129387,-0.05360741125203203,0.03916818620681297
1761468619421743900,8.443743896484374,0.12038286770284175,-0.033708792856335636,0.03772815259948838
1761468619431726800,8.453726806640624,0.11409867286682128,-0.032840038064634425,0.0091985935785342
1761468619441710000,8.4637099609375,0.11918752043843268,-0.027987656996864823,-0.018153532860614358
1761468619451694000,8.473694091796874,0.12068506551980972,-0.017432872169557957,-0.02560000837508123
1761468619461676800,8.4836767578125,0.14792086296975612,0.024819420490600166,-0.01809266495227348
1761468619471659800,8.49365966796875,0.117993342217803,0.053199282542290165,0.027781097007519562
1761468619481643000,8.50364306640625,0.1088654483884573,0.08009682448119856,0.058909572780760935
1761468619491626000,8.5136259765625,0.14792086296975612,0.05940816995266359,0.05843185400010552
1761468619501609000,8.52360888671875,0.14836919125914572,0.027224248576047827,0.031221136192488484
1761468619511592000,8.533592041015625,0.10168108984231948,-0.008726957478793337,-0.003134914191975258
1761468619521576000,8.543575927734375,0.11095745223164558,-0.03278893349848222,-0.015122001411300151
1761468619531559000,8.553558837890625,0.12442483657002448,-0.017207000124966725,-0.005258532449556514
1761468619541542100,8.563542236328125,0.11813888816833495,0.006358447382319718,0.0033511324922321363
1761468619551524900,8.57352490234375,0.11739070014953612,0.004179929732880555,0.022918943464406764
1761468619561507800,8.5835078125,0.13923954386413095,-0.005442793842125684,0.04395320569337345
1761468619571491000,8.593490966796875,0.13145721942484379,-0.014024241903005167,0.03375953666288405
1761468619581476900,8.603476806640625,0.1395382345497608,-0.008848222938016988,0.01911459644511342
1761468619591460000,8.613460205078125,0.0925520269691944,-0.02214262532966677,0.001301246191142127
1761468619601444000,8.623444091796875,0.12861468947529792,-0.040944032206339756,-0.015413079612632281
1761468619611426800,8.6334267578125,0.14821955365538597,-0.032638364312960765,-0.007614886317355558
1761468619621409800,8.643409912109375,0.12368015568256377,0.0042481269977288315,0.01753326837068889
1761468619631393000,8.65339306640625,0.12068798812925814,0.03290816226424649,0.03582888114969246
1761468619641376000,8.6633759765625,0.1121586447149515,0.03963068915202748,0.07545363831785507
1761468619651358700,8.673358642578124,0.12771920194029807,0.04175845842834096,0.07313485824777745
1761468619661342000,8.683342041015624,0.10661854624450207,0.037177227018726985,0.046115101001574656
1761468619671326000,8.693325927734374,0.1483662686496973,-0.006021479646069929,0.00034651644930709153
1761468619681309000,8.703308837890624,0.10392273128926753,-0.022434210421075112,-0.025299171398137695
1761468619691292200,8.713292236328124,0.1154442422568798,-0.031339109149505384,-0.03880452225988265
1761468619701275000,8.72327490234375,0.11813888816833495,-0.04665791177453939,-0.04519767106282525
1761468619711257900,8.7332578125,0.11245149018168449,-0.028817897275928407,-0.03120997547765728
1761468619721241000,8.743240966796876,0.15001169776916504,-0.03164434374035336,-0.008829445172310806
1761468619731225000,8.75322509765625,0.06456862602233886,-0.009243496732763014,0.0372367021210026
1761468619741207800,8.763207763671875,0.20867373009622095,-0.0010631813852582125,0.017304989739879966
1761468619751190800,8.773190673828125,0.05649111802875995,0.00486940070122946,0.05531248900371138
1761468619761174000,8.783174072265625,0.13909341339170933,0.013255298790545203,0.02142271812385879
1761468619771157000,8.793156982421875,0.09360475089251995,0.01587895725844428,0.025681037722039037
1761468619781140000,8.803139892578125,0.1281710373610258,0.02438998869792558,0.03617951665169093
1761468619791124000,8.8131240234375,0.1304150168955326,0.03992039281360339,0.040201438244688324
1761468619801107000,8.82310693359375,0.1170955165952444,0.03773344526253641,0.017819711496098897
1761468619811090000,8.83308984375,0.11559914055764675,0.03201588959963992,0.0020178152289707213
1761468619821073200,8.8430732421875,0.13011515716612337,0.012490324033726937,-0.002826117670862004
1761468619831056000,8.853055908203125,0.1320616150587797,-0.0029259019506396723,-0.015733324542944318
1761468619841038800,8.863038818359374,0.1124596734881401,0.00947615927774459,-0.012229184312932193
1761468619851022000,8.87302197265625,0.10393091459572315,0.005605551222362555,0.007729434341425076
1761468619861006000,8.883006103515624,0.14478198042213916,-0.0019280637194402516,0.005820847074012272
1761468619870988800,8.89298876953125,0.1115618478655815,0.0052276760869892315,0.010235800272319465
1761468619880972000,8.902971923828124,0.12009177580177784,-0.006895540800550952,0.00655825340389274
1761468619890955000,8.912955078125,0.12413140658140182,-0.012604209904093295,0.0014469702381873502
1761468619900938000,8.92293798828125,0.13041618593931198,-0.023640754932933484,0.0006948960621375591
1761468619910921000,8.9329208984375,0.11260989561378955,-0.03955183349584695,-0.005493692912301049
1761468619920905000,8.942905029296876,0.11186170759499073,-0.037430366096156645,0.0008678597425576299
1761468619930888000,8.952887939453126,0.1380488727748394,-0.021914104670262894,0.013828892860841005
1761468619940871000,8.962870849609375,0.12952069840431213,-0.0029556121023138985,0.031804941129544746
1761468619950854000,8.97285400390625,0.12922259224057198,0.029669783131219443,0.05601652278695255
1761468619960836900,8.9828369140625,0.11784954983294009,0.05630428108661435,0.06547287681910674
1761468619970819800,8.99281982421875,0.1456815596103668,0.057735327669885005,0.054885107604227955
1761468619980803800,9.002803955078125,0.1205418576568365,0.052338309198245406,0.05950436033613514
1761468619990787000,9.012787109375,0.08866495640277862,0.03666819521777797,0.04939752477230504
1761468620000769800,9.022769775390625,0.12128186236917972,-0.007239175739604979,0.010178389262966811
1761468620010753000,9.0327529296875,0.15046411771178245,-0.03214136544310022,-0.04140782749291975
1761468620020736000,9.042736083984375,0.11859364619851112,-0.03991552940881811,-0.05352907161908224
1761468620030719000,9.052718994140625,0.07669628618955612,-0.04785571585751604,-0.034893965786602345
1761468620040702000,9.062701904296874,0.18548691577613352,-0.020366989392694084,-0.03657746189413592
1761468620050686000,9.07268603515625,0.12159458158016204,-0.008545582163054495,0.0031919096427969634
1761468620060669000,9.0826689453125,0.13955693925023077,0.003354671589611098,0.014990479419543406
1761468620070652000,9.09265185546875,0.09856149651706218,0.0028138153117150066,0.03124969556669239
1761468620080635000,9.102634765625,0.08434650868177414,0.008386432378855533,0.04804603709811345
1761468620090617900,9.112617919921876,0.13567279129326343,0.02501327626199927,0.05003401431124657
1761468620100600800,9.122600830078126,0.07865852617323398,0.025138153883838093,0.07187625932169613
1761468620110585000,9.132585205078126,0.10199614714086055,0.012557137625664471,0.07028572502750903
1761468620120568000,9.142568115234376,0.12548106762468814,0.018746973275695928,0.07118491605666931
1761468620130550800,9.15255078125,0.15240823751688,0.017175257846410386,0.05571842118978966
1761468620140530700,9.16253076171875,0.1513590207248926,-0.0006457642573630437,0.014281801427225582
