time,seconds_elapsed,z,y,x
1761468568069619500,0.121619384765625,0.12997779452204702,-0.009730296152306254,0.0031635991470539008
1761468568079603500,0.131603515625,0.11965279986262321,-0.011105314257490681,0.032618266806425524
1761468568089585700,0.141585693359375,0.1109738188445568,-0.01004045465508825,0.04518804471795447
1761468568099569000,0.15156884765625,0.11905483396947383,-0.01130016211780021,0.042271321587613785
1761468568109551600,0.161551513671875,0.11262041700780391,-0.009896905440464615,0.03024260316666914
1761468568119534800,0.171534912109375,0.11770751101374625,0.010473296539334114,-0.0038491131762042638
1761468568129517800,0.181517822265625,0.14045184226334095,0.010580604255152866,-0.017070961788296698
1761468568139500800,0.191500732421875,0.12474047839045524,-0.0021800371780234854,-0.020559141830774022
1761468568149483800,0.20148388671875,0.13192366789281368,-0.007712595087767112,-0.019948624700016807
1761468568159466800,0.211466796875,0.11247194844782352,-0.0005750553750200197,-0.0004900827885954641
1761468568169449700,0.22144970703125,0.11756021149754524,0.000015044588793534784,0.006079491160332691
1761468568179433000,0.231432861328125,0.13446984524428843,-0.01072362146352534,0.0065162979752873065
1761468568189415700,0.241415771484375,0.12309738735854625,-0.009698594972945283,0.004173719187802635
1761468568199398700,0.251398681640625,0.12040332596898078,-0.007159393068240024,0.007243630435725208
1761468568209382000,0.2613818359375,0.11531564744114875,-0.012174580606952076,0.01481112481424352
1761468568219366000,0.271365966796875,0.12489186955988406,-0.016911177249858154,0.018657968401547986
1761468568229348600,0.2813486328125,0.11022679986953735,-0.015541407283593434,0.015613534088176674
1761468568239331800,0.291331787109375,0.11336918954849243,-0.010161052252387162,-0.001887083255080506
1761468568249314800,0.301314697265625,0.13027823877334593,-0.025855234378320165,-0.013216992057173046
1761468568259297800,0.3112978515625,0.12339490900039672,-0.013053228888293961,-0.006850190121750347
1761468568269280800,0.32128076171875,0.12369418420791625,-0.005660873022617306,-0.013629783242300618
1761468568279263700,0.331263671875,0.1334212129741907,-0.00877598996051238,-0.0134078590037534
1761468568289246700,0.341246826171875,0.12982991048395634,-0.004751000769238453,0.000019622582499869167
1761468568299230000,0.35122998046875,0.13192542145848274,-0.0002987158018047921,0.010038832378515508
1761468568309212700,0.361212646484375,0.12309738735854625,0.0022772481915133537,0.024507246985600795
1761468568319195600,0.371195556640625,0.12399462845921516,-0.0065345494429639075,0.01579423811705783
1761468568329179000,0.381178955078125,0.12773381498754025,0.00015545770648168398,0.011600003580900374
1761468568339163000,0.391162841796875,0.1162111349761486,-0.0017323573426052462,0.003167663400818128
1761468568349145600,0.4011455078125,0.1180062016993761,-0.0030805114153947214,-0.0016818201736779883
1761468568359128800,0.41112890625,0.1206990940451622,-0.002292651256622048,0.0035480296040885147
1761468568369111800,0.42111181640625,0.11591127524673939,-0.004215746539999963,0.007918438124482053
1761468568379094800,0.4310947265625,0.1223456922084093,-0.006626397011458175,0.003050128835218493
1761468568389077800,0.441077880859375,0.13087620466649533,-0.01581491101232823,0.01103402884476818
1761468568399060700,0.451060791015625,0.12204817056655883,-0.025293595607299355,0.013706070198770612
1761468568409043700,0.461043701171875,0.1281838968425989,-0.017323004887183194,0.013546968363632913
1761468568419027000,0.47102685546875,0.14344634790420532,0.003983007504849229,-0.027220337302621918
1761468568429009700,0.481009765625,0.1395557702064514,0.030716111563087903,-0.07713016582848503
1761468568438992600,0.49099267578125,0.0862871213555336,0.040820926416479046,-0.05848191738664172
1761468568448976000,0.500975830078125,0.10963117206394672,-0.023783268676162695,0.008033751050243154
1761468568458958800,0.510958740234375,0.11471943511366843,-0.06822533559871372,0.049374641653639265
1761468568468942600,0.520942626953125,0.1840016456544399,-0.039264495321293356,0.03590599465664709
1761468568478925800,0.53092578125,0.04528875601291656,-0.0000885824657510966,0.014230091789586003
1761468568488908800,0.54090869140625,0.14554536601006984,-0.00564272087799618,0.04850091385929845
1761468568498891800,0.550891845703125,0.1509317352235317,0.008216338792245368,0.07815526195936835
1761468568508874800,0.560874755859375,0.07102467029392719,0.002209981366782449,0.13025544241964818
1761468568518857700,0.570857666015625,0.05396422989964485,-0.01564791584839113,0.07882639355342835
1761468568528840700,0.5808408203125,0.20674363881647587,-0.033302974834688935,-0.06774934755084104
1761468568538824000,0.590823974609375,0.1660422105938196,0.007526857549097621,-0.1111105056351982
1761468568548806700,0.600806640625,0.05471183339655399,0.04566130651920102,-0.09357332370779477
1761468568558789600,0.61078955078125,0.1233960780441761,0.04083465354773216,-0.06347698572757654
1761468568568772900,0.62077294921875,0.19193126960992812,-0.0040616131409246005,-0.00923801227346994
1761468568578755800,0.630755859375,0.11037877556085586,-0.004987719576474046,0.0789846893876791
1761468568588739800,0.64073974609375,0.05456394935846329,-0.0191323695638217,0.09157735498445108
1761468568598722800,0.650722900390625,0.1350683956593275,-0.027064132960757704,0.026469845445593818
1761468568608705800,0.660705810546875,0.1694850445240736,-0.026870019177743232,-0.03236813938670093
1761468568618688800,0.670688720703125,0.10154898789525031,-0.019312594102090224,-0.05162123783691786
1761468568628671700,0.680671630859375,0.0906260273426771,-0.022609222211397717,-0.054684443066129455
1761468568638654700,0.69065478515625,0.17053367679417133,-0.03800661563113099,-0.03326524349005194
1761468568648637700,0.7006376953125,0.129233698156476,-0.019048584287485574,-0.0063056234998279245
1761468568658621000,0.710620849609375,0.0961643722474575,0.007331081531959353,0.04188239076868631
1761468568668603600,0.720603759765625,0.12818740397393702,-0.01035986846833839,0.04000588370654732
1761468568678586600,0.730586669921875,0.13581892176568508,-0.01213459108985844,0.018117717195139264
1761468568688569900,0.74056982421875,0.12698971862196923,0.009633692493592388,0.028301362588535994
1761468568698552800,0.750552734375,0.09825988322198391,0.01595473960812669,0.03720806054840795
1761468568708536800,0.760536865234375,0.12279986571669578,0.018674458312045315,0.031454497423791326
1761468568718519800,0.770519775390625,0.14644143806695936,0.01877558973211562,0.04118853588616475
1761468568728502800,0.780502685546875,0.11411913113296031,0.024321542554616462,0.056580394614255056
1761468568738485800,0.79048583984375,0.08673486512303352,0.019383873806591144,0.030076713114429728
1761468568748468700,0.80046875,0.15018062459528445,-0.018813170379702933,-0.010347864078357815
1761468568758451700,0.81045166015625,0.14494272394180296,-0.018214473834191447,-0.041187248111376536
1761468568768434700,0.8204345703125,0.10035013349950313,-0.01827469214691664,-0.05774655231679789
1761468568778418000,0.83041796875,0.13386895674169064,-0.020067965346924028,-0.07089851403045468
1761468568788400600,0.840400634765625,0.15257424173355102,-0.03529881112729199,-0.07325116440409328
1761468568798383600,0.850383544921875,0.12025310384333134,-0.019019116164406293,-0.03854665220840834
1761468568808366800,0.860366943359375,0.10154957241714001,-0.01447586155295721,-0.0011329701022827067
1761468568818349800,0.870349853515625,0.12998188617527484,-0.006165196682407986,0.011005138393712696
1761468568828332500,0.88033251953125,0.13387304839491843,-0.006649137424584478,0.021452480791171544
1761468568838316800,0.89031689453125,0.11801204691827297,0.00014947206533397547,0.03390738645164529
1761468568848299800,0.9002998046875,0.11292436839044094,0.003696216177922906,0.041818572851433415
1761468568858282800,0.91028271484375,0.13821312342584133,-0.0014625708077626767,0.05130329902812373
1761468568868266000,0.920265869140625,0.1388110893189907,0.0002318656772491522,0.05095238953148946
1761468568878248700,0.930248779296875,0.1196574760377407,0.00039975018210825506,0.054303814284666435
1761468568888231700,0.940231689453125,0.1175619650632143,-0.006270211976440623,0.05265683252892922
1761468568898215000,0.95021484375,0.14015665870904923,-0.01084874453889206,0.04705893489005975
1761468568908197600,0.96019775390625,0.12130232063531875,-0.010084297221747692,0.027335458432137964
1761468568918180600,0.9701806640625,0.1033452236622572,-0.007504837513534585,-0.012976650812523438
1761468568928163800,0.980163818359375,0.1308779582321644,-0.006024901154084363,-0.04510190080446191
1761468568938146800,0.990146728515625,0.1329728846848011,-0.012529673088359413,-0.06725800210363231
1761468568948129500,1.000129638671875,0.12579027970433235,-0.016595398432109505,-0.07432869854168966
1761468568958113800,1.01011376953125,0.1115752918690443,-0.014902194922958733,-0.07504460999239236
1761468568968096800,1.0200966796875,0.13087912727594375,-0.02098335630892543,-0.048254711412731556
1761468568978079700,1.030079833984375,0.12384732894301413,-0.025834465584927236,-0.008793492509517819
1761468568988063000,1.04006298828125,0.12115443659722805,-0.007451584372780052,0.026980251786299047
1761468568998045700,1.050045654296875,0.1103811136484146,-0.0107226933066966,0.05830680741490796
1761468569008028700,1.060028564453125,0.13237842592298985,-0.00835559770753025,0.07353304551881737
1761468569018012000,1.070011962890625,0.11277589983046055,0.003469172806263668,0.084324799173465
1761468569027995000,1.079994873046875,0.11352350332736968,0.012000989022158319,0.07474853595553431
1761468569037977600,1.0899775390625,0.11472001963555813,0.011175919250200967,0.040127190264966334
1761468569047960800,1.0999609375,0.11636544875502586,0.00006120583505835384,0.01888471951226238
1761468569057943800,1.10994384765625,0.12504326072931288,0.003915801187267061,-0.014453986506222281
1761468569067926500,1.119926513671875,0.11651391731500625,-0.008071668482903624,-0.03309501062283525
1761468569077910800,1.129910888671875,0.11337152763605117,-0.01625614169900655,-0.03252816595373442
1761468569087894000,1.13989404296875,0.12115268303155899,-0.014688343251368495,-0.034847978070273525
1761468569097877000,1.149876953125,0.1210036299496889,-0.022116426875907928,-0.019204210957325992
1761468569107860000,1.15985986328125,0.11277414626479149,-0.02252890525049297,-0.015249582446878775
1761468569117843200,1.16984326171875,0.12115443659722805,-0.009573405682208248,-0.01240343805142911
1761468569127826000,1.179825927734375,0.12280045023858546,-0.01405478887996287,-0.015468616042018402
1761468569137809200,1.18980908203125,0.14120646002292633,0.010637040300259831,-0.013229011288529727
1761468569147792100,1.199792236328125,0.0841951175123453,0.029049815468816086,-0.0073781321191461755
1761468569157775000,1.209775146484375,0.16589724916517734,0.026494584877917077,-0.027046158912649842
1761468569167758000,1.219758056640625,0.12220365338921546,0.007619603591668419,-0.0030146762126358226
1761468569177741000,1.229740966796875,0.15258008695244787,-0.0066262988300470164,0.024860848479531704
1761468569187724000,1.23972412109375,0.10095569817721843,-0.021418991796812042,0.04667049269489944
1761468569197708000,1.2497080078125,0.1533288594931364,-0.03857839905354194,0.08242637254046276
1761468569207691000,1.25969091796875,0.11502104840874672,-0.04065825580121018,0.10245138009507208
1761468569217674000,1.269674072265625,0.11337445024549961,-0.03160532233763952,0.09105144968051462
1761468569227657000,1.279656982421875,0.11397183161675929,-0.03679631967605092,0.038826026272214945
1761468569237640200,1.28964013671875,0.13013210830092428,-0.02548538271919824,-0.027003696593968195
1761468569247623000,1.299622802734375,0.11052841316461562,-0.016838477339828385,-0.05940052550232503
1761468569257606100,1.309606201171875,0.11576572929620742,-0.006996754419011994,-0.07640534041896462
1761468569267589000,1.319589111328125,0.12175181796848773,-0.004971496810746612,-0.06534350111866369
1761468569277572000,1.329572021484375,0.11771160266697406,-0.004584754523972515,-0.04886409374903887
1761468569287555000,1.33955517578125,0.12190204009413719,0.002512651824497152,-0.02237248856278602
1761468569297538000,1.3495380859375,0.11457038203179835,0.011821095560741377,-0.0016737624480971133
1761468569307521000,1.35952099609375,0.12235212194919586,0.010812885490932967,0.00851229409809457
1761468569317505000,1.369505126953125,0.12384908250868319,0.012302006378903751,0.0017271914020762778
1761468569327488000,1.379488037109375,0.10978373227715492,0.015469190289109246,0.00630961240506731
1761468569337471000,1.389470947265625,0.12100713708102702,0.010945036528707715,0.029011392287723717
1761468569347454000,1.399453857421875,0.13342705819308756,-0.0014700725525617598,0.053754665102460415
1761468569357437200,1.409437255859375,0.1277402447283268,-0.0017193483056267723,0.05852771102343685
1761468569367420000,1.419419921875,0.12100655255913734,-0.0017284563439781777,0.06025292281426955
1761468569377403100,1.429403076171875,0.13626900362074373,-0.019039818742428907,0.04183243698000442
1761468569387386000,1.43938623046875,0.09197568838596343,-0.007011988520761951,0.022882988518325147
1761468569397369000,1.449369140625,0.16454934168756008,-0.006374172391125466,-0.005994029950140975
1761468569407352000,1.45935205078125,0.11681494608819484,-0.014291564769414252,-0.030793894073611588
1761468569417335000,1.4693349609375,0.14150515070855615,-0.01871968683490413,-0.030750351759407202
1761468569427318000,1.479318115234375,0.11636544875502586,-0.028024132532754445,-0.023894138322246725
1761468569437301200,1.48930126953125,0.12669102793633938,-0.0345723828491522,-0.010623646529146935
1761468569447285000,1.499284912109375,0.11487024176120757,-0.022100178994005546,0.0014231075886986218
1761468569457268000,1.50926806640625,0.11861176637709141,-0.01193895663661533,0.001903153040469624
1761468569467251000,1.5192509765625,0.12893676103651522,-0.021636940829851663,0.0012970335236168467
1761468569477234200,1.529234130859375,0.12624328416883945,-0.020191788089415057,-0.008621736688783858
1761468569487217000,1.539216796875,0.1272907473951578,-0.00205489697799203,-0.0178812895072042
1761468569497200000,1.5492001953125,0.11352525689303875,-0.007084775195759721,-0.014572658149560446
1761468569507183000,1.55918310546875,0.13507365635633467,0.006435216112690978,0.006535372568515595
1761468569517166000,1.569166015625,0.11651917801201343,0.0010205306952644605,0.026443030503904445
1761468569527149000,1.579149169921875,0.11801613857150077,0.004739945085684303,0.052372759457118806
1761468569537132000,1.589132080078125,0.11038462077975272,0.01017645417585154,0.05001364737665281
1761468569547115000,1.599114990234375,0.12624562225639818,-0.009532082724553765,0.040336165973683814
1761468569557098200,1.60909814453125,0.11487257984876632,-0.009217401026992592,0.018756218311365227
1761468569567082000,1.61908203125,0.11337503476738929,-0.0003396334757271688,0.006568989427038468
1761468569577065000,1.62906494140625,0.1343237147718668,-0.013801170311920578,-0.0109830635592225
1761468569587048000,1.6390478515625,0.12759002260267735,-0.014433538514882093,-0.026883981487725393
1761468569597031200,1.64903125,0.11965922960340976,-0.01342953882931033,-0.018213811680488287
1761468569607014000,1.659013916015625,0.10319967771172522,-0.02568014267289545,-0.014863460072968154
1761468569616997000,1.6689970703125,0.12100655255913734,-0.025219297395227474,-0.01718195016538957
1761468569626980000,1.67897998046875,0.12699205670952796,-0.01081372345786076,-0.01833615713523468
1761468569636963000,1.688963134765625,0.12654372842013836,-0.00040959572268766347,-0.022372075287543702
1761468569646946000,1.698946044921875,0.11262743127048015,-0.00046424851937335916,-0.016876313715742434
1761468569656929000,1.708928955078125,0.13223054188489913,0.009553423481748905,-0.008191982952412217
1761468569666912000,1.718912109375,0.11666823109388351,0.002821298790205037,0.005402208386699203
1761468569676896000,1.72889599609375,0.10873743809461593,0.005649795647821156,0.01456732895389432
1761468569686879200,1.738879150390625,0.13058452824354172,0.009514445461519062,0.02356561875393381
1761468569696862000,1.748862060546875,0.12968611809909342,0.0049273539916321165,0.024838538466312454
1761468569706845000,1.758844970703125,0.12160568749606608,0.002014756763848709,0.02975679926096927
1761468569716828200,1.768828125,0.11487141080498695,-0.0013862005112576297,0.02418903189888224
1761468569726811000,1.778810791015625,0.12310147901177405,-0.02288023715552408,0.021948153070337137
1761468569736794000,1.788794189453125,0.11995908933281897,-0.02803619742988376,0.010840328336996026
1761468569746777000,1.798777099609375,0.12384908250868319,-0.03014806588416686,0.012530745092371943
1761468569756760000,1.808760009765625,0.1277396602064371,-0.03137465538692195,0.0018595125448540783
1761468569766743000,1.818742919921875,0.1368675540357828,-0.020069326186948455,-0.0211777372367098
1761468569776726000,1.82872607421875,0.12085691495537758,-0.018983612167829414,-0.03917480317726731
1761468569786709000,1.838708984375,0.11487141080498695,-0.007169115311233327,-0.03847640911694616
1761468569796693000,1.84869287109375,0.12998539330661296,-0.0009672490134020335,-0.027920537444250656
1761468569806676200,1.85867626953125,0.12744213856458664,0.007467639316793065,-0.017088716640695927
1761468569816659000,1.868658935546875,0.11038345173597335,0.014150809158431366,-0.005134364930482116
1761468569826642000,1.878641845703125,0.12504852142632006,0.013389560728659853,0.005951512832532171
1761468569836625200,1.888625244140625,0.1317827981173992,0.01637364429856534,0.03284987447205931
1761468569846608100,1.898608154296875,0.12160744106173514,0.009990362727444153,0.04970796069465577
1761468569856591000,1.908591064453125,0.12669511958956717,0.009945686760434181,0.05438435500785708
1761468569866574000,1.918573974609375,0.11622048732638358,-0.005205402606388088,0.048310049196006725
1761468569876557000,1.92855712890625,0.11517243957817554,-0.0123295713809086,0.020872262900555504
1761468569886540000,1.9385400390625,0.12220482243299484,-0.008615002128964988,-0.000580487318674568
1761468569896523000,1.94852294921875,0.12624445321261882,-0.011877278160810236,-0.015942220336559693
1761468569906506000,1.958506103515625,0.12205460030734538,-0.01948452801933745,-0.01014305080481572
1761468569916490000,1.968489990234375,0.1263935062944889,-0.024745090312487443,-0.0258679226132459
1761468569926473200,1.97847314453125,0.12145546537041664,-0.008900087839283513,-0.0192515640802565
1761468569936456000,1.9884560546875,0.12280220380425452,-0.020775935519766062,-0.022225440208334474
1761468569946439000,1.99843896484375,0.11546996122002601,-0.016091964113240827,-0.022238258590712212
1761468569956422100,2.008422119140625,0.11995908933281897,-0.00866566031218972,-0.029628480723162647
1761468569966405000,2.018405029296875,0.11562018334567546,-0.005885560040408745,-0.021299199058755765
1761468569976388000,2.02838818359375,0.11008417652845381,0.0037371795176179144,-0.011717444531666114
1761468569986371000,2.03837109375,0.1301361999541521,-0.0055576158608309926,0.009783967134880367
1761468569996354000,2.04835400390625,0.1301367844760418,-0.005628551930392859,0.030892324363230726
1761468570006337000,2.0583369140625,0.12444997101128101,0.003825624986051116,0.03708021236805944
1761468570016320000,2.068320068359375,0.12804185802340506,-0.0032582083531480744,0.05154058294929564
1761468570026304000,2.078303955078125,0.12190613174736499,-0.005386409171012929,0.04847003923042211
1761468570036287000,2.088286865234375,0.12609540013074874,-0.01620546867440571,0.03984221757743507
1761468570046270200,2.098270263671875,0.12325170113742351,-0.013461233158805408,0.03008781446375651
1761468570056253000,2.1082529296875,0.12878770795464514,-0.01712267599251354,0.020701283397956283
1761468570066236000,2.11823583984375,0.12624328416883945,-0.02465484332932392,0.010812974539189599
1761468570076219100,2.12821923828125,0.12354922277927398,-0.010075480302696813,-0.027164855672162955
1761468570086202000,2.1382021484375,0.12534487402439118,-0.013504992385429794,-0.04632509505702182
1761468570096189200,2.148189208984375,0.12324936304986477,-0.0016551251046417745,-0.06094290980584919
1761468570106172400,2.15817236328125,0.12684125006198882,-0.0032068743164883925,-0.053077583258226514
1761468570116155400,2.1681552734375,0.11621756471693515,0.0017007885939849074,-0.030347511146136093
1761468570126138000,2.17813818359375,0.11696633725762366,0.0019353611099068074,-0.005844200550136156
1761468570136121300,2.188121337890625,0.1220540157854557,0.0014155613197712226,0.011964526044356171
1761468570146105300,2.198105224609375,0.12355097634494304,0.007485685288492822,0.019433069543447343
1761468570156088300,2.20808837890625,0.12759119164645671,0.006789897602144628,0.0283763206710224
1761468570166071300,2.2180712890625,0.12355097634494304,0.0013110734654124825,0.03588549757460132
1761468570176054300,2.22805419921875,0.1259451780050993,0.0032843474414024965,0.026015060015954074
1761468570186037200,2.238037353515625,0.11846271329522132,-0.005433056757756276,0.0277158497515833
1761468570196020500,2.2480205078125,0.12699205670952796,-0.0158776215345948,0.015899970363720786
1761468570206003200,2.258003173828125,0.13312719846367835,-0.013323755208653164,-0.001736123627203051
1761468570215986200,2.267986083984375,0.12160451845228672,-0.014658669632312375,-0.010564358656539116
1761468570225969400,2.277969482421875,0.1256447337538004,-0.009703962984518148,-0.018896613162744325
1761468570235952400,2.287952392578125,0.12474690813124178,0.002508187995222397,-0.011110644594801123
1761468570245935000,2.29793505859375,0.11457155107557773,-0.0021769798545457886,-0.015989251515793147
1761468570255918300,2.30791845703125,0.12968494905531405,-0.0040233714812784455,-0.017575956734945067
1761468570265902300,2.31790234375,0.11995908933281897,0.006545851721690268,-0.03229684598246822
1761468570275885300,2.32788525390625,0.11651742444634437,0.008795441296364878,-0.012489990673586726
1761468570285868300,2.337868408203125,0.12684241910576818,-0.004830482046504039,0.0035951475482899693
1761468570295851300,2.347851318359375,0.12669219698011874,-0.010437483157147653,0.03155844642203301
1761468570305834200,2.357834228515625,0.12878712343275547,-0.016997506109729874,0.04968675350984558
1761468570315817500,2.3678173828125,0.12130524324476719,-0.01744005882052588,0.02920143496710807
1761468570325800200,2.37780029296875,0.12025778001844882,-0.018940300465776817,0.004770810581406113
1761468570335783200,2.387783203125,0.12938567384779454,-0.020871399817452764,-0.01775970438757213
1761468570345766400,2.397766357421875,0.13312602941989898,-0.008606625884620007,-0.021344928763469214
1761468570355749400,2.407749267578125,0.12714110979139803,-0.009849398195551475,0.003925340767169837
1761468570365732000,2.417732177734375,0.12504559881687163,-0.0006325862570258322,0.026344136706693097
1761468570375715300,2.42771533203125,0.12384849798679351,-0.004252791756403166,0.043209383322438226
1761468570385699300,2.43769921875,0.125643564710021,0.0008611286076717078,0.03509126704054651
1761468570395682300,2.447682373046875,0.12040624857842921,0.00449268090990372,0.0006456660759518854
1761468570405665300,2.457665283203125,0.12594283991754054,-0.0018375769909704104,-0.020032309511653145
1761468570415648300,2.467648193359375,0.1331254448980093,-0.0002826254668179899,-0.0325498777453322
1761468570425631200,2.47763134765625,0.12414718867242336,-0.006841555865789996,-0.023599345210311002
1761468570435614500,2.487614501953125,0.12489596121311188,-0.016633535060478606,-0.009385866628808434
1761468570445597400,2.497597412109375,0.12070610830783843,-0.00737813896901207,-0.005747562642092816
1761468570455580200,2.507580078125,0.11801263144016265,-0.011630565399234183,0.00591942349410383
1761468570465563400,2.5175634765625,0.12489654573500156,-0.0038207044990500433,0.01514176784098381
1761468570475546400,2.52754638671875,0.12744038499891758,-0.0017486508902802597,0.01668209946802817
1761468570485529000,2.537529052734375,0.12010814241468906,-0.0034917271313664967,0.03329091450413689
1761468570495513000,2.54751318359375,0.11965864508152008,-0.006532523024303373,0.03108773277089931
1761468570505496300,2.557496337890625,0.1343225457280874,0.0014054246598912867,0.02418124360135989
1761468570515479300,2.567479248046875,0.13177812194228172,0.0008909860314626712,0.007986181014892645
1761468570525462300,2.577462158203125,0.11082827289402485,0.0006880347797996364,-0.0022305720636621117
1761468570535445200,2.5874453125,0.11950725391209124,-0.0032650308195792603,-0.014301663755031767
1761468570545428200,2.59742822265625,0.11726268985569477,-0.015990886350453364,-0.027862137770920524
1761468570555411500,2.607411376953125,0.11501812579929828,-0.004071010015287902,-0.028959600451693403
1761468570565394400,2.61739453125,0.11890870349705218,-0.01291173006686149,-0.017486639050254597
1761468570575377200,2.627377197265625,0.11681494608819484,-0.006212455048860283,0.005625587080104742
1761468570585360400,2.6373603515625,0.11352291880548,-0.011102779807109617,0.01823540930765448
1761468570595343400,2.64734326171875,0.12115502111911773,0.005364470192196313,0.035603472612693435
1761468570605326300,2.657326416015625,0.1169651682138443,0.007328086998919025,0.03563792287156684
1761468570615310000,2.66731005859375,0.10259878920912742,-0.005789237226196564,0.022396305546502116
1761468570625293300,2.677293212890625,0.13117898700535296,-0.02198658081800677,-0.009686363395745865
1761468570635276300,2.6872763671875,0.1296826109677553,-0.04339336158721707,-0.02396159580157837
1761468570645259300,2.69725927734375,0.13551847751438617,-0.033374957792088385,-0.038614749008556826
1761468570655242200,2.7072421875,0.10484276874363421,-0.022866341060912235,-0.03699644992460962
1761468570665225200,2.71722509765625,0.1344715988099575,-0.015109796091919998,-0.027600434077833778
1761468570675208400,2.72720849609375,0.14060732508599758,0.006191256997204618,-0.0006303063933271914
1761468570685191400,2.73719140625,0.09616554129123688,0.002008796238875948,0.030433588844258338
1761468570695174100,2.747174072265625,0.12325053209364413,0.009697391679836437,0.04710201141338329
1761468570705157400,2.757157470703125,0.12504618333876133,0.005499775593215599,0.04409265069668181
1761468570715140400,2.767140380859375,0.13028349947035311,0.005597756074974313,0.04407699646982364
1761468570725124400,2.777124267578125,0.11576865190565586,0.007022943739616312,0.031222273270227013
1761468570735107000,2.787107177734375,0.12130465872287749,0.0035166081275849136,0.007676585342758334
1761468570745090300,2.79709033203125,0.13028291494846342,0.0017489020520297343,-0.009567853865900542
1761468570755073300,2.8070732421875,0.11157762995660304,-0.005815351198276039,0.0009230924945557489
1761468570765056300,2.81705615234375,0.11621639567315578,-0.009473772099480264,0.00872043412317289
1761468570775039200,2.827039306640625,0.13342472010552883,-0.010124665764754171,-0.004802007153979502
1761468570785022200,2.837022216796875,0.12983400213718413,-0.012788794382003834,-0.011184225854242686
1761468570795005400,2.84700537109375,0.11352350332736968,-0.022360953388619237,-0.021990416742907835
1761468570804988400,2.856988525390625,0.11906009466648101,-0.016845582934049887,-0.022452835206442978
1761468570814971100,2.86697119140625,0.13746610445082186,-0.02186375358935911,-0.033533696584333667
1761468570824954400,2.876954345703125,0.1272907473951578,-0.028471093132253735,0.006919106622517574
1761468570834938400,2.8869384765625,0.10709025540947914,-0.019749209120799787,0.022351352159923406
1761468570844921300,2.89692138671875,0.12923662076592446,-0.021250991985877044,0.013215542168891987
1761468570854904300,2.906904296875,0.10783844342827796,-0.005232939067285042,0.015373030730034223
1761468570864887300,2.91688720703125,0.11546937669813633,0.006179358780145412,0.014306305680819786
1761468570874870300,2.926870361328125,0.11187748968601226,0.024308205865719353,0.013354439182928763
1761468570884853200,2.936853271484375,0.13896131144464016,0.021441436524060553,0.006740169859037268
1761468570894836200,2.946836181640625,0.11217559584975242,0.023302172911621163,0.024043609245936386
1761468570904819200,2.956819091796875,0.10993044727146625,0.017163642757141495,0.024810588730173184
1761468570914802400,2.966802490234375,0.1305804365903139,0.013660866792086744,0.0002827236482291482
1761468570924785400,2.976785400390625,0.11546645408868789,0.009180880966974654,-0.017568125054938717
1761468570934768000,2.98676806640625,0.12190145557224749,-0.0017360768197861034,-0.014806788849132134
1761468570944752000,2.996752197265625,0.11157646091282367,-0.015522276749793671,0.002941567593940999
1761468570954735400,3.0067353515625,0.11666472396254539,-0.030418313643313013,0.008119283042382448
1761468570964718300,3.01671826171875,0.1226508126348257,-0.028805088026705197,0.003362167626188602
1761468570974701300,3.026701416015625,0.11337386572360991,-0.020409499660436994,-0.004643339143681805
1761468570984684300,3.036684326171875,0.11576806738376617,-0.02988514748152811,-0.006643066160113085
1761468570994667300,3.046667236328125,0.1374649354070425,-0.01860409192299703,-0.0058137163636158215
1761468571004650200,3.056650146484375,0.13028233042657375,-0.014745594430516939,-0.00017256638819817453
1761468571014633200,3.06663330078125,0.11591712046563625,0.01398199992167647,-0.0118095752279507
1761468571024616200,3.0766162109375,0.13402385504245756,0.00498492254790035,-0.018995490976935252
1761468571034599400,3.086599365234375,0.12235212194919586,0.006937982569634914,0.004893174302461557
1761468571044582400,3.09658251953125,0.11023206056654453,0.006096719714702339,0.01736202400660841
1761468571054565000,3.106565185546875,0.13162965338230131,0.0017508154479030052,0.030226684078329707
1761468571064549000,3.116549072265625,0.09810966109633446,-0.0006257238330435939,0.018995883702579885
1761468571074532400,3.126532470703125,0.13641630313694475,-0.01127992304736981,-0.00069360372077208
1761468571084515300,3.136515380859375,0.11681319252252578,-0.005076360266085248,-0.009347573595168069
1761468571094494500,3.146494384765625,0.11337094311416149,0.0017609463995613623,-0.016222532831993885
1761468571104477400,3.1564775390625,0.12623977703750133,-0.00509082489956636,0.00583356727497885
1761468571114460200,3.166460205078125,0.12923252911269664,-0.013230898426583735,0.029855441896431148
1761468571124443400,3.176443359375,0.10439327141046524,-0.009263143289793515,0.03238792179940501
1761468571134426400,3.18642626953125,0.11965630699396133,-0.010804544637561775,0.020808707561495245
1761468571144409000,3.1964091796875,0.12908347603082657,-0.009401838232786393,-0.011685309527465142
1761468571154392300,3.206392333984375,0.12953180432021616,-0.017562580088496905,-0.02718444400533335
1761468571164376300,3.216376220703125,0.1316267307728529,-0.022315100386319682,-0.027786154491838532
1761468571174359300,3.226359375,0.11860825924575329,-0.030768556419666856,-0.009770874757866841
1761468571184342300,3.23634228515625,0.12609013943374156,-0.020525947380647995,0.009063936631486285
1761468571194325200,3.2463251953125,0.10888181500136851,-0.005415452602406731,0.023019353365269488
1761468571204308200,3.25630810546875,0.11262275509536265,0.009252579654939473,0.03240915410039015
1761468571214291500,3.26629150390625,0.1232476094841957,0.0091597125980712,0.013249686467088758
1761468571224274400,3.2762744140625,0.12564181114435194,0.003939001683052629,-0.00945256605631439
1761468571234257200,3.286257080078125,0.11352116523981094,0.019132474595098755,-0.02413114139891695
1761468571244240400,3.296240478515625,0.11157587639093398,0.008792901137762236,-0.010729212095739784
1761468571254223400,3.306223388671875,0.11157646091282367,0.00331177544608945,0.013741415506787598
1761468571264206300,3.316206298828125,0.12339783160984516,0.0030172209378157276,0.016293755454279017
1761468571274189300,3.326189208984375,0.11217559584975242,-0.0021111526432971003,0.024454868344392162
1761468571284173300,3.33617333984375,0.12953297336399555,-0.002582297835982172,0.014701054319180548
1761468571294156300,3.34615625,0.11905775657892226,-0.01272326171498862,0.014697983295971061
1761468571304139300,3.35613916015625,0.12743687786757946,-0.00009199826554395257,-0.009701216188294347
1761468571314122200,3.366122314453125,0.12429448818862437,-0.01650568916341872,-0.02063163624482695
1761468571324105200,3.376105224609375,0.1298310795277357,-0.015919608929241075,-0.006070323756476864
1761468571334088400,3.38608837890625,0.11307166790664196,-0.024894673117320052,0.0013039336218615063
1761468571344071400,3.396071533203125,0.1175613805413246,-0.020301230680104344,0.011006503800314385
1761468571354054100,3.40605419921875,0.11412030017673969,-0.01744623968285159,0.0190709217001684
1761468571364037400,3.416037353515625,0.11217501132786273,-0.018366306819970486,0.010743181255587842
1761468571374020400,3.426020263671875,0.1367155783444643,-0.009648779323225607,-0.009168442752154077
1761468571384003300,3.43600341796875,0.12130348967909813,-0.008895573777658865,-0.002304899958486203
1761468571393987000,3.445987060546875,0.11127718570530414,-0.011272342529112939,-0.005663775082468055
1761468571403970300,3.45597021484375,0.12609072395563126,-0.007300399840972386,0.004098032736242749
1761468571413953300,3.465953369140625,0.12115326755344867,0.0032060648906684945,0.012006956396996974
1761468571423936300,3.475936279296875,0.11397066257297991,0.00749118801409495,0.023294612942961975
1761468571433919200,3.485919189453125,0.1289344229489565,0.010445628789340845,0.017276777425548062
1761468571443902200,3.495902099609375,0.12324877852797507,0.006747598538600141,-0.0006125492576393299
1761468571453885400,3.505885498046875,0.11681319252252578,-0.0024516880180337464,-0.0038022897762362844
1761468571463868400,3.515868408203125,0.13102876487970352,-0.001442780403548386,-0.01658679956712294
1761468571473851100,3.52585107421875,0.13476970497369767,-0.0046251573163084685,-0.025822601617197505
1761468571483834400,3.53583447265625,0.12968202644586563,-0.016393113900726893,-0.0193367855451419
1761468571493818400,3.545818359375,0.1257914487481117,-0.028198203608160836,-0.00007073171522933989
1761468571503801300,3.55580126953125,0.11441957538425922,-0.025894557175133375,0.011801040295045822
1761468571513784300,3.565784423828125,0.12085457686781882,-0.023842013126076197,0.022056063574354627
1761468571523767300,3.575767333984375,0.12384732894301413,-0.030428969751356633,0.007451658579660579
1761468571533750300,3.585750244140625,0.12429624175429344,-0.018544520922598895,0.0027946973360027183
1761468571543733200,3.595733154296875,0.12085457686781882,-0.0025374300727271475,0.0026590197589364834
1761468571553716200,3.60571630859375,0.11696341464817524,-0.008786072963109473,0.011477009672182611
1761468571563699200,3.61569921875,0.12414601962864398,-0.0008661758171918336,0.02645534199620597
1761468571573682400,3.625682373046875,0.12384557537734507,0.005895058521116152,0.0297535341582261
1761468571583665400,3.63566552734375,0.11905717205703258,0.008667904784914571,0.015257071633590384
1761468571593648000,3.645648193359375,0.12130115159153937,0.015829274039465234,-0.014480390455957967
1761468571603632000,3.655632080078125,0.11636252614557742,0.004603657870553434,-0.022261242174077777
1761468571613615400,3.665615478515625,0.12743629334568976,0.006065641873137792,-0.01334563710525399
1761468571623598300,3.675598388671875,0.11486673462986946,-0.006934873872163007,-0.0024387257884722203
1761468571633581300,3.685581298828125,0.12564122662246227,-0.010004588757263263,0.0036421855773893183
1761468571643564300,3.695564208984375,0.12175064892470835,-0.009174263996520313,0.009218049480963964
1761468571653547300,3.70554736328125,0.11127718570530414,-0.005480339098739204,0.004319472917600069
1761468571663530200,3.7155302734375,0.11831015308201312,-0.012865098463138564,0.001823998273478355
1761468571673513500,3.725513427734375,0.11606617354750633,-0.014326789063133763,-0.0007484551635687239
1761468571683496200,3.73549609375,0.1314782622128725,-0.02176738967595156,0.003191594548965804
1761468571693479400,3.7454794921875,0.11666472396254539,-0.018592485966882667,0.011309950576163828
1761468571703462400,3.75546240234375,0.10753683013319969,-0.00013534079199307598,0.022866868500586134
1761468571713446400,3.7654462890625,0.11636544875502586,-0.0028924209477903784,0.022023483328870497
1761468571723429000,3.77542919921875,0.13192775954604147,-0.0008262913313752505,0.023585332667978944
1761468571733412400,3.785412353515625,0.10529109703302383,0.005457043846475426,0.013988186492223758
1761468571743395300,3.795395263671875,0.10693652615249157,0.000949552384862909,0.002304500382975675
1761468571753378300,3.80537841796875,0.13402093243300914,0.009986057586729293,-0.02494367934121983
1761468571763361300,3.815361328125,0.11800970883071422,0.010171448065526783,-0.03518080163765699
1761468571773344300,3.82534423828125,0.12189970200657844,0.002005366739351302,-0.03160426974158036
1761468571783327200,3.8353271484375,0.12399579750299453,-0.003268107551010325,-0.019190152749221305
1761468571793310500,3.845310546875,0.10753624561131,-0.0068369870052381885,0.0008864160292665473
1761468571803293200,3.855293212890625,0.11726268985569477,-0.017660605094383934,0.010200475513900164
1761468571813276400,3.8652763671875,0.12130348967909813,-0.019720425984309984,0.010835410133283584
1761468571823260400,3.875260498046875,0.12010521980524062,-0.014961158568580867,0.01765428723474033
1761468571833243400,3.885243408203125,0.1241454351067543,-0.013176617805944988,0.019928193833341355
1761468571843226000,3.89522607421875,0.10963117206394672,-0.012604008974693715,0.0291437842124491
1761468571853209300,3.905209228515625,0.11262392413914203,-0.009337573932606027,0.03860006289607845
1761468571863192300,3.9151923828125,0.12175123344659805,-0.006402388130390318,0.026499281602632253
1761468571873175300,3.92517529296875,0.12773615307509897,0.010388673296070192,0.012838498150580562
1761468571883158300,3.935158203125,0.12878361630141735,0.011080911610240581,0.003171312096051406
1761468571893141200,3.945141357421875,0.13057868302464484,0.01083484387770295,-0.0046016006274963725
1761468571903124200,3.955124267578125,0.1250420916855335,0.007022846699849469,-0.004545020735205616
1761468571913107500,3.965107421875,0.12025368836522102,-0.0031841498863825106,-0.0015206679453491233
1761468571923091500,3.975091552734375,0.12010463528335094,0.001904367750021629,-0.0025278471103403716
1761468571933074200,3.98507421875,0.12190087105035781,-0.007025683685974217,-0.0018542723974445834
1761468571943057400,3.995057373046875,0.11696283012628554,-0.010913677842641481,-0.005360839763272088
1761468571953040400,4.005040283203125,0.11995616672337055,-0.018460199073434342,-0.0031220912430202584
1761468571963022300,4.015022216796875,0.12669044341444968,-0.015445069628005148,-0.01550646611766424
1761468571973005300,4.02500537109375,0.11980711364150047,-0.01643827734985971,-0.023169066317554096
1761468571982988300,4.03498828125,0.11427052230238914,-0.014747281780815682,-0.010038083459844346
1761468571992971300,4.04497119140625,0.11711422129571437,-0.008329970075929304,0.006061971486662514
1761468572002954200,4.054954345703125,0.12055588618218899,-0.006514558109350036,0.008717143904254772
1761468572012938200,4.064938232421875,0.12713994074761867,-0.01526115757859661,0.020564948233764153
1761468572022921200,4.074921142578125,0.12953355788588522,-0.00981703029591008,0.024216431362461297
1761468572032904400,4.084904541015625,0.13177812194228172,-0.014850771838042419,0.014545678811089601
1761468572042887200,4.09488720703125,0.12309855640232563,-0.02188208154720487,0.014962296787963713
1761468572052870400,4.104870361328125,0.11067805076837539,-0.009334428702516015,0.016571875992626883
1761468572062853400,4.114853271484375,0.12205050865411758,-0.012081118753395275,0.000551653949834872
1761468572072836400,4.12483642578125,0.11486790367364882,0.0006985607403912582,0.005973829695617314
1761468572082819300,4.1348193359375,0.1136708028435707,0.0021981082658981905,-0.004196540657675359
1761468572092802300,4.14480224609375,0.12115268303155899,0.0067479341820289845,-0.0008555893494514748
1761468572102785300,4.154785400390625,0.12504384525120257,0.008526925411645788,-0.01711294689965434
1761468572112769300,4.164769287109375,0.12040507953464984,0.011163267547893338,-0.01096666041369317
1761468572122752300,4.174752197265625,0.11636486423313618,-0.00006696771392016672,0.00005322117471368983
1761468572132735200,4.1847353515625,0.11516776340305805,0.008906385149329435,0.005673216480959672
1761468572142718200,4.19471826171875,0.12489420764744281,0.011254012287978548,0.005533867375773843
1761468572152701200,4.204701171875,0.1123246489316225,0.0007136532782460563,0.006510594320285599
1761468572162684200,4.21468408203125,0.12653963676691055,0.0036570828940661157,0.0046467206941451875
1761468572172667400,4.22466748046875,0.13043079898655413,-0.002572420329361921,0.002598782038257923
1761468572182650400,4.234650390625,0.13462123641371726,-0.014104556580621283,0.0001283390874043107
1761468572192633000,4.244633056640625,0.13626783457696437,-0.015937595535436413,0.00019206567311193793
1761468572202616300,4.2546162109375,0.12639175272881983,-0.01937179064315278,0.0008007812891388311
1761468572212599300,4.264599365234375,0.11157762995660304,-0.016177419615210964,0.006254464134748559
1761468572222583300,4.274583251953125,0.13926058665215968,-0.017457674392318583,0.002542809500743169
1761468572232566300,4.284566162109375,0.11980769816339015,-0.007969775586074684,0.0028243800882133655
1761468572242549200,4.29454931640625,0.11142799235284327,-0.002984354139608331,0.0075334642447531215
1761468572252532200,4.3045322265625,0.12773849116265773,0.00006105399636435322,0.007685453635803423
1761468572262515200,4.31451513671875,0.11905951014459132,-0.002315034335077507,0.02363521567471325
1761468572272498400,4.32449853515625,0.12504501429498194,0.0038988158031366764,0.023562821725360117
1761468572282481200,4.334481201171875,0.1262415306031704,0.0023633704137639142,0.022282574939762708
1761468572292464400,4.34446435546875,0.1222018998235464,-0.003020576230459846,0.011619400117825716
1761468572302447400,4.354447265625,0.13477028949558734,0.010670008704811334,-0.013477275544730946
1761468572312430000,4.36443017578125,0.11157587639093398,0.0152881038093823,-0.02392121812541736
1761468572322414000,4.3744140625,0.12160218036472796,0.0006638570364797487,-0.02629526519682258
1761468572332397300,4.384397216796875,0.12609189299941062,-0.004735071406100178,-0.02151130058960989
1761468572342380300,4.39438037109375,0.12160276488661766,-0.01256001000276301,0.00029204403242329136
1761468572352363300,4.40436328125,0.1118763206422329,-0.018712874643271787,0.01414920628981199
1761468572362346200,4.41434619140625,0.11920856322646141,-0.020835296457610092,0.019930595852981785
1761468572372329200,4.4243291015625,0.11711363677382468,-0.020388443172676487,0.014597564261953811
1761468572382312200,4.434312255859375,0.11950783843398094,-0.015075414331705542,-0.0009175623694900423
1761468572392295400,4.44429541015625,0.12848609465956687,-0.01355502837250242,-0.016459793920279478
1761468572402278100,4.454278076171875,0.11771218718886375,-0.015610848940745926,-0.0158557270799065
1761468572412261000,4.46426123046875,0.1096317565858364,-0.015248431669408454,-0.006464264110662043
1761468572422244400,4.474244384765625,0.1235480537354946,-0.0031746867966488935,0.002879281763359904
1761468572432228400,4.484228271484375,0.1210042144715786,-0.005801435695710825,0.012450167836563195
1761468572442211000,4.494211181640625,0.12564298018813133,0.0010387353555241132,0.016253676888928748
1761468572452194300,4.5041943359375,0.12339841613173484,0.00036744278961559757,0.0115311487289262
1761468572462177300,4.51417724609375,0.12309914092421531,0.0066515942431520664,0.020860750559275037
1761468572472160300,4.52416015625,0.12130290515720843,0.002217001337680267,0.0164801357386983
1761468572482143200,4.534143310546875,0.11337211215794085,0.00607362539183814,0.02315253987443866
1761468572492126200,4.544126220703125,0.1088823995232582,0.007583801625925116,0.02228560029719956
1761468572502109200,4.554109130859375,0.12055354809463023,0.005047120471869129,0.014997217404295224
1761468572512092400,4.564092529296875,0.11531623196303843,0.008166895318572643,0.0022770712366444058
1761468572522075100,4.5740751953125,0.12190028652846813,0.0022290319854801053,-0.006784888066886924
1761468572532059100,4.58405908203125,0.11920680966079235,-0.00639229256970575,-0.013603452357801143
1761468572542042400,4.59404248046875,0.12204992413222789,-0.008270483557210537,-0.00937632933219429
1761468572552027100,4.604027099609375,0.12264847454726695,-0.009824573139904532,-0.01699540320090018
1761468572562010400,4.61401025390625,0.1271381871819496,-0.021575136773171834,-0.025435221151250877
1761468572571993300,4.623993408203125,0.11636486423313618,-0.018641058365942445,-0.017794688935985323
1761468572581976000,4.63397607421875,0.1148690727174282,-0.014762067216349532,-0.010181569884030614
1761468572591959300,4.643959228515625,0.1195090074777603,-0.008870583183586132,-0.0026952555495197883
1761468572601942300,4.6539423828125,0.12310030996799469,-0.008059088704187888,0.0053837913805968125
1761468572611925200,4.66392529296875,0.12953414240777492,-0.01204882734392304,0.009049739142775069
1761468572621908200,4.673908203125,0.12010755789279937,-0.0023971859183977355,0.019965906911669298
1761468572631891200,4.68389111328125,0.12594283991754054,-0.0004638694934605155,0.022312718916276935
1761468572641874400,4.69387451171875,0.12624211512506006,0.004811520476063015,0.028335694116400554
1761468572651858400,4.7038583984375,0.12519406737685204,-0.0027118128170317505,0.027698711387114598
1761468572661841200,4.713841064453125,0.12220014625787734,-0.006500870935647981,0.02516540950023336
1761468572671824100,4.72382421875,0.12908347603082657,-0.00478999933906598,0.008018603713461197
1761468572681807400,4.733807373046875,0.13057926754653454,-0.009119337205198825,-0.0008226140950340777
1761468572691790300,4.743790283203125,0.12070260117650031,-0.013560646404180442,-0.0034095458652940577
1761468572701773000,4.75377294921875,0.12145137371718882,-0.012942603554093511,-0.018110588768031448
1761468572711756300,4.76375634765625,0.12264847454726695,-0.01824130475890124,-0.025036241579055783
1761468572721739300,4.7737392578125,0.11950666939020156,0.000494624249683693,-0.026498139958316458
1761468572731722200,4.78372216796875,0.12698854957818984,-0.0041275339670071845,-0.028244159358448814
1761468572741705200,4.793705322265625,0.1257914487481117,-0.008675058328197337,-0.010836670508608221
1761468572751689200,4.803689208984375,0.11337152763605117,-0.008048213400435633,0.006579588452866301
1761468572761672200,4.813672119140625,0.13057926754653454,-0.01119491164503852,0.021183988880983086
1761468572771655400,4.823655517578125,0.11561550717055796,-0.0012106726977042853,0.036018501420679964
1761468572781638100,4.83363818359375,0.11965572247207164,0.0010043730032630264,0.028438254875154233
1761468572791621000,4.84362109375,0.12100246090590953,0.00930584992035874,0.02741773217139998
1761468572801604400,4.853604248046875,0.12115209850966929,0.0022511319361452477,0.008193531022104435
1761468572811587300,4.86358740234375,0.12593991730809212,0.0045423561373725534,-0.006019988658593501
1761468572821570000,4.873570068359375,0.11935586274266242,0.01121743286245619,0.002155780661245808
1761468572831553300,4.88355322265625,0.12474340099990368,0.008572426787496078,0.000006600987433921545
1761468572841537300,4.893537353515625,0.12399521298110484,0.016537683745368847,-0.01256515653533861
1761468572851520300,4.903520263671875,0.12264905906915664,0.006776841757749207,-0.004691021060175262
1761468572861503500,4.91350341796875,0.11546645408868789,0.005509438470704481,-0.002653281854605302
1761468572871486200,4.923486328125,0.12863456321954728,-0.01705684307304327,0.006281137512542773
1761468572881469200,4.93346923828125,0.12609072395563126,-0.025459054117987396,0.01969054686927702
1761468572891452400,4.943452392578125,0.11786007122695445,-0.02015231459555216,0.01119163512585219
1761468572901435100,4.95343505859375,0.12773615307509897,-0.017126058684621238,-0.0019693113285698927
1761468572911418000,4.963418212890625,0.12354630016982554,-0.017024549380282406,0.0022235235516563988
1761468572921401300,4.9734013671875,0.1202542728871107,-0.009966218091809424,-0.00467408362510614
1761468572931384300,4.98338427734375,0.12429448818862437,0.00509907099645934,-0.008442891256848816
1761468572941368300,4.993368408203125,0.13851064506769178,-0.0025727788056770806,-0.014060685472853947
1761468572951351000,5.00335107421875,0.14314941078424454,0.008494856622815131,-0.01552519821759779
1761468572961334300,5.013334228515625,0.12489420764744281,0.010942169859830755,-0.012346467716782354
1761468572971317200,5.023317138671875,0.11995675124526023,0.0045441405274381395,0.0022859988951939155
1761468572981300500,5.033300537109375,0.12803776637017728,-0.0027988186719827353,0.0022140753032988867
1761468572991283200,5.043283203125,0.1178624093145132,0.0012265518284926655,0.014036487179936375
1761468573001266200,5.05326611328125,0.12474573908746242,-0.0014103702630673069,0.010694028901215642
1761468573011249400,5.06324951171875,0.12953414240777492,-0.003167851772130234,0.029158833367819895
1761468573021232400,5.073232421875,0.11516834792494773,-0.009166448299534386,0.02071834184732288
1761468573031216000,5.083216064453125,0.1314782622128725,-0.011181915166147518,0.018523795511689967
1761468573041199000,5.09319921875,0.1275876845151186,-0.010694431901659118,0.00829814217404928
1761468573051182300,5.103182373046875,0.11352174976170062,-0.00952301236046478,-0.007752504689758643
1761468573061165300,5.113165283203125,0.12384615989923477,-0.002733062242681626,-0.014325795832579024
1761468573071148000,5.12314794921875,0.12294833427667617,-0.005948285404051421,-0.020672838188183957
1761468573081131300,5.13313134765625,0.12010521980524062,0.020745720761304254,-0.013541426822124048
1761468573091115000,5.143114990234375,0.10005378090143204,0.09577759228642098,0.054122050809860225
1761468573101098000,5.153097900390625,0.03810264390110969,0.31461905325427647,0.1483989470765926
1761468573111081000,5.1630810546875,0.16304653590917587,0.6694485363438725,0.042555463158083146
1761468573121065000,5.17306494140625,0.2869464718222618,0.6231476806789636,-0.005057785713067278
1761468573131048000,5.1830478515625,0.24864041430354117,0.2567278774355538,0.07080474849950988
1761468573141031000,5.193031005859375,0.006824293062090874,-0.1751898868358694,0.07113047788911499
1761468573151014100,5.20301416015625,0.08702829511165619,-0.4867505936991423,-0.06778778899824246
1761468573160996900,5.212996826171875,0.07834756052792072,-0.6976571243487298,-0.2448520183386281
1761468573170980000,5.22297998046875,0.1549631826967001,-0.8095731194142252,-0.3573629470899701
1761468573180963000,5.232963134765625,0.1406014798671007,-0.7832119128417223,-0.2939475462233648
1761468573190946000,5.242946044921875,0.08419219490289688,-0.6620869215346873,-0.10144983836971223
1761468573200929000,5.252928955078125,0.0668371554762125,-0.4947767002990469,0.10199327933033928
1761468573210912000,5.262912109375,0.14300386483371258,-0.31657924741134047,0.21570856063645333
1761468573220896000,5.27289599609375,0.07088029338717461,-0.08467946696318686,0.16273589905742555
1761468573230879000,5.28287890625,0.17098960386812687,0.1116891092407517,0.06836378965475597
1761468573240862000,5.292862060546875,0.06893617358207703,0.3383826080163941,0.023293163054680915
1761468573250845000,5.302844970703125,0.18176409586071968,0.4665209121515974,0.042670426740683616
1761468573260828000,5.312827880859375,0.23802841939628122,0.5861811646683142,0.08738828753046692
1761468573270811100,5.32281103515625,0.07507306890189647,0.6638336190715431,0.13167550181802362
1761468573280793900,5.3327939453125,0.06639291884005069,0.6551075109761207,0.17087522024083882
1761468573290777000,5.342777099609375,0.16605039390027523,0.5165936145054176,0.1323890569148585
1761468573300760000,5.352760009765625,0.1636544386744499,0.37318726981803774,0.059329136199969795
1761468573310744000,5.362744140625,0.09257482332289219,0.20757647291142492,-0.02833623753909487
1761468573320727000,5.37272705078125,0.11891045706272124,0.04189152848978992,-0.12608449514424427
1761468573330710000,5.3827099609375,0.18534955313205717,-0.14265628437190317,-0.18099886537557466
1761468573340693000,5.39269287109375,0.1600607980966568,-0.23524770263656972,-0.13253233784306795
1761468573350676000,5.402676025390625,0.012967618122696875,-0.30143483323883263,-0.06807374806646257
1761468573360659200,5.4126591796875,0.10589315457940102,-0.4011802057782188,-0.030170455812488214
1761468573370642000,5.422641845703125,0.1624567533224821,-0.4411543426396325,-0.039279487394448365
1761468573380625000,5.432625,0.14375322189629078,-0.39566118662841615,-0.04359497597338632
1761468573390609200,5.442609130859375,0.04514262554049492,-0.3153776530692354,-0.02066658426062204
1761468573400592100,5.452592041015625,0.1260977382183075,-0.2775421904706396,-0.012517385570588522
1761468573410574800,5.462574951171875,0.1694938123524189,-0.19772894130432977,0.03982510204585269
1761468573420558000,5.47255810546875,0.11083645620048045,-0.06132564377943053,0.12656996797309256
1761468573430541000,5.482541015625,0.08360182779431342,0.05479525106342043,0.18009236325621603
1761468573440524000,5.49252392578125,0.12759352973401547,0.13281926502566785,0.15466726849004625
1761468573450507000,5.502507080078125,0.16096154632866383,0.20681042044237255,0.0787825726780109
1761468573460490000,5.512489990234375,0.11906243275403976,0.2879081016623415,-0.011172925858804956
1761468573470473000,5.522472900390625,0.10424655641615391,0.3259442744648084,-0.07322268266170286
1761468573480457000,5.53245703125,0.14734160177707673,0.3005630919056013,-0.11799818278970196
1761468573490440000,5.54243994140625,0.15841536897718905,0.2650998200647533,-0.1084662016714923
1761468573500423000,5.5524228515625,0.11935995439589023,0.19267377680661155,-0.06974155341451987
1761468573510406100,5.56240625,0.11442191347181796,0.10502416232568211,-0.03844090854530222
1761468573520389000,5.57238916015625,0.14375146833062172,0.015319798138877376,-0.014447266787779517
1761468573530371800,5.582371826171875,0.12220423791110514,-0.0673382642656099,0.000521384392445907
1761468573540355000,5.59235498046875,0.10813888767957687,-0.12335064973356201,0.018295121871947775
1761468573550338000,5.602338134765625,0.11846446686089038,-0.17328876592228187,0.02409996994251851
1761468573560321000,5.612321044921875,0.12998656235039233,-0.2231958841845393,0.046438181776367125
1761468573570305000,5.622304931640625,0.11786591644585132,-0.2361001912800595,0.0610570742374286
1761468573580288000,5.6322880859375,0.1157709899932146,-0.2192471465587616,0.05230460785804316
1761468573590271000,5.64227099609375,0.10484744491875171,-0.1901515465863049,0.039298045964445916
1761468573600254000,5.65225390625,0.12624503773450851,-0.15560467720432206,0.0076456353653571564
1761468573610237200,5.6622373046875,0.12789163589775562,-0.08522144661908969,-0.014088715124095324
1761468573620220000,5.672219970703125,0.12609598465263844,-0.032311146219167856,-0.032864234074263365
1761468573630203100,5.682203125,0.12400105820000171,0.021879487731319387,-0.034770252641965635
1761468573640186000,5.69218603515625,0.1287894615203142,0.07098833403864409,-0.02396095191418426
1761468573650170000,5.702170166015625,0.13567279129326343,0.11963048756611533,0.0030113700106972827
1761468573660152800,5.71215283203125,0.11607026520073413,0.1404326991714537,0.01427162024321733
1761468573670136000,5.722135986328125,0.12415011128187178,0.15113438165616244,0.018517840694938784
1761468573680119000,5.732119140625,0.13148176934421063,0.16484443391030654,0.013499270464119036
1761468573690102000,5.74210205078125,0.11846329781711101,0.14439613204286433,0.0025232850996544584
1761468573700085000,5.7520849609375,0.1320803197592497,0.10349880678877234,0.0014118920749402605
1761468573710068000,5.76206787109375,0.14794249027967452,0.06795351922027766,-0.0008582151313778013
1761468573720051000,5.772051025390625,0.11681786869764327,0.018209974613942904,0.008344915341667364
1761468573730035000,5.782034912109375,0.11906243275403976,-0.014646682366996537,0.007717691387992817
1761468573740018000,5.792017822265625,0.114873164370656,-0.055790650742361315,0.012836114397249184
1761468573750001000,5.8020009765625,0.1301361999541521,-0.0891964146646671,0.02182530757538043
1761468573759984000,5.811984130859375,0.12774199829399585,-0.1127530486778356,0.014899186690186614
1761468573769967000,5.821967041015625,0.11412497635185719,-0.1261204067078419,0.006710567021928727
1761468573779949800,5.83194970703125,0.1214572189360857,-0.12062569088223389,0.0001776695382897742
1761468573789933000,5.84193310546875,0.12564707184135912,-0.11724130914094857,-0.012972499793791212
1761468573799916000,5.851916015625,0.1223550445586443,-0.07592613750069867,-0.012191651614406145
1761468573809900000,5.861900146484375,0.11741700363457203,-0.05807678891816176,-0.007805125359562225
1761468573819883000,5.871883056640625,0.11711831294894218,-0.03150964112753281,-0.011025879787642042
1761468573829866000,5.881865966796875,0.12953823406100273,-0.014576570564630673,-0.021465449870598965
1761468573839849000,5.891848876953125,0.12175707866549491,0.016417353292839835,-0.015020945339754689
1761468573849832000,5.90183203125,0.12894026816785334,0.03149843703021761,-0.001072451537102461
1761468573859815200,5.911815185546875,0.1265460665076971,0.0564949813531246,0.010026584818295669
1761468573869798000,5.9217978515625,0.1265460665076971,0.06374571509978268,0.018659523321106097
1761468573879781000,5.931781005859375,0.1269943947970867,0.062152016167552206,0.029890341963164972
1761468573889765000,5.94176513671875,0.13372808696627617,0.07102251943603623,0.023416150113532784
1761468573899748000,5.951748046875,0.12908873672783375,0.0708230239417171,0.01742657714280067
1761468573909730800,5.961730712890625,0.12953706501722334,0.04041905391758773,0.006068426343624014
1761468573919714000,5.971714111328125,0.1237011984705925,0.014621593591512645,0.01304518372080056
1761468573929697000,5.981697021484375,0.12729191643893717,0.0009556601819524076,0.005970098801993299
1761468573939680000,5.991679931640625,0.12370061394870281,-0.017695253999368287,0.01389553520613117
1761468573949663000,6.0016630859375,0.1355219846457243,-0.03404419882316142,0.015357908509427216
1761468573959646000,6.01164599609375,0.11816343808770179,-0.049132434962177646,-0.0013296891176258214
1761468573969630000,6.0216298828125,0.12444821744561195,-0.05673100946554914,-0.010754115924844519
1761468573979613200,6.03161328125,0.1373164668470621,-0.06047206829055212,-0.01654058808850823
1761468573989596000,6.041595947265625,0.11442191347181796,-0.05360972650670446,-0.023809366665221748
1761468573999579000,6.051578857421875,0.12399930463433265,-0.0530324563417118,-0.01971006442049984
1761468574009562000,6.06156201171875,0.1277402447283268,-0.04070174788306467,-0.007466171162202954
1761468574019545000,6.071545166015625,0.1177145252764225,-0.024528246391145512,0.011858101961237844
1761468574029527800,6.08152783203125,0.12564531827569006,-0.011130282018677098,0.011826375665701924
1761468574039511000,6.091510986328125,0.12474807717502116,0.005551278593234019,0.016547255291312468
1761468574049495000,6.1014951171875,0.12040858666598796,0.012482294849253957,0.020457213542971295
1761468574059478000,6.11147802734375,0.12609423108696938,0.016562209690205054,0.03384100211797049
1761468574069461000,6.1214609375,0.12325111661553383,0.02697744790785946,0.03531998862934997
1761468574079444000,6.13144384765625,0.12175415605604648,0.033066250319231764,0.022148472831852267
1761468574089427000,6.141427001953125,0.12743980047702788,0.03027029260790441,0.02166644776883768
1761468574099410000,6.151409912109375,0.12474573908746242,0.030943778272543566,0.003869589708652347
1761468574109392600,6.161392578125,0.11980711364150047,0.027421161670924628,-0.020556605097104327
1761468574119376600,6.171376708984375,0.1201058043271303,0.01666593606780516,-0.036728779998328534
1761468574129359600,6.181359619140625,0.12549275806248186,-0.0017224033458158373,-0.03720303046355257
1761468574139342800,6.1913427734375,0.1262415306031704,-0.024203457716456614,-0.043766935006808484
1761468574149325800,6.201325927734375,0.13806290130019186,-0.022935191346309145,-0.03529782931318041
1761468574159308500,6.21130859375,0.12295008784234523,-0.033990203613601624,-0.02647056924809003
1761468574169291800,6.221291748046875,0.11621639567315578,-0.03324331250274554,0.005686585135897621
1761468574179274800,6.231274658203125,0.12115502111911773,-0.035684577308176084,0.02752511980232084
1761468574189258000,6.241258056640625,0.13507131826877594,-0.041248641176102684,0.05117692813551984
1761468574199241700,6.25124169921875,0.13402385504245756,-0.02953719712696038,0.05979173047672957
1761468574209224700,6.261224609375,0.12579378683567047,-0.01746614196820883,0.054308221031725404
1761468574219207700,6.271207763671875,0.11127835474908351,0.0023279862898401915,0.040286061487952246
1761468574229191000,6.28119091796875,0.13073007419407368,0.009680203083017841,0.020824475952784995
1761468574239173600,6.291173583984375,0.12683949649631976,0.012694418071350083,0.01324787810249254
1761468574249156600,6.301156494140625,0.14030629631280897,0.020459252519719303,-0.0011991192572284488
1761468574259139800,6.311139892578125,0.11396949352920055,0.012558893474622163,-0.02640899352027336
1761468574269123800,6.321123779296875,0.14344810146987438,0.008661525276477913,-0.04544244873728603
1761468574279106800,6.33110693359375,0.13432020764052868,0.010559316013596253,-0.06416284453331027
1761468574289089800,6.34108984375,0.1150169567555189,-0.003909702523332089,-0.06330635100156068
1761468574299072800,6.35107275390625,0.12459434791803359,-0.009135698109888471,-0.04554512366047129
1761468574309055700,6.3610556640625,0.11471885059177875,-0.015332710136089008,-0.005710023093700874
1761468574319039000,6.3710390625,0.12279986571669578,-0.0252084494909388,0.02571799046525266
1761468574329021700,6.381021728515625,0.12669161245822905,-0.013446591570455347,0.038589418204477983
1761468574339005700,6.391005615234375,0.11965806055963038,-0.012817085469793528,0.04538834392987191
1761468574348988700,6.40098876953125,0.12250059050917625,-0.012253816430689766,0.048794412346580066
1761468574358972000,6.410971923828125,0.13656652526259422,-0.004128910790052032,0.04504938516593538
1761468574368954600,6.42095458984375,0.12609130847752092,0.0031757336844864766,0.036810208920796866
1761468574378937600,6.4309375,0.11830956856012344,-0.005378709921747213,0.0048471546200918965
1761468574388920800,6.4409208984375,0.11920680966079235,0.01402357061614748,-0.06204519022563472
1761468574398903800,6.45090380859375,0.0768581987529993,0.03307528529234696,-0.21843066081041468
1761468574408886800,6.46088671875,0.10708499471247196,0.059848826392251066,-0.4937868855440989
1761468574418870800,6.470870849609375,0.13716624472141264,0.06593622458111495,-0.6829753227192908
1761468574428853800,6.480853759765625,0.1480950504928827,0.05763146543661132,-0.6349388754334301
1761468574438836700,6.490836669921875,0.11757424002289771,0.040937529400316995,-0.3569566313114017
1761468574448819700,6.50081982421875,0.0942342809677124,0.0024411415078444405,0.006679988078930182
1761468574458802700,6.510802734375,0.08420973055958747,-0.02837716548781609,0.26957466392386703
1761468574468785700,6.52078564453125,0.09573241057097912,-0.036022273413499346,0.24609131434261797
1761468574478769000,6.530768798828125,-0.18962591527700423,-0.037023356197844255,-0.015790261769905917
1761468574488753000,6.5407529296875,0.0878027866154909,0.015585447354719508,-0.5514325439028441
1761468574498735600,6.550735595703125,0.20796119791269302,0.04688173342593945,-0.8644629397261887
1761468574508718800,6.56071875,0.017021861949563025,0.04044082279140129,-0.7739419071279465
1761468574518701800,6.570701904296875,0.07372749951183795,0.041254185000900175,-0.43993612595628945
1761468574528684800,6.580684814453125,0.05650748464167118,0.008835384006041566,-0.027845490313507616
1761468574538667800,6.590667724609375,0.21975041990578173,-0.056417093811323864,0.18813479993641374
1761468574548650800,6.600650634765625,0.3342068201690912,-0.08749974854830651,0.45678895148187876
1761468574558634800,6.610634765625,0.2674526668012142,-0.15546004456924273,0.9129040953554213
1761468574568617700,6.62061767578125,0.33418227024972436,-0.19216927961688487,1.3481721199028194
1761468574578600700,6.6306005859375,0.35647885773181914,-0.21825428133020175,1.6532414006538687
1761468574588583700,6.640583740234375,0.4631804060846567,-0.252642909676861,1.8531557779721914
1761468574598566700,6.650566650390625,0.37865211109519004,-0.2576875162479468,2.072298295112699
1761468574608550000,6.6605498046875,0.379424264511466,-0.21370629916964098,2.161350058875978
1761468574618532600,6.67053271484375,0.3640314650684595,-0.10698667630399576,2.0728606051705776
1761468574628516600,6.6805166015625,0.44484395440518854,-0.029597322966495993,1.8681182231739162
1761468574638499800,6.690499755859375,-1.0923895787596702,-0.09358734309999271,1.391098384568095
1761468574648482800,6.70048291015625,-1.0064198527902364,0.1464561059131287,-1.4389219197556375
1761468574658465800,6.7104658203125,0.8481646428108215,-0.09339441434377804,-3.474162549975514
1761468574668448800,6.72044873046875,0.5243675729751587,-0.4612072063155472,-2.4981778751984236
1761468574678431700,6.730431640625,-0.10458382554650306,0.050697044797241686,-2.07762606600672
1761468574688414700,6.740414794921875,-0.30733459533452984,0.12069933150717987,-2.249731083770841
1761468574698398700,6.750398681640625,0.8708025910764932,0.7442359201721847,-1.3951527745254337
1761468574708381700,6.760381591796875,-0.05214285969138145,1.0434936651002615,-0.3997484924746677
1761468574718364700,6.77036474609375,0.1479337224513292,-0.26868818167923014,1.7066843831583856
1761468574728348000,6.780347900390625,-0.31790158205628394,-0.12585855916757135,1.5217171073421836
1761468574738331000,6.790330810546875,0.04555354442894458,0.005225239818019326,0.33756983032878485
1761468574748313600,6.800313720703125,0.4964052148163318,0.0337002533568535,-0.8744070453092455
1761468574758296800,6.810296875,0.07802081279158592,0.15586555663021281,-1.5218183757595718
1761468574768280800,6.82028076171875,0.2975473608136177,0.2073207628509961,-1.8496664745517073
1761468574778263800,6.830263916015625,-0.2978349455833435,0.1273001362780109,-1.629436162174493
1761468574788246800,6.840246826171875,0.658071110022068,-0.24645229314211756,-0.3159103717064485
1761468574798229800,6.850229736328125,0.07284779406785964,-0.26536771375332024,1.5015530018441379
1761468574808212700,6.860212646484375,-0.08891045559644699,-0.20570618552751838,2.722580212563276
1761468574818195700,6.87019580078125,-0.20069325273633,-0.23578381880726665,2.8544948203667997
1761468574828179700,6.8801796875,0.34113574264943597,-0.21652740273866802,1.7610794056907295
1761468574838162700,6.89016259765625,0.1452414146274328,0.028376982824725564,0.259052393126674
1761468574848145700,6.900145751953125,0.0038145898520946502,0.24293064008830115,-0.9627204117953777
1761468574858129000,6.91012890625,0.17618892607688902,0.2441711416686885,-1.4613777894526718
1761468574868112000,6.92011181640625,0.37311318166852,0.14487113827662543,-1.3266526542730628
1761468574878094600,6.930094482421875,0.11334580867290496,0.15464564118012786,-0.8493619628366083
1761468574888077800,6.940077880859375,-0.04810848960876465,0.14008438805728218,-0.44747912521436806
1761468574898061800,6.950061767578125,0.16064122833311556,0.02065843748678453,-0.2108029424109496
1761468574908044800,6.960044921875,0.288587224766612,-0.08891538749989121,0.0036156514802016316
1761468574918027500,6.970027587890625,0.13521335708796978,-0.024084251783578654,0.24042998237898572
1761468574928010800,6.9800107421875,0.013706453791260719,0.0687345317964442,0.08907957421881146
1761468574937993700,6.98999365234375,-0.09911913039982319,0.044534910004888656,-0.30430958495754745
1761468574947976700,6.999976806640625,0.5480711046457291,-0.12053622250049374,-0.4603065676813945
1761468574957959700,7.009959716796875,0.11323182690441608,-0.07768860342884436,0.007181002111849375
1761468574967943700,7.019943603515625,-0.03580430383086204,-0.03339207560695941,0.652161739847809
1761468574977926700,7.0299267578125,-0.004829319852590561,-0.10734972832957282,1.0717661851868032
1761468574987910000,7.039909912109375,0.28800796357393266,-0.17371482758093623,1.0146318738836795
1761468574997892900,7.049892822265625,0.09062836543023586,-0.03272164041593205,0.6095202104080468
1761468575007875600,7.05987548828125,-0.03148527158796787,0.064694827951584,-0.023341077866614796
1761468575017858800,7.06985888671875,0.17186638670265675,0.039471530234673986,-0.6138879040982573
1761468575027842800,7.0798427734375,0.2785556600958109,0.007938766243169084,-0.8300565930597483
1761468575037825800,7.08982568359375,0.16902444127500058,0.059641946742497384,-0.6222377992924303
1761468575047808800,7.099808837890625,0.013554478099942207,0.04330198894275818,-0.2034642883522436
1761468575057791700,7.109791748046875,0.12443769605159759,-0.051180019708327015,0.07379795266585425
1761468575067774700,7.119774658203125,0.2107809315085411,-0.09711292341025546,0.1125481554891914
1761468575077758000,7.129758056640625,0.11471300537288188,-0.06919004787844606,0.008092436134652234
1761468575087740700,7.13974072265625,0.027026538613438605,-0.07674307534019462,-0.1613607565130107
1761468575097728500,7.149728515625,0.1829518443405628,-0.10865129418112338,-0.23672097179321572
1761468575107711200,7.159711181640625,0.21228490633070468,-0.10761068082069977,-0.0749970445236191
1761468575117694500,7.169694580078125,0.08374912731051444,-0.04992460825317539,0.2399737813103944
1761468575127677400,7.179677490234375,0.03915770591199398,-0.016202695620362646,0.4931263392761349
1761468575137660200,7.18966015625,0.15422726963758468,-0.005136184711521491,0.5185187738817185
1761468575147643400,7.199643310546875,0.16993629542291164,0.026267034616181625,0.34575510954577476
1761468575157627400,7.20962744140625,0.10453998640477656,0.1071978531029541,0.08134278768799268
1761468575167610400,7.2196103515625,0.08912439060807227,0.12773822630117646,-0.14207264839820563
1761468575177593300,7.22959326171875,0.1910258452028036,0.08038496637335046,-0.2648387031768448
1761468575187576300,7.239576416015625,0.17980360944271087,0.05718663057882804,-0.24606603377088904
1761468575197559300,7.249559326171875,0.08747779244482516,0.0483475042627193,-0.10972717978432774
1761468575207542500,7.25954248046875,0.09406243153214454,0.01067254772176966,-0.017786393748386763
1761468575217525500,7.269525390625,0.15930384224951266,-0.026808105523209086,-0.03160886371830711
1761468575227509200,7.27950927734375,0.144191028791666,-0.050541160115785896,-0.0853467717655003
1761468575237492200,7.2894921875,0.07835165218114852,-0.04227386517114937,-0.1512502996534109
1761468575247475500,7.299475341796875,0.1257879416167736,-0.05509312433172017,-0.1419068451109342
1761468575257458400,7.30945849609375,0.1781634410202503,-0.07259967365884222,-0.056557753524184226
1761468575267441200,7.319441162109375,0.1313292091310024,-0.06919904403565451,0.08910892817745916
1761468575277424400,7.32942431640625,0.0791062699407339,-0.053749673833511764,0.22356484536109492
1761468575287408400,7.339408447265625,0.1157668983399868,-0.031298564793274274,0.24148122673127798
1761468575297391400,7.349391357421875,0.1563175199151039,-0.016382893900811903,0.16493549146093428
1761468575307374600,7.35937451171875,0.12668752080500126,0.014348455188958905,0.0598873272051569
1761468575317357300,7.369357421875,0.10738310087621211,0.02905571320335148,-0.048621498898509884
1761468575327340300,7.37934033203125,0.13686112429499625,0.034531100990693085,-0.103128895764146
1761468575337323500,7.389323486328125,0.15796002642512322,0.04491073931364808,-0.07885286143524572
1761468575347307500,7.3993076171875,0.12010229719579218,0.03973340060783084,-0.010460902848641852
1761468575357290200,7.409290283203125,0.10274375063776969,0.04909043158451095,0.04412429707711562
1761468575367273200,7.419273193359375,0.13566402346491813,0.030801846767915413,0.04341151829841546
1761468575377256400,7.42925634765625,0.14554010531306266,0.016092266648984513,0.002749031563370954
1761468575387239400,7.439239501953125,0.1061854155242443,-0.0010872951964964158,-0.03937636276450939
1761468575397222400,7.449222412109375,0.11710896059870719,-0.012815272538620047,-0.08144429356739856
1761468575407205400,7.459205322265625,0.1426981598854065,-0.03490438214933965,-0.09170713711027055
1761468575417189400,7.469189453125,0.13491817353367805,-0.055021858326951036,-0.05161131009794771
1761468575427172400,7.47917236328125,0.12339724708795546,-0.067181128341984,0.026341588556580243
1761468575437155600,7.489155517578125,0.11905775657892226,-0.08413096623495221,0.09423372384528629
1761468575447138300,7.49913818359375,0.12998188617527484,-0.07066212972500362,0.12155372897996566
1761468575457121300,7.509121337890625,0.11696283012628554,-0.050253694077068936,0.1142789978697896
1761468575467104500,7.5191044921875,0.11187398255467414,-0.02353993632340571,0.09250276273367926
1761468575477088500,7.529088623046875,0.12219839269220828,0.0022575205777364315,0.07185247202073224
1761468575487071200,7.5390712890625,0.13087562014460563,0.008665768768399721,0.05267511253771372
1761468575497054500,7.549054443359375,0.1380564715594053,0.028192262491141443,0.02586982230938738
1761468575507037400,7.559037353515625,0.12174421918392181,0.04193583342239726,0.015308594041562172
1761468575517020400,7.5690205078125,0.12653086893856524,0.06265470955925993,-0.03467382936305366
1761468575527003400,7.57900341796875,0.13565759372413158,0.06703518509923015,-0.09803438563672826
1761468575536987400,7.5889873046875,0.1268289751023054,0.07769002820095047,-0.1388601708914153
1761468575546970400,7.598970458984375,0.11186579924821853,0.05552772548985667,-0.12586347280470653
1761468575556953300,7.608953369140625,0.13595862249732016,0.02390203621762339,-0.07295210382570512
1761468575566936600,7.6189365234375,0.14029928205013276,-0.0050934963472653175,0.03075079471740173
1761468575576919300,7.628919189453125,0.11665712517797946,-0.03958406439817044,0.11631590139172039
1761468575586902300,7.63890234375,0.1147118363291025,-0.05238203874211758,0.1300420736636035
1761468575596886300,7.64888623046875,0.12668226010799408,-0.05919355908760335,0.08988547464106231
1761468575606869500,7.658869384765625,0.13057283780574797,-0.06559004605852532,0.05028713968894444
1761468575616852200,7.668852294921875,0.12548399023413656,-0.05387691694237291,0.02262529884665273
1761468575626835500,7.67883544921875,0.13012217142879962,-0.04819626835691743,-0.015844593764538877
1761468575636818400,7.688818359375,0.13326339206397533,-0.03203746667720843,-0.03630836262917146
1761468575646801400,7.698801513671875,0.1274269409954548,-0.018444612203590803,-0.047278614655882116
1761468575656785400,7.708785400390625,0.12488310173153877,-0.013160245484812184,-0.03990028617391363
1761468575666768400,7.718768310546875,0.13850070819556712,-0.005815801006136462,-0.04151925654471852
1761468575676751400,7.72875146484375,0.13356325179338455,0.0006772371078608557,-0.03728032891688635
1761468575686734300,7.738734375,0.1250344929009676,0.011819206139398738,-0.028024481875915077
1761468575696717300,7.74871728515625,0.13117021917700766,0.02802150446753949,-0.010296919342409819
1761468575706700300,7.7587001953125,0.12279109788835048,0.04405371605893597,0.02292821133296238
1761468575716684300,7.768684326171875,0.1183025542974472,0.044829294408159324,0.06699126832569018
1761468575726667500,7.77866748046875,0.12608370969295501,0.05057213520936202,0.0897616747314576
1761468575736650500,7.788650390625,0.11171616164445876,0.04740370234027504,0.10414015516592189
1761468575746633200,7.79863330078125,0.131316934171319,0.039572547490312714,0.08232334142425098
1761468575756616400,7.808616455078125,0.15286416459083557,0.043273849693662485,0.013617720628459937
1761468575766599400,7.818599365234375,0.09136077135801315,0.014430740344664081,-0.02369465652765939
1761468575776583400,7.82858349609375,0.17530746706724165,0.009332313235598848,-0.05665328632052988
1761468575786566400,7.83856640625,0.11470423754453658,-0.01797291902163415,-0.021268936351232694
1761468575796549400,7.84854931640625,0.10123568416237831,-0.040103576493938455,0.01063941035385942
1761468575806532400,7.858532470703125,0.1372989311903715,-0.03591155903104227,0.018394490593194496
1761468575816515300,7.868515380859375,0.11500117466449737,-0.058859664657851675,0.007707007880485616
1761468575826498300,7.878498291015625,0.12697159844338893,-0.06068680701977573,-0.02680737715413561
1761468575836482300,7.888482421875,0.1413379774481058,-0.043537633462692606,-0.0554825072417967
1761468575846465300,7.89846533203125,0.12532675384581088,-0.0483555277389707,-0.04905513194226659
1761468575856448500,7.908448486328125,0.12547697597146035,-0.033140158088947644,-0.013932686595455742
1761468575866431500,7.918431396484375,0.12712357413470746,-0.017943722609902034,0.012613968679704702
1761468575876414200,7.928414306640625,0.11470423754453658,0.006786844845244195,0.02745729243023088
1761468575886397400,7.9383974609375,0.12398118445575236,0.018967229571897767,0.03118943501312751
1761468575896381400,7.94838134765625,0.12637538611590862,0.03358159084666986,0.024887451075378337
1761468575906364400,7.958364501953125,0.10976561209857463,0.051706737863016314,0.02537653835013043
1761468575916347400,7.968347412109375,0.13879530722796915,0.05573657333441078,0.030493420139560475
1761468575926330400,7.978330322265625,0.11440496233701705,0.0574034471007064,0.03155133169465698
1761468575936313300,7.988313232421875,0.1212871230661869,0.029861524577345696,0.021185007227712774
1761468575946296600,7.998296630859375,0.12457856582701206,0.0030721637121576347,-0.0073788719046628095
1761468575956280600,8.008280517578125,0.11649813522398471,-0.026403835571254603,-0.031757435026275926
1761468575966261500,8.018261474609375,0.12667290775775908,-0.03455293379658833,-0.02911467456568498
1761468575976244500,8.028244384765625,0.1308633451849222,-0.04279075148499105,-0.016539706739096435
1761468575986227200,8.038227294921874,0.11470248397886752,-0.04350491850317921,-0.010676696457213256
1761468575996211200,8.048211181640625,0.11574936268329619,-0.050463468936807476,0.022482291913079096
1761468576006194400,8.0581943359375,0.13879413818418979,-0.05742202850359026,0.034647582960233556
1761468576016177400,8.068177490234374,0.11799451126158236,-0.03685829269608948,0.0479068386899773
1761468576026160400,8.078160400390624,0.12128595402240752,-0.025897434118809178,0.04360464798402972
1761468576036143400,8.088143310546876,0.130113988122344,-0.00390771263728966,0.022364259590557774
1761468576046126300,8.098126220703126,0.12906594037413596,0.011641815162322018,0.011132984290772583
1761468576056110300,8.1081103515625,0.12951426866352558,0.026096614519297144,-0.0017950027911458164
1761468576066093600,8.118093505859376,0.11080956819355488,0.03753473065292928,-0.01061895208772039
1761468576076076300,8.128076171875,0.12442659013569354,0.030703519226284694,-0.01400324021417182
1761468576086059300,8.138059326171875,0.12996318147480487,0.037129793980694374,-0.015656302367534954
1761468576096042500,8.14804248046875,0.12143442258238792,0.02265803207247518,-0.013040651392866857
1761468576106024700,8.158024658203125,0.1093137766778469,0.014266871002863626,0.005291156077524646
1761468576116008700,8.1680087890625,0.12741992673277855,0.0010860770620114634,0.025803355777321846
1761468576125992000,8.177991943359375,0.11993863106667994,-0.010307076551887439,0.02772128626181511
1761468576135974700,8.187974609375,0.1332557932794094,-0.01506446482107276,0.023504837610560932
1761468576145957600,8.19795751953125,0.14013912305235862,-0.018299567434913476,0.016729845316603313
1761468576155940900,8.20794091796875,0.1133528229355812,-0.03071989953892771,0.00563492801389657
1761468576165923800,8.217923828125,0.12367781759500503,-0.03067882317644544,-0.0030969362521660513
1761468576175907800,8.227907958984375,0.12487491842508315,-0.019305050116451457,-0.006264021980960387
1761468576185890600,8.237890625,0.12277940745055675,-0.024962532455450853,-0.006562735499476548
1761468576195873800,8.247873779296874,0.1452250480145216,-0.015390508162864715,-0.00903416939759627
1761468576205856800,8.257856689453124,0.128166945707798,-0.00323797384929494,-0.005280362972163129
1761468576215839700,8.26783984375,0.1224807167649269,-0.0010236884834419469,-0.015326367160270455
1761468576225823700,8.27782373046875,0.12098434072732925,0.006057771377224707,-0.011357737523934338
1761468576235806700,8.287806640625,0.13131050443053244,0.01252311890834244,0.014304316936421672
1761468576245789700,8.297789794921876,0.11066051511168479,0.010337065264774719,0.04195923713087104
1761468576255773000,8.30777294921875,0.11963818681538105,0.01524030887010158,0.06489207668988965
1761468576265755600,8.317755615234375,0.13759411474466324,0.013976554278290131,0.04925375522032845
1761468576275738600,8.327738525390625,0.11170564025044441,0.00815340793262585,0.023413133889250457
1761468576285722600,8.33772265625,0.12412439231872557,0.022008605420147067,-0.009905100163363385
1761468576295705900,8.347705810546875,0.12996025886535645,0.014695542460423894,-0.04283368187784217
1761468576305688800,8.357688720703125,0.14297814587056637,0.005478608365956461,-0.03559134606677107
1761468576315671800,8.367671875,0.12891279563903807,-0.004890607886039651,-0.011684713589132298
1761468576325654800,8.37765478515625,0.12771627933084964,-0.010933217085106297,0.01431986841529142
1761468576335638800,8.387638671875,0.12412556136250495,-0.030024743181886148,0.03827999606227968
1761468576345621800,8.397621826171875,0.12397650828063488,-0.03243125405105529,0.0336340494029806
1761468576355604700,8.407604736328125,0.12352701094746589,-0.037587104727560654,0.03771772482030792
1761468576365587700,8.417587646484375,0.1347498312294483,-0.02530066010232549,0.04633697729106061
1761468576375570700,8.42757080078125,0.1262193187713623,-0.032715267757361284,0.02852588749283459
1761468576385554000,8.437553955078124,0.1193354044765234,-0.022804130578855983,0.008384580631775315
1761468576395538000,8.447537841796875,0.14567220726013183,-0.01808487665475113,-0.005096181494696065
1761468576405520600,8.457520751953124,0.11200374641418456,-0.008646541194833116,-0.010637953615712467
1761468576415503600,8.467503662109374,0.12741641960144043,0.0008602312752394937,-0.017564353062119335
1761468576425486800,8.47748681640625,0.14986264468729496,0.01236400109018432,-0.021063874199229757
1761468576435469800,8.4874697265625,0.10886194125711918,0.00552769564660266,-0.011418258372403215
1761468576445452800,8.497452880859376,0.12232991011738777,0.013909498657757648,-0.004076535573776345
1761468576455436800,8.507436767578126,0.1287643270790577,0.016506176645541562,0.0031534202463342808
1761468576465419800,8.517419677734376,0.1212830314129591,0.017017572791868586,0.01546952022431651
1761468576475402800,8.52740283203125,0.12322890478372574,0.01236975269424729,0.02450708715539658
1761468576485385700,8.5373857421875,0.12921440893411634,0.01510375565184513,0.032446942527242936
1761468576495368700,8.54736865234375,0.1368459267258644,0.007243838214990682,0.023583446671569253
1761468576505352700,8.557352783203125,0.13310498663187026,0.004355072812299477,0.019170945725252384
1761468576515337700,8.567337646484376,0.1203852057904005,-0.004633310940011869,0.0020883391649345866
1761468576525320700,8.57732080078125,0.13669570460021496,-0.0035288202968309632,-0.001815826383465901
1761468576535304000,8.587303955078125,0.137743752348423,-0.014558499476755969,-0.005575927835656329
1761468576545286700,8.59728662109375,0.13131050443053244,-0.016303886405937374,-0.0004894594507990405
1761468576555269600,8.60726953125,0.12263152341246604,-0.01592030533227371,0.006071282737702131
1761468576565252900,8.6172529296875,0.12996435051858424,-0.01810029798616888,0.003624448991299141
1761468576575236900,8.62723681640625,0.12083704121112823,-0.022223273367423097,0.007673954994254745
1761468576585219800,8.6372197265625,0.12562544453144073,-0.03085394684791099,0.016750346965226343
1761468576595202600,8.64720263671875,0.13101181374490262,-0.021603833144693635,0.026858374405722134
1761468576605185800,8.657185791015625,0.12263269245624542,-0.01677596660531708,0.014830658348486759
1761468576615168800,8.667168701171875,0.12233224820494651,-0.005552433937281603,0.02005524742924608
1761468576625152800,8.67715283203125,0.12607318829894065,0.004586945339414524,0.015319743339950218
1761468576635135700,8.6871357421875,0.13340601540505886,0.02462338646184653,-0.0004493580525624566
1761468576645118700,8.69711865234375,0.16438742912411689,0.030351730663527268,-0.016095451836625578
1761468576655101700,8.707101806640624,0.629480390831828,0.07421397698768414,-0.15683078493317587
1761468576665085000,8.7170849609375,-0.5501157622158527,-0.03311844401406124,0.15197646763664668
1761468576675067600,8.727067626953126,0.2684030993938446,0.03374520446014358,-0.01664013262297958
1761468576685051600,8.7370517578125,0.15452946745455265,0.006199505377386231,0.0035051699931849725
1761468576695034600,8.74703466796875,-0.009474515309929847,-0.001798082947509829,0.012531760014168685
1761468576705017900,8.757017822265626,0.1878968995273113,-0.0022481785023002886,-0.045353226950718084
1761468576715000800,8.767000732421875,-0.0016980360895395277,-0.029096869480935855,0.013725338871532584
1761468576724983800,8.77698388671875,0.10289105015397071,-0.024642419955879447,0.02367387403453467
1761468576734967800,8.7869677734375,0.10078735587298869,-0.029830485551687887,0.04909470590082928
1761468576744950800,8.79695068359375,0.34380174698829646,-0.017940075056313072,-0.011283078552258666
1761468576754933800,8.806933837890625,0.08926759847104548,-0.03976375464689918,0.04584219777774997
1761468576764916700,8.816916748046875,0.045569326519966126,-0.04351179576853756,0.048538715985883024
1761468576774899700,8.826899658203125,0.21959727517068384,-0.017176055855787124,0.008407666963129303
1761468576784883700,8.8368837890625,0.11470073041319846,-0.024865218693972565,0.008812594502209685
1761468576794866700,8.84686669921875,0.11095920579731464,-0.022526163020846434,-0.012985459740064107
1761468576804850000,8.856849853515625,0.1711146915525198,-0.010847872322634794,-0.02522966580890352
1761468576814832600,8.86683251953125,0.11574936268329619,-0.004025588554539717,-0.011543250158673617
1761468576824815900,8.87681591796875,0.11185936950743197,-0.003517014552961336,0.012235383441566954
1761468576834798800,8.886798828125,0.13580138610899448,0.0004117876797739882,0.022567355831048914
1761468576844782800,8.896782958984375,0.12338088047504424,0.0003800876420573331,0.02180942045308184
1761468576854765600,8.906765625,0.11814239529967308,-0.0011588603120762854,0.005324044566974043
1761468576864748800,8.916748779296874,0.14223404950499532,0.006128618398529942,-0.013009208225121255
1761468576874731800,8.926731689453124,0.12876608064472675,0.0011700210269074886,-0.009110246291512157
1761468576884714800,8.93671484375,0.1142506485581398,0.0038136240210034883,0.006569564815773628
1761468576894698800,8.94669873046875,0.1268202072739601,-0.01166570635291864,0.02067450498888502
1761468576904681700,8.956681640625,0.13026128763854503,-0.02261849692981923,0.01840780901578255
1761468576914664700,8.966664794921876,0.1290647713303566,-0.037477328776731156,0.01123091225689277
1761468576924648000,8.97664794921875,0.12173369778990745,-0.031049604134040416,0.011909428006387316
1761468576934631000,8.986630859375,0.13804361207783222,-0.023945847959886305,0.030911444622231644
1761468576944614700,8.99661474609375,0.08267769868671894,-0.04216107071274891,0.04180976392389275
1761468576954597600,9.00659765625,0.14477671972513198,-0.0490774168393109,0.034066892428870774
1761468576964580900,9.016580810546875,0.10706745905578136,-0.0462201094457414,0.027028579873475244
1761468576974563800,9.026563720703125,0.10571896705627441,-0.042839499697275456,0.01456987482071854
1761468576984546600,9.036546630859375,0.11933423543274402,-0.04060541593569796,0.00743631944663357
1761468576994529800,9.04652978515625,0.14761457349956034,-0.027462879637512375,-0.004217069705761969
1761468577004513800,9.056513671875,0.12367138785421848,-0.012721012675686505,0.0015829400761984288
1761468577014496800,9.066496826171875,0.12037936057150363,0.012655206014035502,-0.01004636723099975
1761468577024479700,9.076479736328125,0.14043138399720193,0.028766217321041038,-0.03236945456095273
1761468577034462700,9.086462646484375,0.1338484984755516,0.05868813488269224,-0.016050459634140132
1761468577044445700,9.09644580078125,0.12487082677185535,0.07498743644505738,-0.001240661410591565
1761468577054429700,9.1064296875,0.11260112778544425,0.06983449239498003,0.01086727570942603
1761468577064413000,9.116412841796874,0.13998597831726073,0.06388820144354831,0.01453833118827315
1761468577074395600,9.126395751953124,0.14477730424702168,0.05166773929318878,0.024324332733324263
1761468577084378600,9.136378662109376,0.6155605865508318,0.08784244277244434,-0.06537897429084405
1761468577094361900,9.14636181640625,-0.5770604677647352,-0.060370416280673814,0.22819129958534612
1761468577104346000,9.15634619140625,0.15151859520077704,-0.0015312395717133767,0.07595728155763354
1761468577114329000,9.1663291015625,0.45528643796443935,-0.004578110154054593,-0.04263348313062452
1761468577124311800,9.176311767578126,-0.17275018379986284,-0.09732210004837252,0.04759828419745899
1761468577134295000,9.186294921875,0.19729834960103035,-0.056611954229720866,-0.07150400564293377
1761468577144278000,9.196278076171875,0.13953297385275362,-0.05228732336310204,-0.0425121765722055
1761468577154262000,9.206261962890625,0.14521686470806597,-0.0449223566862056,-0.03153035055542132
1761468577164245000,9.216244873046875,0.1509019246071577,-0.028624502728832883,-0.01797570120883174
1761468577174228000,9.22622802734375,0.06635258682966232,-0.025523874398949556,0.0033656610577949323
1761468577184211000,9.2362109375,0.15717968970239163,0.0011378768895519897,-0.022407052986091
1761468577194194200,9.246194091796875,0.14236556693017482,0.02014153062334517,-0.021491696273419073
1761468577204177000,9.256177001953125,0.1526923151552677,0.027735760028450747,-0.017280033395136705
1761468577214161000,9.266160888671875,0.11797697560489177,0.03459547603037208,0.027113675757485908
1761468577224144000,9.276143798828125,0.1125906063914299,0.04536391730809118,0.056447616813750934
1761468577234127000,9.286127197265625,0.1274047291636467,0.04603938715055119,0.05395990535097662
1761468577244110000,9.296110107421875,0.1326420452952385,0.03356274001572747,0.042362657699454576
1761468577254093000,9.306093017578124,0.12545885579288005,0.015466355586273128,0.030516319241246672
1761468577264077000,9.3160771484375,0.13174305062890052,-0.009658132815104909,0.019786070532468145
1761468577274060000,9.32606005859375,0.12815116361677645,-0.01682542263707728,0.016535879947349893
1761468577284043000,9.33604296875,0.13653028490543365,-0.03273147225677967,0.012962631420325487
1761468577294026000,9.34602587890625,0.1167775366872549,-0.0424596563671017,0.02292773412563838
1761468577304009000,9.356009033203126,0.13653028490543365,-0.033549946749524676,-0.005521156307961792
1761468577313993000,9.365992919921876,0.11453297263085842,-0.020813413419364952,-0.04426904387662653
1761468577323976000,9.375975830078126,0.12605506812036038,-0.011569428062834777,-0.07824586285226978
1761468577333959200,9.385959228515626,0.1453600725710392,0.0036690827174694273,-0.08575388212851248
1761468577343942000,9.39594189453125,0.10480945099592208,0.004062594955036184,-0.05260948625586461
1761468577353924900,9.4059248046875,0.11887597027122973,0.024066177270771004,-0.024111406935274134
1761468577363909000,9.4159091796875,0.12576105360984802,0.0262434756440809,-0.005358876135048922
1761468577373892000,9.42589208984375,0.1061596965610981,0.041693151806900274,0.022412133303296285
1761468577383874800,9.435874755859375,0.12112404145896434,0.05365772580031771,0.021133140043157618
1761468577393858000,9.445858154296875,0.12097440385520458,0.06627177211183588,0.01476432881373912
1761468577403841000,9.455841064453125,0.1178314296543598,0.06752109175291843,0.016156392810202667
1761468577413825000,9.465824951171875,0.13010288220643995,0.04974789997939951,0.02520704070185311
1761468577423808000,9.47580810546875,0.11259528256654738,0.021435036466026212,0.04463377640263643
1761468577433791000,9.485791015625,0.11035130303204059,0.009036137592396699,0.049010091790719884
1761468577443774000,9.49577392578125,0.1167863045156002,-0.005238922425144119,0.035852711833140344
1761468577453757000,9.5057568359375,0.11499123779237269,-0.012893776568351313,0.005490941549499985
1761468577463741200,9.5157412109375,0.11948095042705535,-0.008848624796816147,-0.04368568646414205
1761468577473724000,9.525723876953125,0.1260661740362644,-0.00021770357951172626,-0.07361376433852128
1761468577483707000,9.535706787109374,0.12666647801697253,0.02428089773368556,-0.07866833518119529
1761468577493690000,9.545690185546874,0.12547229979634283,0.03898046334867831,-0.05822845408222638
1761468577503673000,9.555673095703124,0.1206862345635891,0.048906526384968306,-0.01075181893648114
1761468577513655800,9.56565576171875,0.11934124969542026,0.043080354681867175,0.021151045592606534
1761468577523639800,9.575639892578126,0.132960025203228,0.03843362485456746,0.033485491794743576
1761468577533623000,9.585623046875,0.12428162870705127,0.02036781365989009,0.017429849095409736
1761468577543606000,9.59560595703125,0.13266250356137751,0.01621531079005217,-0.004802637341641821
1761468577553589000,9.605589111328126,0.12727788791358471,0.010390203099453356,0.017034801346238235
1761468577563572000,9.615572021484375,0.11815116312801838,0.007488992632075678,0.055564824363542716
1761468577573556000,9.625555908203125,0.13072130636572837,0.0027306214071344584,0.06442612141226418
1761468577583539000,9.6355390625,0.13895312813818453,-0.004496245123457629,0.07195640731924213
1761468577593522200,9.645522216796875,0.36701077314019204,-0.0014864482986275105,0.040229490728816014
1761468577603505000,9.6555048828125,0.13672200808525084,-0.05538259966443292,0.06345453643375076
1761468577613487900,9.66548779296875,-0.3481055816620588,-0.10825616651684976,0.1984098910395056
1761468577623471900,9.675471923828125,0.3827238905787468,-0.033465421687671915,-0.0042885754558374175
1761468577633455000,9.685455078125,0.03750935418307781,-0.09796864519044757,0.00975841599344858
1761468577643438000,9.69543798828125,0.07716273465752602,-0.09081861817217432,-0.0905996142597869
1761468577653420800,9.7054208984375,0.1428536427080631,-0.06680439941750373,-0.13228060070485806
1761468577663404000,9.715404052734375,0.028830373165011403,-0.07968190527106635,-0.08830437946207821
1761468577673388000,9.725387939453125,0.11756313410699366,-0.05693066935664974,-0.056606022245856
1761468577683371000,9.73537109375,-0.0008083937734365463,-0.04775276237311773,0.00682828425061889
1761468577693354000,9.74535400390625,0.3037023763120174,0.0015092926013865508,-0.022176287853962275
1761468577703337000,9.7553369140625,0.2612088039755821,0.01784497836809605,0.01517818172808038
