time,seconds_elapsed,z,y,x
1761468568069619500,0.121619384765625,-0.001210831105709076,0.003865749342367053,0.0011290919501334429
1761468568079603500,0.131603515625,0.0007467600516974926,-0.0005765468813478947,-0.0004417113959789276
1761468568089585700,0.141585693359375,-0.0010569989681243896,0.0019478634931147099,-0.0016278832918033004
1761468568099569000,0.15156884765625,-0.0018691266886889935,-0.000641548540443182,-0.0010606939904391766
1761468568109551600,0.161551513671875,-0.00038947444409132004,-0.001581644406542182,-0.001614897744730115
1761468568119534800,0.171534912109375,0.00009815208613872528,-0.0015794069040566683,0.001056196866557002
1761468568129517800,0.181517822265625,-0.0005402076058089733,-0.0016172239556908607,-0.00003490014933049679
1761468568139500800,0.191500732421875,0.0009600087068974972,0.0008540702983736992,-0.0012279243674129248
1761468568149483800,0.20148388671875,0.0011392394080758095,0.0022306586615741253,0.002260283799842
1761468568159466800,0.211466796875,0.00004585739225149155,0.00011714664287865162,-0.0015204825904220343
1761468568169449700,0.22144970703125,0.0005819518119096756,0.00008012866601347923,-0.0009119503665715456
1761468568179433000,0.231432861328125,-0.0017165532335639,0.0008763524238020182,0.0010198240634053946
1761468568189415700,0.241415771484375,0.000048057641834020615,-0.0007819980382919312,0.0034225282724946737
1761468568199398700,0.251398681640625,-0.0028485069051384926,0.000032800016924738884,-0.00033955322578549385
1761468568209382000,0.2613818359375,-0.0016082730144262314,0.001996348612010479,-0.00071532535366714
1761468568219366000,0.271365966796875,0.0010214829817414284,-0.002908495021983981,0.003593804780393839
1761468568229348600,0.2813486328125,-0.0010741585865616798,-0.0002487960737198591,-0.0001932100858539343
1761468568239331800,0.291331787109375,-0.00030247168615460396,0.0010827681981027126,-0.0026961122639477253
1761468568249314800,0.301314697265625,0.0009787753224372864,0.0011924905702471733,0.00009860889986157417
1761468568259297800,0.3112978515625,-0.0011965245939791203,-0.0011263845954090357,0.0003015210386365652
1761468568269280800,0.32128076171875,0.0003587617538869381,0.0013189297169446945,0.0009742353577166796
1761468568279263700,0.331263671875,0.0006201546639204025,0.0010367564391344786,0.0010132333263754845
1761468568289246700,0.341246826171875,-0.000504764262586832,0.000374161871150136,-0.0009223518427461386
1761468568299230000,0.35122998046875,-0.0005246372893452644,-0.0032887100242078304,-0.0003719364758580923
1761468568309212700,0.361212646484375,0.000023175030946731567,-0.000083595747128129,-0.00044251023791730404
1761468568319195600,0.371195556640625,0.0007179616950452328,-0.00181225361302495,0.0011103791184723377
1761468568329179000,0.381178955078125,-0.0009766076691448689,0.0015305462293326855,-0.002492611762136221
1761468568339163000,0.391162841796875,-0.0005299891345202923,0.0007889061234891415,0.000590283190831542
1761468568349145600,0.4011455078125,0.0012258333154022694,0.001150297001004219,0.000818782253190875
1761468568359128800,0.41112890625,-0.0022428776137530804,0.0011831545270979404,0.0014817742630839348
1761468568369111800,0.42111181640625,0.003383582690730691,0.001056654378771782,-0.00006632134318351746
1761468568379094800,0.4310947265625,-0.00045467494055628777,0.001928738784044981,-0.0003519433084875345
1761468568389077800,0.441077880859375,-0.002706910017877817,-0.0010702467989176512,0.0020651419181376696
1761468568399060700,0.451060791015625,0.0001244712620973587,0.001373153179883957,-0.0005378513596951962
1761468568409043700,0.461043701171875,0.0015742960385978222,-0.001281751785427332,0.001304789911955595
1761468568419027000,0.47102685546875,0.0018249177373945713,-0.0018113108817487955,-0.004394570365548134
1761468568429009700,0.481009765625,0.0027503662277013063,0.0015818227548152208,-0.0014475162606686354
1761468568438992600,0.49099267578125,-0.0015184362418949604,0.008677344769239426,0.005502538755536079
1761468568448976000,0.500975830078125,-0.00048246653750538826,-0.0012599739711731672,-0.0012429812923073769
1761468568458958800,0.510958740234375,0.000600260216742754,0.001805801410228014,-0.003078622743487358
1761468568468942600,0.520942626953125,-0.000710547436028719,0.002254277467727661,-0.00024874787777662277
1761468568478925800,0.53092578125,0.0015624347142875195,0.001857072114944458,0.004053846932947636
1761468568488908800,0.54090869140625,-0.0014336216263473034,-0.0038255809340626,-0.0006908404175192118
1761468568498891800,0.550891845703125,0.00024378439411520958,0.002942705061286688,0.000878301914781332
1761468568508874800,0.560874755859375,0.0001614927314221859,-0.0009252703748643398,0.004179822746664286
1761468568518857700,0.570857666015625,0.0002976320683956146,-0.006992258131504059,-0.0007672409992665052
1761468568528840700,0.5808408203125,-0.0003820066340267658,-0.003623891854658723,-0.0033057662658393383
1761468568538824000,0.590823974609375,0.000576443038880825,0.00023626512847840786,-0.00038093188777565956
1761468568548806700,0.600806640625,0.0007420917972922325,0.000706579303368926,0.0034188663121312857
1761468568558789600,0.61078955078125,0.0013340720906853676,0.003172025317326188,0.0008939728140830994
1761468568568772900,0.62077294921875,-0.0030620074830949306,0.0031288822647184134,-0.0014320318587124348
1761468568578755800,0.630755859375,-0.0006660884246230125,-0.0008381868246942759,-0.00020690751262009144
1761468568588739800,0.64073974609375,0.0005464488640427589,-0.0014736170414835215,0.0006578208412975073
1761468568598722800,0.650722900390625,0.0007791658863425255,-0.00297593604773283,-0.0015124654164537787
1761468568608705800,0.660705810546875,0.001980251632630825,-0.0014355636667460203,-0.003232867456972599
1761468568618688800,0.670688720703125,0.0024562464095652103,-0.000021472806110978127,0.0014688381925225258
1761468568628671700,0.680671630859375,-0.0010343589819967747,0.0024976113345474005,0.0008083740249276161
1761468568638654700,0.69065478515625,0.0025216881185770035,0.001920205308124423,-0.0025283913128077984
1761468568648637700,0.7006376953125,0.0022274088114500046,-0.000676110154017806,0.0022338733542710543
1761468568658621000,0.710620849609375,0.0009923405013978481,0.0033342225942760706,0.0010609794408082962
1761468568668603600,0.720603759765625,-0.0016583036631345749,-0.00021763541735708714,0.00014511821791529655
1761468568678586600,0.730586669921875,0.0005627493374049664,-0.0023819985799491405,-0.0012310813181102276
1761468568688569900,0.74056982421875,0.001976354978978634,0.0006305694114416838,0.0004869240801781416
1761468568698552800,0.750552734375,-0.0007520606741309166,0.0009832477662712336,-0.000010981224477291107
1761468568708536800,0.760536865234375,0.00169431883841753,-0.0010764410253614187,0.0004180539399385452
1761468568718519800,0.770519775390625,0.003233613446354866,-0.002203612355515361,0.0011622849851846695
1761468568728502800,0.780502685546875,0.001657022163271904,-0.0007681685965508223,-0.0015783740673214197
1761468568738485800,0.79048583984375,-0.000016001053154468536,-0.0025275805965065956,-0.0013528637355193496
1761468568748468700,0.80046875,-0.0005608838982880116,-0.004226943477988243,-0.0033217386808246374
1761468568758451700,0.81045166015625,-0.0014780866913497448,-0.0021642264910042286,-0.0009090525563806295
1761468568768434700,0.8204345703125,0.002484697150066495,-0.0019378578290343285,0.000386042520403862
1761468568778418000,0.83041796875,0.00022477749735116959,0.0012886838521808386,-0.0002035023644566536
1761468568788400600,0.840400634765625,-0.0011824369430541992,0.0006250243168324232,0.0009291402529925108
1761468568798383600,0.850383544921875,0.0029656626284122467,0.0033662603236734867,0.00043843057937920094
1761468568808366800,0.860366943359375,0.000030326656997203827,0.00140084745362401,0.0007066107355058193
1761468568818349800,0.870349853515625,0.0012241434305906296,0.004429353401064873,-0.0019987444393336773
1761468568828332500,0.88033251953125,0.00044783158227801323,0.00006150291301310062,0.0013480500783771276
1761468568838316800,0.89031689453125,-0.0014099511317908764,0.0001945309340953827,-0.0009601968340575695
1761468568848299800,0.9002998046875,0.0010137916542589664,0.0014129271730780602,0.0024260126519948244
1761468568858282800,0.91028271484375,-0.00017401715740561485,-0.0007653164211660624,-0.0006954031996428967
1761468568868266000,0.920265869140625,-0.0020869653671979904,-0.0007866215892136097,0.00014509051106870174
1761468568878248700,0.930248779296875,0.001563160214573145,-0.002270704135298729,-0.00045052915811538696
1761468568888231700,0.940231689453125,-0.0000722869299352169,0.001024424796923995,0.0010901095811277628
1761468568898215000,0.95021484375,0.001957505475729704,-0.0025971997529268265,-0.0009817732498049736
1761468568908197600,0.96019775390625,-0.0008771633729338646,-0.003003331832587719,-0.0034619751386344433
1761468568918180600,0.9701806640625,-0.000886447262018919,0.000047611771151423454,0.000620794016867876
1761468568928163800,0.980163818359375,0.0007774955593049526,-0.001163593726232648,0.0012532947584986687
1761468568938146800,0.990146728515625,-0.0011533955112099648,-0.0006385364104062319,0.00010919524356722832
1761468568948129500,1.000129638671875,0.00044743064790964127,0.0030483438167721033,0.0019031004048883915
1761468568958113800,1.01011376953125,-0.0007441099733114243,0.0011918144300580025,-0.0004900104831904173
1761468568968096800,1.0200966796875,-0.00024290289729833603,0.0032251374796032906,0.00009854813106358051
1761468568978079700,1.030079833984375,0.00009656185284256935,0.001461358042433858,0.0020749089308083057
1761468568988063000,1.04006298828125,-0.0003194236196577549,0.0026765584480017424,-0.00041860900819301605
1761468568998045700,1.050045654296875,-0.0016585341654717922,0.0014181130100041628,0.0009173061698675156
1761468569008028700,1.060028564453125,0.0010666782036423683,0.0019414240960031748,0.0003524497151374817
1761468569018012000,1.070011962890625,-0.0009973696433007717,-0.0012332252226769924,-0.000533906277269125
1761468569027995000,1.079994873046875,-0.0013917838223278522,-0.00256427307613194,0.00035798619501292706
1761468569037977600,1.0899775390625,0.0011674421839416027,-0.001839332515373826,-0.0010906301904469728
1761468569047960800,1.0999609375,-0.002492006868124008,-0.003766395850107074,-0.0032730905804783106
1761468569057943800,1.10994384765625,-0.0004539918154478073,-0.002251307014375925,-0.000056443968787789345
1761468569067926500,1.119926513671875,0.0003862353041768074,-0.0004579343367367983,0.00012917839922010899
1761468569077910800,1.129910888671875,-0.00031915633007884026,-0.001162954606115818,0.00033788522705435753
1761468569087894000,1.13989404296875,0.0014342688955366611,-0.0008407121058553457,-0.0016080865170806646
1761468569097877000,1.149876953125,0.0011060144752264023,0.0010060821659862995,0.00016955053433775902
1761468569107860000,1.15985986328125,-0.0029403925873339176,-0.001279975287616253,-0.0000994289293885231
1761468569117843200,1.16984326171875,0.0003825873136520386,0.0019936643075197935,-0.001524339779280126
1761468569127826000,1.179825927734375,-0.0019239764660596848,0.0009872557129710913,0.00009699282236397266
1761468569137809200,1.18980908203125,0.0020913868211209774,0.0006953338161110878,-0.0025049294345080853
1761468569147792100,1.199792236328125,0.00192706985399127,0.004895139019936323,-0.000421272125095129
1761468569157775000,1.209775146484375,-0.0023554163053631783,0.0009413883090019226,-0.002823319984599948
1761468569167758000,1.219758056640625,-0.000853127334266901,0.004605898167937994,-0.0008882670663297176
1761468569177741000,1.229740966796875,0.0009319158270955086,0.0015002014115452766,-0.00026608514599502087
1761468569187724000,1.23972412109375,0.0004048761911690235,0.0008546509779989719,-0.0013238927349448204
1761468569197708000,1.2497080078125,0.001322742085903883,-0.0011509449686855078,-0.0018429867923259735
1761468569207691000,1.25969091796875,-0.0019635981880128384,0.0012355134822428226,0.0012859611306339502
1761468569217674000,1.269674072265625,-0.0013732332736253738,-0.0016075943130999804,0.0008257501758635044
1761468569227657000,1.279656982421875,-0.0005883998237550259,-0.004852389916777611,-0.0032672618981450796
1761468569237640200,1.28964013671875,-0.0015431256033480167,-0.0024312741588801146,0.00048659066669642925
1761468569247623000,1.299622802734375,0.0011056545190513134,-0.0009662692900747061,-0.001295596593990922
1761468569257606100,1.309606201171875,0.004604172892868519,-0.0004834244027733803,0.00015723821707069874
1761468569267589000,1.319589111328125,0.0007090335711836815,0.0018745381385087967,0.003506695618852973
1761468569277572000,1.329572021484375,0.0017432719469070435,0.0006504999473690987,0.0006987177766859531
1761468569287555000,1.33955517578125,-0.002045074477791786,0.0022630440071225166,0.004186126869171858
1761468569297538000,1.3495380859375,-0.0012907534837722778,0.001731880009174347,0.0009453182574361563
1761468569307521000,1.35952099609375,-0.0005360138602554798,0.0014184261672198772,-0.0010906686075031757
1761468569317505000,1.369505126953125,-0.0013367640785872936,0.004709623754024506,0.0013703801669180393
1761468569327488000,1.379488037109375,-0.0004342184402048588,0.00245712255127728,0.0013783695176243782
1761468569337471000,1.389470947265625,0.00019012996926903725,0.00011849286966025829,-0.0005963258445262909
1761468569347454000,1.399453857421875,-0.0025875470601022243,0.0010673771612346172,0.001687334617599845
1761468569357437200,1.409437255859375,0.0019784457981586456,0.00037923618219792843,-0.0004665665328502655
1761468569367420000,1.419419921875,-0.0028685075230896473,-0.0021558268927037716,0.00040668388828635216
1761468569377403100,1.429403076171875,-0.0006765453144907951,-0.004696521908044815,-0.0006195590831339359
1761468569387386000,1.43938623046875,-0.00008266046643257141,-0.0005774106830358505,0.0006696770433336496
1761468569397369000,1.449369140625,-0.00044136354699730873,-0.002140326891094446,-0.0004870528355240822
1761468569407352000,1.45935205078125,-0.0008898400701582432,-0.00006146333180367947,-0.0007232751231640577
1761468569417335000,1.4693349609375,0.0025619303341954947,-0.0008712774142622948,0.0009304722771048546
1761468569427318000,1.479318115234375,0.003140635322779417,-0.001079802867025137,0.0012215557508170605
1761468569437301200,1.48930126953125,0.0015669437125325203,0.0012455829419195652,-0.002811053302139044
1761468569447285000,1.499284912109375,0.0012162053026258945,0.001310564111918211,-0.00027599046006798744
1761468569457268000,1.50926806640625,0.00008740322664380074,-0.0011899929959326982,-0.0007569026201963425
1761468569467251000,1.5192509765625,0.00011376850306987762,-0.00028664874844253063,0.002224506111815572
1761468569477234200,1.529234130859375,-0.0008168872445821762,0.001375365536659956,-0.00026502087712287903
1761468569487217000,1.539216796875,0.0009181620553135872,0.00350456265732646,-0.00011801440268754959
1761468569497200000,1.5492001953125,-0.0018256157636642456,0.003880482167005539,0.0022839622106403112
1761468569507183000,1.55918310546875,0.0013302299194037914,0.00224849721416831,-0.0003768021706491709
1761468569517166000,1.569166015625,0.0031053274869918823,0.0016393144614994526,-0.00011813710443675518
1761468569527149000,1.579149169921875,0.00045415060594677925,0.0003095981664955616,0.0009561819024384022
1761468569537132000,1.589132080078125,0.00037834374234080315,-0.0017311472911387682,-0.0022778338752686977
1761468569547115000,1.599114990234375,-0.00011434126645326614,-0.0033596702851355076,-0.000916692428290844
1761468569557098200,1.60909814453125,-0.0008066431619226933,-0.001876987749710679,-0.0021434796508401632
1761468569567082000,1.61908203125,0.0004271990619599819,-0.0024429094046354294,0.0013364730402827263
1761468569577065000,1.62906494140625,-0.001474051270633936,-0.003798943478614092,0.0006277465727180243
1761468569587048000,1.6390478515625,0.0010389075614511967,-0.0002100677229464054,-0.0005720076151192188
1761468569597031200,1.64903125,0.002180044772103429,-0.001027723541483283,-0.0012774830684065819
1761468569607014000,1.659013916015625,-0.0007584872655570507,0.004045331850647926,0.0019103207159787416
1761468569616997000,1.6689970703125,0.0005407701246440411,-0.0004955052863806486,0.002154727466404438
1761468569626980000,1.67897998046875,-0.0003079795278608799,0.0011822860687971115,0.0009168898686766624
1761468569636963000,1.688963134765625,-0.0005964799784123898,0.002031544456258416,0.0017947123851627111
1761468569646946000,1.698946044921875,0.0005462821573019028,0.00151222781278193,-0.0013539427891373634
1761468569656929000,1.708928955078125,-0.0009122490882873535,0.0017659503500908613,-0.00010056886821985245
1761468569666912000,1.718912109375,0.0019775470718741417,0.003779033897444606,-0.001128016272559762
1761468569676896000,1.72889599609375,-0.00004026247188448906,-0.000596299534663558,0.0006649473216384649
1761468569686879200,1.738879150390625,0.0005496279336512089,-0.0016213501803576946,-0.0003007149789482355
1761468569696862000,1.748862060546875,0.0005169962532818317,0.0020257923752069473,0.000731069128960371
1761468569706845000,1.758844970703125,-0.0007940777577459812,0.0005866200663149357,0.0011153630912303925
1761468569716828200,1.768828125,0.0005499660037457943,-0.0013198722153902054,0.001508982153609395
1761468569726811000,1.778810791015625,0.001141454093158245,0.0002950686030089855,-0.0009616322349756956
1761468569736794000,1.788794189453125,0.0008986745961010456,-0.0011407320853322744,0.0013306692708283663
1761468569746777000,1.798777099609375,0.0022278581745922565,-0.0018467360641807318,-0.0010864154901355505
1761468569756760000,1.808760009765625,-0.00046746525913476944,-0.001852054730989039,-0.0001574251800775528
1761468569766743000,1.818742919921875,-0.0018222150392830372,0.0007799472659826279,0.0010085066314786673
1761468569776726000,1.82872607421875,0.002289196476340294,0.0010384505148977041,-0.001112315570935607
1761468569786709000,1.838708984375,-0.0023660087026655674,0.0002317789476364851,0.0007849202957004309
1761468569796693000,1.84869287109375,0.0019232043996453285,0.0022233074996620417,0.00002728961408138275
1761468569806676200,1.85867626953125,-0.0006787041202187538,0.0023301003966480494,-0.0016036301385611296
1761468569816659000,1.868658935546875,-0.00015004537999629974,0.0021768088918179274,0.0008434446062892675
1761468569826642000,1.878641845703125,-0.00025683827698230743,0.003815451869741082,0.0010732749942690134
1761468569836625200,1.888625244140625,-0.0006981450133025646,0.001182108884677291,0.001995363738387823
1761468569846608100,1.898608154296875,-0.0013668648898601532,0.0005203133914619684,0.0008121212013065815
1761468569856591000,1.908591064453125,0.0004760907031595707,-0.0007963106036186218,0.00035801646299660206
1761468569866574000,1.918573974609375,-0.001239784061908722,-0.0031777091789990664,-0.002105141058564186
1761468569876557000,1.92855712890625,-0.000004786532372236252,-0.00304332934319973,0.0011281787883490324
1761468569886540000,1.9385400390625,0.0019225431606173515,-0.0027602354530245066,0.0010956882033497095
1761468569896523000,1.94852294921875,-0.00021781958639621735,-0.0036665566731244326,-0.0016623192932456732
1761468569906506000,1.958506103515625,0.0014202906750142574,-0.002107009757310152,-0.00039571989327669144
1761468569916490000,1.968489990234375,-0.002199989277869463,-0.002961929887533188,-0.00038635660894215107
1761468569926473200,1.97847314453125,-0.0017768130637705326,-0.00007799267768859863,-0.0009344352874904871
1761468569936456000,1.9884560546875,-0.000215102918446064,-0.00107011036016047,0.0011332235299050808
1761468569946439000,1.99843896484375,-0.0008723707869648933,-0.0011753051076084375,-0.00005641067400574684
1761468569956422100,2.008422119140625,0.0005124793387949467,0.0017521509435027838,0.0007446040399372578
1761468569966405000,2.018405029296875,0.00025362009182572365,0.003005434526130557,-0.001393914339132607
1761468569976388000,2.02838818359375,-0.0009224480018019676,0.003123936243355274,-0.000769253121688962
1761468569986371000,2.03837109375,-0.0008095297962427139,0.0027170050889253616,0.0018379816319793463
1761468569996354000,2.04835400390625,0.0018724421970546246,0.0019631970208138227,0.0008843801915645599
1761468570006337000,2.0583369140625,0.001797873992472887,0.0002878026571124792,-0.0022493614815175533
1761468570016320000,2.068320068359375,0.0021154338028281927,0.0011450238525867462,-0.0002554156817495823
1761468570026304000,2.078303955078125,-0.0015560002066195011,0.0009383624419569969,0.0017874953337013721
1761468570036287000,2.088286865234375,0.0006305514834821224,-0.00171681959182024,0.0011040042154490948
1761468570046270200,2.098270263671875,-0.0009428444318473339,-0.002856386359781027,-0.001522671664133668
1761468570056253000,2.1082529296875,-0.004098962992429733,-0.002144339494407177,-0.0006403306033462286
1761468570066236000,2.11823583984375,-0.0015500513836741447,-0.002507061930373311,-0.0011780227068811655
1761468570076219100,2.12821923828125,-0.0005347728729248047,-0.003705107606947422,-0.0010920206550508738
1761468570086202000,2.1382021484375,0.001919063739478588,-0.0016534083988517523,0.0006717909127473831
1761468570096189200,2.148189208984375,0.0012132762931287289,0.0019851208198815584,-0.0012102709151804447
1761468570106172400,2.15817236328125,-0.0018791863694787025,0.00031345500610768795,-0.0008403579704463482
1761468570116155400,2.1681552734375,0.001968714874237776,0.00037302193231880665,-0.0007341150194406509
1761468570126138000,2.17813818359375,0.0005894633941352367,0.0013940779026597738,0.0008248994126915932
1761468570136121300,2.188121337890625,-0.0009911488741636276,0.001318582333624363,0.0013479257468134165
1761468570146105300,2.198105224609375,0.00009648595005273819,-0.0005839799996465445,0.00021475087851285934
1761468570156088300,2.20808837890625,0.0022058358881622553,0.0009508405346423388,-0.0006042965687811375
1761468570166071300,2.2180712890625,0.0015544267371296883,0.000579063082113862,-0.0004655460361391306
1761468570176054300,2.22805419921875,-0.00041219405829906464,-0.00042575597763061523,-0.001371933612972498
1761468570186037200,2.238037353515625,0.0005470765754580498,-0.00006303354166448116,0.0003210378345102072
1761468570196020500,2.2480205078125,-0.0002635200507938862,-0.00038560666143894196,0.0006399352569133043
1761468570206003200,2.258003173828125,-0.0012875054962933064,0.002069295383989811,-0.0005494323559105396
1761468570215986200,2.267986083984375,-0.0015718843787908554,-0.0005374844186007977,0.0010779465083032846
1761468570225969400,2.277969482421875,-0.00017558876425027847,0.0011954347137361765,-0.00007227249443531036
1761468570235952400,2.287952392578125,0.0012392434291541576,0.00014834245666861534,0.0001344582997262478
1761468570245935000,2.29793505859375,-0.0004148455336689949,-0.0016543513629585505,0.0003504408523440361
1761468570255918300,2.30791845703125,0.0011761244386434555,0.0005020720418542624,0.002466220175847411
1761468570265902300,2.31790234375,-0.00031418027356266975,-0.0006556038279086351,0.00040520005859434605
1761468570275885300,2.32788525390625,0.0011925841681659222,0.0029972076881676912,-0.00039054849185049534
1761468570285868300,2.337868408203125,-0.00022075558081269264,0.0005811878945678473,0.0029826113022863865
1761468570295851300,2.347851318359375,-0.002081633545458317,-0.00012904428876936436,0.00031842594034969807
1761468570305834200,2.357834228515625,0.0013634315691888332,0.0005223650950938463,-0.00037479493767023087
1761468570315817500,2.3678173828125,-0.0012813452631235123,-0.00268692709505558,0.0001512276940047741
1761468570325800200,2.37780029296875,-0.00009011290967464447,-0.001856020768173039,-0.0012658403720706701
1761468570335783200,2.387783203125,0.0015810872428119183,-0.0007030114065855742,-0.001562518416903913
1761468570345766400,2.397766357421875,0.0009033125825226307,0.0018757274374365807,0.0006766673177480698
1761468570355749400,2.407749267578125,0.0034883429761976004,-0.00010571093298494816,-0.0004965439438819885
1761468570365732000,2.417732177734375,0.0017841863445937634,-0.0005736281163990498,0.0020228063222020864
1761468570375715300,2.42771533203125,-0.00041304202750325203,-0.0019391776295378804,-0.0015668375417590141
1761468570385699300,2.43769921875,0.003856271505355835,-0.0017527563031762838,0.00017566862516105175
1761468570395682300,2.447682373046875,0.000040854793041944504,-0.0027541376184672117,-0.0024012497160583735
1761468570405665300,2.457665283203125,0.002331705763936043,0.0003095627762377262,0.0005793601740151644
1761468570415648300,2.467648193359375,0.000401295255869627,-0.00009966245852410793,0.0018658877816051245
1761468570425631200,2.47763134765625,0.0005174092948436737,0.0011379083152860403,-0.0004092506133019924
1761468570435614500,2.487614501953125,0.0009931987151503563,0.003303408157080412,-0.0019911862909793854
1761468570445597400,2.497597412109375,-0.0015386687591671944,0.00040668807923793793,0.00008474779315292835
1761468570455580200,2.507580078125,-0.0003203698433935642,0.0004819168243557215,0.0003914295230060816
1761468570465563400,2.5175634765625,-0.0006543300114572048,-0.0006528559606522322,-0.00009885849431157112
1761468570475546400,2.52754638671875,-0.0003331000916659832,0.0008226786740124226,0.0008888179436326027
1761468570485529000,2.537529052734375,-0.0010710619390010834,-0.0005147606134414673,0.00011836551129817963
1761468570495513000,2.54751318359375,-0.0005587562918663025,-0.0027279313653707504,-0.00036845915019512177
1761468570505496300,2.557496337890625,-0.0016397335566580296,-0.0006796941161155701,0.001306136604398489
1761468570515479300,2.567479248046875,0.0015151407569646835,-0.00022304058074951172,0.0023537965025752783
1761468570525462300,2.577462158203125,0.0003430834040045738,-0.00011731311678886414,0.0010440538171678782
1761468570535445200,2.5874453125,-0.0007628682069480419,-0.002204729476943612,0.0031093729194253683
1761468570545428200,2.59742822265625,0.0031711531337350607,0.0028331722132861614,0.0008813722524791956
1761468570555411500,2.607411376953125,0.0023224810138344765,0.001653566025197506,0.0018565088976174593
1761468570565394400,2.61739453125,0.0014372463338077068,-0.0024658115580677986,0.0006522273179143667
1761468570575377200,2.627377197265625,0.003290377324447036,0.0008943090215325356,-0.000724616227671504
1761468570585360400,2.6373603515625,-0.0009656203910708427,0.0022328137420117855,-0.0012665693648159504
1761468570595343400,2.64734326171875,-0.000052370596677064896,-0.001643917988985777,0.00038894754834473133
1761468570605326300,2.657326416015625,0.0020006601698696613,-0.0016524400562047958,-0.000618260120972991
1761468570615310000,2.66731005859375,-0.0012830416671931744,-0.0011714431457221508,-0.0001032708678394556
1761468570625293300,2.677293212890625,-0.001971735153347254,-0.0028612189926207066,0.00029433914460241795
1761468570635276300,2.6872763671875,0.0016357693821191788,0.0010605123825371265,0.0005854691844433546
1761468570645259300,2.69725927734375,0.001354273408651352,-0.00030142837204039097,0.0008366054389625788
1761468570655242200,2.7072421875,0.0022374994587153196,-0.000160908792167902,0.002246253890916705
1761468570665225200,2.71722509765625,-0.0013830680400133133,0.002147519262507558,-0.0005263632629066706
1761468570675208400,2.72720849609375,0.0029869077261537313,0.0015855426900088787,0.0009192863944917917
1761468570685191400,2.73719140625,0.0006361352279782295,0.003669999074190855,-0.00014677713625133038
1761468570695174100,2.747174072265625,0.000526750460267067,0.0010973128955811262,0.0010553726460784674
1761468570705157400,2.757157470703125,0.00030970247462391853,0.0011878602672368288,-0.0027707908302545547
1761468570715140400,2.767140380859375,-0.002334924414753914,-0.0008038005325943232,0.0005868510343134403
1761468570725124400,2.777124267578125,0.0006033414974808693,-0.0002607819624245167,0.0005373160820454359
1761468570735107000,2.787107177734375,0.001368256751447916,-0.002630140632390976,-0.001190712209790945
1761468570745090300,2.79709033203125,0.0018625399097800255,0.0009179890621453524,-0.0002974879462271929
1761468570755073300,2.8070732421875,0.0007168333977460861,-0.0007899408228695393,-0.0013120821677148342
1761468570765056300,2.81705615234375,-0.0012030396610498428,-0.0016365598421543837,-0.00032990844920277596
1761468570775039200,2.827039306640625,0.000448866281658411,0.00023478479124605656,-0.0015576430596411228
1761468570785022200,2.837022216796875,0.0005569905042648315,0.0004097544588148594,-0.00006227823905646801
1761468570795005400,2.84700537109375,-0.00006949016824364662,-0.002388488035649061,-0.002572674071416259
1761468570804988400,2.856988525390625,0.0012306650169193745,0.0013684332370758057,-0.00035266298800706863
1761468570814971100,2.86697119140625,-0.00007643550634384155,0.00038528931327164173,-0.0012875294778496027
1761468570824954400,2.876954345703125,-0.0002226429060101509,0.0036428680177778006,0.00015670270659029484
1761468570834938400,2.8869384765625,0.0009899521246552467,0.0013220910914242268,0.0007795824203640223
1761468570844921300,2.89692138671875,-0.002429813612252474,-0.0014324162621051073,-0.0012374958023428917
1761468570854904300,2.906904296875,-0.0001861974596977234,-0.0007525566034018993,-0.0006936225108802319
1761468570864887300,2.91688720703125,0.000748039223253727,-0.0002281803172081709,0.0007066677790135145
1761468570874870300,2.926870361328125,0.0013084108941257,-0.0011398743372410536,-0.000718775438144803
1761468570884853200,2.936853271484375,0.0015001585707068443,0.0021382104605436325,-0.0003331496845930815
1761468570894836200,2.946836181640625,0.002037318656221032,-0.0014025536365807056,-0.0004471519496291876
1761468570904819200,2.956819091796875,-0.0018362491391599178,-0.0030023143626749516,-0.0005331721622496843
1761468570914802400,2.966802490234375,-0.0009397035464644432,-0.002103029750287533,0.0008641653694212437
1761468570924785400,2.976785400390625,-0.0034792935475707054,0.0006829032208770514,0.0008226200006902218
1761468570934768000,2.98676806640625,-0.0004137502983212471,0.0019497559405863285,0.0012583096977323294
1761468570944752000,2.996752197265625,0.002649950096383691,0.0012277732603251934,0.00008305651135742664
1761468570954735400,3.0067353515625,0.000270030926913023,0.0005928990431129932,-0.0013320741709321737
1761468570964718300,3.01671826171875,0.0010026665404438972,0.0031631155870854855,-0.001440464868210256
1761468570974701300,3.026701416015625,-0.0017986251041293144,-0.0012963346671313047,0.002325765322893858
1761468570984684300,3.036684326171875,-0.0014010150916874409,0.0004581557586789131,0.0014277477748692036
1761468570994667300,3.046667236328125,0.00044522620737552643,-0.001704155933111906,-0.00253470242023468
1761468571004650200,3.056650146484375,-0.00192658556625247,0.0002759043127298355,-0.001674501458182931
1761468571014633200,3.06663330078125,0.0013273879885673523,0.0020554051734507084,0.0012278200592845678
1761468571024616200,3.0766162109375,0.0010259184055030346,0.000825823750346899,-0.001675824518315494
1761468571034599400,3.086599365234375,-0.0018199291080236435,0.0017186312470585108,-0.00009908759966492653
1761468571044582400,3.09658251953125,0.0007825116626918316,-0.00007980153895914555,-0.001189652131870389
1761468571054565000,3.106565185546875,-0.0007380875758826733,-0.0017868727445602417,0.003588779829442501
1761468571064549000,3.116549072265625,-0.00010532047599554062,-0.002023095265030861,-0.0009077012073248625
1761468571074532400,3.126532470703125,-0.00036788731813430786,-0.0008834090549498796,-0.001197164412587881
1761468571084515300,3.136515380859375,0.0002763313241302967,-0.0003329336177557707,-0.0017545640002936125
1761468571094494500,3.146494384765625,0.0018311627209186554,-0.0016604939009994268,0.0006691461894661188
1761468571104477400,3.1564775390625,-0.0002072206698358059,-0.0012189419940114021,-0.0003431213553994894
1761468571114460200,3.166460205078125,-0.0014514499343931675,0.0009481655433773994,-0.0005436609499156475
1761468571124443400,3.176443359375,0.0020535364747047424,-0.004778163507580757,0.0004694056697189808
1761468571134426400,3.18642626953125,-0.0016540996730327606,-0.0008465866558253765,-0.001240643672645092
1761468571144409000,3.1964091796875,-0.002907116897404194,-0.0018948068609461188,-0.00094236945733428
1761468571154392300,3.206392333984375,-0.00010506482794880867,0.000575836980715394,-0.000589882954955101
1761468571164376300,3.216376220703125,0.0009367638267576694,0.00014653545804321766,-0.00019094138406217098
1761468571174359300,3.226359375,0.00021957745775580406,-0.00021271919831633568,-0.0016756739933043718
1761468571184342300,3.23634228515625,0.0010808436200022697,0.0007183218840509653,0.001314523397013545
1761468571194325200,3.2463251953125,-0.0009611179120838642,-0.0005006005521863699,0.0004839557223021984
1761468571204308200,3.25630810546875,-0.0003701625391840935,-0.0017344430088996887,-0.003129154909402132
1761468571214291500,3.26629150390625,-0.00039309868589043617,0.002007537754252553,-0.002619686536490917
1761468571224274400,3.2762744140625,0.0017784428782761097,0.0005454623606055975,-0.00162845803424716
1761468571234257200,3.286257080078125,0.00040788576006889343,-0.0016058031469583511,-0.002409658394753933
1761468571244240400,3.296240478515625,-0.00021236436441540718,-0.0002784836106002331,-0.0012011160142719746
1761468571254223400,3.306223388671875,-0.0005227606743574142,0.001556159695610404,0.0011758827604353428
1761468571264206300,3.316206298828125,0.0023710301611572504,0.00175696169026196,0.0012451251968741417
1761468571274189300,3.326189208984375,-0.0025443737395107746,-0.0011807966511696577,-0.0008372720330953598
1761468571284173300,3.33617333984375,0.0016983081586658955,-0.0029155798256397247,-0.00018586264923214912
1761468571294156300,3.34615625,-0.0002490747720003128,-0.0025320793502032757,-0.0005446327850222588
1761468571304139300,3.35613916015625,0.002065212232992053,0.0013332325033843517,0.0006671054288744926
1761468571314122200,3.366122314453125,0.0033295517787337303,0.001507016597315669,0.0011846241541206837
1761468571324105200,3.376105224609375,-0.00011657876893877983,-0.0019662780687212944,0.00048368005082011223
1761468571334088400,3.38608837890625,0.002080657286569476,-0.0005751259159296751,-0.00047491444274783134
1761468571344071400,3.396071533203125,-0.0023577669635415077,0.003391652600839734,-0.00006212457083165646
1761468571354054100,3.40605419921875,-0.0006021596491336823,-0.00006292085163295269,-0.0008460043463855982
1761468571364037400,3.416037353515625,-0.002255716361105442,-0.001998772844672203,-0.00017462135292589664
1761468571374020400,3.426020263671875,-0.0005954341031610966,0.001081991009414196,-0.0006733958143740892
1761468571384003300,3.43600341796875,0.00039339764043688774,0.002903060521930456,-0.00005980348214507103
1761468571393987000,3.445987060546875,-0.0002446644939482212,-0.00026962999254465103,0.0006048663053661585
1761468571403970300,3.45597021484375,-0.0006491988897323608,0.0011104200966656208,0.0000876805279403925
1761468571413953300,3.465953369140625,0.0022455553989857435,0.0012247271370142698,0.0008693384006619453
1761468571423936300,3.475936279296875,-0.00148446811363101,0.0008715919684618711,-0.001363722258247435
1761468571433919200,3.485919189453125,-0.00075871916487813,0.00015129661187529564,-0.0022865524515509605
1761468571443902200,3.495902099609375,0.0015936512500047684,-0.0006204873789101839,0.0012455980759114027
1761468571453885400,3.505885498046875,0.0005550081841647625,-0.0029290770180523396,-0.00021596811711788177
1761468571463868400,3.515868408203125,-0.001976592931896448,-0.0001141158863902092,-0.0019257175736129284
1761468571473851100,3.52585107421875,0.0014376766048371792,0.001203383319079876,0.001478120218962431
1761468571483834400,3.53583447265625,-0.00176157895475626,-0.00065230717882514,-0.00004334375262260437
1761468571493818400,3.545818359375,0.002757065696641803,-0.0002138612326234579,0.0003993166610598564
1761468571503801300,3.55580126953125,-0.002184429205954075,-0.00021945382468402386,0.0006187611725181341
1761468571513784300,3.565784423828125,-0.0018748249858617783,-0.0010330623481422663,-0.0012862482108175755
1761468571523767300,3.575767333984375,0.00029591750353574753,-0.002843479160219431,-0.0006604052614420652
1761468571533750300,3.585750244140625,-0.0006827120669186115,0.0006220520008355379,0.0012474504765123129
1761468571543733200,3.595733154296875,0.0014451532624661922,0.002975753741338849,-0.0003219502978026867
1761468571553716200,3.60571630859375,0.0004028226248919964,0.0008354934398084879,-0.001094216015189886
1761468571563699200,3.61569921875,-0.0011716382578015327,-0.0003458848223090172,-0.00016557169146835804
1761468571573682400,3.625682373046875,0.0006756559014320374,-0.0011375974863767624,-0.0002479751128703356
1761468571583665400,3.63566552734375,0.00036619650200009346,-0.0015085756313055754,-0.001834686379879713
1761468571593648000,3.645648193359375,0.0005117612890899181,-0.002357902703806758,0.000899157952517271
1761468571603632000,3.655632080078125,0.0019663795828819275,0.0006538662128150463,-0.0012745142448693514
1761468571613615400,3.665615478515625,-0.0013848342932760715,0.0001084634568542242,0.001197311794385314
1761468571623598300,3.675598388671875,0.0017353254370391369,0.0006871682126075029,-0.00021096784621477127
1761468571633581300,3.685581298828125,-0.0018220441415905952,-0.0022137893829494715,-0.0010216010268777609
1761468571643564300,3.695564208984375,0.000991585198789835,0.0012650981079787016,0.000029815128073096275
1761468571653547300,3.70554736328125,-0.0010934011079370975,-0.000523140886798501,-0.0008506085723638535
1761468571663530200,3.7155302734375,-0.0010955319739878178,0.0008571755606681108,0.0006370332557708025
1761468571673513500,3.725513427734375,0.0009436598047614098,0.0004945907276123762,0.001472060801461339
1761468571683496200,3.73549609375,0.0021404845174402,0.004760975018143654,-0.0002544666640460491
1761468571693479400,3.7454794921875,-0.0007571596652269363,0.0010573244653642178,0.0000549310352653265
1761468571703462400,3.75546240234375,0.00026096682995557785,-0.0009807927999645472,-0.0009493471588939428
1761468571713446400,3.7654462890625,0.00194168696179986,-0.0009075729176402092,-0.0014942788984626532
1761468571723429000,3.77542919921875,-0.0019324133172631264,-0.0020934785716235638,0.0013662225101143122
1761468571733412400,3.785412353515625,0.0016543404199182987,-0.0030379248782992363,-0.0011737521272152662
1761468571743395300,3.795395263671875,-0.0003954945132136345,-0.00269144750200212,-0.0015425998717546463
1761468571753378300,3.80537841796875,0.001706909853965044,-0.0009947728831321,0.0004464962985366583
1761468571763361300,3.815361328125,0.00032739248126745224,-0.001143643632531166,-0.00014152959920465946
1761468571773344300,3.82534423828125,-0.0001851324923336506,0.0012327104341238737,0.0005115887615829706
1761468571783327200,3.8353271484375,0.0019928005058318377,0.0025355287361890078,0.0011659273877739906
1761468571793310500,3.845310546875,0.003052875166758895,0.002085678046569228,0.0014831391163170338
1761468571803293200,3.855293212890625,-0.0005983184091746807,-0.0008025201968848705,-0.0009898722637444735
1761468571813276400,3.8652763671875,-0.0003549298271536827,-0.0010531703010201454,0.0011988477781414986
1761468571823260400,3.875260498046875,0.0001340266317129135,-0.0008209426887333393,-0.0012946701608598232
1761468571833243400,3.885243408203125,0.0008466830477118492,0.0013626560103148222,-0.0023577511310577393
1761468571843226000,3.89522607421875,-0.002093180548399687,0.0031781329307705164,-0.00007968302816152573
1761468571853209300,3.905209228515625,-0.0003163865767419338,0.0005927544552832842,-0.0006271617021411657
1761468571863192300,3.9151923828125,0.0032261500600725412,-0.000558796338737011,0.002208838239312172
1761468571873175300,3.92517529296875,0.0009186128154397011,-0.0028319910634309053,0.00031969393603503704
1761468571883158300,3.935158203125,-0.0018002083525061607,-0.000132877379655838,0.0007721649017184973
1761468571893141200,3.945141357421875,-0.0004726010374724865,-0.0006487530190497637,0.0010204098653048277
1761468571903124200,3.955124267578125,0.00018466729670763016,-0.0021071000955998898,-0.003029458923265338
1761468571913107500,3.965107421875,-0.0017031836323440075,0.00088263931684196,0.0001283218152821064
1761468571923091500,3.975091552734375,-0.0025007999502122402,0.0015771917533129454,-0.0017579952254891396
1761468571933074200,3.98507421875,-0.0004353392869234085,-0.0012896005064249039,0.0011351641733199358
1761468571943057400,3.995057373046875,-0.00001216307282447815,0.0011562465224415064,-0.0010041529312729836
1761468571953040400,4.005040283203125,0.0014392677694559097,0.0021069517824798822,-0.0011791617143899202
1761468571963022300,4.015022216796875,0.0008017071522772312,-0.00023343414068222046,0.00011034100316464901
1761468571973005300,4.02500537109375,0.000811419915407896,0.000056257471442222595,0.0013412160333245993
1761468571982988300,4.03498828125,0.00025242241099476814,0.0017220645677298307,-0.001932341605424881
1761468571992971300,4.04497119140625,0.0012670010328292847,0.002096679527312517,0.0011726757511496544
1761468572002954200,4.054954345703125,0.0030795482452958822,-0.0017435987247154117,-0.001265714643523097
1761468572012938200,4.064938232421875,-0.0014626597985625267,0.001133736688643694,0.0009893989190459251
1761468572022921200,4.074921142578125,0.001293978188186884,0.00020269537344574928,-0.001343530137091875
1761468572032904400,4.084904541015625,-0.0001288806088268757,0.00011479482054710388,-0.0015219685155898333
1761468572042887200,4.09488720703125,0.0009113503620028496,0.0008077491074800491,0.0027516058180481195
1761468572052870400,4.104870361328125,0.0011498769745230675,0.0008776355534791946,0.0005834801122546196
1761468572062853400,4.114853271484375,-0.0006946283392608166,0.0001564514823257923,-0.00022212625481188297
1761468572072836400,4.12483642578125,0.0006394176743924618,-0.0023111444897949696,-0.0023754388093948364
1761468572082819300,4.1348193359375,-0.0028155012987554073,-0.0019098061602562666,0.00018305983394384384
1761468572092802300,4.14480224609375,0.0005378462374210358,0.0004217152018100023,-0.0022021355107426643
1761468572102785300,4.154785400390625,-0.0018901578150689602,-0.0007692505605518818,-0.002230631420388818
1761468572112769300,4.164769287109375,-0.0027065142057836056,0.0001476244069635868,0.001027813646942377
1761468572122752300,4.174752197265625,-0.0013863849453628063,-0.00017808028496801853,-0.001209241570904851
1761468572132735200,4.1847353515625,-0.0009710211306810379,-0.0002474128268659115,-0.0002163238823413849
1761468572142718200,4.19471826171875,-0.0003385203890502453,0.00013102241791784763,-0.00000833091326057911
1761468572152701200,4.204701171875,0.0014851815067231655,-0.0007755830883979797,-0.001358867040835321
1761468572162684200,4.21468408203125,-0.0000687730498611927,-0.00005812733434140682,0.0019479799084365368
1761468572172667400,4.22466748046875,-0.0012107058428227901,0.0024437964893877506,-0.0004336030688136816
1761468572182650400,4.234650390625,-0.0005603618919849396,-0.00011789798736572266,-0.0024616001173853874
1761468572192633000,4.244633056640625,-0.000154134351760149,0.0018485989421606064,-0.000986902043223381
1761468572202616300,4.2546162109375,0.0011201882734894753,-0.0002265358343720436,0.00017050770111382008
1761468572212599300,4.264599365234375,0.001652243547141552,-0.0014807921834290028,0.0005270377732813358
1761468572222583300,4.274583251953125,-0.0030253329314291477,0.0019349781796336174,0.001440502004697919
1761468572232566300,4.284566162109375,-0.0004449221305549145,-0.0019305483438074589,-0.0015877662226557732
1761468572242549200,4.29454931640625,0.0024129159282892942,0.0004452576395124197,0.00021279696375131607
1761468572252532200,4.3045322265625,-0.0002727089449763298,0.0007603596895933151,0.0024665556848049164
1761468572262515200,4.31451513671875,0.0002434118650853634,0.0004202737472951412,-0.0013132690219208598
1761468572272498400,4.32449853515625,-0.0004595560021698475,-0.0023692308459430933,-0.00027707358822226524
1761468572282481200,4.334481201171875,0.000023008789867162704,-0.00030528102070093155,-0.00223130127415061
1761468572292464400,4.34446435546875,-0.0000031800009310245514,-0.0005898831877857447,0.0008857483044266701
1761468572302447400,4.354447265625,-0.0004998594522476196,-0.001697491854429245,0.0006958651356399059
1761468572312430000,4.36443017578125,0.0017753406427800655,0.0005046529695391655,-0.000012489501386880875
1761468572322414000,4.3744140625,0.00046000536531209946,0.001967261079698801,0.0007422503549605608
1761468572332397300,4.384397216796875,-0.0017282231710851192,0.0025921440683305264,-0.001296577393077314
1761468572342380300,4.39438037109375,0.0036486992612481117,0.001146047841757536,0.0015183838550001383
1761468572352363300,4.40436328125,-0.0008139023557305336,0.000543306116014719,-0.0008031728211790323
1761468572362346200,4.41434619140625,-0.0002964502200484276,-0.000686275539919734,-0.003141694702208042
1761468572372329200,4.4243291015625,-0.000033735763281583786,0.00017972895875573158,0.000008922303095459938
1761468572382312200,4.434312255859375,-0.0016721123829483986,-0.0000924461055546999,0.00023369328118860722
1761468572392295400,4.44429541015625,0.000656904187053442,0.0021949843503534794,-0.0012679665815085173
1761468572402278100,4.454278076171875,-0.0018752291798591614,0.0006005498580634594,-0.000010421965271234512
1761468572412261000,4.46426123046875,-0.00194582249969244,0.0024894780945032835,-0.000053799943998456
1761468572422244400,4.474244384765625,0.0015479782596230507,0.0003592155408114195,0.0011494162026792765
1761468572432228400,4.484228271484375,0.00006311573088169098,-0.0013307153712958097,0.00022712885402143002
1761468572442211000,4.494211181640625,0.00019041495397686958,0.0008610659278929234,-0.00039312150329351425
1761468572452194300,4.5041943359375,0.0007129618898034096,0.0001722928136587143,-0.0014065303839743137
1761468572462177300,4.51417724609375,-0.0003427150659263134,-0.0013076257891952991,-0.0010094530880451202
1761468572472160300,4.52416015625,0.002687051659449935,-0.00023137242533266544,-0.00007277005352079868
1761468572482143200,4.534143310546875,0.0008444106206297874,-0.0009344469290226698,0.0008742499630898237
1761468572492126200,4.544126220703125,-0.0016322014853358269,-0.0028112181462347507,0.00041868421249091625
1761468572502109200,4.554109130859375,-0.0017453855834901333,0.0003291815519332886,0.0014629096258431673
1761468572512092400,4.564092529296875,-0.0025780033320188522,-0.000844231341034174,-0.00034901732578873634
1761468572522075100,4.5740751953125,-0.00023016100749373436,-0.0001145252026617527,0.0005868175067007542
1761468572532059100,4.58405908203125,0.0018287687562406063,0.00032126810401678085,-0.0011360545177012682
1761468572542042400,4.59404248046875,-0.00037606246769428253,-0.0002784759271889925,0.0017066036816686392
1761468572552027100,4.604027099609375,0.001905843149870634,-0.0016371633391827345,-0.0003701881505548954
1761468572562010400,4.61401025390625,0.0018118335865437984,0.00035061989910900593,-0.0009235930629074574
1761468572571993300,4.623993408203125,0.0010239123366773129,-0.001387990079820156,-0.0009905186016112566
1761468572581976000,4.63397607421875,-0.001439245417714119,0.004799331538379192,-0.00024936068803071976
1761468572591959300,4.643959228515625,0.0004359283484518528,0.0015881569124758244,-0.0009681403171271086
1761468572601942300,4.6539423828125,0.0003573647700250149,-0.00020095473155379295,-0.0006208640988916159
1761468572611925200,4.66392529296875,0.0009702988900244236,0.00043942825868725777,-0.0032789609394967556
1761468572621908200,4.673908203125,-0.00026434240862727165,-0.0006516689900308847,-0.0004333734977990389
1761468572631891200,4.68389111328125,0.0006851083599030972,0.0007970952428877354,0.0035874980967491865
1761468572641874400,4.69387451171875,0.00046166917309165,-0.0012346303556114435,0.0006841199938207865
1761468572651858400,4.7038583984375,0.0009791362099349499,-0.00200800783932209,-0.00048423814587295055
1761468572661841200,4.713841064453125,0.0020177692640572786,-0.003140650223940611,0.001627115998417139
1761468572671824100,4.72382421875,-0.0015118359588086605,-0.0011845673434436321,-0.001298477640375495
1761468572681807400,4.733807373046875,0.00033453386276960373,-0.002433589892461896,-0.00013840454630553722
1761468572691790300,4.743790283203125,0.0011588232591748238,0.000489815603941679,-0.0003643592353910208
1761468572701773000,4.75377294921875,-0.00018953531980514526,-0.001010076841339469,-0.002207000507041812
1761468572711756300,4.76375634765625,0.0021861232817173004,-0.0016921933274716139,-0.0014143879525363445
1761468572721739300,4.7737392578125,-0.0016299202106893063,0.0021504817996174097,0.0011089572217315435
1761468572731722200,4.78372216796875,0.0032275591511279345,0.0013989307917654514,0.0021488703787326813
1761468572741705200,4.793705322265625,0.0029332798440009356,-0.0018788877641782165,0.001135537400841713
1761468572751689200,4.803689208984375,0.002234985353425145,-0.0004906996618956327,0.0025462894700467587
1761468572761672200,4.813672119140625,0.00043735187500715256,-0.0005732576828449965,0.00018939166329801083
1761468572771655400,4.823655517578125,-0.0006174682639539242,-0.0012984832283109426,-0.0023529697209596634
1761468572781638100,4.83363818359375,0.000659251119941473,0.00036652502603828907,0.0027318038046360016
1761468572791621000,4.84362109375,0.0010031983256340027,0.0015439977869391441,-0.00007733842357993126
1761468572801604400,4.853604248046875,-0.0004527517594397068,-0.0018608537502586842,0.0005048285238444805
1761468572811587300,4.86358740234375,-0.0003806888125836849,-0.0007645029108971357,0.00044842553324997425
1761468572821570000,4.873570068359375,0.001782330684363842,0.0016749526839703321,-0.0014959484105929732
1761468572831553300,4.88355322265625,-0.0005008308216929436,-0.0009903612080961466,-0.001071456354111433
1761468572841537300,4.893537353515625,0.0005660317838191986,0.00035719829611480236,-0.0005484116263687611
1761468572851520300,4.903520263671875,0.0000030766241252422333,0.0008358412887901068,-0.001302174525335431
1761468572861503500,4.91350341796875,-0.0006976011209189892,-0.0009729776065796614,0.00041449908167123795
1761468572871486200,4.923486328125,0.001707213930785656,0.00020809751003980637,-0.0012466920306906104
1761468572881469200,4.93346923828125,-0.0030268216505646706,-0.0008739449549466372,0.0010723888408392668
1761468572891452400,4.943452392578125,0.00003163842484354973,-0.001200175378471613,-0.0006464456673711538
1761468572901435100,4.95343505859375,-0.0029199430719017982,-0.0013149576261639595,-0.0002925116568803787
1761468572911418000,4.963418212890625,0.0010988079011440277,-0.0009253534954041243,-0.004659519996494055
1761468572921401300,4.9734013671875,0.0005248966626822948,0.0016046494711190462,-0.0004461328499019146
1761468572931384300,4.98338427734375,0.0006242375820875168,0.0008743384387344122,-0.0000997565221041441
1761468572941368300,4.993368408203125,-0.0007880367338657379,0.0007518331985920668,-0.001212158938869834
1761468572951351000,5.00335107421875,0.0028224908746778965,0.002599181840196252,-0.00008666259236633778
1761468572961334300,5.013334228515625,-0.0018636072054505348,-0.0006072642281651497,-0.0011681723408401012
1761468572971317200,5.023317138671875,0.0014383355155587196,0.0018277820199728012,-0.0006686763372272253
1761468572981300500,5.033300537109375,0.000507826916873455,0.000289273913949728,0.001093537313863635
1761468572991283200,5.043283203125,-0.0008841101080179214,0.0023682345636188984,-0.0004748196806758642
1761468573001266200,5.05326611328125,-0.001920879352837801,0.0020212247036397457,-0.0009981307666748762
1761468573011249400,5.06324951171875,-0.0007479819469153881,-0.0013428491074591875,0.00041495938785374165
1761468573021232400,5.073232421875,0.000494648702442646,-0.001456832280382514,-0.00007772538810968399
1761468573031216000,5.083216064453125,0.001789427362382412,-0.0008510537445545197,-0.0004307534545660019
1761468573041199000,5.09319921875,-0.0012713437899947166,-0.0010260234121233225,-0.0006669759750366211
1761468573051182300,5.103182373046875,-0.0002851160243153572,-0.002387520857155323,0.0016960392240434885
1761468573061165300,5.113165283203125,0.000036061275750398636,-0.000020503532141447067,-0.0010720505379140377
1761468573071148000,5.12314794921875,0.0021466794423758984,0.0008784832898527384,0.001843685982748866
1761468573081131300,5.13313134765625,-0.0007705469615757465,0.0004100336227566004,-0.0008069581817835569
1761468573091115000,5.143114990234375,-0.0017198077403008938,-0.0002811348531395197,0.0019999633077532053
1761468573101098000,5.153097900390625,0.001569995190948248,-0.00981391966342926,0.0010984831023961306
1761468573111081000,5.1630810546875,-0.0005884282290935516,-0.003419088665395975,0.008024133741855621
1761468573121065000,5.17306494140625,0.00014367466792464256,0.009369943290948868,0.00700600678101182
1761468573131048000,5.1830478515625,0.002212109975516796,-0.0017178833950310946,-0.0008376601617783308
1761468573141031000,5.193031005859375,-0.0006135040894150734,-0.008893238380551338,0.0021448137704283
1761468573151014100,5.20301416015625,-0.001106054987758398,-0.005382637493312359,0.0024645179510116577
1761468573160996900,5.212996826171875,0.0017419294454157352,-0.002800436457619071,0.0011084363795816898
1761468573170980000,5.22297998046875,0.005908315535634756,0.0025969501584768295,-0.004255153238773346
1761468573180963000,5.232963134765625,0.0023255650885403156,0.01366531290113926,-0.0033310363069176674
1761468573190946000,5.242946044921875,0.00196617329493165,0.009621590375900269,-0.0013886683154851198
1761468573200929000,5.252928955078125,-0.0010413345880806446,0.011529212817549706,-0.007641770876944065
1761468573210912000,5.262912109375,-0.001365206204354763,0.006119107827544212,-0.013069099746644497
1761468573220896000,5.27289599609375,-0.0029172967188060284,0.012169276364147663,-0.022756081074476242
1761468573230879000,5.28287890625,-0.0010518408380448818,0.009207889437675476,-0.005926517304033041
1761468573240862000,5.292862060546875,0.0011932039633393288,-0.006047229748219252,0.0046190680004656315
1761468573250845000,5.302844970703125,0.0007010228000581264,0.006585404276847839,-0.0048143863677978516
1761468573260828000,5.312827880859375,0.001970285549759865,-0.004537022206932306,-0.006507357582449913
1761468573270811100,5.32281103515625,0.0018439935520291328,-0.004082704894244671,0.004855322651565075
1761468573280793900,5.3327939453125,-0.0006396705284714699,-0.0026323474012315273,0.005875046364963055
1761468573290777000,5.342777099609375,-0.001370132900774479,-0.008614263497292995,-0.0004705623723566532
1761468573300760000,5.352760009765625,-0.0018817265518009663,-0.00375905423425138,-0.003473276272416115
1761468573310744000,5.362744140625,-0.0017720488831400871,0.00037202914245426655,0.007688235491514206
1761468573320727000,5.37272705078125,0.003282630816102028,-0.0009134786669164896,0.004396036267280579
1761468573330710000,5.3827099609375,-0.001650563906878233,0.0011278463061898947,-0.0032599573023617268
1761468573340693000,5.39269287109375,0.0019771941006183624,0.0005707128439098597,0.002359845442697406
1761468573350676000,5.402676025390625,0.0023078718222677708,0.006598692387342453,0.007924286648631096
1761468573360659200,5.4126591796875,-0.0016463897190988064,-0.00022619054652750492,0.0021100735757499933
1761468573370642000,5.422641845703125,0.0004122531972825527,0.0016956927720457315,-0.003981691785156727
1761468573380625000,5.432625,-0.0012050848454236984,0.003395322011783719,-0.0003693802282214165
1761468573390609200,5.442609130859375,0.0002828659489750862,0.004847818054258823,0.0013566766865551472
1761468573400592100,5.452592041015625,0.0025609340518712997,0.003754324046894908,-0.0011203291360288858
1761468573410574800,5.462574951171875,-0.0003609578125178814,0.001998324878513813,-0.0038300666492432356
1761468573420558000,5.47255810546875,0.0019818246364593506,0.0011226776987314224,0.00024510244838893414
1761468573430541000,5.482541015625,-0.0004765493795275688,-0.003844378748908639,-0.001342040253803134
1761468573440524000,5.49252392578125,-0.0007375394925475121,-0.00742473267018795,-0.0040193162858486176
1761468573450507000,5.502507080078125,0.00010580522939562798,-0.007422629743814468,-0.0021052623633295298
1761468573460490000,5.512489990234375,-0.0024436386302113533,-0.005548030138015747,-0.0018112494144588709
1761468573470473000,5.522472900390625,0.0005114525556564331,-0.003059622598811984,0.0015424236189574003
1761468573480457000,5.53245703125,0.000738886184990406,0.0009913116227835417,0.00009765871800482273
1761468573490440000,5.54243994140625,0.003278341144323349,0.00146005698479712,0.0019197145011276007
1761468573500423000,5.5524228515625,-0.0014362530782818794,0.002804953372105956,0.0032515611965209246
1761468573510406100,5.56240625,0.0004440746270120144,0.0029082552064210176,0.0025035582948476076
1761468573520389000,5.57238916015625,0.0002499301917850971,0.003921587951481342,0.001910206163302064
1761468573530371800,5.582371826171875,-0.00010694563388824463,0.003279568860307336,0.0026702159084379673
1761468573540355000,5.59235498046875,-0.0060673663392663,0.0036947557236999273,0.002746648620814085
1761468573550338000,5.602338134765625,0.0004111998714506626,0.0022181353997439146,0.0015169933903962374
1761468573560321000,5.612321044921875,0.0020405217073857784,-0.0007451637648046017,-0.0022108994890004396
1761468573570305000,5.622304931640625,-0.0006904052570462227,0.0008295262232422829,0.0011997884139418602
1761468573580288000,5.6322880859375,0.0007868502289056778,0.0007767956703901291,-0.0013043818762525916
1761468573590271000,5.64227099609375,-0.000648037064820528,-0.003473784076049924,-0.0007793647237122059
1761468573600254000,5.65225390625,-0.0016150306910276413,-0.00019809603691101074,-0.0009082616306841373
1761468573610237200,5.6622373046875,-0.0004313541576266289,-0.00239165173843503,-0.0007497132755815983
1761468573620220000,5.672219970703125,-0.0017458908259868622,-0.00019481033086776733,-0.00008791778236627579
1761468573630203100,5.682203125,-0.00028735119849443436,-0.0014772077556699514,-0.002850216580554843
1761468573640186000,5.69218603515625,-0.00035952311009168625,-0.0002689317334443331,-0.001529288594610989
1761468573650170000,5.702170166015625,0.0009803478606045246,-0.0019472372950986028,0.00006451108492910862
1761468573660152800,5.71215283203125,0.00043386733159422874,-0.001668670680373907,-0.00011445325799286366
1761468573670136000,5.722135986328125,-0.0014184783212840557,-0.0006690139416605234,0.0014891717582941055
1761468573680119000,5.732119140625,-0.003032620530575514,0.00044338847510516644,-0.0004035367164760828
1761468573690102000,5.74210205078125,0.0018731774762272835,-0.00005082320421934128,0.0010480962228029966
1761468573700085000,5.7520849609375,-0.0021300860680639744,0.001991821452975273,-0.0007522003725171089
1761468573710068000,5.76206787109375,0.0018893801607191563,0.002869592048227787,0.0003257852513343096
1761468573720051000,5.772051025390625,0.0009388979524374008,-0.0030668601393699646,-0.0018122004112228751
1761468573730035000,5.782034912109375,-0.0008381442166864872,0.002039498882368207,0.00002736900933086872
1761468573740018000,5.792017822265625,0.003047141246497631,0.0015095302369445562,0.00021192594431340694
1761468573750001000,5.8020009765625,-0.0001636589877307415,0.00031087431125342846,-0.0008781233336776495
1761468573759984000,5.811984130859375,0.0008720443584024906,-0.0010915466118603945,0.0030702792573720217
1761468573769967000,5.821967041015625,-0.0001896759495139122,-0.0007711285725235939,0.0029250988736748695
1761468573779949800,5.83194970703125,-0.00043069198727607727,-0.0009540878236293793,0.0000523468479514122
1761468573789933000,5.84193310546875,0.0012711775489151478,0.0008527417667210102,-0.0018925894983112812
1761468573799916000,5.851916015625,-0.0026103798300027847,0.0000010631047189235687,-0.001430531032383442
1761468573809900000,5.861900146484375,-0.0008173780515789986,-0.0003916490823030472,-0.00016480428166687489
1761468573819883000,5.871883056640625,-0.0005686385557055473,0.001989749725908041,-0.0024572531692683697
1761468573829866000,5.881865966796875,-0.00012409547343850136,-0.00032811262644827366,-0.0011219331063330173
1761468573839849000,5.891848876953125,-0.0006314278580248356,0.0016665949951857328,-0.00006226124241948128
1761468573849832000,5.90183203125,0.0011797882616519928,0.0005685735959559679,0.0004775614943355322
1761468573859815200,5.911815185546875,-0.0013701887801289558,0.002448498969897628,0.000023758970201015472
1761468573869798000,5.9217978515625,0.0014377394691109657,-0.0006896420381963253,-0.0017749101389199495
1761468573879781000,5.931781005859375,0.0006499765440821648,-0.002376488409936428,0.000011804746463894844
1761468573889765000,5.94176513671875,-0.0001383586786687374,-0.0006052532698959112,0.0014657245483249426
1761468573899748000,5.951748046875,0.0024694083258509636,-0.0005850133020430803,0.0026532283518463373
1761468573909730800,5.961730712890625,0.001661702524870634,-0.0009748227894306183,-0.00305605074390769
1761468573919714000,5.971714111328125,0.0007234709337353706,0.00036101904697716236,0.0009149885736405849
1761468573929697000,5.981697021484375,-0.0002793814055621624,-0.0008060093969106674,-0.001278106588870287
1761468573939680000,5.991679931640625,-0.0024426672607660294,-0.0014736638404428959,0.0009565521031618118
1761468573949663000,6.0016630859375,-0.0015432634390890598,0.0011177945416420698,-0.0010380374733358622
1761468573959646000,6.01164599609375,0.0002887253649532795,-0.0018524287734180689,0.0013814442791044712
1761468573969630000,6.0216298828125,-0.0005245199427008629,-0.000823605339974165,-0.00020210887305438519
1761468573979613200,6.03161328125,0.0015455554239451885,0.00034339167177677155,0.0014868681319057941
1761468573989596000,6.041595947265625,0.0007369453087449074,0.00015155761502683163,0.000775735592469573
1761468573999579000,6.051578857421875,0.0021462899167090654,0.0009292005561292171,-0.0004362689796835184
1761468574009562000,6.06156201171875,0.0012007416225969791,-0.0036735571920871735,-0.0019139762734994292
1761468574019545000,6.071545166015625,-0.001471474301069975,-0.0006130523979663849,-0.0013563104439526796
1761468574029527800,6.08152783203125,0.00011177407577633858,0.0030341113451868296,-0.0014349789125844836
1761468574039511000,6.091510986328125,-0.00036280136555433273,-0.0002074881922453642,-0.0014709315728396177
1761468574049495000,6.1014951171875,-0.0008245734497904778,0.002174327615648508,0.0005996264517307281
1761468574059478000,6.11147802734375,-0.00022749276831746101,0.001139156986027956,-0.0012731084134429693
1761468574069461000,6.1214609375,-0.0002726963721215725,-0.0011008710134774446,-0.0008885881397873163
1761468574079444000,6.13144384765625,0.0009696679189801216,-0.0018540129531174898,-0.00047340127639472485
1761468574089427000,6.141427001953125,0.0009460439905524254,-0.0019898181781172752,0.0016676262021064758
1761468574099410000,6.151409912109375,-0.000024145469069480896,-0.00283164344727993,0.0009112884290516376
1761468574109392600,6.161392578125,0.0017596399411559105,-0.001790440990589559,-0.0023539564572274685
1761468574119376600,6.171376708984375,0.0007236702367663383,-0.0009118642192333937,0.0005970920901745558
1761468574129359600,6.181359619140625,-0.0004340624436736107,0.0021140361204743385,-0.0012025089235976338
1761468574139342800,6.1913427734375,0.001754789613187313,0.0012756730429828167,0.00021402654238045216
1761468574149325800,6.201325927734375,0.0008871373720467091,0.0018612409476190805,0.0024587446823716164
1761468574159308500,6.21130859375,-0.0006172824651002884,0.0029139884281903505,0.00002141948789358139
1761468574169291800,6.221291748046875,0.0020518996752798557,0.0016074038576334715,-0.00006918166764080524
1761468574179274800,6.231274658203125,-0.0004879571497440338,0.0023794544395059347,0.0007412182167172432
1761468574189258000,6.241258056640625,-0.0008997945114970207,-0.0007651038467884064,-0.0007744394242763519
1761468574199241700,6.25124169921875,0.0004802555777132511,-0.0004354044795036316,0.0005651307292282581
1761468574209224700,6.261224609375,0.0019473903812468052,-0.00241138506680727,-0.00031445850618183613
1761468574219207700,6.271207763671875,0.0013045035302639008,-0.0012683563400059938,-0.0004350997041910887
1761468574229191000,6.28119091796875,0.0011402596719563007,-0.003226490691304207,0.00030982750467956066
1761468574239173600,6.291173583984375,0.00009922962635755539,-0.0015942391473799944,-0.0013839427847415209
1761468574249156600,6.301156494140625,0.0021684649400413036,0.00031650299206376076,-0.0024955705739557743
1761468574259139800,6.311139892578125,-0.0007056184113025665,-0.002342663472518325,0.0016941141802817583
1761468574269123800,6.321123779296875,0.0002869316376745701,0.0015940957237035036,0.0013116453774273396
1761468574279106800,6.33110693359375,-0.0017162980511784554,0.000009781215339899063,0.0004991148598492146
1761468574289089800,6.34108984375,-0.0000567152164876461,0.002124307444319129,-0.0005158218555152416
1761468574299072800,6.35107275390625,0.0009092129766941071,0.004526745527982712,0.0025630583986639977
1761468574309055700,6.3610556640625,0.000018443912267684937,0.0020522435661405325,0.0005989938508719206
1761468574319039000,6.3710390625,0.001017661765217781,0.002687141066417098,-0.0006444358732551336
1761468574329021700,6.381021728515625,-0.000906399916857481,0.0031830451916903257,-0.0009744451381266117
1761468574339005700,6.391005615234375,0.0004949555732309818,-0.0018625796074047685,0.0018977741710841656
1761468574348988700,6.40098876953125,0.0005503012798726559,0.0006045433692634106,0.0003926199860870838
1761468574358972000,6.410971923828125,-0.0002039060927927494,-0.0009153226856142282,0.0009769173339009285
1761468574368954600,6.42095458984375,0.0006099222227931023,-0.0014751390554010868,-0.0007146196439862251
1761468574378937600,6.4309375,-0.002886009868234396,-0.0021015144884586334,0.0016089885029941797
1761468574388920800,6.4409208984375,0.0023538018576800823,-0.003308061044663191,0.001389227109029889
1761468574398903800,6.45090380859375,0.00635706540197134,-0.0033967443741858006,0.0019389039371162653
1761468574408886800,6.46088671875,0.008510912768542767,0.008252391591668129,0.006408464163541794
1761468574418870800,6.470870849609375,0.009157262742519379,0.02673126757144928,0.009745670482516289
1761468574428853800,6.480853759765625,0.009723582305014133,0.03984234109520912,0.016934102401137352
1761468574438836700,6.490836669921875,0.008095592260360718,0.0451446957886219,0.017059270292520523
1761468574448819700,6.50081982421875,0.0035135657526552677,0.03939415141940117,0.013826499693095684
1761468574458802700,6.510802734375,-0.0033757658675312996,0.032741840928792953,0.011772937141358852
1761468574468785700,6.52078564453125,0.0031116947066038847,0.02934258244931698,0.005445266142487526
1761468574478769000,6.530768798828125,0.008553598076105118,0.004886242561042309,0.0005383922252804041
1761468574488753000,6.5407529296875,0.016852572560310364,0.03255337476730347,0.001393805956467986
1761468574498735600,6.550735595703125,0.02260899543762207,0.04930651932954788,0.0034476357977837324
1761468574508718800,6.56071875,0.026839734986424446,0.054459210485219955,-0.00020482786931097507
1761468574518701800,6.570701904296875,0.026054902002215385,0.0762380063533783,0.005494336597621441
1761468574528684800,6.580684814453125,0.02059779316186905,0.06470063328742981,-0.00021058577112853527
1761468574538667800,6.590667724609375,0.017216645181179047,0.05303545668721199,0.00018249661661684513
1761468574548650800,6.600650634765625,0.008254241198301315,0.06004738435149193,-0.00029502157121896744
1761468574558634800,6.610634765625,0.0026376349851489067,0.03106793574988842,-0.0002380299847573042
1761468574568617700,6.62061767578125,-0.003980578854680061,0.01703779026865959,-0.004360548220574856
1761468574578600700,6.6306005859375,-0.011709604412317276,-0.013340088538825512,-0.009265026077628136
1761468574588583700,6.640583740234375,-0.02069021575152874,-0.03072228841483593,-0.0024443839211016893
1761468574598566700,6.650566650390625,-0.029909545555710793,-0.06862493604421616,-0.0034619776997715235
1761468574608550000,6.6605498046875,-0.034993913024663925,-0.09708361327648163,-0.006567194126546383
1761468574618532600,6.67053271484375,-0.0447610542178154,-0.12452029436826706,-0.0040739430114626884
1761468574628516600,6.6805166015625,-0.05019829794764519,-0.146125927567482,-0.00558419618755579
1761468574638499800,6.690499755859375,-0.04009373113512993,-0.27765172719955444,-0.03303765878081322
1761468574648482800,6.70048291015625,0.020121954381465912,-0.19475765526294708,-0.039059966802597046
1761468574658465800,6.7104658203125,0.21810854971408844,0.0636560469865799,0.03186187520623207
1761468574668448800,6.72044873046875,0.3334735035896301,-0.013643700629472733,-0.01005244068801403
1761468574678431700,6.730431640625,0.39129018783569336,-0.06956236064434052,-0.011485487222671509
1761468574688414700,6.740414794921875,0.36047813296318054,0.10702680796384811,0.04271621257066727
1761468574698398700,6.750398681640625,0.10540347546339035,0.07171701639890671,0.013561788946390152
1761468574708381700,6.760381591796875,0.006629338953644037,0.0800827145576477,0.013361860066652298
1761468574718364700,6.77036474609375,-0.012967530637979507,-0.018147185444831848,-0.008234245702624321
1761468574728348000,6.780347900390625,-0.02937360480427742,-0.06571187824010849,-0.012479843571782112
1761468574738331000,6.790330810546875,-0.03461736813187599,-0.02881590649485588,-0.01442767959088087
1761468574748313600,6.800313720703125,-0.0325557105243206,-0.020095929503440857,-0.022358553484082222
1761468574758296800,6.810296875,-0.024697257205843925,0.011278238147497177,-0.010892046615481377
1761468574768280800,6.82028076171875,-0.0030565112829208374,0.04972736909985542,0.02273912914097309
1761468574778263800,6.830263916015625,0.01606525108218193,0.12661495804786682,0.02947719395160675
1761468574788246800,6.840246826171875,0.01916903629899025,0.09817913919687271,0.006276826374232769
1761468574798229800,6.850229736328125,0.008695090189576149,0.058838650584220886,0.005212360993027687
1761468574808212700,6.860212646484375,-0.002994425594806671,-0.003718459513038397,0.012153071351349354
1761468574818195700,6.87019580078125,-0.01541460957378149,-0.06651473045349121,-0.014631671831011772
1761468574828179700,6.8801796875,-0.018502408638596535,-0.10291048139333725,-0.03369082137942314
1761468574838162700,6.89016259765625,-0.007868938148021698,-0.08393732458353043,-0.02003120258450508
1761468574848145700,6.900145751953125,0.003552198177203536,-0.03341483324766159,0.00114309205673635
1761468574858129000,6.91012890625,0.013444775715470314,-0.0045664068311452866,0.0028432540129870176
1761468574868112000,6.92011181640625,0.01586313731968403,0.009414821863174438,-0.001333551830612123
1761468574878094600,6.930094482421875,0.0108816958963871,0.005546313710510731,0.0062010632827878
1761468574888077800,6.940077880859375,0.007114196661859751,0.026933982968330383,0.01704845391213894
1761468574898061800,6.950061767578125,-0.0001636897213757038,0.02138555236160755,0.003653818042948842
1761468574908044800,6.960044921875,-0.007711088750511408,0.011170199140906334,-0.0081937862560153
1761468574918027500,6.970027587890625,-0.012863239273428917,0.009516642428934574,-0.009973044507205486
1761468574928010800,6.9800107421875,-0.010518476366996765,0.006696178577840328,0.0050744786858558655
1761468574937993700,6.98999365234375,-0.00543423555791378,0.029945841059088707,0.004339978098869324
1761468574947976700,6.999976806640625,0.004445797298103571,0.02796028181910515,-0.0036824806593358517
1761468574957959700,7.009959716796875,0.010705823078751564,0.030223969370126724,0.0041975462809205055
1761468574967943700,7.019943603515625,0.007574861403554678,0.022570135071873665,0.015419703908264637
1761468574977926700,7.0299267578125,0.00021814554929733276,-0.008765149861574173,0.0003547349479049444
1761468574987910000,7.039909912109375,-0.0045924861915409565,-0.037250060588121414,-0.014439903199672699
1761468574997892900,7.049892822265625,-0.008360059931874275,-0.04128022491931915,-0.008053909055888653
1761468575007875600,7.05987548828125,-0.005998027510941029,-0.0311737060546875,0.0013971852604299784
1761468575017858800,7.06985888671875,0.0006667994894087315,-0.01596039906144142,-0.00502449506893754
1761468575027842800,7.0798427734375,0.006474344525486231,-0.0035458982456475496,-0.003698349231854081
1761468575037825800,7.08982568359375,0.007638412062078714,0.023526998236775398,0.007589724846184254
1761468575047808800,7.099808837890625,0.0035161972045898438,0.009373724460601807,0.00943925604224205
1761468575057791700,7.109791748046875,-0.0009749578312039375,0.005307609681040049,-0.0017207207856699824
1761468575067774700,7.119774658203125,-0.006932883057743311,0.000760610681027174,-0.004916015081107616
1761468575077758000,7.129758056640625,-0.0037709116004407406,0.0001827047672122717,-0.0006493646651506424
1761468575087740700,7.13974072265625,0.0010900916531682014,0.007551941089332104,0.0028431452810764313
1761468575097728500,7.149728515625,0.0035242210142314434,0.01496591605246067,-0.0015036663971841335
1761468575107711200,7.159711181640625,0.004893468227237463,0.011890587396919727,-0.001294478541240096
1761468575117694500,7.169694580078125,0.0033288609702140093,0.012140392325818539,0.0025537891779094934
1761468575127677400,7.179677490234375,-0.0007652165368199348,-0.0034284479916095734,0.002109307562932372
1761468575137660200,7.18966015625,-0.0015106354840099812,-0.014497610740363598,-0.007602175697684288
1761468575147643400,7.199643310546875,-0.002294218633323908,-0.019273459911346436,-0.004391857888549566
1761468575157627400,7.20962744140625,-0.00333205284550786,-0.01385312806814909,-0.002093283459544182
1761468575167610400,7.2196103515625,-0.0005709896795451641,-0.011830450966954231,-0.002316477010026574
1761468575177593300,7.22959326171875,-0.00035367580130696297,-0.0019818146247416735,-0.0026562963612377644
1761468575187576300,7.239576416015625,0.0038103845436125994,0.0016603150870651007,0.0006239612121134996
1761468575197559300,7.249559326171875,-0.0001161801628768444,0.0036084174644201994,-0.000029312213882803917
1761468575207542500,7.25954248046875,-0.0019759410060942173,-0.0005501972045749426,0.0019892952404916286
1761468575217525500,7.269525390625,0.0007418147288262844,0.0014719408936798573,-0.0020219578873366117
1761468575227509200,7.27950927734375,-0.003892230335623026,-0.0003539209719747305,-0.002467853482812643
1761468575237492200,7.2894921875,0.0008106455206871033,0.006358842831104994,0.001982288435101509
1761468575247475500,7.299475341796875,0.004149822052568197,0.0069764284417033195,0.004330419469624758
1761468575257458400,7.30945849609375,0.0017388621345162392,0.012092094868421555,-0.002202314790338278
1761468575267441200,7.319441162109375,0.0025642963591963053,0.005005423910915852,0.003379321889951825
1761468575277424400,7.32942431640625,-0.0008309674449265003,0.0025254881475120783,-0.00027160579338669777
1761468575287408400,7.339408447265625,0.000059524085372686386,-0.006261520087718964,0.0004082852974534035
1761468575297391400,7.349391357421875,-0.0010515470057725906,-0.007297223433852196,-0.003071933751925826
1761468575307374600,7.35937451171875,-0.000023883767426013947,-0.006811554543673992,-0.0009823206346482038
1761468575317357300,7.369357421875,-0.0005562496371567249,-0.0031462463084608316,-0.0025093774311244488
1761468575327340300,7.37934033203125,0.0032554271165281534,-0.0010700449347496033,0.0027311695739626884
1761468575337323500,7.389323486328125,0.0012311586178839207,0.0026479940861463547,0.00020942231640219688
1761468575347307500,7.3993076171875,0.005338662303984165,0.0012513427063822746,0.0032606814056634903
1761468575357290200,7.409290283203125,-0.0029863789677619934,0.0008811634033918381,-0.00025602267123758793
1761468575367273200,7.419273193359375,-0.0007080449722707272,-0.0024853385984897614,0.0010020546615123749
1761468575377256400,7.42925634765625,-0.00048433942720294,-0.0006123373750597239,-0.0030198513995856047
1761468575387239400,7.439239501953125,-0.0028847106732428074,-0.0010629382450133562,0.003114247927442193
1761468575397222400,7.449222412109375,0.0006908494979143143,0.004310255404561758,0.0007964989636093378
1761468575407205400,7.459205322265625,0.0011387933045625687,0.005219459068030119,0.002622362459078431
1761468575417189400,7.469189453125,-0.0016743037849664688,0.006580600049346685,0.000771465478464961
1761468575427172400,7.47917236328125,-0.0010366439819335938,0.0026879403740167618,0.00240341667085886
1761468575437155600,7.489155517578125,-0.0010707327164709568,-0.00013154814951121807,0.002164265140891075
1761468575447138300,7.49913818359375,-0.0029939464293420315,-0.00031423987820744514,-0.0009306769352406263
1761468575457121300,7.509121337890625,-0.0004120119847357273,0.000028242822736501694,0.0007961168885231018
1761468575467104500,7.5191044921875,-0.0009178216569125652,-0.0036233055870980024,0.00030762446112930775
1761468575477088500,7.529088623046875,-0.000669082161039114,-0.006767167244106531,-0.003464210545644164
1761468575487071200,7.5390712890625,0.00017354777082800865,-0.007950229570269585,-0.0017331012059003115
1761468575497054500,7.549054443359375,0.0010228296741843224,-0.005038861650973558,-0.0009855518583208323
1761468575507037400,7.559037353515625,-0.0012381593696773052,-0.007322701625525951,0.000605427660048008
1761468575517020400,7.5690205078125,0.0008657379075884819,-0.005062743090093136,-0.0018710459116846323
1761468575527003400,7.57900341796875,-0.0015796627849340439,-0.005050673149526119,-0.0028302271384745836
1761468575536987400,7.5889873046875,0.0030835324432700872,0.0019750120118260384,0.003755237441509962
1761468575546970400,7.598970458984375,-0.0024106213822960854,0.005441489163786173,0.0005892629269510508
1761468575556953300,7.608953369140625,0.0005984846502542496,0.008578425273299217,0.003190372372046113
1761468575566936600,7.6189365234375,0.0005117226392030716,0.0038268864154815674,0.002052732976153493
1761468575576919300,7.628919189453125,-0.0015120133757591248,0.0018074112012982368,0.000032192328944802284
1761468575586902300,7.63890234375,-0.00038451608270406723,-0.002595237921923399,-0.0007807803340256214
1761468575596886300,7.64888623046875,-0.0026958738453686237,-0.0028224054258316755,-0.0008180646691471338
1761468575606869500,7.658869384765625,-0.0002447427250444889,-0.002202328760176897,-0.0025628162547945976
1761468575616852200,7.668852294921875,-0.0005853609181940556,-0.004819416906684637,-0.0012517418945208192
1761468575626835500,7.67883544921875,0.00010729487985372543,-0.003185217035934329,-0.00035048206336796284
1761468575636818400,7.688818359375,0.0033078817650675774,-0.0017148859333246946,0.0004375474527478218
1761468575646801400,7.698801513671875,-0.0015578139573335648,-0.0010028425604104996,-0.0004982547834515572
1761468575656785400,7.708785400390625,-0.00038495752960443497,0.00006322073750197887,-0.00247032567858696
1761468575666768400,7.718768310546875,0.0010450733825564384,0.0008947448804974556,-0.00188434065785259
1761468575676751400,7.72875146484375,-0.0024655056186020374,-0.0006690630689263344,-0.001988203963264823
1761468575686734300,7.738734375,0.0007502217777073383,0.0034913273993879557,-0.0014857269125059247
1761468575696717300,7.74871728515625,0.0008178660646080971,0.0027238044422119856,0.0001835424918681383
1761468575706700300,7.7587001953125,-0.001540925819426775,0.0029196366667747498,0.00033325934782624245
1761468575716684300,7.768684326171875,0.0008125095628201962,0.0026951320469379425,0.0013093077577650547
1761468575726667500,7.77866748046875,0.0006929198279976845,-0.0037451887037605047,-0.0010448219254612923
1761468575736650500,7.788650390625,-0.001826962921768427,-0.011942664161324501,-0.002155892550945282
1761468575746633200,7.79863330078125,0.0005251448601484299,0.00024653226137161255,0.0013936222530901432
1761468575756616400,7.808616455078125,0.0010210252366960049,-0.009007420390844345,-0.0034365530591458082
1761468575766599400,7.818599365234375,0.001823608297854662,-0.003692458150908351,0.0012971621472388506
1761468575776583400,7.82858349609375,0.0018766052089631557,0.004493566229939461,0.0016191380564123392
1761468575786566400,7.83856640625,0.000745072029531002,-0.002917833859100938,0.0010100044310092926
1761468575796549400,7.84854931640625,0.0029600230045616627,-0.0020664213225245476,0.0012813806533813477
1761468575806532400,7.858532470703125,-0.0011058966629207134,-0.0008165130857378244,-0.00045741163194179535
1761468575816515300,7.868515380859375,-0.0005516931414604187,-0.006010209675878286,-0.0008912405464798212
1761468575826498300,7.878498291015625,0.0015826327726244926,0.0032626562751829624,0.0011476369109004736
1761468575836482300,7.888482421875,-0.0017772112041711807,0.00009429361671209335,-0.0005338832270354033
1761468575846465300,7.89846533203125,0.0013623260892927647,0.0020881080999970436,0.00011921650730073452
1761468575856448500,7.908448486328125,0.0011905520223081112,0.0015474865213036537,0.0004534432664513588
1761468575866431500,7.918431396484375,-0.0013223793357610703,0.0007626563310623169,-0.0008305669762194157
1761468575876414200,7.928414306640625,0.0017887251451611519,-0.0002554701641201973,-0.0023736024741083384
1761468575886397400,7.9383974609375,-0.0017918511293828487,-0.002646814566105604,0.0016745170578360558
1761468575896381400,7.94838134765625,-0.0004594717174768448,0.0010595067869871855,-0.0020110313780605793
1761468575906364400,7.958364501953125,0.00025699008256196976,-0.003669288707897067,-0.0013494874583557248
1761468575916347400,7.968347412109375,-0.0003731139004230499,0.0017212156672030687,0.0036868166644126177
1761468575926330400,7.978330322265625,0.00024482328444719315,0.0005890140309929848,0.0006107748486101627
1761468575936313300,7.988313232421875,0.0030973348766565323,-0.0017633559182286263,0.00043101166374981403
1761468575946296600,7.998296630859375,0.00035088835284113884,0.0005455168429762125,0.0011482152622193098
1761468575956280600,8.008280517578125,0.00029176613315939903,0.00015216809697449207,0.0008893560152500868
1761468575966261500,8.018261474609375,0.002200139220803976,0.0012163836508989334,0.002017249586060643
1761468575976244500,8.028244384765625,0.00022487249225378036,0.0038057751953601837,-0.0011567056644707918
1761468575986227200,8.038227294921874,0.0013926769606769085,-0.0019410754321143031,0.000043475301936268806
1761468575996211200,8.048211181640625,-0.0017447932623326778,0.001472031930461526,-0.0012638705084100366
1761468576006194400,8.0581943359375,0.0034252344630658627,-0.0015861585270613432,0.0003126745577901602
1761468576016177400,8.068177490234374,-0.0006595216691493988,-0.002395493211224675,-0.003457296174019575
1761468576026160400,8.078160400390624,-0.0005839210934937,-0.002618583617731929,0.00007063942030072212
1761468576036143400,8.088143310546876,0.0010640425607562065,-0.0005381221417337656,-0.0008888975717127323
1761468576046126300,8.098126220703126,-0.00018928339704871178,-0.0013857122976332903,-0.0009167087264358997
1761468576056110300,8.1081103515625,-0.00016238540410995483,-0.0010911666322499514,-0.0009001970756798983
1761468576066093600,8.118093505859376,-0.0020830510184168816,-0.0012886908371001482,0.0013963538222014904
1761468576076076300,8.128076171875,0.0003593345172703266,0.0013744703028351068,-0.001983996480703354
1761468576086059300,8.138059326171875,0.001515708863735199,0.002111110370606184,-0.0000612940639257431
1761468576096042500,8.14804248046875,0.00020223809406161308,0.002080483827739954,0.00044683716259896755
1761468576106024700,8.158024658203125,0.0007741726003587246,-0.0015415966045111418,0.00045262021012604237
1761468576116008700,8.1680087890625,0.0017888369038701057,0.00046536163426935673,-0.00036070914939045906
1761468576125992000,8.177991943359375,-0.00044775381684303284,0.0004981120582669973,0.0008894172497093678
1761468576135974700,8.187974609375,-0.0005622697062790394,-0.0022047299426048994,-0.0009790565818548203
1761468576145957600,8.19795751953125,0.001820883248001337,-0.0007148568984121084,0.0012307425495237112
1761468576155940900,8.20794091796875,-0.0014081993140280247,-0.00022616679780185223,0.000331126619130373
1761468576165923800,8.217923828125,0.0031022944021970034,0.001129727577790618,0.0005751790013164282
1761468576175907800,8.227907958984375,-0.00005674734711647034,-0.0007054565940052271,-0.00030233245342969894
1761468576185890600,8.237890625,0.0002462295815348625,0.00040872395038604736,-0.001864466816186905
1761468576195873800,8.247873779296874,-0.0008917390368878841,0.000283555593341589,-0.00044180615805089474
1761468576205856800,8.257856689453124,-0.0006099888123571873,0.00023375451564788818,0.0015313297044485807
1761468576215839700,8.26783984375,0.0013242647983133793,0.0009072679094970226,0.0011089525651186705
1761468576225823700,8.27782373046875,-0.0024052555672824383,-0.000556132523342967,-0.00008645700290799141
1761468576235806700,8.287806640625,-0.0014792741276323795,0.00411238893866539,0.00004856521263718605
1761468576245789700,8.297789794921876,0.001640030648559332,0.000013164477422833443,0.0025592639576643705
1761468576255773000,8.30777294921875,0.0013082008808851242,-0.0005996287800371647,0.002428503008559346
1761468576265755600,8.317755615234375,0.0006903260946273804,-0.0034413912799209356,0.00008992780931293964
1761468576275738600,8.327738525390625,0.0003393213264644146,-0.005050207022577524,0.00015570782124996185
1761468576285722600,8.33772265625,0.001238546334207058,-0.0009187757968902588,0.0028638995718210936
1761468576295705900,8.347705810546875,0.0009304187260568142,-0.0007246313616633415,-0.00214470736682415
1761468576305688800,8.357688720703125,-0.0007915729656815529,0.0022729532793164253,-0.0011750736739486456
1761468576315671800,8.367671875,0.0016851667314767838,0.0037965476512908936,0.0032004998065531254
1761468576325654800,8.37765478515625,0.0009053288958966732,-0.0013889097608625889,-0.00005378364585340023
1761468576335638800,8.387638671875,0.0020544829312711954,0.0043235705234110355,0.0006620739586651325
1761468576345621800,8.397621826171875,0.00041615916416049004,0.0002834782935678959,0.001059044385328889
1761468576355604700,8.407604736328125,0.00030111055821180344,-0.0028132451698184013,-0.0013449910329654813
1761468576365587700,8.417587646484375,-0.0007082833908498287,-0.0023444476537406445,-0.001578032854013145
1761468576375570700,8.42757080078125,-0.0012499704025685787,-0.003533282782882452,-0.0010438028257340193
1761468576385554000,8.437553955078124,-0.0016839434392750263,-0.0017996616661548615,-0.0005152560770511627
1761468576395538000,8.447537841796875,0.002098544267937541,0.0028787136543542147,-0.0012697294587269425
1761468576405520600,8.457520751953124,0.000010963063687086105,-0.002861351240426302,-0.0009194707963615656
1761468576415503600,8.467503662109374,-0.0020071808248758316,0.00025507970713078976,-0.00030694366432726383
1761468576425486800,8.47748681640625,-0.0001520877704024315,0.0026477582287043333,0.0006994728464633226
1761468576435469800,8.4874697265625,-0.0009379866532981396,0.0005265504587441683,-0.0011016230564564466
1761468576445452800,8.497452880859376,-0.0018048104830086231,0.0013980926014482975,0.0006648814305663109
1761468576455436800,8.507436767578126,0.00048311101272702217,-0.00003894907422363758,-0.0007162338588386774
1761468576465419800,8.517419677734376,0.000780776608735323,0.003759693820029497,0.0005660098977386951
1761468576475402800,8.52740283203125,0.0008572093211114407,0.00219881534576416,0.000734854256734252
1761468576485385700,8.5373857421875,0.0009629037231206894,-0.0016938350163400173,-0.001822571735829115
1761468576495368700,8.54736865234375,-0.00018012523651123047,0.000021507032215595245,-0.0006473187822848558
1761468576505352700,8.557352783203125,0.0017388402484357357,-0.0021573584526777267,0.0012780483812093735
1761468576515337700,8.567337646484376,-0.0003802371211349964,-0.0002771667204797268,0.001936381682753563
1761468576525320700,8.57732080078125,-0.0009009153582155704,0.001195602584630251,-0.00037112017162144184
1761468576535304000,8.587303955078125,0.000049566850066185,0.0020808372646570206,0.0006427452899515629
1761468576545286700,8.59728662109375,-0.0016064252704381943,0.0017399720381945372,0.0007990701124072075
1761468576555269600,8.60726953125,0.0020061528775840998,0.001306409714743495,0.0009428807534277439
1761468576565252900,8.6172529296875,-0.0005688536912202835,-0.0012287646532058716,0.0006223879754543304
1761468576575236900,8.62723681640625,-0.001191766932606697,0.0008157440461218357,0.0018580947071313858
1761468576585219800,8.6372197265625,-0.0012344331480562687,-0.0030440182890743017,-0.0001743207685649395
1761468576595202600,8.64720263671875,0.002692397916689515,-0.001001107506453991,-0.0011162806767970324
1761468576605185800,8.657185791015625,0.0011706296354532242,-0.00018064421601593494,0.000997886760160327
1761468576615168800,8.667168701171875,-0.0003351215273141861,-0.0015359269455075264,0.0015262577217072248
1761468576625152800,8.67715283203125,0.00004338519647717476,0.0019781384617090225,-0.0007055168971419334
1761468576635135700,8.6871357421875,-0.0006168126128613949,0.0009115426801145077,0.0009871881920844316
1761468576645118700,8.69711865234375,-0.00296986335888505,0.1126483753323555,0.0460817888379097
1761468576655101700,8.707101806640624,0.0006222082301974297,0.06175829842686653,0.024585820734500885
1761468576665085000,8.7170849609375,0.0009454730898141861,-0.046596065163612366,-0.013709591701626778
1761468576675067600,8.727067626953126,-0.0008521606214344501,0.04772058129310608,0.016526075080037117
1761468576685051600,8.7370517578125,-0.00035445624962449074,-0.029058260843157768,-0.008283331990242004
1761468576695034600,8.74703466796875,-0.0017060101963579655,0.005564696155488491,-0.0015018589328974485
1761468576705017900,8.757017822265626,-0.0009535457938909531,-0.0260337982326746,-0.008871959522366524
1761468576715000800,8.767000732421875,0.002357562305405736,-0.03839965537190437,-0.015817750245332718
1761468576724983800,8.77698388671875,0.0011138888075947762,-0.05405781418085098,-0.0222626905888319
1761468576734967800,8.7869677734375,0.0005474346689879894,-0.014273649081587791,-0.0071593718603253365
1761468576744950800,8.79695068359375,-0.00041353050619363785,0.020816516131162643,0.005990914069116116
1761468576754933800,8.806933837890625,-0.0002867639996111393,-0.020468605682253838,-0.007704125717282295
1761468576764916700,8.816916748046875,-0.0009777550585567951,-0.010220805183053017,-0.0025061657652258873
1761468576774899700,8.826899658203125,-0.0006435280665755272,0.003126425202935934,0.003273692447692156
1761468576784883700,8.8368837890625,-0.0027089002542197704,-0.006194044835865498,-0.0034503566566854715
1761468576794866700,8.84686669921875,0.0005630594678223133,0.0005056692752987146,-0.0024567313957959414
1761468576804850000,8.856849853515625,0.0009032431989908218,0.003354535438120365,0.0023001304361969233
1761468576814832600,8.86683251953125,-0.0013724281452596188,0.0005068168975412846,0.0005517650861293077
1761468576824815900,8.87681591796875,0.0008394354954361916,0.0028561751823872328,0.00028685713186860085
1761468576834798800,8.886798828125,-0.006000360939651728,0.0007445549126714468,0.0003190813586115837
1761468576844782800,8.896782958984375,0.0008452585898339748,-0.0028114882297813892,0.00003869552165269852
1761468576854765600,8.906765625,-0.0012591714039444923,-0.005118584726005793,-0.0022937008179724216
1761468576864748800,8.916748779296874,-0.0003551039844751358,0.0027293951716274023,-0.0007733707316219807
1761468576874731800,8.926731689453124,0.0004342570900917053,-0.0031487341038882732,-0.0013938872143626213
1761468576884714800,8.93671484375,-0.0022311508655548096,-0.0016975675243884325,-0.0011386724654585123
1761468576894698800,8.94669873046875,-0.0017738859169185162,-0.0013934345915913582,-0.002300076885148883
1761468576904681700,8.956681640625,0.0009423093870282173,-0.00034032692201435566,0.00004777382127940655
1761468576914664700,8.966664794921876,-0.0012902184389531612,0.002216840162873268,-0.00015888758935034275
1761468576924648000,8.97664794921875,-0.0007856260053813457,-0.0009373987559229136,-0.0007449043914675713
1761468576934631000,8.986630859375,0.0009811148047447205,0.0017899447120726109,0.0032759360037744045
1761468576944614700,8.99661474609375,-0.0012764832936227322,-0.005255107767879963,-0.0009230249561369419
1761468576954597600,9.00659765625,0.0010101068764925003,-0.0010124261025339365,-0.002361398423090577
1761468576964580900,9.016580810546875,-0.002106401138007641,-0.004536808934062719,-0.0019222558476030827
1761468576974563800,9.026563720703125,0.0016475911252200603,-0.006282511167228222,0.00017764675430953503
1761468576984546600,9.036546630859375,0.0001702588051557541,-0.007086280733346939,-0.003510794835165143
1761468576994529800,9.04652978515625,-0.0000577080063521862,-0.0026020503137260675,-0.0023126385640352964
1761468577004513800,9.056513671875,0.002637638710439205,-0.0037224371917545795,-0.002921764273196459
1761468577014496800,9.066496826171875,0.0009816852398216724,0.0009431547950953245,-0.00036752643063664436
1761468577024479700,9.076479736328125,-0.000561536755412817,0.0013259847182780504,-0.0018738986691460013
1761468577034462700,9.086462646484375,0.0017546145245432854,0.0029411918949335814,-0.0032273170072585344
1761468577044445700,9.09644580078125,0.0013961116783320904,0.0023844526149332523,0.0019801107700914145
1761468577054429700,9.1064296875,-0.0002939300611615181,0.002483788412064314,0.001534031005576253
1761468577064413000,9.116412841796874,0.0014618919230997562,0.004656762816011906,-0.000095343217253685
1761468577074395600,9.126395751953124,-0.001391152385622263,0.031576260924339294,0.0210562814027071
1761468577084378600,9.136378662109376,0.00016329577192664146,0.07745897024869919,0.025882452726364136
1761468577094361900,9.14636181640625,0.0009739622473716736,-0.10514652729034424,-0.03305649757385254
1761468577104346000,9.15634619140625,-0.0009106048382818699,0.03652769699692726,0.011533478274941444
1761468577114329000,9.1663291015625,0.0015810485929250717,-0.019896166399121284,-0.004927520174533129
1761468577124311800,9.176311767578126,-0.0008611064404249191,-0.035148512572050095,-0.01450329553335905
1761468577134295000,9.186294921875,-0.00017720693722367287,-0.015128999948501587,-0.006201156415045261
1761468577144278000,9.196278076171875,-0.000920876394957304,-0.017321234568953514,-0.005616403184831142
1761468577154262000,9.206261962890625,-0.0016385982744395733,-0.0004996445495635271,-0.000006187940016388893
1761468577164245000,9.216244873046875,0.00014103995636105537,-0.011644289828836918,-0.0029868294950574636
1761468577174228000,9.22622802734375,0.001288596075028181,-0.014191336929798126,-0.00597889069467783
1761468577184211000,9.2362109375,-0.00005013681948184967,-0.003238026285544038,-0.003344431519508362
1761468577194194200,9.246194091796875,0.0007647904567420483,0.002514667809009552,0.001086535630747676
1761468577204177000,9.256177001953125,0.0012074471451342106,0.00676427036523819,0.002375566167756915
1761468577214161000,9.266160888671875,0.0010662996210157871,-0.0021527917124330997,-0.002788569312542677
1761468577224144000,9.276143798828125,-0.0004133163020014763,-0.0007970500737428665,-0.001288189203478396
1761468577234127000,9.286127197265625,-0.0029952512122690678,-0.0008697544690221548,0.0008588512428104877
1761468577244110000,9.296110107421875,-0.0008523575961589813,-0.0014567954931408167,0.0009814330842345953
1761468577254093000,9.306093017578124,0.0012978790327906609,0.00017758645117282867,0.0016759855207055807
1761468577264077000,9.3160771484375,-0.000931793823838234,0.000009921379387378693,0.0003005554899573326
1761468577274060000,9.32606005859375,0.0027646736707538366,-0.0010510820429772139,0.00231550307944417
1761468577284043000,9.33604296875,-0.0014802925288677216,0.0002778833732008934,-0.0005026329308748245
1761468577294026000,9.34602587890625,0.0006142836064100266,-0.0015226800460368395,-0.0016693638172000647
1761468577304009000,9.356009033203126,-0.001983554568141699,-0.00028491951525211334,-0.0009281900711357594
1761468577313993000,9.365992919921876,-0.0004833955317735672,-0.006251465529203415,-0.004420925863087177
1761468577323976000,9.375975830078126,0.0021477695554494858,0.005490683484822512,-0.0009343763813376427
1761468577333959200,9.385959228515626,0.00033202627673745155,0.0014890176244080067,-0.0003173218574374914
1761468577343942000,9.39594189453125,0.0018504089675843716,0.0007624272257089615,-0.0005199115257710218
1761468577353924900,9.4059248046875,0.0005326769314706326,0.0036437013186514378,-0.001033102860674262
1761468577363909000,9.4159091796875,-0.0017779944464564323,0.0021528825163841248,-0.0009376769885420799
1761468577373892000,9.42589208984375,-0.002278401982039213,0.0027638114988803864,-0.00023753196001052856
1761468577383874800,9.435874755859375,0.0014740279875695705,0.0016834228299558163,0.002737384522333741
1761468577393858000,9.445858154296875,-0.0001901816576719284,-0.0002843867987394333,0.001996759558096528
1761468577403841000,9.455841064453125,0.0025748645421117544,0.0029278327710926533,0.0009635898750275373
1761468577413825000,9.465824951171875,0.0006621824577450752,0.0023912061005830765,0.0018040838185697794
1761468577423808000,9.47580810546875,-0.0004712590016424656,0.0012071644887328148,0.0019516230095177889
1761468577433791000,9.485791015625,-0.0021775467321276665,0.002998406533151865,0.0020413713064044714
1761468577443774000,9.49577392578125,-0.0012380597181618214,0.0009888531640172005,-0.0016850844258442521
1761468577453757000,9.5057568359375,0.001339347567409277,0.0025611831806600094,0.00018445472232997417
1761468577463741200,9.5157412109375,0.0008409125730395317,0.0011331927962601185,0.0009997088927775621
1761468577473724000,9.525723876953125,0.001589527353644371,0.006457118317484856,0.002298265928402543
1761468577483707000,9.535706787109374,0.0019323797896504402,0.006770355626940727,0.005284661892801523
1761468577493690000,9.545690185546874,0.004066370893269777,0.010988003574311733,0.0027623814530670643
1761468577503673000,9.555673095703124,0.003151445183902979,0.0072086830623447895,0.004784023389220238
1761468577513655800,9.56565576171875,-0.0005732518620789051,0.008347718045115471,0.0029656176920980215
1761468577523639800,9.575639892578126,0.0012696231715381145,0.0033597974106669426,0.0023260631132870913
1761468577533623000,9.585623046875,0.003179109888151288,0.004121728241443634,0.001927920849993825
1761468577543606000,9.59560595703125,0.003001751843839884,0.010320154950022697,0.003316569607704878
1761468577553589000,9.605589111328126,0.0024709836579859257,0.0064742849208414555,0.001635848544538021
1761468577563572000,9.615572021484375,0.0013621957041323185,0.002176821231842041,0.0025953089352697134
1761468577573556000,9.625555908203125,-0.00019309017807245255,0.006312443874776363,0.001963074551895261
1761468577583539000,9.6355390625,0.0010770093649625778,0.007350173778831959,0.001062772935256362
1761468577593522200,9.645522216796875,-0.001390143297612667,0.22500047087669373,0.07008125633001328
1761468577603505000,9.6555048828125,0.0032749164383858442,-0.1327943205833435,-0.036852702498435974
1761468577613487900,9.66548779296875,0.0029513423796743155,0.08578729629516602,0.03260679915547371
1761468577623471900,9.675471923828125,0.000225825235247612,-0.04620998725295067,-0.011551616713404655
1761468577633455000,9.685455078125,0.0013629947789013386,0.011061558499932289,0.007161617279052734
1761468577643438000,9.69543798828125,0.00299726240336895,-0.0010132987517863512,-0.0033966139890253544
1761468577653420800,9.7054208984375,0.0015508998185396194,-0.018703347072005272,-0.009152503684163094
1761468577663404000,9.715404052734375,0.003852709662169218,-0.01288643665611744,-0.010570202022790909
1761468577673388000,9.725387939453125,0.0012292293831706047,-0.042396388947963715,-0.020123759284615517
1761468577683371000,9.73537109375,-0.000594346784055233,-0.052327193319797516,-0.020441707223653793
1761468577693354000,9.74535400390625,-0.0026250071823596954,0.02606748230755329,0.00635395385324955
1761468577703337000,9.7553369140625,-0.003117961809039116,-0.005955111235380173,-0.0022950901184231043
