time,seconds_elapsed,z,y,x
1761468591244851200,0.114851318359375,7.14324414730072e-7,0.0011840939987450838,0.00033121067099273205
1761468591254834000,0.124833984375,-0.001994368154555559,-0.0015741882380098104,-0.00048015895299613476
1761468591264817000,0.13481689453125,0.0005332380533218384,-0.00035525928251445293,-0.0012032071826979518
1761468591274800000,0.144800048828125,0.0020445610862225294,0.0002941945567727089,0.001987457275390625
1761468591284784000,0.1547841796875,0.000726562924683094,-0.0008874500636011362,0.0011192667298018932
1761468591294767000,0.16476708984375,0.00046173110604286194,-0.002415160182863474,0.00031597050838172436
1761468591304750000,0.17475,-0.0005164481699466705,-0.0022100969217717648,-0.00320845702663064
1761468591314733000,0.184733154296875,0.0007978160865604877,0.0027268461417406797,0.00040483451448380947
1761468591324716000,0.194716064453125,0.0006316346116364002,0.000007492490112781525,0.00044851028360426426
1761468591334700000,0.204699951171875,-0.00008073914796113968,0.0008897974621504545,-0.004365952219814062
1761468591344683000,0.21468310546875,0.0032135911751538515,-0.000039645470678806305,-0.0024340953677892685
1761468591354666000,0.224666015625,0.0009299479424953461,0.00098929344676435,-0.0014494725037366152
1761468591364649000,0.23464892578125,0.0018639182671904564,0.001844701124355197,0.004527726210653782
1761468591374632200,0.244632080078125,-0.004184773191809654,0.000029893359169363976,-0.0005897760856896639
1761468591384616200,0.2546162109375,-0.0009626150131225586,0.0025172859895974398,-0.000041431281715631485
1761468591394599000,0.264598876953125,0.0003468184731900692,-0.001351729966700077,0.0002486109733581543
1761468591404582100,0.27458203125,-0.0020958324894309044,-0.0000017737038433551788,-0.0018030882347375154
1761468591414565000,0.284565185546875,-0.0008689342066645622,0.0035134453792124987,-0.0014466035645455122
1761468591424548000,0.294548095703125,0.0005654441192746162,0.0013190002646297216,0.0004764650948345661
1761468591434531800,0.30453173828125,-0.0026956042274832726,-0.0011992219369858503,-0.001094223465770483
1761468591444515000,0.31451513671875,0.0005148369818925858,0.0010077396873384714,-0.001073717139661312
1761468591454498000,0.324498046875,0.0011910311877727509,-0.0010898567270487547,-0.0014671346871182323
1761468591464481000,0.33448095703125,-0.0030367374420166016,-0.0011188853532075882,-0.0008202528115361929
1761468591474464000,0.344464111328125,-0.00015132687985897064,-0.00046023353934288025,-0.0008891180623322725
1761468591484448000,0.354447998046875,0.0010550851002335548,0.0009698837529867887,0.00023313798010349274
1761468591494431000,0.364430908203125,-0.0009791911579668522,0.0013665228616446257,0.0007480508647859097
1761468591504414200,0.374414306640625,0.0024301877710968256,-0.0008582817390561104,-0.0019513291772454977
1761468591514397200,0.384397216796875,-0.000030022580176591873,-0.0010492573492228985,-0.00027927104383707047
1761468591524381000,0.394380859375,-0.001565068494528532,0.0010562378447502851,-0.0012191006680950522
1761468591534364000,0.404364013671875,-0.0019887369126081467,-0.0006598473992198706,0.0000036605633795261383
1761468591544347100,0.41434716796875,0.0008842810057103634,0.00010288204066455364,0.0024266045074909925
1761468591554330000,0.424330078125,0.000534414779394865,0.0012114716228097677,0.0010956937912851572
1761468591564312800,0.434312744140625,-0.0011199405416846275,0.0023936487268656492,0.00201528356410563
1761468591574296800,0.444296875,-0.0008739223703742027,0.0009556328877806664,0.00019321730360388756
1761468591584280000,0.454280029296875,-0.00183585612103343,0.002092536073178053,-0.0016265206504613161
1761468591594263000,0.464262939453125,-0.0005314522422850132,-0.002157009206712246,-0.0011390573345124722
1761468591604246000,0.47424609375,0.0002475227229297161,0.0008832553867250681,-0.0004887133836746216
1761468591614229000,0.48422900390625,-0.0002389899455010891,-0.0022397050634026527,-0.0014599959831684828
1761468591624213000,0.494212890625,-0.0001401863992214203,0.0006775213405489922,0.0014516378287225962
1761468591634196000,0.504196044921875,0.000041344668716192245,0.0006711226888000965,0.0005411633756011724
1761468591644179200,0.51417919921875,-0.0003695809282362461,0.0022370615042746067,0.00027404818683862686
1761468591654162000,0.524161865234375,0.0007611014880239964,-0.0030634207651019096,-0.0005934033542871475
1761468591664145000,0.534144775390625,0.0005006440915167332,-0.0030160166788846254,-0.00028873770497739315
1761468591674129000,0.54412890625,-0.0018593422137200832,0.0004876528400927782,-0.002075307071208954
1761468591684112100,0.554112060546875,0.0013945079408586025,-0.0019281005952507257,-0.0004204185679554939
1761468591694095000,0.56409521484375,-0.0008496968075633049,-0.002534911036491394,0.0001553073525428772
1761468591704078000,0.574078125,0.0013838959857821465,0.003208728274330497,0.0005300140473991632
1761468591714061000,0.58406103515625,0.0003172224387526512,0.000958016375079751,0.002427802886813879
1761468591724045000,0.594045166015625,-0.0017802831716835499,0.0008403046522289515,0.0005425512790679932
1761468591734028000,0.604028076171875,-0.0018778583034873009,0.0020282857585698366,0.0021419376134872437
1761468591744011000,0.614010986328125,0.0025054384022951126,0.004248030483722687,0.0009459122084081173
1761468591753994000,0.623993896484375,0.00020990893244743347,-0.0006160815246403217,0.00082621187902987
1761468591763977000,0.63397705078125,0.0006874138489365578,0.0008553152438253164,0.00024111545644700527
1761468591773961000,0.6439609375,-0.001591443084180355,0.0020239432342350483,-0.0015873402589932084
1761468591783944200,0.653944091796875,0.002859497908502817,0.0006785141304135323,-0.0005764043889939785
1761468591793927000,0.663927001953125,0.0016287406906485558,0.001083875773474574,-0.0011093381326645613
1761468591803910100,0.67391015625,-0.0019835708662867546,-0.0024259041529148817,-0.0022406489588320255
1761468591813893000,0.68389306640625,0.0003853272646665573,-0.002307949122041464,-0.00019763968884944916
1761468591823877000,0.693877197265625,-0.00016807764768600464,-0.00152950722258538,0.0001363207120448351
1761468591833859800,0.70385986328125,-0.0022644437849521637,-0.0009942641481757164,-0.00018324004486203194
1761468591843843000,0.713843017578125,-0.0007744049653410912,-0.0012185024097561836,-0.00003277137875556946
1761468591853826000,0.723825927734375,-0.00020699948072433472,0.001949833706021309,0.0009033323731273413
1761468591863809000,0.73380908203125,0.004219440743327141,0.0017855167388916016,-0.0013880515471100807
1761468591873793000,0.74379296875,0.0023552991915494204,0.00006290781311690807,-0.003999908454716206
1761468591883776000,0.75377587890625,0.0010351701639592648,0.0004381472244858742,-0.0009556491859257221
1761468591893759000,0.763759033203125,-0.0019522705115377903,0.0009453608654439449,0.0016321060247719288
1761468591903742000,0.773741943359375,0.00016520870849490166,0.0009411000646650791,0.0006344860885292292
1761468591913725200,0.78372509765625,-0.0014761299826204777,0.0007269470952451229,-0.0003776105586439371
1761468591923709000,0.793708984375,0.00043655233457684517,-0.0014131693169474602,0.00005195732228457928
1761468591933692000,0.80369189453125,-0.0020027165301144123,0.0015005990862846375,-0.00015619024634361267
1761468591943675100,0.813675048828125,-0.0007747327908873558,0.002427379135042429,-0.0002517977263778448
1761468591953658000,0.823658203125,0.00019014207646250725,-0.0021469728089869022,0.0004829645622521639
1761468591963640800,0.833640869140625,-0.0009869751520454884,-0.00017516827210783958,-0.0021471732761710882
1761468591973624800,0.843624755859375,0.0020871697925031185,0.00143709615804255,0.0005741319619119167
1761468591983608000,0.853608154296875,0.0019649306777864695,0.00010418402962386608,0.00012805243022739887
1761468591993591000,0.863591064453125,-0.0008983290754258633,-0.003733172081410885,-0.0013205985305830836
1761468592003574000,0.873573974609375,0.002074291231110692,0.00044080032967031,0.00043708784505724907
1761468592013557000,0.883556884765625,0.0007839263416826725,-0.0037781791761517525,-0.0018912882078438997
1761468592023541000,0.893541015625,0.0015477207489311695,0.0007161716930568218,-0.0008550521451979876
1761468592033524000,0.90352392578125,0.0005957768298685551,-0.0026779293548315763,0.0003500985912978649
1761468592043507200,0.913507080078125,0.0005766022950410843,0.0010875142179429531,0.00015089428052306175
1761468592053490000,0.923489990234375,0.000015762168914079666,0.0012823878787457943,0.0013449504040181637
1761468592063473000,0.933472900390625,-0.0002444284036755562,-0.00009446660988032818,-0.000940840458497405
1761468592073457000,0.943456787109375,0.0008330466225743294,-0.001598384347744286,-0.000660027377307415
1761468592083440000,0.953440185546875,0.0020021742675453424,0.0024243202060461044,0.0004640929400920868
1761468592093423000,0.963423095703125,-0.0010752873495221138,0.0019841729663312435,0.00022672046907246113
1761468592103406000,0.973406005859375,0.000781734474003315,0.001042479183524847,-0.0008593166712671518
1761468592113389300,0.983389404296875,0.002853809157386422,0.0008023998234421015,0.002170475199818611
1761468592123373300,0.993373291015625,0.0021973398979753256,0.0023587511386722326,-0.0000543294008821249
1761468592133356000,1.00335595703125,-0.0001948378048837185,-0.0014515055809170008,-0.0015029404312372208
1761468592143339300,1.01333935546875,-0.0012390632182359695,-0.0017356649041175842,0.00021320045925676823
1761468592153322200,1.023322265625,-0.0003429572097957134,0.0018266397528350353,0.0002307291142642498
1761468592163305200,1.03330517578125,0.00007249601185321808,-0.00007246038876473904,-0.0005583653692156076
1761468592173289200,1.043289306640625,-0.002173749264329672,-0.0006722817197442055,0.0016519187483936548
1761468592183272200,1.053272216796875,0.00040046218782663345,-0.0024121247697621584,0.0015983895864337683
1761468592193255200,1.063255126953125,0.0008973241783678532,0.000920264283195138,-0.0001379630994051695
1761468592203238100,1.073238037109375,-0.0002781949006021023,0.0010142738465219736,0.0015624649822711945
1761468592213221400,1.083221435546875,0.0010669608600437641,0.0008235021959990263,-0.0010459471959620714
1761468592223205000,1.093205078125,-0.0003953808918595314,0.002459215698763728,-0.0011444841511547565
1761468592233188000,1.10318798828125,0.0028541614301502705,0.002355049131438136,0.0015039406716823578
1761468592243171300,1.11317138671875,-0.0008763945661485195,-0.0014245091006159782,0.00005624629557132721
1761468592253154300,1.123154296875,-0.002904925961047411,-0.00048625608906149864,0.00042307074181735516
1761468592263137000,1.133136962890625,0.00007222127169370651,-0.0018093145918101072,-0.00363265722990036
1761468592273121000,1.14312109375,0.00005387281998991966,0.0005966643802821636,-0.000001391395926475525
1761468592283104300,1.153104248046875,-0.0020236587151885033,0.0014494084753096104,-0.0007675827946513891
1761468592293087200,1.163087158203125,0.0015716571360826492,0.0010189348831772804,0.0007380354218184948
1761468592303070200,1.1730703125,-0.0016997698694467545,0.0034615863114595413,0.0005252487026154995
1761468592313053200,1.18305322265625,0.0017846631817519665,-0.0016670363256707788,-0.0025062989443540573
1761468592323037200,1.193037109375,0.001947382465004921,-0.0012119021266698837,-0.0014293167041614652
1761468592333020200,1.203020263671875,-0.00041531259194016457,-0.0006602583453059196,-0.0005807443521916866
1761468592343003400,1.21300341796875,0.0013231988996267319,-0.00382116436958313,0.00047333468683063984
1761468592352986000,1.222986083984375,0.0009545008651912212,0.00024455529637634754,0.000632887938991189
1761468592362969000,1.232968994140625,0.0021334823686629534,0.0015289979055523872,0.000754860695451498
1761468592372953000,1.242953125,0.002532566897571087,0.0007865165825933218,-0.0008826879784464836
1761468592382936300,1.252936279296875,-0.0020251674577593803,-0.0014880895614624023,0.00007924577221274376
1761468592392919300,1.262919189453125,-0.0009404020383954048,0.0027104925829917192,0.0002097326796501875
1761468592402902000,1.272902099609375,0.0007613576017320156,-0.0012863795273005962,0.0015261333901435137
1761468592412885200,1.28288525390625,-0.0017699110321700573,0.002910373965278268,0.000361778074875474
1761468592422869200,1.292869140625,-0.0003302060067653656,0.0008168632630258799,-0.0010110812727361917
1761468592432852200,1.302852294921875,-0.0012719649821519852,0.0002854811027646065,-0.0017397556221112609
1761468592442835200,1.312835205078125,0.00047959620133042336,-0.0008176001720130444,-0.0007860776968300343
1761468592452818200,1.322818115234375,-0.0008082049898803234,-0.0024469748605042696,0.00017698993906378746
1761468592462801200,1.33280126953125,-0.00010885903611779213,0.003010374726727605,0.0005479683168232441
1761468592472785200,1.34278515625,0.002634011907503009,-0.0016333383973687887,0.0026624384336173534
1761468592482768400,1.352768310546875,0.000608944334089756,-0.0015137623995542526,0.0008845124393701553
1761468592492751000,1.362751220703125,0.0016390266828238964,-0.0003893566317856312,-0.0010740295983850956
1761468592502734000,1.372734130859375,-0.000391633715480566,-0.0025411907117813826,0.0023366808891296387
1761468592512717300,1.38271728515625,0.00045479414984583855,0.003497777972370386,-0.0012452490627765656
1761468592522701300,1.392701416015625,0.0006622541695833206,-0.0009651472792029381,0.00002427981235086918
1761468592532684000,1.40268408203125,0.0007773758843541145,-0.000683619873598218,0.002240959322080016
1761468592542667300,1.412667236328125,0.0005858945660293102,0.00023943185806274414,0.0007844765204936266
1761468592552650200,1.422650146484375,0.000556508544832468,0.002010616473853588,0.0005360557697713375
1761468592562633200,1.43263330078125,-0.0009633577428758144,0.0017080814577639103,-0.0013681044802069664
1761468592572617200,1.4426171875,-0.0005588885396718979,-0.0013775804545730352,0.0000336675439029932
1761468592582600200,1.45260009765625,0.0009178342297673225,-0.0004012654535472393,0.0011713700369000435
1761468592592583200,1.462583251953125,-0.001342263538390398,0.0011123865842819214,0.000696293544024229
1761468592602566100,1.472566162109375,-0.0010346686467528343,0.0008335537277162075,-0.0037618381902575493
1761468592612549400,1.48254931640625,0.0020633647218346596,0.0015785389114171267,0.0002195253036916256
1761468592622533000,1.492533203125,-0.000019227154552936554,-0.0008028594311326742,-0.0008827571291476488
1761468592632516000,1.50251611328125,0.0017035650089383125,0.00201893481425941,-0.00023771682754158974
1761468592642499300,1.512499267578125,0.000032963696867227554,-0.0011278565507382154,0.00038226693868637085
1761468592652482300,1.522482421875,-0.0008638845756649971,-0.00009350432083010674,0.00019391044043004513
1761468592662465000,1.532465087890625,0.0010802228935062885,-0.002878904575482011,-0.0007805402856320143
1761468592672449000,1.542448974609375,0.0009540198370814323,-0.0005496665835380554,0.001193240750581026
1761468592682432300,1.552432373046875,0.0005084727890789509,0.00004395213909447193,0.0004992210306227207
1761468592692415200,1.562415283203125,0.0005949065089225769,-0.0008003192488104105,-0.00025006476789712906
1761468592702398200,1.572398193359375,0.0009901197627186775,0.0002929084002971649,-0.00022636260837316513
1761468592712381200,1.582381103515625,0.0011310726404190063,-0.002613023854792118,0.0016763252206146717
1761468592722364200,1.5923642578125,-0.00047854194417595863,-0.0008260428439825773,0.0011359700001776218
1761468592732348200,1.60234814453125,0.0007500038482248783,-0.0008257001172751188,-0.0008286032825708389
1761468592742331400,1.612331298828125,0.00014280341565608978,-0.0017668611835688353,0.000521352980285883
1761468592752314000,1.622314208984375,0.0006227255798876286,-0.0017768472898751497,-0.000335117569193244
1761468592762297000,1.632297119140625,0.002487471094354987,0.00017365184612572193,-0.000329258618876338
1761468592772280300,1.6422802734375,-0.0006016762927174568,-0.000669572502374649,-0.0015976850409060717
1761468592782264300,1.652264404296875,0.00024307845160365105,-0.00013720663264393806,-0.0003068509977310896
1761468592792247300,1.662247314453125,0.0018231435678899288,0.003060213290154934,0.000378571217879653
1761468592802230000,1.67222998046875,-0.001090620644390583,-0.0035912978928536177,0.00047817337326705456
1761468592812213200,1.682213134765625,0.001172106247395277,0.0008290794212371111,-0.000981597462669015
1761468592822196200,1.6921962890625,-0.001741125714033842,-0.0017469964222982526,-0.0010990428272634745
1761468592832180200,1.70218017578125,-0.001998948398977518,0.0009505576454102993,0.0005198745056986809
1761468592842163200,1.7121630859375,0.000600829254835844,0.0008975607343018055,-0.000964305130764842
1761468592852146200,1.722146240234375,-0.0015507610514760017,0.000550802331417799,0.0010452214628458023
1761468592862129200,1.732129150390625,-0.0005528745241463184,0.0014685275964438915,0.00011924048885703087
1761468592872112400,1.7421123046875,-0.0005483673885464668,0.000013592885807156563,0.0003796885721385479
1761468592882096400,1.752096435546875,-0.0004724673926830292,0.0013638155069202185,-0.000024579232558608055
1761468592892079000,1.7620791015625,0.0024972381070256233,-0.0018950673984363675,0.0015268635470420122
1761468592902062000,1.77206201171875,-0.0019885902293026447,0.0033090158831328154,-0.0020929051097482443
1761468592912045300,1.78204541015625,0.0015417402610182762,0.00107291410677135,0.0017270476091653109
1761468592922028300,1.7920283203125,-0.0005102250725030899,0.0007501391228288412,-0.001764090033248067
1761468592932012000,1.802011962890625,-0.00014261621981859207,-0.0018109738593921065,-0.0011122460709884763
1761468592941995300,1.811995361328125,0.0002829567529261112,-0.002720177173614502,-0.0012701714877039194
1761468592951978200,1.821978271484375,0.0022142326924949884,-0.0018389123724773526,-0.0008024373091757298
1761468592961961200,1.831961181640625,-0.0013709147460758686,-0.0018500976730138063,0.0008764192461967468
1761468592971944200,1.841944091796875,0.0014403564855456352,-0.002968061249703169,-0.000965651124715805
1761468592981928200,1.85192822265625,0.0007468690164387226,-0.0013856110163033009,-0.000426627229899168
1761468592991911200,1.8619111328125,0.0020433817990124226,-0.002429146086797118,-0.00001733633689582348
1761468593001894100,1.87189404296875,-0.000752671156078577,0.0009826296009123325,0.0014628488570451736
1761468593011877400,1.88187744140625,-0.001287250779569149,-0.0015617089811712503,0.0023944401182234287
1761468593021860000,1.891860107421875,-0.0006872406229376793,0.0011685634963214397,0.0019241259433329105
1761468593031844000,1.901843994140625,0.0013731364160776138,0.0018047965131700039,-0.0007270313799381256
1761468593041827300,1.911827392578125,-0.00081598199903965,-0.00040962197817862034,-0.0009262359235435724
1761468593051810300,1.921810302734375,0.0029832201544195414,-0.0011506807059049606,-0.0008745507802814245
1761468593061793000,1.93179296875,0.0014340593479573727,-0.001820998266339302,-0.00016828044317662716
1761468593071776300,1.9417763671875,-0.0006896629929542542,0.001695486018434167,0.0006651768926531076
1761468593081760300,1.95176025390625,-0.0009248200803995132,-0.0006195995956659317,-0.00026586418971419334
1761468593091743200,1.9617431640625,-0.0018235063180327415,0.0029691935051232576,0.0013125415425747633
1761468593101726200,1.971726318359375,-0.0009638378396630287,-0.000989595428109169,-0.0008637937717139721
1761468593111709200,1.981709228515625,0.00010020099580287933,0.0011766557581722736,0.0024275535251945257
1761468593121696000,1.991696044921875,-0.0006012758240103722,-0.0011123311705887318,0.000983853591606021
1761468593131678700,2.0016787109375,0.0013495399616658688,-0.0003146689850836992,0.002126714214682579
1761468593141662700,2.011662841796875,-0.0013474435545504093,-0.0035131254699081182,0.002415134571492672
1761468593151646000,2.02164599609375,-0.0003987564705312252,-0.0012646510731428862,0.000057788798585534096
1761468593161629000,2.03162890625,-0.0011934437789022923,-0.0018385621951892972,-0.0005368948914110661
1761468593171612000,2.04161181640625,-0.00019250670447945595,-0.0005720683839172125,0.000003412598744034767
1761468593181595000,2.051594970703125,0.0005097691901028156,0.0001160923857241869,0.0006071513053029776
1761468593191579000,2.061578857421875,0.002339392900466919,-0.0011548344045877457,-0.0000051995739340782166
1761468593201561900,2.071561767578125,-0.00007289834320545197,-0.0012794702779501677,0.001137296436354518
1761468593211545000,2.081545166015625,0.0005358601920306683,0.00022606388665735722,-0.0013727735495194793
1761468593221527800,2.09152783203125,-0.0008452553302049637,0.0014372693840414286,-0.0006606443785130978
1761468593231510800,2.1015107421875,0.0014797975309193134,0.0015439954586327076,0.0014406463596969843
1761468593241494800,2.111494873046875,-0.00022036442533135414,0.0006941808387637138,-0.0020022885873913765
1761468593251478000,2.12147802734375,-0.0009275786578655243,0.0006997662130743265,0.0007472957950085402
1761468593261461000,2.1314609375,0.0018700719811022282,-0.001562056364491582,-0.0006620490457862616
1761468593271444000,2.14144384765625,-0.0009089349769055843,-0.003343951189890504,0.0004466341342777014
1761468593281427000,2.151427001953125,-0.0008319695480167866,0.00208809832111001,0.00039656669832766056
1761468593291411000,2.161410888671875,0.0011731567792594433,-0.0014519609976559877,0.001322402385994792
1761468593301394000,2.171393798828125,-0.00016002170741558075,-0.0018245372921228409,-0.00021264352835714817
1761468593311377000,2.181376953125,0.001122557558119297,-0.0011739253532141447,0.003851840505376458
1761468593321360000,2.19135986328125,0.0011366726830601692,0.0006399538833647966,0.0012653784360736609
1761468593331342800,2.2013427734375,-0.0017173648811876774,-0.001027202932164073,-0.0015887513291090727
1761468593341326800,2.211326904296875,0.001100259367376566,0.0008841478265821934,0.0012499119620770216
1761468593351310000,2.22131005859375,-0.00019931001588702202,-0.0005856738425791264,0.0006933838594704866
1761468593361292800,2.231292724609375,0.0011700871400535107,0.002180019160732627,-0.0019612552132457495
1761468593371275800,2.24127587890625,-0.00017487118020653725,0.000578785315155983,0.00039876182563602924
1761468593381259000,2.251259033203125,-0.0004912549629807472,-0.0013610611204057932,-0.0020790433045476675
1761468593391241700,2.26124169921875,0.001179009210318327,0.0013575968332588673,-0.000053454190492630005
1761468593401225700,2.271225830078125,-0.0016141142696142197,0.0034295362420380116,0.0006381685379892588
1761468593411209000,2.281208984375,0.001099633052945137,0.001193783013150096,-0.00034498516470193863
1761468593421192000,2.29119189453125,-0.0003464631736278534,0.0002717969473451376,-0.0013876126613467932
1761468593431175000,2.3011748046875,-0.0014593470841646194,0.0022457472514361143,0.0002484347205609083
1761468593441158000,2.311157958984375,-0.0006042062304913998,0.001244931248947978,0.0011539093684405088
1761468593451142000,2.321141845703125,0.0016118930652737617,-0.0016965001123026013,0.002567233983427286
1761468593461124900,2.331124755859375,-0.0020169303752481937,-0.0006328336894512177,0.0026154369115829468
1761468593471107800,2.34110791015625,0.0006645158864557743,-0.0023792076390236616,0.00006235367618501186
1761468593481091000,2.351091064453125,0.0027790660969913006,-0.002094249241054058,0.0015470660291612148
1761468593491073800,2.36107373046875,-0.0018346905708312988,-0.000037168851122260094,-0.000766166253015399
1761468593501057800,2.371057861328125,-0.002318853512406349,-0.0015703507233411074,-0.00041942251846194267
1761468593511041000,2.381041015625,-0.003011817578226328,0.001105068949982524,0.004964190069586039
1761468593521024000,2.39102392578125,0.0018364670686423779,0.0022377113346010447,-0.0006601393688470125
1761468593531006700,2.4010068359375,0.0004448886029422283,-0.0016971502918750048,-0.0017317800084128976
1761468593540990000,2.410989990234375,-0.001004137098789215,0.0043309153988957405,-0.0011024749837815762
1761468593550974000,2.420973876953125,0.0002678306773304939,0.001589667983353138,-0.0008054787758737803
1761468593560957000,2.43095703125,-0.0014600283466279507,-0.0004497808404266834,-0.001390841556712985
1761468593570940000,2.44093994140625,-0.0002337791956961155,-0.0026175458915531635,-0.001328007783740759
1761468593580923000,2.4509228515625,-0.0017368672415614128,-0.0020644073374569416,-0.001378874178044498
1761468593590905900,2.46090576171875,-0.0031456653960049152,-0.0007060146890580654,0.0025315117090940475
1761468593600889900,2.470889892578125,0.0014576083049178123,0.0009494060650467873,0.002332040574401617
1761468593610873000,2.480873046875,-0.0008238153532147408,-0.00014534546062350273,0.0005237406585365534
1761468593620855800,2.490855712890625,0.000813762191683054,0.0007928863633424044,0.0001389139797538519
1761468593630838800,2.5008388671875,0.0010328786447644234,-0.0014618723653256893,0.0014674677513539791
1761468593640822000,2.510822021484375,-0.0004592905752360821,0.00005266745574772358,0.00008688517846167088
1761468593650805000,2.520804931640625,-0.0010131802409887314,-0.00037597049959003925,-0.00203248905017972
1761468593660789000,2.5307890625,-0.0002528480254113674,0.0031007863581180573,0.00017447234131395817
1761468593670771700,2.540771728515625,-0.001760648563504219,0.0011156187392771244,-0.0027850240003317595
1761468593680755000,2.5507548828125,-0.001193927600979805,0.0070171840488910675,-0.0009354585781693459
1761468593690738000,2.560738037109375,-0.000845189206302166,0.0010291470680385828,-0.00045285653322935104
1761468593700721000,2.570720947265625,0.0017601815052330494,0.0010531155858188868,-0.002088836394250393
1761468593710705000,2.580704833984375,0.000649802852421999,-0.0007125867996364832,0.0014833284076303244
1761468593720687900,2.59068798828125,-0.0006322427652776241,0.0013284599408507347,0.00157653889618814
1761468593730670800,2.6006708984375,-0.00008897483348846436,0.00011331727728247643,0.002198150148615241
1761468593740654000,2.610654052734375,0.0003730836324393749,-0.003291267901659012,0.0004093046300113201
1761468593750636800,2.62063671875,0.00013843970373272896,-0.0006586983799934387,0.0038061460945755243
1761468593760620800,2.630620849609375,0.0015541762113571167,-0.0007511102594435215,0.00039570219814777374
1761468593770603800,2.640603759765625,0.00021859165281057358,-0.0010111627634614706,0.0014550250489264727
1761468593780587000,2.6505869140625,-0.0029700109735131264,-0.0025763025041669607,0.0005825734697282314
1761468593790570000,2.660570068359375,0.0007902812212705612,-0.000727419275790453,0.00009275786578655243
1761468593800553000,2.670552978515625,-0.00047285621985793114,0.0015368005260825157,0.002838743384927511
1761468593810537000,2.680536865234375,0.0003929873928427696,-0.0011042708065360785,-0.0008791978470981121
1761468593820520000,2.69052001953125,0.0036545610055327415,-0.000269369687885046,0.00008433382026851177
1761468593830503000,2.7005029296875,-0.002278486732393503,0.0020524838473647833,0.0006747771985828876
1761468593840486000,2.71048583984375,0.0006062490865588188,-0.002455448964610696,0.0014998246915638447
1761468593850468900,2.72046875,-0.0005067861638963223,0.0011528069153428078,-0.0019363563042134047
1761468593860452900,2.730452880859375,0.0010152105242013931,0.0025560264475643635,-0.0013102471129968762
1761468593870435800,2.740435791015625,0.0009799115359783173,0.00049973139539361,0.00045348796993494034
1761468593880419000,2.750419189453125,-0.0014193304814398289,0.0012099966406822205,-0.001472243806347251
1761468593890401800,2.76040185546875,0.0008881608955562115,0.0005989391356706619,0.000310245668515563
1761468593900385000,2.770385009765625,-0.0009859055280685425,-0.0018453099764883518,0.00012728641740977764
1761468593910368000,2.780367919921875,-0.001401457004249096,-0.0015532516408711672,0.0012382841669023037
1761468593920352000,2.79035205078125,-0.0006813383661210537,-0.001463236752897501,0.00041669909842312336
1761468593930334700,2.800334716796875,-0.0008282293565571308,0.00010000541806221008,-0.000554253114387393
1761468593940318000,2.81031787109375,-0.00038454681634902954,-0.0036915368400514126,-0.001095141051337123
1761468593950301000,2.820301025390625,0.0001927376724779606,0.0004188092425465584,0.001104880589991808
1761468593960284000,2.830283935546875,0.0015490856021642685,0.0010923226363956928,0.0013384399935603142
1761468593970268000,2.840267822265625,0.0019392757676541805,-0.0013629733584821224,-0.001391271478496492
1761468593980251000,2.8502509765625,-0.0003089648671448231,-0.0002228741068392992,0.0015488583594560623
1761468593990233900,2.86023388671875,0.0016793860122561455,0.0011336340103298426,0.00039162347093224525
1761468594000217000,2.870217041015625,0.0019763282034546137,-0.003114107996225357,-0.0013929607812315226
1761468594010200000,2.880199951171875,-0.000018480699509382248,0.000459370668977499,0.0015459454152733088
1761468594020183800,2.890183837890625,-0.0015199710614979267,-0.0005395812913775444,0.0016916205640882254
1761468594030166800,2.900166748046875,0.0011193216778337955,0.0000825393944978714,-0.00022021192125976086
1761468594040150000,2.91014990234375,-0.000574981328099966,-0.00039975903928279877,0.0013369382359087467
1761468594050133000,2.920133056640625,0.0009057493880391121,0.0019101505167782307,-0.000766019569709897
1761468594060115700,2.93011572265625,-0.0003651110455393791,0.0014065466821193695,-0.00036308332346379757
1761468594070099000,2.940098876953125,-0.0009131669066846371,0.0012053684331476688,0.0009249977301806211
1761468594080083000,2.9500830078125,0.0003499705344438553,-0.0021637966856360435,-0.0018393633654341102
1761468594090066000,2.96006591796875,-0.00007229810580611229,-0.0006476109847426414,0.000195289496332407
1761468594100049000,2.970048828125,0.00030160974711179733,-0.00031737913377583027,0.00041420129127800465
1761468594110032000,2.980031982421875,0.0005532563664019108,-0.0014430310111492872,-0.0003587915562093258
1761468594120010800,2.9900107421875,0.0005021234974265099,-0.00021531363017857075,0.0008343043737113476
1761468594129994800,2.999994873046875,0.002266491996124387,0.0015986289363354445,-0.00024107005447149277
1761468594139978000,3.00997802734375,-0.000607058871537447,-0.0008072706405073404,-0.00020538363605737686
1761468594149961000,3.0199609375,0.0002424558624625206,-0.00021933205425739288,0.0007802352774888277
1761468594159944000,3.02994384765625,0.0010158377699553967,0.001518114237114787,-0.0014717336744070053
1761468594169927000,3.039927001953125,-0.0010196119546890259,-0.0019125838298350573,0.0004478131886571646
1761468594179911000,3.049910888671875,0.0004829433746635914,-0.0018481352599337697,-0.00016444758512079716
1761468594189894000,3.059893798828125,0.001987415598705411,0.0008910177275538445,-0.0011466329451650381
1761468594199877000,3.069877197265625,0.0009154933504760265,-0.0009577488526701927,-0.002663036808371544
1761468594209859800,3.07985986328125,-0.00046274997293949127,0.00004511675797402859,0.0028956239111721516
1761468594219842800,3.0898427734375,-0.001089924480766058,0.002012393670156598,0.001476159319281578
1761468594229826800,3.099826904296875,-0.0009211599826812744,-0.00025924202054739,-0.00003893813118338585
1761468594239810000,3.10981005859375,0.00019843271002173424,0.0007037569303065538,0.0010186030995100737
1761468594249792800,3.119792724609375,-0.00019513582810759544,-0.002804521005600691,-0.0023704315535724163
1761468594259776000,3.12977587890625,0.00004188530147075653,-0.0023661646991968155,-0.0010596236679702997
1761468594269759000,3.139759033203125,0.0007960055954754353,-0.0018023960292339325,0.000642778817564249
1761468594279742000,3.149741943359375,-0.00017977645620703697,0.0011878013610839844,0.001600984251126647
1761468594289726000,3.159725830078125,0.0018615061417222023,-0.0008623208850622177,0.0007212224882096052
1761468594299709000,3.169708984375,-0.001303927507251501,0.00022398238070309162,0.0002176188863813877
1761468594309692000,3.17969189453125,0.001484377309679985,0.002711195033043623,0.0004412995185703039
1761468594319675000,3.1896748046875,-0.0005891597829759121,0.0025609927251935005,0.0023073763586580753
1761468594329657900,3.199657958984375,-0.0009284620173275471,0.0019532248843461275,0.00027276366017758846
1761468594339641900,3.209641845703125,-0.0017630970105528831,-0.002509966492652893,-0.0014737372985109687
1761468594349624800,3.219624755859375,-0.002876434475183487,0.0004676233511418104,0.0016284664161503315
1761468594359607800,3.22960791015625,-0.00006413692608475685,-0.0028586648404598236,0.0017262045294046402
1761468594369591000,3.239591064453125,-0.0019317683763802052,-0.0013713298831135035,-0.0008279606699943542
1761468594379573800,3.24957373046875,-0.0020449524745345116,-0.0023492425680160522,0.0025161707308143377
1761468594389557800,3.259557861328125,0.0022126075346022844,0.0031402173917740583,0.0006687792483717203
1761468594399541000,3.269541015625,0.0010123206302523613,-0.0029861184302717447,-0.0008907679002732038
1761468594409524000,3.27952392578125,0.0024741950910538435,0.0025091860443353653,0.0008706862572580576
1761468594419506700,3.289506591796875,0.0028339880518615246,-0.0028168698772788048,-0.002546948380768299
1761468594429490000,3.299489990234375,-0.001670286525040865,0.0021748612634837627,-0.002392217982560396
1761468594439474000,3.309473876953125,-0.0012961123138666153,-0.0017554316436871886,0.00043792324140667915
1761468594449457000,3.319456787109375,-0.0016132029704749584,0.0030983618926256895,0.0013538736384361982
1761468594459439900,3.32943994140625,-0.003147450275719166,0.0010083129163831472,-0.0013801275053992867
1761468594469422800,3.3394228515625,-0.000608883798122406,0.0007537417113780975,0.00042476318776607513
1761468594479405800,3.34940576171875,-0.00007412116974592209,-0.00047131231985986233,0.0026365185622125864
1761468594489389800,3.359389892578125,-0.0014544222503900528,0.002090452704578638,0.0007838963065296412
1761468594499373000,3.369373046875,0.0016031526029109955,-0.0019530248828232288,-0.001103486167266965
1761468594509356000,3.37935595703125,0.0008291262201964855,-0.0012353004422038794,-0.00021264259703457355
1761468594519338800,3.3893388671875,-0.0006755595095455647,-0.0018385063158348203,0.0014632847160100937
1761468594529322000,3.399322021484375,0.002018747851252556,-0.002873769961297512,0.0016382476314902306
1761468594539305000,3.409304931640625,-0.00308653200045228,0.00014545582234859467,-0.000916789285838604
1761468594549289000,3.4192890625,-0.0027734139002859592,0.001722848042845726,-0.00025566667318344116
1761468594559272000,3.42927197265625,0.00013742130249738693,0.0012096567079424858,0.0004996058996766806
1761468594569255000,3.4392548828125,0.0003526005893945694,0.0010224096477031708,-0.0011322826612740755
1761468594579238000,3.44923779296875,0.00027084164321422577,0.0007281303405761719,0.0009516407735645771
1761468594589221000,3.45922119140625,0.0020718106534332037,-0.0013983827084302902,0.0009017093107104301
1761468594599205000,3.469205078125,0.0003444845788180828,0.004634476266801357,-0.001427491195499897
1761468594609187800,3.479187744140625,-0.0019611194729804993,-0.0016566794365644455,0.00035327672958374023
1761468594619170800,3.4891708984375,-0.002495615743100643,-0.0017730596009641886,0.0015620857011526823
1761468594629154000,3.499154052734375,-0.0007687536999583244,0.0005416057538241148,0.0020245916675776243
1761468594639136800,3.50913671875,-0.0016459990292787552,-0.002996137598529458,-0.0008548181504011154
1761468594649120800,3.519120849609375,0.00012626266106963158,0.0010570967569947243,0.0014467237051576376
1761468594659103700,3.529103759765625,0.0020109820179641247,-0.0013847555965185165,-0.0001192151103168726
1761468594669087000,3.5390869140625,-0.00032079312950372696,0.0010385471396148205,0.00003346358425915241
1761468594679070000,3.549070068359375,0.002184975193813443,-0.0006717348005622625,0.002718728967010975
1761468594689053000,3.559052978515625,-0.0010709119960665703,0.0007997606880962849,-0.002541451482102275
1761468594699037000,3.569036865234375,-0.00016357330605387688,0.002037864178419113,0.00010546436533331871
1761468594709020000,3.57902001953125,0.0011564441956579685,0.002252179430797696,-0.0005379810463637114
1761468594719003000,3.5890029296875,-0.0004947157576680183,-0.00037236581556499004,-0.00023384811356663704
1761468594728985900,3.59898583984375,0.00011553335934877396,0.00012374459765851498,0.003270223969593644
1761468594738968800,3.60896875,-0.0004133707843720913,0.0000542360357940197,0.0015828453470021486
1761468594748952800,3.618952880859375,-0.001126705203205347,0.0005526351742446423,0.00011673243716359138
1761468594758935800,3.628935791015625,0.0006341766566038132,-0.0013057186733931303,0.0011439137160778046
1761468594768919000,3.6389189453125,-0.0011943592689931393,0.0010174002964049578,-0.0008178721182048321
1761468594778901800,3.64890185546875,-0.0006164531223475933,0.000702614663168788,0.00008414057083427906
1761468594788885000,3.658885009765625,-0.0008845711126923561,0.0018969806842505932,-0.0003068021032959223
1761468594798869000,3.668868896484375,-0.0008163941092789173,0.001177927479147911,-0.00121067906729877
1761468594808852000,3.67885205078125,-0.0020854584872722626,0.0016102667432278395,-0.002362595871090889
1761468594818835000,3.6888349609375,0.00017902767285704613,0.0012478104326874018,-0.0002935859374701977
1761468594828818000,3.69881787109375,-0.0013283388689160347,-0.0007381336763501167,0.0015218984335660934
1761468594838801000,3.70880078125,0.0005411999300122261,0.0002000979147851467,-0.0014627061318606138
1761468594848785000,3.718784912109375,0.001965806121006608,0.0005205967463552952,0.003041763324290514
1761468594858768000,3.728767822265625,-0.0018153497949242592,0.0012593576684594154,-0.0002472405321896076
1761468594868750800,3.738750732421875,0.0008811671286821365,-0.0008137598633766174,-0.001148768002167344
1761468594878733800,3.74873388671875,0.00015465682372450829,-0.0033815796487033367,0.001786035718396306
1761468594888717000,3.758717041015625,-0.00010492466390132904,0.00024167518131434917,-0.001136930426582694
1761468594898700000,3.768699951171875,0.0015009618364274502,-0.0008526176679879427,0.001593608409166336
1761468594908684000,3.77868408203125,-0.0010557398200035095,-0.00034436676651239395,0.00012716231867671013
1761468594918666800,3.788666748046875,0.0016558906063437462,-0.0005710017867386341,0.0004507363773882389
1761468594928650000,3.79864990234375,-0.0013613137416541576,0.002478742739185691,0.0035616031382232904
1761468594938633000,3.808633056640625,0.0006621559150516987,0.0007580744568258524,0.001047579338774085
1761468594948615700,3.81861572265625,-0.0006980644538998604,-0.0011707984376698732,-0.00024501956067979336
1761468594958599700,3.828599609375,-0.0016898256726562977,-0.0011098121758550406,0.000005850335583090782
1761468594968583000,3.8385830078125,-0.00018936488777399063,0.00012446008622646332,0.0009035333059728146
1761468594978566000,3.84856591796875,0.000981893390417099,0.0013796081766486168,0.0009267027489840984
1761468594988549000,3.858549072265625,-0.0009505697526037693,0.0006257705390453339,-0.0011223459150642157
1761468594998531800,3.86853173828125,0.0030146108474582434,-0.0013486971147358418,-0.000017134007066488266
1761468595008515800,3.878515869140625,-0.002454997505992651,0.003326723352074623,0.0014666495844721794
1761468595018498800,3.888498779296875,-0.0008874610066413879,0.000401507131755352,0.001054658554494381
1761468595028482000,3.89848193359375,0.0017957859672605991,0.0004705709870904684,0.0001065318938344717
1761468595038465000,3.908465087890625,-0.002076183445751667,-0.00013902666978538036,-0.00116006750613451
1761468595048447700,3.91844775390625,-0.0006794184446334839,-0.0031816763803362846,-0.0004276458639651537
1761468595058431700,3.928431640625,-0.00004505366086959839,-0.0007925545796751976,-0.0007482904475182295
1761468595068415000,3.9384150390625,-0.0007072538137435913,0.00005822908133268356,-0.00014604651369154453
1761468595078398000,3.94839794921875,0.002652590163052082,-0.0021380800753831863,-0.0005524447187781334
1761468595088381000,3.958380859375,-0.000693880021572113,0.003086235374212265,0.00005063158459961414
1761468595098364000,3.968364013671875,-0.0008464790880680084,-0.0006515111308544874,0.00026767910458147526
1761468595108348000,3.978347900390625,0.0011172490194439888,0.0014077022206038237,0.0004177314694970846
1761468595118334700,3.988334716796875,-0.000035633333027362823,-0.0018365603173151612,-0.0023048180155456066
1761468595128318000,3.99831787109375,0.000960126519203186,0.0014753807336091995,0.0008422671817243099
1761468595138299600,4.008299560546875,-0.001479861792176962,0.0006548608653247356,0.0011077839881181717
1761468595148283000,4.018282958984375,-0.0003145867958664894,0.0011663574259728193,0.0003912246320396662
1761468595158267000,4.028266845703125,0.0014074132777750492,-0.004347717389464378,-0.00345890736207366
1761468595168249900,4.038249755859375,0.0006438745185732841,0.00013090716674923897,-0.0004398229066282511
1761468595178232600,4.048232666015625,-0.0008626757189631462,-0.0011037341319024563,0.0007335660047829151
1761468595188215800,4.0582158203125,0.0010884902440011501,0.0009385091252624989,-0.0025473516434431076
1761468595198198800,4.06819873046875,0.00007888581603765488,0.0015726080164313316,0.0008308680262416601
1761468595208182800,4.078182861328125,0.0011218772269785404,-0.0005617679562419653,-0.0014000956434756517
1761468595218165800,4.088165771484375,-0.0028499611653387547,0.000010279007256031036,-0.001193168107420206
1761468595228148700,4.098148681640625,0.0009878547862172127,0.0008219070732593536,-0.0004567003343254328
1761468595238131700,4.108131591796875,0.003130634082481265,0.002060809638351202,0.0015457305125892162
1761468595248115000,4.118114990234375,-0.001740464475005865,-0.0013101138174533844,-0.0015773010673001409
1761468595258099000,4.128098876953125,0.0015570619143545628,0.00006301212124526501,0.001066685188561678
1761468595268081700,4.13808154296875,0.0016160286031663418,0.0011101155541837215,-0.0019471918931230903
1761468595278064600,4.148064697265625,-0.00033926405012607574,0.002885378897190094,0.00019904947839677334
1761468595288047900,4.1580478515625,0.0007016817107796669,-0.0027315893676131964,-0.0014802024234086275
1761468595298030800,4.16803076171875,-0.0008312338031828403,-0.001489490969106555,0.0010375501587986946
1761468595308014800,4.178014892578125,-0.0006528287194669247,0.0021387028973549604,0.0026458706706762314
1761468595317997600,4.18799755859375,0.00000683637335896492,-0.0022363378666341305,0.001687132753431797
1761468595327980800,4.197980712890625,-0.0018056402914226055,0.001265592873096466,-0.0012463047169148922
1761468595337963800,4.2079638671875,0.0008170404471457005,0.00008900836110115051,0.0025787935592234135
1761468595347947000,4.217947021484375,0.0011053672060370445,0.0020741159096360207,0.00011982442811131477
1761468595357931000,4.227930908203125,0.00009469734504818916,0.0013955426402390003,0.0005717629101127386
1761468595367913700,4.237913818359375,0.0028684185817837715,-0.0033036842942237854,0.0009306301362812519
1761468595377896700,4.247896728515625,0.0018694670870900154,0.002520116278901696,-0.001137314597144723
1761468595387880000,4.2578798828125,-0.0010193414054811,-0.002353326417505741,-0.002857440384104848
1761468595397862700,4.267862548828125,0.0017090667970478535,0.0026464920956641436,0.0006944176275283098
1761468595407846700,4.2778466796875,-0.0014146743342280388,-0.0015860616695135832,-0.0024605526123195887
1761468595417829600,4.28782958984375,-0.0012239916250109673,0.0012275681365281343,-0.002184648998081684
1761468595427812900,4.297812744140625,-0.0036182845942676067,0.0011981010902673006,-0.0006646472029387951
1761468595437795800,4.3077958984375,-0.00016975728794932365,-0.0013377610594034195,-0.00017089699395000935
1761468595447778800,4.31777880859375,0.0015725120902061462,-0.0008161112200468779,0.0011599035933613777
1761468595457762800,4.3277626953125,-0.00010767625644803047,0.0002701922785490751,0.0019364813342690468
1761468595467745800,4.337745849609375,0.00200689141638577,-0.0007423451170325279,0.0014550760388374329
1761468595477728800,4.347728759765625,0.002219411777332425,-0.002980465767905116,-0.0014714716235175729
1761468595487711700,4.357711669921875,-0.0016806800849735737,-0.00171071314252913,0.0016572368331253529
1761468595497694700,4.36769482421875,0.0009688986465334892,-0.002776243956759572,-0.00024931994266808033
1761468595507678700,4.3776787109375,0.0011320714838802814,0.0008374382741749287,0.0018324388656765223
1761468595517661700,4.38766162109375,-0.0012005912140011787,0.0026784813962876797,0.0032811982091516256
1761468595527645000,4.39764501953125,-0.0007812394760549068,0.0013061938807368279,0.001285698264837265
1761468595537627600,4.407627685546875,-0.0023562326095998287,0.0019070026464760303,-0.0008179324213415384
1761468595547611000,4.41761083984375,0.0019859650637954473,-0.0017999705160036683,-0.0014699554303660989
1761468595557595000,4.427594970703125,0.0007939338684082031,0.0013806428760290146,-0.001961308531463146
1761468595567577900,4.437577880859375,-0.0004623951390385628,-0.00043632183223962784,0.0012097391299903393
1761468595577560600,4.447560546875,0.0020644119940698147,-0.0026496751233935356,-0.001114934217184782
1761468595587543800,4.457543701171875,-0.000652107410132885,-0.001841976074501872,0.0026166297029703856
1761468595597526800,4.46752685546875,-0.0009690234437584877,-0.0010078740306198597,-0.00017462926916778088
1761468595607510800,4.4775107421875,0.0012169764377176762,-0.002629893599078059,0.0019944023806601763
1761468595617493800,4.48749365234375,-0.000573732890188694,-0.002873306628316641,0.0016686979215592146
1761468595627476700,4.497476806640625,0.00025477493181824684,-0.001795457792468369,0.0006921770982444286
1761468595637459700,4.507459716796875,0.002561338944360614,-0.002957394812256098,-0.0005640359595417976
1761468595647443000,4.51744287109375,0.0001497305929660797,0.000005656154826283455,-0.0011777991894632578
1761468595657427000,4.527427001953125,0.0010967510752379894,0.0017178026027977467,-0.0011895170900970697
1761468595667410000,4.537409912109375,0.000046809203922748566,0.001799639081582427,-0.00045526260510087013
1761468595677392600,4.547392578125,0.0002915533259510994,0.004117121919989586,-0.002308822702616453
1761468595687376000,4.5573759765625,-0.0010841591283679008,-0.00019579613581299782,0.00013175653293728828
1761468595697358800,4.56735888671875,-0.003113754093647003,0.0018114284612238407,-0.0006472179666161537
1761468595707342800,4.5773427734375,0.00010095443576574326,-0.00007536192424595356,0.0011854798067361116
1761468595717325600,4.58732568359375,-0.000869235023856163,0.0016706062015146017,-0.00046035367995500565
1761468595727310800,4.597310791015625,-0.0004886416718363762,-0.0011453921906650066,0.0009016208350658417
1761468595737293800,4.6072939453125,0.001332427840679884,-0.00091769197024405,0.0014851191081106663
1761468595747276800,4.61727685546875,-0.0007029282860457897,-0.0014342023059725761,0.0024008990731090307
1761468595757259800,4.627259765625,0.0008219978772103786,-0.002322899177670479,-0.0014649457298219204
1761468595767243800,4.637243896484375,0.0005107587203383446,-0.00020999927073717117,0.005501250736415386
1761468595777226800,4.647226806640625,0.0010601687245070934,-0.0007708610501140356,0.0018425998277962208
1761468595787209700,4.657209716796875,0.0006918818689882755,0.0006223998498171568,-0.0013695437228307128
1761468595797192700,4.667192626953125,0.000510786660015583,-0.001792554510757327,0.0004888100083917379
1761468595807176000,4.677176025390625,-0.002920151222497225,-0.0005414255429059267,0.0009921013843268156
1761468595817160000,4.687159912109375,-0.0018223961815238,0.0006617906037718058,-0.0007906185928732157
1761468595827142700,4.697142578125,-0.00010246550664305687,0.0004579413216561079,0.001962912268936634
1761468595837126000,4.7071259765625,0.0009619998745620251,0.0003285116981714964,-0.0010536503978073597
1761468595847108900,4.71710888671875,0.0014555244706571102,0.0005860722158104181,-0.0006073848344385624
1761468595857091600,4.727091552734375,-0.001710441429167986,0.0006912669632583857,-0.0012127214577049017
1761468595867075600,4.73707568359375,0.0017140591517090797,0.001087608514353633,-0.0014344988157972693
1761468595877058800,4.747058837890625,0.0017825025133788586,0.001111843390390277,0.0004608728922903538
1761468595887041800,4.757041748046875,0.0017067985609173775,-0.0024954834952950478,0.0022694040089845657
1761468595897024800,4.767024658203125,0.0009366124868392944,0.0008656922727823257,0.0004081206861883402
1761468595907007700,4.7770078125,0.0003018663264811039,0.0004357709549367428,-0.0008492018096148968
1761468595916991700,4.78699169921875,0.0007902900688350201,-0.0016942252404987812,0.0019777435809373856
1761468595926974700,4.796974609375,0.00009156158193945885,-0.002845779526978731,0.0019805077463388443
1761468595936958000,4.8069580078125,-0.0038882666267454624,-0.0012534756679087877,-0.0004102117381989956
1761468595946941000,4.81694091796875,0.0004022088833153248,-0.0002210747916251421,0.0003023408353328705
1761468595956923600,4.826923583984375,-0.0016164672560989857,-0.0018317545764148235,0.0010392377153038979
1761468595966907600,4.83690771484375,0.0013380544260144234,0.0005019586533308029,0.00042567471973598003
1761468595976891000,4.846890869140625,0.0010123499669134617,-0.0018703850219026208,-0.0009567721281200647
1761468595986873900,4.856873779296875,-0.0017618658021092415,-0.0024708821438252926,0.00031159655191004276
1761468595996856600,4.866856689453125,0.0020102353300899267,-0.001819739118218422,0.001704429741948843
1761468596006839800,4.87683984375,0.0027639069594442844,0.00020505674183368683,0.001247140346094966
1761468596016823800,4.88682373046875,-0.00011337222531437874,-0.0007534150499850512,0.00006096833385527134
1761468596026806800,4.896806884765625,0.0014490429311990738,0.00042132125236094,-0.0013655949151143432
1761468596036790000,4.9067900390625,0.001895122230052948,0.00019868114031851292,0.001315675675868988
1761468596046772700,4.916772705078125,0.001312906388193369,-0.00006865127943456173,-0.0010501667857170105
1761468596056755700,4.926755615234375,0.0019494015723466873,-0.0004747833590954542,0.00013334187678992748
1761468596066739000,4.936739013671875,0.00004821363836526871,0.0016959062777459621,0.0011392077431082726
1761468596076723000,4.946722900390625,0.0008189324289560318,-0.0002844205591827631,-0.00024430430494248867
1761468596086705700,4.95670556640625,0.0001124255359172821,-0.0010894883889704943,0.0002840911038219929
1761468596096688600,4.966688720703125,0.00043866271153092384,-0.001406404422596097,-0.0010903661604970694
1761468596106671900,4.976671875,0.00009557604789733887,-0.000591387040913105,-0.00003116810694336891
1761468596116652500,4.986652587890625,-0.0014692973345518112,-0.0018683726666495204,0.0034959225449711084
1761468596126635500,4.996635498046875,0.0011424203403294086,0.0009397170506417751,0.00038112327456474304
1761468596136618500,5.006618408203125,-0.002378544770181179,-0.0015503386966884136,-0.0007366053760051727
1761468596146601500,5.0166015625,-0.0018271002918481827,0.002803893992677331,0.0002950206398963928
1761468596156584400,5.02658447265625,0.00031541287899017334,-0.0012603560462594032,-0.0025401804596185684
1761468596166568400,5.036568359375,0.0006034127436578274,0.002389557659626007,-0.0019563704263418913
1761468596176551700,5.0465517578125,-0.0017084772698581219,0.0022516055032610893,-0.0008889755699783564
1761468596186534700,5.05653466796875,-0.001633950974792242,-0.0040218038484454155,-0.00023423298262059689
1761468596196517400,5.066517333984375,-0.0013279537670314312,-0.0004643532447516918,-0.000877386424690485
1761468596206500600,5.07650048828125,0.0010071871802210808,0.00014315079897642136,0.0022268283646553755
1761468596216484600,5.086484619140625,0.0003342065028846264,-0.0012307739816606045,0.00023425137624144554
1761468596226467600,5.096467529296875,-0.0013971193693578243,-0.00018422421999275684,-0.0021339398808777332
1761468596236450600,5.106450439453125,0.0015715062618255615,-0.0007251123897731304,-0.00207668193615973
1761468596246433500,5.11643359375,-0.00008979020640254021,0.004356705583631992,-0.000053805997595191
1761468596256416500,5.12641650390625,-0.00002693943679332733,0.0009878065902739763,0.0005970706697553396
1761468596266399700,5.136399658203125,-0.0001341765746474266,-0.000945233041420579,0.001468967879191041
1761468596276383700,5.1463837890625,-0.0018535135313868523,0.002132316119968891,-0.00137235876172781
1761468596286366500,5.156366455078125,0.0015918780118227005,-0.000250593526288867,0.004451770801097155
1761468596296349400,5.166349365234375,-0.0014601042494177818,0.001504695974290371,0.0008415896445512772
1761468596306332700,5.176332763671875,-0.0011260788887739182,0.00026041269302368164,-0.0010582797694951296
1761468596316315400,5.1863154296875,0.0031091461423784494,0.00021087797358632088,0.0011859661899507046
1761468596326299400,5.19629931640625,0.0012285588309168816,0.00017022364772856236,-0.0009392309002578259
1761468596336282400,5.206282470703125,0.0005561104044318199,-0.0038902980741113424,-0.00165934965480119
1761468596346265600,5.216265625,0.0004568439908325672,0.0019090394489467144,-0.00019270461052656174
1761468596356248600,5.22624853515625,0.000312234740704298,-0.0014204445760697126,0.0012920075096189976
1761468596366231600,5.2362314453125,0.0005741873756051064,0.0010668039321899414,-0.0036698151379823685
1761468596376215600,5.246215576171875,-0.001952087040990591,-0.000013640616089105606,-0.0022977543994784355
1761468596386198500,5.256198486328125,0.001569624524563551,-0.001437897328287363,0.0001155538484454155
1761468596396181500,5.266181396484375,-0.0007148347795009613,-0.0001952662132680416,-0.0008844630792737007
1761468596406164700,5.276164794921875,0.00021930597722530365,-0.002056895289570093,0.0026136867236346006
1761468596416147500,5.2861474609375,0.00192665820941329,-0.0010907005053013563,0.0008485435973852873
1761468596426131500,5.29613134765625,0.0011055860668420792,0.0001418024767190218,0.0012280370574444532
1761468596436114400,5.306114501953125,-0.001982348971068859,-0.0009775243233889341,0.0012083298061043024
1761468596446097700,5.31609765625,0.0030859289690852165,-0.0031554223969578743,0.0014180890284478664
1761468596456080400,5.326080322265625,-0.001878469716757536,-0.001216907287016511,-0.0024813113268464804
1761468596466063600,5.336063720703125,0.0006370199844241142,0.0014661860186606646,-0.0013875261647626758
1761468596476047600,5.346047607421875,0.002023994456976652,-0.0012169487308710814,-0.00028950488194823265
1761468596486030600,5.356030517578125,-0.0036147027276456356,0.004008542746305466,-0.00005469145253300667
1761468596496013600,5.366013671875,0.0011835144832730293,0.003923588432371616,0.0006366651505231857
1761468596505996500,5.37599658203125,-0.0007706098258495331,0.004561771638691425,-0.002190315630286932
1761468596515979500,5.3859794921875,0.000298116821795702,0.0003846036270260811,-0.0004896209575235844
1761468596525963500,5.395963623046875,0.0007467907853424549,-0.0032797453459352255,-0.0023157254327088594
1761468596535946500,5.405946533203125,-0.0009206142276525497,0.00012617139145731926,-0.0034430415835231543
1761468596545929500,5.415929443359375,0.0017453995533287525,0.0019045369699597359,-0.002255156170576811
1761468596555912400,5.425912353515625,-0.000032526906579732895,-0.0006030953954905272,0.0017941805999726057
1761468596565895700,5.435895751953125,-0.0012850207276642323,-0.0004637609235942364,-0.0012343761045485735
1761468596575879700,5.445879638671875,0.001063887495547533,-0.0019394184928387403,0.0015560837928205729
1761468596585862700,5.455862548828125,-0.0005306298844516277,-0.0009693310130387545,0.0032657913397997618
1761468596595845400,5.465845458984375,0.0009950953535735607,-0.0001663879957050085,-0.0003782121930271387
1761468596605828600,5.47582861328125,0.0017672856338322163,0.00034083519130945206,0.0013165862765163183
1761468596615811600,5.4858115234375,-0.000325692817568779,-0.0012956773862242699,0.0010097899939864874
1761468596625795600,5.495795654296875,0.0022316526155918837,0.0034670194145292044,-0.0012479203287512064
1761468596635778300,5.5057783203125,0.0013416241854429245,0.00031250505708158016,0.002183562610298395
1761468596645761500,5.515761474609375,-0.00032840948551893234,-0.0005406390409916639,-0.0016183742554858327
1761468596655744500,5.52574462890625,0.0016042464412748814,0.0010436757002025843,-0.0037417125422507524
1761468596665727500,5.5357275390625,-0.0003782040439546108,-0.00008494197390973568,-0.00011818599887192249
1761468596675711700,5.545711669921875,0.0011254167184233665,-0.004051187541335821,-0.00338348769582808
1761468596685694500,5.555694580078125,-0.0007777796126902103,-0.00017999601550400257,-0.0019440704490989447
1761468596695677400,5.565677490234375,-0.0011530187912285328,0.002483697608113289,-0.00013338727876544
1761468596705660700,5.57566064453125,0.0010964623652398586,-0.0027687610127031803,-0.0008361239451915026
1761468596715643600,5.5856435546875,-0.0027102604508399963,-0.002267553936690092,-0.0006196089088916779
1761468596725627400,5.59562744140625,-0.0009379447437822819,0.0003882511518895626,0.0035228172782808542
1761468596735610400,5.6056103515625,0.003193150507286191,-0.00024291803129017353,0.000949937617406249
1761468596745593600,5.615593505859375,-0.0016104006208479404,-0.0004449018742889166,-0.00017994712106883526
1761468596755576600,5.62557666015625,0.00101041654124856,-0.0017178928246721625,-0.0003922011237591505
1761468596765559600,5.6355595703125,-0.0006135948933660984,0.0014040584210306406,-0.001062673982232809
1761468596775542500,5.64554248046875,-0.00006551621481776237,0.0011888749431818724,-0.00145256076939404
1761468596785526500,5.655526611328125,-0.0016704695299267769,0.0010460466146469116,-0.00006787152960896492
1761468596795509500,5.665509521484375,-0.0000025318004190921783,0.0014220848679542542,-0.0017826809780672193
1761468596805492700,5.67549267578125,-0.00013719499111175537,-0.0026496872305870056,-0.0024353046901524067
1761468596815475500,5.685475341796875,0.0004063560627400875,-0.0005878680385649204,0.000848905649036169
1761468596825458400,5.69545849609375,-0.0006793392822146416,-0.0006513437256217003,-0.0007988631259649992
1761468596835442400,5.7054423828125,0.0006325338035821915,0.00017929612658917904,-0.00013174139894545078
1761468596845425700,5.71542578125,-0.0006110449321568012,-0.0025615189224481583,0.0009764013811945915
1761468596855408400,5.725408447265625,-0.0005087796598672867,0.0012302894610911608,-0.0006420016288757324
1761468596865391600,5.7353916015625,0.0029703639447689056,-0.001455904683098197,0.0003223635721951723
1761468596875374600,5.74537451171875,-0.0012645949609577656,-0.003848222317174077,0.002370334230363369
1761468596885358600,5.755358642578125,-0.0008100783452391624,-0.0002977629192173481,0.00006866827607154846
1761468596895341600,5.765341552734375,0.0005302908830344677,-0.003204336855560541,-0.0020978134125471115
1761468596905324500,5.775324462890625,-0.001638475339859724,0.0021964258048683405,0.0023166940081864595
1761468596915307500,5.7853076171875,0.0022095260210335255,-0.00369555177167058,-0.0011637911666184664
1761468596925290500,5.79529052734375,0.00014551496133208275,0.004854816943407059,-0.00033472455106675625
1761468596935274500,5.8052744140625,0.0010848119854927063,0.0012457012198865414,-0.0004292665980756283
1761468596945257500,5.815257568359375,0.0003539370372891426,0.0041976626962423325,0.00021829339675605297
1761468596955240400,5.825240478515625,-0.0001390138640999794,0.0022982959635555744,-0.0011993073858320713
1761468596965223400,5.835223388671875,0.0015334421768784523,0.0009518638253211975,0.00027837231755256653
1761468596975206700,5.84520654296875,0.0018455646932125092,0.00026556733064353466,0.0005164588801562786
1761468596985190700,5.855190673828125,-0.0007657166570425034,-0.0020012054592370987,0.0020147357136011124
1761468596995173400,5.86517333984375,0.001361084170639515,-0.0026398315094411373,0.0011888891458511353
1761468597005156600,5.875156494140625,0.0027837897650897503,-0.0005616745911538601,0.00029865605756640434
1761468597015139600,5.8851396484375,0.00045272475108504295,-0.0015853936783969402,0.0009870829526335
1761468597025122600,5.89512255859375,0.00015923799946904182,-0.00034671532921493053,0.0013889954425394535
1761468597035105500,5.90510546875,0.0009784265421330929,-0.0017976054223254323,0.0006853886879980564
1761468597045089500,5.915089599609375,0.0009406381286680698,0.001688031479716301,0.00026140804402530193
1761468597055072500,5.925072509765625,-0.0017347736284136772,0.0026006964035332203,-0.00006669340655207634
1761468597065055500,5.935055419921875,-0.00012160371989011765,0.00006293784826993942,-0.00015022954903542995
1761468597075038500,5.94503857421875,0.0025487479288131,0.00010687997564673424,-0.0019452001433819532
1761468597085022500,5.9550224609375,-0.00284503772854805,0.0017337894532829523,-0.0016900190385058522
1761468597095005400,5.96500537109375,-0.0005656383000314236,0.003395868232473731,-0.0011914754286408424
1761468597104988700,5.97498876953125,0.00013529323041439056,0.0006533525884151459,-0.0007076147012412548
1761468597114971600,5.9849716796875,-0.002907900605350733,0.0009172721765935421,0.0001595106441527605
1761468597124954400,5.994954345703125,0.0015637031756341457,-0.00058901053853333,-0.001296438043937087
1761468597134937600,6.0049375,-0.002730111125856638,0.00041393586434423923,0.00023061851970851421
1761468597144921600,6.014921630859375,-0.0018110754899680614,0.0008439135272055864,0.0002790482249110937
1761468597154904600,6.024904541015625,0.00019348552450537682,-0.0013526619877666235,0.0021997198928147554
1761468597164887600,6.034887451171875,0.0009348960593342781,-0.004862301051616669,0.0020155885722488165
1761468597174870500,6.04487060546875,-0.00044834986329078674,-0.0009980543982237577,0.001338612986728549
1761468597184853500,6.054853515625,-0.0006556669250130653,-0.0028127653058618307,0.0017853276804089546
1761468597194837500,6.06483740234375,0.0017534284852445126,-0.0008683912456035614,0.0003765153232961893
1761468597204820700,6.07482080078125,0.0004894547164440155,-0.0012213313020765781,-0.00015083537437021732
1761468597214803500,6.084803466796875,0.0019874826539307833,-0.0016711391508579254,0.0015538542065769434
1761468597224786400,6.094786376953125,0.0005214205011725426,0.000970697496086359,-0.000001189298927783966
1761468597234769700,6.104769775390625,0.0032583512365818024,0.000693195965141058,0.0007085432298481464
1761468597244753700,6.114753662109375,-0.0007439348846673965,-0.001196903409436345,-0.002020358107984066
1761468597254736400,6.124736328125,-0.0008496623486280441,0.0012987449299544096,-0.0008730683475732803
1761468597264719400,6.13471923828125,0.0002873484045267105,0.0014381865039467812,-0.0030040168203413486
1761468597274702600,6.14470263671875,0.0008918857201933861,0.0003886348567903042,0.0019619795493781567
1761468597284685600,6.154685546875,0.0003443821333348751,-4.670582711696625e-7,0.0012769303284585476
1761468597294669600,6.164669677734375,0.0014067171141505241,-0.003458848223090172,-0.0013324350584298372
1761468597304652500,6.174652587890625,-0.0015239007771015167,-0.002470901468768716,0.0002629354130476713
1761468597314635500,6.184635498046875,0.0013491176068782806,-0.002590743824839592,0.0010949070565402508
1761468597324618500,6.194618408203125,-0.0006407750770449638,-0.004089822061359882,0.0031903667841106653
1761468597334601700,6.204601806640625,-0.0008485014550387859,-0.002716962480917573,0.00087181874550879
1761468597344584400,6.21458447265625,-0.0011873207986354828,-0.001007201848551631,-0.0006705389823764563
1761468597354568400,6.224568359375,-0.0008405772969126701,0.0010452964343130589,0.002231241436675191
1761468597364551400,6.234551513671875,-0.0010704356245696545,-0.0008445994462817907,-0.0005374129395931959
1761468597374534700,6.24453466796875,0.0004997644573450089,0.0019178977236151695,0.00040161749348044395
1761468597384517400,6.254517333984375,0.00021397368982434273,0.0021982653997838497,-0.004639963153749704
1761468597394500600,6.26450048828125,0.0005127801559865475,0.00216870428994298,-0.0008612037636339664
1761468597404484600,6.274484619140625,0.0013377577997744083,0.0013205606956034899,-0.002194071188569069
1761468597414467600,6.284467529296875,0.0009321584366261959,0.000509095611050725,-0.0015522491885349154
1761468597424450600,6.294450439453125,0.0008433028124272823,-0.00004873378202319145,0.002861560322344303
1761468597434433500,6.30443359375,0.0006888397037982941,-0.00020905607379972935,0.00021863938309252262
1761468597444416500,6.31441650390625,-0.00032821111381053925,-0.001927990815602243,0.0007262981962412596
1761468597454400500,6.324400390625,0.000121330376714468,0.000058727338910102844,0.004847274161875248
1761468597464383500,6.334383544921875,0.00022203801199793816,-0.0027596796862781048,0.0005761196371167898
1761468597474366500,6.344366455078125,0.0005256384611129761,-0.003766088280826807,0.001168939284980297
1761468597484349400,6.354349365234375,0.0007550581358373165,-0.0011453742627054453,0.0016115827020257711
1761468597494332700,6.364332763671875,0.0010000690817832947,-0.0016332652885466814,-0.001265696482732892
1761468597504316700,6.374316650390625,-0.0018061227165162563,0.003716271836310625,0.0007877843454480171
1761468597514299600,6.384299560546875,-0.0020234365947544575,0.0019798907451331615,-0.0019179873634129763
1761468597524282400,6.394282470703125,0.00040420051664114,0.004031728953123093,-0.003295817179605365
1761468597534265600,6.404265625,0.0018945056945085526,0.002678576624020934,0.00034818612039089203
1761468597544248600,6.41424853515625,0.00222197943367064,0.0039665717631578445,-0.00147920660674572
1761468597554231600,6.4242314453125,0.0013881437480449677,0.0032922595273703337,-0.00213381159119308
1761468597564215300,6.43421533203125,0.000044193584471940994,0.0018935075495392084,0.0013840580359101295
1761468597574198500,6.444198486328125,0.00048547936603426933,0.0020695424173027277,-0.0019028153037652373
1761468597584181500,6.454181396484375,0.00027591874822974205,-0.0012934422120451927,-0.0009925866033881903
1761468597594164700,6.464164794921875,-0.0016548731364309788,-0.0015863899607211351,0.004343056585639715
1761468597604147500,6.4741474609375,0.00032569607719779015,-0.0019398914882913232,0.0009881292935460806
1761468597614131500,6.48413134765625,0.0005930773913860321,-0.003427267074584961,0.0023255685809999704
1761468597624114400,6.494114501953125,0.0019494523294270039,-0.0020676529966294765,0.0016968671698123217
1761468597634097700,6.50409765625,0.0001017511822283268,-0.0025142652448266745,0.000577540835365653
1761468597644080600,6.51408056640625,0.003183691995218396,-0.0014215100090950727,-0.0003494489938020706
1761468597654063400,6.5240634765625,0.00012132292613387108,0.0014264744240790606,0.0009224768728017807
1761468597664046600,6.534046630859375,-0.0007258718833327293,-0.000473908381536603,0.00026657781563699245
1761468597674030600,6.544030517578125,0.00014151958748698235,0.0005596645642071962,-0.003536682343110442
1761468597684013600,6.554013671875,0.0012673279270529747,0.0005449026357382536,-0.000778586370870471
1761468597693996500,6.56399658203125,-0.0009159315377473831,0.0022136394400149584,-0.00045288167893886566
1761468597703979500,6.5739794921875,0.004077445715665817,0.0026321790646761656,0.002322188578546047
1761468597713962500,6.58396240234375,-0.0018592728301882744,0.00018286984413862228,-0.000045361462980508804
1761468597723946500,6.593946533203125,-0.0017902418039739132,0.002937177661806345,-0.0014491130132228136
1761468597733929700,6.6039296875,0.001889980398118496,0.0019502099603414536,-0.0003167369868606329
1761468597743912400,6.613912353515625,0.002009132644161582,0.001191289396956563,0.0026150494813919067
1761468597753895400,6.6238955078125,-0.002059378195554018,-0.002615965437144041,-0.0008939316030591726
1761468597763878700,6.633878662109375,-0.0012903744354844093,-0.004556051455438137,0.0020847374107688665
1761468597773862700,6.643862548828125,-0.00165469478815794,-0.0026236618869006634,0.0005190649535506964
1761468597783845400,6.653845458984375,0.002000395907089114,0.0001100790686905384,-0.0013175848871469498
1761468597793828600,6.66382861328125,-0.00186891108751297,-0.0014705071225762367,0.0009410418570041656
1761468597803811600,6.6738115234375,-0.0011898386292159557,-0.0008907876908779144,-0.00005531869828701019
1761468597813794600,6.683794677734375,0.00001257890835404396,0.0032690700609236956,-0.0017972922651097178
1761468597823777500,6.693777587890625,0.0009315693750977516,0.0017114763613790274,-0.002666435670107603
1761468597833761500,6.703761474609375,0.002093506744131446,-0.002600181382149458,-0.0025316798128187656
1761468597843744500,6.71374462890625,0.00040341122075915337,0.0007630256004631519,-0.0019151268061250448
1761468597853727500,6.7237275390625,0.0004385649226605892,0.0011561079882085323,-0.0004951292648911476
1761468597863710700,6.733710693359375,0.0030224602669477463,0.0009502565953880548,-0.0009793168865144253
1761468597873693400,6.743693359375,-0.001387201715260744,-0.0009328648447990417,-0.001462680520489812
1761468597883677400,6.753677490234375,-0.0004970836453139782,-0.0007478648331016302,0.003614236367866397
1761468597893660700,6.76366064453125,-0.0008677956648170948,0.0019278130494058132,-0.0012004927266389132
1761468597903643600,6.7736435546875,-0.0011190641671419144,-0.0004688031040132046,-0.0004365446511656046
1761468597913626400,6.78362646484375,0.0021582215558737516,0.0010417418088763952,0.004011733457446098
1761468597923609600,6.793609619140625,-0.0003757770173251629,0.0004360503517091274,-0.00031455489806830883
1761468597933593600,6.803593505859375,-0.0011749914847314358,-0.0012409423943609,-0.001204583328217268
1761468597943576600,6.81357666015625,-0.0010616821236908436,-0.0011516129598021507,0.0033932882361114025
1761468597953559600,6.8235595703125,-0.0018880609422922134,-0.0014072763733565807,0.0005511629860848188
1761468597963542500,6.83354248046875,-0.001883401069790125,-0.001713082194328308,0.0007235945668071508
1761468597973525500,6.843525390625,0.0002588457427918911,-0.001206282526254654,0.0021222869399935007
1761468597983508500,6.853508544921875,0.0005101747810840607,-0.001516237622126937,-0.000575388316065073
1761468597993492500,6.863492431640625,0.0000859331339597702,0.0007628954481333494,0.0001391379628330469
1761468598003475500,6.873475341796875,-0.0002963263541460037,-0.0017362928483635187,0.0001973542384803295
1761468598013458400,6.88345849609375,0.0021758859511464834,0.0008158145938068628,-0.00031636934727430344
1761468598023441700,6.893441650390625,0.0002052648924291134,0.0006874653045088053,-0.0010590038727968931
1761468598033424600,6.903424560546875,0.002388257998973131,0.001086407108232379,-0.0004808316007256508
1761468598043408600,6.91340869140625,0.0002312520518898964,0.0016536368057131767,-0.0001080809161067009
1761468598053391400,6.923391357421875,-0.00044705532491207123,0.0020094350911676884,-0.0003698696382343769
1761468598063374600,6.93337451171875,-0.0023576579988002777,-0.0015841610729694366,0.00130457803606987
1761468598073357600,6.943357666015625,0.0007419949397444725,0.0022228278685361147,0.0019767596386373043
1761468598083340500,6.953340576171875,-0.00114126643165946,0.0001284994650632143,-0.001459265360608697
1761468598093323500,6.963323486328125,-0.0010504527017474174,-0.0016443668864667416,0.00019082915969192982
1761468598103307500,6.9733076171875,-0.0014213337562978268,-0.00045737787149846554,0.0012836277019232512
1761468598113290500,6.98329052734375,-0.0024746134877204895,-0.0004997220821678638,0.00005058431997895241
1761468598123277300,6.99327734375,-0.0002779127098619938,-0.0030562011525034904,0.00012393039651215076
1761468598133260300,7.00326025390625,0.0003708330914378166,-0.00172169110737741,0.0010496452450752258
1761468598143243300,7.0132431640625,-0.0010396898724138737,0.0018934034742414951,0.000160684110596776
1761468598153227300,7.023227294921875,0.0009598112665116787,0.0007549021393060684,-0.0000710110180079937
1761468598163210500,7.03321044921875,-0.000693905632942915,0.00295169441960752,-0.0025907144881784916
1761468598173193200,7.043193115234375,0.0004994566552340984,0.0019921574275940657,-0.0003880138974636793
1761468598183176200,7.05317626953125,0.0017341524362564087,-0.0006713885813951492,-0.0005843660328537226
1761468598193159400,7.063159423828125,-0.0011061090044677258,-0.005032581277191639,0.0003381529822945595
1761468598203143400,7.073143310546875,0.0008926708251237869,-0.0040130517445504665,0.0014029210433363914
1761468598213126400,7.08312646484375,0.0006101094186306,-0.00024680932983756065,0.0024665873497724533
1761468598223109000,7.093109130859375,-0.0013885488733649254,0.0009427384939044714,0.0007487928960472345
1761468598233092400,7.10309228515625,0.0014280099421739578,-0.001903648255392909,0.0008760921191424131
1761468598243075300,7.113075439453125,0.0007174923084676266,0.00033652037382125854,-0.0009849278721958399
1761468598253058600,7.12305859375,0.000627211295068264,-0.0009074422996491194,-0.0019428670639172196
1761468598263042300,7.133042236328125,-0.00003540143370628357,-0.0019043349893763661,-0.00003809388726949692
1761468598273025300,7.143025390625,-0.0013507367111742496,-0.0010388076771050692,0.0003296886570751667
1761468598283008300,7.15300830078125,-0.00014385627582669258,-0.003142633242532611,-0.0010081198997795582
1761468598292991500,7.162991455078125,-0.0007731611840426922,0.0016409368254244328,-0.000912512419745326
1761468598302974200,7.17297412109375,-0.0008899057283997536,0.0033857456874102354,-0.000833386555314064
1761468598312958200,7.182958251953125,0.0007993374019861221,0.0015846502501517534,-0.0021047797054052353
1761468598322941200,7.192941162109375,-0.0012158514000475407,0.00022803968749940395,0.0001822726335376501
1761468598332924400,7.20292431640625,0.001213217619806528,0.00018596160225570202,-0.00045928265899419785
1761468598342907400,7.212907470703125,0.0016334340907633305,-0.0008606645278632641,0.0008838055655360222
1761468598352890400,7.222890380859375,-0.001162086147814989,0.00014840718358755112,-0.0012874697567895055
1761468598362873300,7.232873291015625,0.0010244138538837433,-0.0010958216153085232,0.000444931210950017
1761468598372857300,7.242857421875,-0.0000048978254199028015,0.0006701203528791666,-0.00047412561252713203
1761468598382840300,7.25284033203125,-0.0003003915771842003,-0.0006018204148858786,0.0005467007867991924
1761468598392823300,7.2628232421875,0.001031455583870411,-0.0035869574639946222,0.0004862472414970398
1761468598402806300,7.27280615234375,-0.001979716122150421,-0.0005599812138825655,0.0033837149385362864
1761468598412789200,7.282789306640625,-0.00044307252392172813,0.00011752708815038204,0.0020177795086055994
1761468598422773200,7.292773193359375,0.001585356891155243,-0.001973235048353672,-0.0011717693414539099
1761468598432756500,7.302756591796875,-0.0007880521006882191,-0.0029958889354020357,0.0006277286447584629
1761468598442739200,7.3127392578125,0.0001272028312087059,0.0014607978519052267,0.0017455574125051498
1761468598452722400,7.322722412109375,0.0010398682206869125,-0.0014756035525351763,-0.00029495637863874435
1761468598462705400,7.332705322265625,0.0002889907918870449,0.00046824594028294086,0.0003574949223548174
1761468598472688400,7.3426884765625,0.0015151100233197212,0.0032485860865563154,0.00044697709381580353
1761468598482672000,7.352672119140625,-0.000607010442763567,0.0008100266568362713,-0.0029724808409810066
1761468598492655400,7.3626552734375,0.0019735924433916807,-0.0007529826834797859,-0.00048455572687089443
1761468598502638300,7.372638427734375,0.0002114027738571167,0.004329829476773739,0.0022054947912693024
1761468598512621300,7.382621337890625,-0.001218448393046856,-0.0013269910123199224,0.0003037312999367714
1761468598522604300,7.392604248046875,-0.0010971184819936752,-0.0014417578931897879,-0.0005247103981673717
1761468598532587300,7.402587158203125,0.0006666933186352253,-0.000782359391450882,-0.0014416368212550879
1761468598542571300,7.4125712890625,-0.00027563096955418587,-0.000289243645966053,-0.002221772214397788
1761468598552554500,7.422554443359375,0.0012192013673484325,0.002737439004704356,0.000176670728251338
1761468598562537500,7.432537353515625,-0.00278702424839139,0.0015344826970249414,0.0003199067432433367
1761468598572520200,7.442520263671875,0.002498551504686475,0.0015150418039411306,-0.0006055417470633984
1761468598582503400,7.45250341796875,0.0011904244311153889,0.002024157904088497,0.0014553533401340246
1761468598592487400,7.4624873046875,-0.00003702612593770027,0.0011919201351702213,-0.0008895599748939276
1761468598602470400,7.472470458984375,0.00005024345591664314,-0.0007617869414389133,-0.0020151189528405666
1761468598612453000,7.482453125,-0.00028451625257730484,-0.0014904276467859745,0.0007202140986919403
1761468598622436400,7.492436279296875,0.002041349420323968,-0.00046073971316218376,-0.0002278618048876524
1761468598632419300,7.50241943359375,0.0015297560021281242,0.0002681673504412174,0.00035537034273147583
1761468598642402300,7.51240234375,0.0006707087159156799,-0.0016859059687703848,0.0016439517494291067
1761468598652386300,7.52238623046875,0.0015897653065621853,-0.000016370322555303574,-0.0001574105117470026
1761468598662369300,7.532369384765625,0.00043219514191150665,-0.0012123978231102228,-0.0012130665127187967
1761468598672352300,7.542352294921875,-0.0009449254721403122,-0.0005929465405642986,-0.0005113235674798489
1761468598682335500,7.55233544921875,-0.0002921377308666706,-0.0008756779134273529,0.0004899823106825352
1761468598692318500,7.562318359375,-0.002105484250932932,-0.00015982030890882015,-0.00023013632744550705
1761468598702302200,7.57230224609375,0.0004786676727235317,0.0003420065622776747,0.0005722767673432827
1761468598712285200,7.58228515625,0.00211597909219563,0.0006804938893765211,-0.0013675696682184935
1761468598722268400,7.592268310546875,-0.00020998436957597733,0.0027159510646015406,-0.0002347265835851431
1761468598732251400,7.60225146484375,0.0002605961635708809,0.0007169821765273809,0.000017740996554493904
1761468598742234000,7.612234130859375,-0.0035379710607230663,-0.0001249229535460472,0.0002347941044718027
1761468598752217300,7.62221728515625,0.00019444897770881653,0.00035364716313779354,0.0008270812686532736
1761468598762201300,7.632201416015625,-0.0004453328438103199,-0.0008258854504674673,0.00015486637130379677
1761468598772184300,7.642184326171875,-0.002484514843672514,-0.0009132369887083769,0.0004446182865649462
1761468598782167600,7.65216748046875,0.001352846622467041,0.0010352327954024076,0.0002963980659842491
1761468598792150300,7.662150390625,-0.0018863566219806671,0.00027143838815391064,-0.0012266638223081827
1761468598802133200,7.67213330078125,0.0004878668114542961,-0.0004553056787699461,-0.0004877739120274782
1761468598812116500,7.682116455078125,0.0006340742111206055,-0.0015011290088295937,0.0008161098230630159
1761468598822100500,7.6921005859375,0.0003575347363948822,-0.0008532416541129351,-0.00001111137680709362
1761468598832083200,7.702083251953125,0.00021612131968140602,-0.0005946487654000521,0.0006908979266881943
1761468598842066200,7.712066162109375,-0.00023483112454414368,-0.003838155884295702,0.002904857974499464
1761468598852049400,7.72204931640625,-0.0015999674797058105,-0.0014410445000976324,-0.00009439396671950817
1761468598862032400,7.732032470703125,0.00010514538735151291,-0.0019505290547385812,0.001560894539579749
1761468598872016400,7.742016357421875,-0.000003245193511247635,0.0023984131403267384,0.0019353351090103388
1761468598881999400,7.751999267578125,-0.0003532795235514641,0.0006996879819780588,0.0011704708449542522
1761468598891982300,7.761982421875,0.0010432819835841656,0.001930334372445941,-0.0015036093536764383
1761468598901965300,7.77196533203125,-0.0012120287865400314,-0.0016793322283774614,0.00024581863544881344
1761468598911948300,7.7819482421875,-0.0001507587730884552,0.0020195322576910257,-0.0012881620787084103
1761468598921931300,7.79193115234375,0.0019074291922152042,-0.0029525684658437967,-0.002238056156784296
1761468598931915300,7.801915283203125,-0.0008739763870835304,-0.001179968472570181,0.0013542820233851671
1761468598941898200,7.811898193359375,-0.0008764751255512238,0.0005759892519563437,0.0010026877280324697
1761468598951881500,7.821881591796875,-0.0015590433031320572,-0.002342036459594965,-0.0009986779186874628
1761468598961864200,7.8318642578125,-0.0003740391694009304,-0.001829610439017415,-0.0010822983458638191
1761468598971847200,7.84184716796875,-0.0002608546055853367,0.0024594105780124664,-0.0015363673446699977
1761468598981830400,7.851830322265625,0.001459251157939434,-0.001684605609625578,-0.0010892495047301054
1761468598991814400,7.861814453125,0.0015886807814240456,0.0032824561931192875,0.0008324873633682728
1761468599001797400,7.87179736328125,-0.0004246216267347336,-0.0007910735439509153,-0.00009743310511112213
1761468599011780400,7.8817802734375,0.00010428251698613167,0.0025218988303095102,0.001379556255415082
1761468599021763300,7.891763427734375,-0.00045320112258195877,0.0020275949500501156,0.0023136292584240437
1761468599031746300,7.901746337890625,-0.001186369452625513,0.0012675286270678043,-0.0007588595617562532
1761468599041730300,7.911730224609375,0.002720459131523967,-0.00023734988644719124,-0.0008682422339916229
1761468599051713300,7.92171337890625,0.0030381742399185896,0.0008742534555494785,0.0018005117308348417
1761468599061696300,7.9316962890625,-0.00015966594219207764,0.0013975489418953657,-0.0013997148489579558
1761468599071679200,7.94167919921875,0.002056883182376623,-0.0011662764009088278,0.001347868237644434
1761468599081662500,7.951662353515625,-0.00200297636911273,0.000924175139516592,-0.0015379802789539099
1761468599091645200,7.961645263671875,-0.00003942754119634628,-0.0011810536962002516,-0.0005507464520633221
1761468599101629200,7.971629150390625,0.00003883102908730507,0.000977582298219204,0.0013071978464722633
1761468599111612400,7.9816123046875,-0.001216316595673561,0.00035253865644335747,-0.000162600539624691
1761468599121590800,7.9915908203125,-0.0009031756781041622,0.0019191228784620762,-0.0011742983479052782
1761468599131574000,8.001573974609375,-0.0011559096165001392,0.0013313633389770985,-0.0013751006918027997
1761468599141555700,8.0115556640625,-0.00021108239889144897,0.0007019382901489735,-0.0028214813210070133
1761468599151539000,8.0215390625,0.0010131727904081345,0.00027743028476834297,0.00012903474271297455
1761468599161522000,8.03152197265625,0.0010036933235824108,0.0014622171875089407,0.00014021736569702625
1761468599171504600,8.041504638671874,-0.0000980566255748272,0.0016283986624330282,0.00019827415235340595
1761468599181487900,8.05148779296875,0.00025691697373986244,0.0028578401543200016,-0.0007119800429791212
1761468599191470800,8.061470947265626,-0.0029002605006098747,-0.0015523547772318125,-0.0008395456243306398
1761468599201454800,8.071454833984374,0.00047727441415190697,-0.002752840518951416,0.0005315511953085661
1761468599211437800,8.081437744140626,0.0021944805048406124,-0.0035488593857735395,0.0010332907550036907
1761468599221420800,8.0914208984375,0.0019775452092289925,-0.00027461140416562557,-0.000361771322786808
1761468599231403800,8.10140380859375,-0.0005181031301617622,-0.00042827590368688107,0.0013727452605962753
1761468599241387000,8.111386962890625,0.00027169473469257355,-0.0013117289636284113,0.0016036306042224169
1761468599251369700,8.12136962890625,0.0004788888618350029,0.00023183925077319145,0.0016523662488907576
1761468599261353700,8.131353759765625,0.0003162040375173092,0.0017349568661302328,-0.0005742067005485296
1761468599271336700,8.141336669921875,-0.002032703720033169,0.002489962847903371,0.0006609673146158457
1761468599281320000,8.15131982421875,0.0012899176217615604,0.0021446896716952324,-0.0006671373266726732
1761468599291303000,8.161302978515625,-0.0013189148157835007,0.002016059122979641,-0.0023430646397173405
1761468599301285600,8.17128564453125,-0.0026232022792100906,-0.0002847334835678339,-0.0009170779958367348
1761468599311268900,8.181268798828125,-0.0016681929118931293,-0.0003814061637967825,0.0004110403824597597
1761468599321252900,8.1912529296875,-0.0013287011533975601,0.0019771968945860863,0.00020884559489786625
1761468599331235800,8.20123583984375,-0.0012914170511066914,0.0032121045514941216,0.003016083501279354
1761468599341218800,8.21121875,0.00173090398311615,0.00035301176831126213,-0.0000021529849618673325
1761468599351201800,8.221201904296874,0.00012901285663247108,-0.0017263845074921846,0.001637022476643324
1761468599361184800,8.231184814453124,0.0005270936526358128,-0.0005605863407254219,0.001230758149176836
1761468599371168000,8.24116796875,-0.0007056836038827896,-0.0011605964973568916,0.0010768277570605278
1761468599381152000,8.251152099609374,-0.001093270257115364,-0.0016203995328396559,0.0006160086486488581
1761468599391134700,8.261134765625,0.0019515217281877995,-0.002873683115467429,0.0006791255436837673
1761468599401117700,8.27111767578125,-0.00032460130751132965,0.0001272815279662609,-0.0005012776236981153
1761468599411101000,8.281100830078126,-0.0028407559730112553,-0.0012112234253436327,0.0024558964651077986
1761468599421084000,8.291083984375,-0.0025050756521523,-0.0005173275712877512,-0.001297319889999926
1761468599431067600,8.301067626953126,-0.0005633644759654999,0.005293689668178558,0.00010882923379540443
1761468599441051000,8.31105078125,-0.0001088031567633152,0.0021616818848997355,-0.00036752945743501186
1761468599451033900,8.321033935546875,-0.0005817804485559464,0.00254917168058455,0.00040478724986314774
1761468599461016800,8.331016845703125,0.0021973520051687956,0.0008491701446473598,-0.0008102043066173792
1761468599470999800,8.340999755859375,0.000925959087908268,-0.0004089069552719593,-0.0008799792267382145
1761468599480982800,8.350982666015625,-0.0027069556526839733,-0.0017832022858783603,-0.00008144648745656013
1761468599490966800,8.360966796875,0.0005524870939552784,-0.002915844786912203,0.0024243216030299664
1761468599500949800,8.37094970703125,-0.0004256335087120533,-0.0029323608614504337,-0.00021865637972950935
1761468599510933000,8.38093310546875,-0.0019942354410886765,-0.00546769006177783,0.0025507649406790733
1761468599520915700,8.390915771484375,0.002230023266747594,-0.0038599325343966484,0.001298684161156416
1761468599530898700,8.400898681640625,0.000432389322668314,0.00012415647506713867,0.002037445083260536
1761468599540882000,8.4108818359375,-0.0024225767701864243,0.0029713851399719715,-0.0006894138641655445
1761468599550866000,8.420865966796875,0.0005835997872054577,0.002317578997462988,-0.00006197323091328144
1761468599560848600,8.4308486328125,-0.0007205219008028507,0.0014337417669594288,0.0015713358297944069
1761468599570832000,8.440831787109374,0.00038708699867129326,0.00555072259157896,-0.0008662554901093245
1761468599580814800,8.45081494140625,0.0011073839850723743,-0.0008170406799763441,-0.0019570263102650642
1761468599590797800,8.4607978515625,0.0007550478912889957,0.001186721958220005,-0.002183128846809268
1761468599600780800,8.47078076171875,0.0004889555275440216,-0.0006054232362657785,0.0006845046300441027
1761468599610764800,8.480764892578126,0.0006343638524413109,-0.00006959540769457817,0.0021034369710832834
1761468599620747800,8.490747802734376,0.0017886306159198284,0.0015297173522412777,0.0011264269705861807
1761468599630730800,8.500730712890626,0.001384096685796976,-0.0007214527577161789,0.0013341533485800028
1761468599640714000,8.5107138671875,-0.0014938893727958202,-0.006107026245445013,-0.0010366588830947876
1761468599650696700,8.52069677734375,-0.0005724355578422546,-0.00342708732932806,0.0008525874000042677
1761468599660680000,8.530679931640625,-0.0000817454420030117,0.0006617489270865917,0.0008509606122970581
1761468599670664000,8.540663818359375,0.001144374255090952,-0.00018806569278240204,-0.0009288298897445202
1761468599680647000,8.55064697265625,-0.002569721080362797,0.0006015114486217499,0.001153197605162859
1761468599690629600,8.560629638671875,0.0010865330696105957,-0.000758032314479351,-0.002896138932555914
1761468599700612900,8.57061279296875,0.002670575864613056,0.0022377707064151764,-0.001705242320895195
1761468599710595800,8.580595947265625,-0.0008277525193989277,0.0016374941915273666,-0.001494319993071258
1761468599720578800,8.590578857421875,0.0005385428667068481,0.001006584381684661,0.001546729588881135
1761468599730563800,8.600563720703125,0.0003997921012341976,0.00046010385267436504,0.000576539896428585
1761468599740547800,8.6105478515625,-0.0003641904331743717,-0.0021151751279830933,0.0013873213902115822
1761468599750530800,8.62053076171875,-0.0019261338748037815,0.0008238896261900663,0.0009542913176119328
1761468599760513800,8.630513671875,0.00035538896918296814,0.0003774575889110565,0.002397483680397272
1761468599770496800,8.640496826171875,-0.0008371747098863125,0.0015915927942842245,-0.0013210882898420095
1761468599780480000,8.65047998046875,0.0020783445797860622,-0.0007513703312724829,0.0003394389059394598
1761468599790462700,8.660462646484374,0.001571278553456068,-0.00014763162471354008,-0.003455565543845296
1761468599800446700,8.67044677734375,-0.0013709883205592632,-0.0009036140982061625,0.002499589929357171
1761468599810429700,8.6804296875,0.001992317847907543,0.002727339742705226,-0.0011489407625049353
1761468599820413000,8.690412841796874,0.0002796151675283909,-0.0025456298608332872,-0.001448146183975041
1761468599830396000,8.70039599609375,-0.0014844629913568497,-0.0006209632847458124,0.0014096922241151333
1761468599840379000,8.71037890625,0.00005289074033498764,-0.0011867971625179052,0.0010584681294858456
1761468599850363000,8.72036279296875,-0.0006448575295507908,0.000887805363163352,0.003561306744813919
1761468599860345900,8.730345947265626,-0.0007962742820382118,0.000998328672721982,-0.0009876773692667484
1761468599870328800,8.740328857421876,-0.0016932268626987934,0.0018902209121733904,0.00028504710644483566
1761468599880311800,8.750311767578125,-0.0018142270855605602,0.0003252576570957899,0.0010967107955366373
1761468599890294800,8.760294677734375,0.00023134704679250717,0.002164969453588128,-0.002896699123084545
1761468599900277800,8.77027783203125,-0.0024111089296638966,0.0005963675212115049,-0.0007623012643307447
1761468599910261800,8.78026171875,0.0005726967938244343,0.0017420591320842505,-0.000038454076275229454
1761468599920245000,8.790244873046875,-0.0015127682127058506,0.0001131806056946516,0.0006847498007118702
1761468599930227700,8.800227783203125,-0.0015942608006298542,-0.0009984227363020182,-0.0008066203445196152
1761468599940211000,8.8102109375,-0.00019223010167479515,0.002646381501108408,-0.0002063990104943514
1761468599950194000,8.82019384765625,0.0017188545316457748,-0.002217083005234599,-0.0008548789191991091
1761468599960176600,8.8301767578125,-0.001882021315395832,-0.0016117474297061563,0.002001460175961256
1761468599970160600,8.84016064453125,0.001659983303397894,0.0015632733702659607,0.0005060953553766012
1761468599980143900,8.850143798828125,0.0015118601731956005,-0.0032514564227312803,0.000060610007494688034
1761468599990126800,8.860126953125,0.0009952066466212273,-0.000927049433812499,-0.0007471267599612474
1761468600000109800,8.87010986328125,0.003081396920606494,0.0030249941628426313,-0.0007007864769548178
1761468600010092800,8.8800927734375,-0.00007657939568161964,0.00024412130005657673,-0.001638751826249063
1761468600020075800,8.89007568359375,0.00008878344669938087,-0.0007984191179275513,-0.005179265514016151
1761468600030059800,8.900059814453124,0.0009026452898979187,0.000719316303730011,0.00004106271080672741
1761468600040042800,8.910042724609376,-0.0011841226369142532,-0.00048008235171437263,-0.0012372073251754045
1761468600050026000,8.92002587890625,0.0018918286077678204,0.002098390134051442,0.0025298339314758778
1761468600060008700,8.9300087890625,-0.0006334562785923481,-0.0010962497908622026,0.0007360305171459913
1761468600069992000,8.939991943359376,0.00029359012842178345,-0.00044936779886484146,-0.00033402745611965656
1761468600079975000,8.949974853515625,0.0007403404451906681,-0.000636853976175189,-0.0007209971081465483
1761468600089959000,8.959958984375,0.0019848356023430824,-0.00007279636338353157,-0.00007890909910202026
1761468600099941600,8.969941650390625,0.00042709987610578537,-0.0009488882496953011,0.00031827809289097786
1761468600109924900,8.9799248046875,-0.002638198435306549,0.0006045335903763771,0.001350252889096737
1761468600119911700,8.98991162109375,0.0010005021467804909,0.0002838890068233013,-0.0009582506027072668
1761468600129894700,8.999894775390626,0.0005706679075956345,0.0001968035940080881,-0.000938809709623456
1761468600139878000,9.0098779296875,-0.0024780896492302418,0.0004284991882741451,-0.0006090938113629818
1761468600149862000,9.01986181640625,-0.0018128324300050735,0.0009467503987252712,-0.0017617098055779934
1761468600159844900,9.029844970703126,0.0005659321323037148,0.00273888255469501,3.3294782042503357e-7
1761468600169827600,9.03982763671875,-0.00018214993178844452,0.0005662755575031042,-0.0011456252541393042
1761468600179810800,9.049810791015625,0.0003310889005661011,-0.0017239548033103347,0.002112472429871559
1761468600189793800,9.059793701171875,-0.00015866663306951523,-0.0014560406561940908,-0.0006313822232186794
1761468600199776800,9.06977685546875,-0.00294129503890872,-0.0018390021286904812,0.004582214169204235
1761468600209760800,9.0797607421875,0.0008539753034710884,-0.002444072160869837,0.0006881402805447578
1761468600219743700,9.08974365234375,0.0005991766229271889,0.00019715912640094757,-0.0014496793737635016
1761468600229726700,9.099726806640625,-0.0006780754774808884,-0.00039060041308403015,0.0004859061446040869
1761468600239710000,9.1097099609375,0.002194264205172658,0.0019103225786238909,0.00028258468955755234
1761468600249692700,9.119692626953125,0.0006632129661738873,0.001930030295625329,0.0007353220134973526
1761468600259675600,9.129675537109375,0.0008701160550117493,0.0019072962459176779,-0.0008322657085955143
1761468600269659600,9.13965966796875,0.0019106129184365273,0.0011363110970705748,0.000798920402303338
1761468600279643000,9.149642822265625,0.00031059328466653824,-0.0010961289517581463,0.0018748743459582329
1761468600289625900,9.1596259765625,0.0006607989780604839,-0.0008306116797029972,0.001333453692495823
1761468600299608800,9.16960888671875,-0.0007654833607375622,-0.0033163174521178007,-0.00019257701933383942
1761468600309591800,9.179591796875,0.0009386735036969185,-0.003988765645772219,-0.000009617768228054047
1761468600319574800,9.18957470703125,0.0020551648922264576,-0.00040192995220422745,0.0010245367884635925
1761468600329558800,9.199558837890624,0.0015150760300457478,0.00007450953125953674,0.0021598422899842262
1761468600339541800,9.209541748046876,0.001051384024322033,-0.0012613339349627495,2.0186416804790497e-7
1761468600349524700,9.219524658203126,0.0009094374254345894,-0.0025417818687856197,-0.0008584011811763048
1761468600359507700,9.2295078125,-0.0024661622010171413,0.0006547232624143362,-0.0014621251029893756
1761468600369491000,9.239490966796875,-0.0008429656736552715,0.0002826796844601631,0.002205047756433487
1761468600379473700,9.2494736328125,0.00043211178854107857,0.002049248432740569,-0.001816902426071465
1761468600389456600,9.25945654296875,0.0022470562253147364,-0.0005651768296957016,-0.00023125624284148216
1761468600399440600,9.269440673828125,0.0012470521032810211,0.0005858347285538912,0.00357796554453671
1761468600409424000,9.279423828125,-0.0015756324864923954,-0.0026917175855487585,0.0026189612690359354
1761468600419406800,9.28940673828125,0.0020189806818962097,0.002337466459721327,0.0015296642668545246
1761468600429389800,9.299389892578125,0.002115120878443122,0.00044182827696204185,0.000002341344952583313
1761468600439372800,9.309372802734375,0.0017555709928274155,-0.0005515904631465673,0.0007217447273433208
1761468600449356800,9.319356689453125,-0.0004242262803018093,-0.000341466860845685,-0.002567791612818837
1761468600459339800,9.32933984375,-0.0010863794013857841,0.00028332206420600414,0.0013789122458547354
1761468600469322800,9.33932275390625,0.0013405592180788517,0.0007568320725113153,0.0006532010156661272
1761468600479305700,9.3493056640625,0.0006897235289216042,0.0008523857686668634,-0.00012743892148137093
1761468600489288700,9.359288818359374,-0.00015636300668120384,0.0007285487372428179,-0.0014555572997778654
1761468600499272000,9.36927197265625,0.0018949448131024837,-0.0016710958443582058,0.0005528188776224852
1761468600509254700,9.379254638671876,-0.0019205664284527302,-0.001329944934695959,-0.001244814833626151
1761468600519238700,9.38923876953125,0.0005687475204467773,-0.000505686504766345,0.0005860212258994579
1761468600529222000,9.399221923828126,0.00017806189134716988,-0.0006028919015079737,0.0019682017154991627
1761468600539204900,9.409204833984376,-0.0016894727014005184,-0.00044576474465429783,0.0005252957344055176
1761468600549187800,9.419187744140626,0.0019033979624509811,-0.0008870505262166262,-0.0001908282283693552
1761468600559170800,9.4291708984375,-0.0014598206616938114,0.000495024723932147,-0.0007866572123020887
1761468600569153800,9.43915380859375,0.001044615637511015,-0.0014088689349591732,0.003022728255018592
1761468600579137800,9.4491376953125,-0.0005748234689235687,0.00014549284242093563,-0.0007411628030240536
1761468600589120800,9.459120849609375,0.0008475705981254578,0.0014741439372301102,-0.002357168821617961
1761468600599103700,9.469103759765625,0.0030174243729561567,0.0003280320670455694,0.000015494879335165024
1761468600609086700,9.479086669921875,0.0016296510584652424,0.0021307256538420916,-0.0015278069768100977
1761468600619069700,9.489069580078125,-0.0007150089368224144,-0.0005234954878687859,-0.0009137727320194244
1761468600629053000,9.499052978515625,0.000265300739556551,0.002323423745110631,0.0011754771694540977
1761468600639037000,9.509036865234375,0.0009745992720127106,-0.00016653654165565968,-0.002158702816814184
1761468600649019600,9.51901953125,0.0002171965315937996,-0.0016262151766568422,0.0002405389677733183
1761468600659003000,9.5290029296875,-0.0007286532782018185,0.000979638658463955,0.00038641318678855896
1761468600668985900,9.53898583984375,-0.001718816813081503,-0.0007085390388965607,0.0013323677703738213
1761468600678968600,9.548968505859374,0.00022964179515838623,-0.00025753327645361423,0.001510749338194728
1761468600688951800,9.558951904296874,0.0005449601449072361,-0.0008325097151100636,-0.0006176489405333996
1761468600698935800,9.568935791015624,-0.00091587845236063,-0.002869749441742897,0.0008645078632980585
1761468600708918800,9.578918701171874,0.0021973566617816687,-0.002718215575441718,-0.0006851856596767902
1761468600718901800,9.58890185546875,0.0011497186496853828,-0.0029266662895679474,-0.00043450575321912766
1761468600728884700,9.598884765625,-0.00017866585403680801,-0.00024752644822001457,0.0019591432064771652
1761468600738867700,9.60886767578125,-0.0003673657774925232,0.0008084531873464584,-0.0004306146875023842
1761468600748851000,9.618850830078125,-0.002069125883281231,0.0028748000040650368,0.0011030996683984995
1761468600758835000,9.6288349609375,0.0023727035149931908,0.0007912281434983015,0.0010025105439126492
1761468600768817700,9.638817626953125,-0.00038366811349987984,0.0007025448139756918,-0.0007533116731792688
1761468600778800600,9.648800537109375,-0.0008169873617589474,0.002142667304724455,0.002192431129515171
1761468600788783900,9.658783935546875,-0.0003221719525754452,-0.0002608357463032007,-0.00045555015094578266
1761468600798766800,9.668766845703125,-0.00035727908834815025,-0.0011834113392978907,0.00008992594666779041
1761468600808749600,9.67874951171875,-0.000013465061783790588,0.0008967835456132889,-0.0004102156963199377
1761468600818732800,9.68873291015625,-0.0008718422614037991,0.00040867202915251255,-0.0002728467807173729
1761468600828716800,9.698716796875,0.00034575536847114563,-0.001440627034753561,0.001521058613434434
1761468600838699800,9.70869970703125,0.0013793250545859337,-0.0026661143638193607,0.002342547755688429
1761468600848683000,9.71868310546875,-0.001552016008645296,-0.0006722058169543743,0.00099605368450284
1761468600858665700,9.728665771484375,0.00037701521068811417,0.0019254432991147041,-0.00019936496391892433
1761468600868648700,9.738648681640624,0.00022095395252108574,-0.0012514416594058275,-0.000153824919834733
1761468600878632000,9.7486318359375,-0.0007784636691212654,-0.0023326820228248835,0.0013281418941915035
1761468600888616000,9.758615966796874,-0.0004319865256547928,0.026955433189868927,0.016276465728878975
1761468600898598700,9.7685986328125,-0.002082755323499441,0.08302198350429535,0.032852642238140106
1761468600908581600,9.77858154296875,-0.0011738189496099949,-0.015589541755616665,-0.006406080909073353
1761468600918564900,9.78856494140625,-0.0002608075737953186,0.026666397228837013,0.009426398202776909
1761468600928547800,9.7985478515625,0.00012748129665851593,-0.02901204489171505,-0.010644515976309776
1761468600938530600,9.808530517578125,-0.0006970847025513649,-0.014913715422153473,-0.007768499199301004
1761468600948514800,9.818514892578126,0.00003475183621048927,-0.03059893473982811,-0.010379462502896786
1761468600958497800,9.828497802734375,-0.0018379921093583107,-0.025797352194786072,-0.008045044727623463
1761468600968480800,9.838480712890625,0.0006350195035338402,-0.01664406806230545,-0.006108926609158516
1761468600978464000,9.848464111328125,0.00021774787455797195,-0.0035359899047762156,0.0021269207354635
1761468600988446700,9.85844677734375,0.001794339157640934,-0.0029162722639739513,-0.00029708840884268284
1761468600998429700,9.8684296875,0.0005372725427150726,-0.0015806038863956928,-0.0028391110245138407
