time,seconds_elapsed,z,y,x
1761468794948605200,0.119605224609375,-0.00004561571404337883,-0.0017634567338973284,-0.0006546946242451668
1761468794958588400,0.12958837890625,-0.0017621018923819065,0.0004345220513641834,0.00020877784118056297
1761468794968570000,0.139570068359375,0.002604949753731489,0.002314714016392827,0.0006697708740830421
1761468794978553300,0.14955322265625,-0.0014747390523552895,-0.002485367702320218,-0.001977677457034588
1761468794988535300,0.159535400390625,0.0005005272105336189,-0.0010842785704880953,-0.0032405483070760965
1761468794998518300,0.169518310546875,0.0006219372153282166,-0.0015108906663954258,-0.0005000969395041466
1761468795008501200,0.179501220703125,-0.0007248232141137123,0.001725915353745222,-0.00012645544484257698
1761468795018483500,0.1894833984375,0.0016178782097995281,-0.0015797823434695601,-0.0005471135955303907
1761468795028466200,0.199466064453125,-0.0019534206949174404,-0.0002069228794425726,-0.0003865249454975128
1761468795038449400,0.209449462890625,0.0001406269147992134,0.0028711543418467045,-0.002491166116669774
1761468795048431400,0.219431396484375,-0.0006495327688753605,-0.00012303795665502548,-0.0036227433010935783
1761468795058414300,0.229414306640625,-0.0019965325482189655,-0.0001981658861041069,0.0021285605616867542
1761468795068397300,0.239397216796875,0.0009574457071721554,0.0012450010981410742,0.0005801990628242493
1761468795078379500,0.249379638671875,0.0018011298961937428,0.001152140088379383,0.00011187000200152397
1761468795088362200,0.2593623046875,-0.0022178469225764275,-0.0003839712589979172,-0.00039279903285205364
1761468795098345200,0.26934521484375,-0.0017045480199158192,0.000987884821370244,-0.0016313721425831318
1761468795108327400,0.279327392578125,-0.0007308963686227798,0.0011292982380837202,0.00008769845589995384
1761468795118310100,0.28931005859375,0.00164695642888546,-0.0007206466980278492,-0.001392134465277195
1761468795128292400,0.299292236328125,0.001632309053093195,-0.0019174711778759956,-0.0014142387080937624
1761468795138275300,0.309275390625,0.0003021745942533016,-0.0011653427500277758,-0.0006617784965783358
1761468795148258300,0.31925830078125,0.0027379016391932964,0.00009060394950211048,-0.00085246074013412
1761468795158240300,0.329240234375,-0.0002745199017226696,0.0012747494038194418,-0.0026245592162013054
1761468795168223500,0.339223388671875,-0.0002489537000656128,-0.0035458384081721306,-0.0011885827407240868
1761468795178206200,0.349206298828125,0.0005405135452747345,0.0009601376950740814,0.0011296761222183704
1761468795188188400,0.3591884765625,-0.0009961305186152458,0.001619802787899971,-0.0027244507800787687
1761468795198171400,0.36917138671875,-0.0004996620118618011,0.002392370719462633,-0.003037528833374381
1761468795208153300,0.3791533203125,-0.0003981958143413067,0.0031231422908604145,-0.00004386948421597481
1761468795218136300,0.38913623046875,-0.0020026075653731823,0.0016790260560810566,-0.0008818416390568018
1761468795228119300,0.399119384765625,0.0007194094359874725,0.0026718522422015667,0.0013972916640341282
1761468795238101200,0.409101318359375,-0.0004482278600335121,-0.00012326124124228954,0.001016166526824236
1761468795248084200,0.419084228515625,-0.0009025628678500652,0.0017928832676261663,-0.0006096931174397469
1761468795258067500,0.4290673828125,0.0018239663913846016,0.0013573921751230955,-0.0005202742759138346
1761468795268049200,0.439049072265625,0.000376005657017231,-0.0010319959837943316,0.0025399639271199703
1761468795278032400,0.449032470703125,-0.0009280983358621597,-0.002090154681354761,-0.0018341330578550696
1761468795288015400,0.459015380859375,0.0019454522989690304,0.000287515576928854,0.00071717519313097
1761468795297997300,0.468997314453125,-0.0009303763508796692,-0.0030357439536601305,0.002312743104994297
1761468795307980300,0.478980224609375,0.00017084088176488876,-0.00018056901171803474,-0.001342179486528039
1761468795317966000,0.488966064453125,-0.0004367050714790821,0.0017218135762959719,-0.0008225187193602324
1761468795327949000,0.498948974609375,-0.0034745726734399796,-0.0007250986527651548,0.001081641297787428
1761468795337932000,0.50893212890625,0.0008922675624489784,-0.0006352418567985296,-0.000844120979309082
1761468795347914000,0.5189140625,0.00011142902076244354,0.002318203914910555,-0.0008220167364925146
1761468795357897000,0.52889697265625,0.0009231274016201496,0.0010405653156340122,-0.000047174980863928795
1761468795367880200,0.538880126953125,0.0016970420256257057,-0.0005488093011081219,-0.0015452030347660184
1761468795377862000,0.54886181640625,-0.002383583690971136,0.0007937652990221977,0.00038440688513219357
1761468795387845000,0.55884521484375,0.0011584209278225899,0.0009602131322026253,-0.00002651871182024479
1761468795397828000,0.568828125,0.000005348119884729385,0.0015405670274049044,-0.00023326044902205467
1761468795407810000,0.57881005859375,-0.003081255592405796,0.00010512303560972214,-0.0005421871319413185
1761468795417793000,0.58879296875,0.0020781834609806538,0.0012480819132179022,0.0012270277366042137
1761468795427776000,0.59877587890625,0.000015298835933208466,-0.0012747305445373058,-0.0003429057542234659
1761468795437758000,0.608758056640625,-0.00201726658269763,0.0023877318017184734,-0.0009719217196106911
1761468795447741000,0.618740966796875,-0.0001618419773876667,-0.0006685119587928057,-0.002570084761828184
1761468795457723000,0.628722900390625,-0.002450686413794756,-0.00327480211853981,-0.0021583321504294872
1761468795467705900,0.638705810546875,-0.0002735522575676441,-0.00042655132710933685,-0.00336314644664526
1761468795477689000,0.648689208984375,0.0013532796874642372,0.0004306999035179615,0.0006051270756870508
1761468795487670800,0.6586708984375,-0.002830013632774353,0.002192913554608822,0.003298115450888872
1761468795497654000,0.668654052734375,0.0014637364074587822,0.0014884367119520903,-0.0017912627663463354
1761468795507637000,0.678636962890625,0.0003896835260093212,0.0011962878052145243,0.001322505297139287
1761468795517619200,0.688619140625,0.0018105236813426018,-0.0008142520673573017,0.00029482576064765453
1761468795527602000,0.698601806640625,0.0006358036771416664,-0.0016390330856665969,0.000977127579972148
1761468795537585000,0.7085849609375,0.00011061877012252808,-0.0005220097955316305,0.002207657089456916
1761468795547567000,0.718567138671875,0.0010933252051472664,0.0003033038228750229,-0.00019318261183798313
1761468795557550000,0.728550048828125,0.0014351359568536282,-0.0013247993774712086,-0.00045615946874022484
1761468795567532000,0.738531982421875,-0.0007451940327882767,0.0015463547315448523,-0.0012614994775503874
1761468795577515000,0.748514892578125,0.0009558075107634068,-0.0027571055106818676,0.0009636327158659697
1761468795587498000,0.758498046875,0.00046791648492217064,0.0014008877333253622,-0.00046302261762320995
1761468795597480000,0.76847998046875,-0.00007130950689315796,0.0017170561477541924,-0.0005366331897675991
1761468795607463200,0.778463134765625,0.0017646737396717072,-0.0016518424963578582,0.00014060852117836475
1761468795617446000,0.78844580078125,0.002315711695700884,-0.0005113480146974325,-0.0002576515544205904
1761468795627428000,0.798427978515625,-0.0003128284588456154,0.0022455560974776745,-0.0026054943446069956
1761468795637411000,0.8084111328125,0.0003393380902707577,-0.0007691644132137299,-0.0013997297501191497
1761468795647394000,0.81839404296875,-0.0022812127135694027,-0.00034598796628415585,-0.0005427245050668716
1761468795657376000,0.8283759765625,0.0015893480740487576,0.00006394623778760433,-0.000034521566703915596
1761468795667359200,0.838359130859375,0.0010218285024166107,0.00052627082914114,-0.0018553248373791575
1761468795677341000,0.8483408203125,-0.0007629701867699623,0.0021479022689163685,-0.00015752669423818588
1761468795687324200,0.85832421875,-0.0008497894741594791,-0.003456986742094159,-0.0024337302893400192
1761468795697307100,0.86830712890625,0.000314988661557436,0.0002629391383379698,-0.000906539848074317
1761468795707289000,0.8782890625,-0.0011068731546401978,-0.0004076447803527117,0.001976065570488572
1761468795717272000,0.88827197265625,0.00002596154808998108,-0.0003706302959471941,-0.0011392950545996428
1761468795727255000,0.898255126953125,0.0006486084312200546,-0.0012489408254623413,0.0005962871946394444
1761468795737237000,0.908237060546875,0.0006836187094449997,0.0011436468921601772,-0.0005715391598641872
1761468795747220000,0.918219970703125,0.000330483540892601,-0.00018127565272152424,-0.0006080244202166796
1761468795757202000,0.928201904296875,0.0001280931755900383,-0.0022879980970174074,-0.0006099778693169355
1761468795767185000,0.938184814453125,0.0006876233965158463,0.004988024011254311,0.0006220005452632904
1761468795777168100,0.948168212890625,0.0004403195343911648,0.003184800734743476,0.0000030302908271551132
1761468795787149800,0.95814990234375,-0.003669737372547388,-0.004497886169701815,-0.0012278829235583544
1761468795797133000,0.968133056640625,0.0002764272503554821,0.00029359362088143826,0.0016076271422207355
1761468795807116000,0.978115966796875,0.0015033455565571785,-0.004970410373061895,-0.001209731213748455
1761468795817098000,0.988097900390625,-0.0011396147310733795,0.00534728541970253,-0.00044347066432237625
1761468795827081000,0.9980810546875,0.0006593503057956696,0.0020012904424220324,0.001516616204753518
1761468795837064000,1.00806396484375,0.0010996805503964424,0.00200018472969532,-0.0002600024454295635
1761468795847046000,1.0180458984375,-0.00025613466277718544,-0.0020297104492783546,-0.0012544268975034356
1761468795857028900,1.02802880859375,0.0016484619118273258,0.0004588346928358078,0.00012320000678300858
1761468795867011000,1.038010986328125,-0.0006429217755794525,0.0010204953141510487,0.0013005835935473442
1761468795876994000,1.047994140625,0.0008457000367343426,0.0006033461540937424,-0.002049524337053299
1761468795886977000,1.05797705078125,0.002993272850289941,0.002795926760882139,-0.00018877373076975346
1761468795896959000,1.067958984375,-0.0017590392380952835,0.0012427929323166609,0.0004203254356980324
1761468795906942200,1.077942138671875,0.002764606149867177,0.0007940505165606737,-0.0031395219266414642
1761468795916925000,1.087925048828125,-0.002886301837861538,-0.0020572796929627657,-0.0014179815771058202
1761468795926907100,1.0979072265625,-0.000981875229626894,0.00040747574530541897,0.0002848436124622822
1761468795936890000,1.10789013671875,0.0006158589385449886,-0.0010247009340673685,0.001690747682005167
1761468795946872800,1.117872802734375,-0.0007301024161279202,0.00048105022870004177,0.0023203189484775066
1761468795956855000,1.12785498046875,0.00100223021581769,0.0023495149798691273,-0.0011563992593437433
1761468795966838000,1.137838134765625,-0.001117645762860775,-0.0007248381152749062,0.0005874386988580227
1761468795976820000,1.147820068359375,0.0014632511883974075,-0.003998164553195238,-0.0001686613541096449
1761468795986803000,1.157802978515625,0.0008286195807158947,-0.0016460607293993235,-0.0005132744554430246
1761468795996786200,1.1677861328125,-0.0006478298455476761,0.001153196208178997,0.0004692371003329754
1761468796006767900,1.177767822265625,0.0006629782728850842,-0.0016215512296184897,0.00151266367174685
1761468796016751000,1.187751220703125,0.00019251788035035133,-0.00003791367635130882,-0.003014223650097847
1761468796026734000,1.197734130859375,-0.0014154990203678608,-0.0022949427366256714,0.0005208563525229692
1761468796036716000,1.207716064453125,-0.0007060556672513485,-0.0016886957455426455,0.001426205737516284
1761468796046699000,1.217698974609375,0.0013600247912108898,-0.0012061309535056353,0.0013516370672732592
1761468796056682000,1.227681884765625,0.00387993804179132,0.00019719614647328854,-0.0005267222877591848
1761468796066664000,1.237663818359375,0.0007232935167849064,0.000210511963814497,-0.00040368433110415936
1761468796076647200,1.247647216796875,0.003689537290483713,0.00009545823559165001,0.0013654662761837244
1761468796086628900,1.25762890625,-0.00015100697055459023,0.00103608681820333,0.0016339130233973265
1761468796096612000,1.267612060546875,0.003008920233696699,0.00044282455928623676,0.0002547621261328459
1761468796106595000,1.277594970703125,0.0000586705282330513,0.0007954270113259554,0.00003984500654041767
1761468796116577000,1.287576904296875,-0.00007751584053039551,-0.0007128245197236538,0.002252832753583789
1761468796126560000,1.29756005859375,0.0027323856484144926,-0.002153062028810382,0.000637891935184598
1761468796136543000,1.30754296875,0.0006820438429713249,0.0039317430928349495,0.0007556092459708452
1761468796146525000,1.31752490234375,-0.0004655122756958008,0.002599896164610982,-0.0004518679343163967
1761468796156508000,1.3275078125,0.0011363429948687553,0.0007636563386768103,0.0005777520127594471
1761468796166491100,1.3374912109375,-0.0035177976824343204,0.0010113304015249014,0.001364183146506548
1761468796176472800,1.347472900390625,0.00034885527566075325,0.0003656477201730013,0.001600540243089199
1761468796186456000,1.3574560546875,0.0025984274689108133,0.0015731249004602432,0.0007065171375870705
1761468796196438000,1.36743798828125,-0.0011547841131687164,0.00195577135309577,-0.000947936438024044
1761468796206421000,1.3774208984375,-0.00009724311530590057,-0.0005800907965749502,-0.0003077124711126089
1761468796216404000,1.387404052734375,-0.0005174744874238968,-0.0011360866483300924,-0.0006949892267584801
1761468796226386200,1.39738623046875,0.0018037366680800915,-0.0018649937119334936,0.00006987061351537704
1761468796236369200,1.407369140625,-0.0008781831711530685,-0.00022283638827502728,0.0010270627681165934
1761468796246352000,1.417351806640625,-0.0011069485917687416,-0.0011839710641652346,0.00159325054846704
1761468796256334000,1.427333984375,0.005383061710745096,0.0008706697262823582,0.0010467697866261005
1761468796266317000,1.437317138671875,-0.0010961424559354782,-0.0020518833771348,0.0006590136326849461
1761468796276300000,1.447300048828125,-0.0005389549769461155,-0.0007434617727994919,-0.00106014683842659
1761468796286282000,1.457281982421875,-0.00041245482861995697,-0.0024564070627093315,0.0030507089104503393
1761468796296265200,1.46726513671875,-0.0008242176845669746,-0.0005934226792305708,0.0016590170562267303
1761468796306247000,1.477246826171875,0.0005446472205221653,-0.0004884940572082996,0.0005122597794979811
1761468796316230100,1.487230224609375,0.0012913872487843037,0.003049152670428157,0.0023165796883404255
1761468796326213000,1.497213134765625,-0.0014039981178939342,-0.0007069695275276899,0.0017626425251364708
1761468796336195300,1.5071953125,0.003138418309390545,0.00215811375528574,-0.001432549674063921
1761468796346178000,1.517177978515625,0.00006592925637960434,0.00008670729584991932,0.0006447159685194492
1761468796356161000,1.5271611328125,-0.0007351343519985676,-0.0016843656776472926,0.00026252586394548416
1761468796366143200,1.537143310546875,0.00039031775668263435,-0.0012787661980837584,0.0014537579845637083
1761468796376126000,1.5471259765625,-0.0011375648900866508,-0.0018231973517686129,-0.0012551058316603303
1761468796386108200,1.557108154296875,-0.0017442330718040466,-0.0017715319991111755,0.00036622676998376846
1761468796396091100,1.567091064453125,0.001521014142781496,0.00025181006640195847,-0.0006848867051303387
1761468796406074000,1.57707421875,-0.0005179019644856453,-0.0007122543174773455,0.0015718759968876839
1761468796416056000,1.58705615234375,-0.0011256220750510693,-0.0004723961465060711,-0.0007683024741709232
1761468796426039300,1.597039306640625,-0.0008134995587170124,-0.0021919994615018368,-0.0007501929067075253
1761468796436022000,1.60702197265625,-0.0002971780486404896,0.0018131174147129059,0.0013184298295527697
1761468796446004200,1.617004150390625,0.0015912698581814766,-0.0005885211285203695,-0.002229965990409255
1761468796455987200,1.6269873046875,0.000955045223236084,-0.0017438573995605111,-0.0004582093097269535
1761468796465970000,1.636969970703125,0.0004011080600321293,0.0009770940523594618,0.0012131906114518642
1761468796475952000,1.6469521484375,0.00037780776619911194,-0.001139079686254263,0.00032506673596799374
1761468796485935000,1.65693505859375,-0.0017228936776518822,-0.0002711554989218712,0.001579149393364787
1761468796495917000,1.6669169921875,0.0009663575328886509,0.0015032270457595587,0.00033093569800257683
1761468796505900000,1.676900146484375,0.0019336175173521042,-0.0010105306282639503,0.0011250902898609638
1761468796515883300,1.68688330078125,-0.0016060108318924904,0.0012613467406481504,-0.00006075529381632805
1761468796525865000,1.696864990234375,-0.0007085255347192287,0.002730346517637372,0.0013451273553073406
1761468796535848200,1.70684814453125,0.0010871011763811111,-0.00017213146202266216,0.0013345927000045776
1761468796545831200,1.7168310546875,-0.0005480796098709106,0.0008475927170366049,-0.001025766832754016
1761468796555813000,1.726813232421875,0.0016316501423716545,-0.0008090871851891279,-0.000010667368769645691
1761468796565796000,1.736796142578125,0.00030113523826003075,0.0004790837410837412,0.0009965403005480766
1761468796575778300,1.7467783203125,0.002931575756520033,0.002870486816391349,-0.0018647420220077038
1761468796585761000,1.756760986328125,0.0019230367615818977,0.0007095977198332548,0.00285890675149858
1761468796595744300,1.766744140625,-0.0005370704457163811,0.00002090074121952057,-0.0021893642842769623
1761468796605726200,1.776726318359375,0.001283732708543539,-0.0006981529295444489,-0.0009904091712087393
1761468796615709200,1.786709228515625,0.0005121859721839428,-0.00009674462489783764,0.00152726867236197
1761468796625692200,1.796692138671875,-0.00044149206951260567,-0.0013292555231601,-0.0024949032813310623
1761468796635674000,1.806674072265625,0.0018946393392980099,0.0007856173906475306,0.0006632946897298098
1761468796645657000,1.816656982421875,-0.0025139576755464077,0.0007493982557207346,0.000601509353145957
1761468796655640000,1.82664013671875,-0.0008434047922492027,0.0003622977528721094,0.00009355484507977962
1761468796665622300,1.836622314453125,0.00042079808190464973,0.000227808253839612,-0.0005615828558802605
1761468796675605000,1.84660498046875,-0.000556466169655323,-0.001042059389874339,-0.0017331462586298585
1761468796685588200,1.856588134765625,0.001591905951499939,0.0007744827307760715,0.0008485221769660711
1761468796695570200,1.866570068359375,-0.0003186007961630821,0.0021957973949611187,0.0006203867960721254
1761468796705553200,1.87655322265625,0.00005583977326750755,0.0006769965402781963,0.0005391605664044619
1761468796715535000,1.88653515625,0.0016968222334980965,0.0013889407273381948,-0.0021542259491980076
1761468796725518300,1.896518310546875,0.001048076432198286,-0.0007929871790111065,-0.0006921505555510521
1761468796735501000,1.9065009765625,-0.0005025286227464676,0.001381643582135439,0.0003632770385593176
1761468796745483300,1.916483154296875,0.000123580452054739,-0.002562497975304723,-0.0015286325942724943
1761468796755466200,1.92646630859375,-0.002477561589330435,-0.0022343327291309834,-0.002566250739619136
1761468796765449000,1.936448974609375,0.001038876362144947,0.004192141350358725,-0.0002780626527965069
1761468796775431200,1.94643115234375,-0.0009180088527500629,0.002008567564189434,0.0007145295385271311
1761468796785414100,1.9564140625,0.0016516749747097492,-0.00014299992471933365,0.0003747099544852972
1761468796795397000,1.966397216796875,0.002235252410173416,0.0012298417277634144,0.0009735745843499899
1761468796805379000,1.976379150390625,-0.001474797260016203,0.0018199984915554523,0.00027103256434202194
1761468796815362300,1.9863623046875,-0.00158971780911088,0.00045876135118305683,-0.0012583928182721138
1761468796825344000,1.996343994140625,-0.00025840336456894875,-0.00044112070463597775,0.0005813189782202244
1761468796835327200,2.0063271484375,-0.001153931487351656,-0.0010188810992985964,-0.0032522694673389196
1761468796845310200,2.016310302734375,-0.0027225338853895664,-0.0010127557907253504,-0.0024578485172241926
1761468796855292200,2.026292236328125,-0.0007450515404343605,0.0015852618962526321,0.0013696257956326008
1761468796865275100,2.036275146484375,-0.0012385351583361626,0.000409209867939353,0.0024247700348496437
1761468796875258000,2.046258056640625,0.0005159210413694382,-0.0001708099152892828,-0.002067578723654151
1761468796885240000,2.056239990234375,0.0013255220837891102,-0.00016122241504490376,-0.0005051020998507738
1761468796895223000,2.06622314453125,-0.002780519425868988,0.0010679084807634354,-0.0011406075209379196
1761468796905205200,2.076205322265625,-0.0015733083710074425,-0.0024711661972105503,0.00002612336538732052
1761468796915188000,2.08618798828125,0.0013339640572667122,0.0021341487299650908,0.00042817764915525913
1761468796925171200,2.096171142578125,-0.002588339149951935,0.00202575814910233,-0.00040059792809188366
1761468796935153200,2.106153076171875,0.0008143018931150436,0.0014867980498820543,0.0009704427793622017
1761468796945136000,2.11613623046875,-0.0013790777884423733,0.004425595514476299,0.0003781558480113745
1761468796955119000,2.126119140625,-0.00027568917721509933,0.0015280938241630793,0.00027168402448296547
1761468796965101300,2.136101318359375,-0.0002639712765812874,-0.0006013696547597647,-0.0027025341987609863
1761468796975084000,2.146083984375,-0.0009751841425895691,-0.0002704448997974396,-0.0010467651300132275
1761468796985067000,2.15606689453125,0.0012517510913312435,-0.001464872737415135,-0.0023170928470790386
1761468796995049200,2.16604931640625,0.00008484302088618279,0.0027115282136946917,-0.0012520488817244768
1761468797005032000,2.176031982421875,-0.0025290492922067642,0.0014246886130422354,0.0010574443731456995
1761468797015014100,2.18601416015625,0.004190180916339159,-0.0018561376491561532,-0.0015174031723290682
1761468797024997000,2.1959970703125,-0.001961455214768648,-0.0011999348644167185,0.0001707745250314474
1761468797034980000,2.20597998046875,0.001232858281582594,0.001223843079060316,0.0011773977894335985
1761468797044962000,2.215962158203125,0.003043807577341795,0.0009535322897136211,0.001102829584851861
1761468797054945300,2.2259453125,0.0008546509779989719,-0.0032411369029432535,-0.001032167812809348
1761468797064928000,2.235927978515625,-0.000283051747828722,-0.0015223327791318297,-0.0005762346554547548
1761468797074910200,2.24591015625,-0.0010784314945340157,-0.00041151815094053745,-0.0028651803731918335
1761468797084893200,2.25589306640625,-0.00020384928211569786,-0.0009974136482924223,0.0007372777909040451
1761468797094876200,2.265876220703125,0.001484991516917944,0.001071806764230132,0.0010949927382171154
1761468797104858000,2.275858154296875,0.0003968239761888981,0.002217232482507825,0.0004584970884025097
1761468797114841300,2.28584130859375,-0.00171593576669693,0.0007110843434929848,0.00013301451690495014
1761468797124823000,2.295822998046875,0.00038636382669210434,0.00019629532471299171,-0.00022251741029322147
1761468797134806300,2.30580615234375,-0.0007368745282292366,-0.0011611438822001219,-0.0034242277033627033
1761468797144789200,2.315789306640625,0.0017393329180777073,-0.001246897503733635,-0.0009440258145332336
1761468797154771200,2.325771240234375,-0.000018052756786346436,-0.0018571644322946668,0.000024533364921808243
1761468797164754200,2.335754150390625,-0.001410619355738163,0.0025881840847432613,0.00234574475325644
1761468797174737200,2.345737060546875,0.001757205929607153,0.0011969723273068666,-0.0019540092907845974
1761468797184719000,2.355718994140625,0.0012919516302645206,0.0006448992062360048,0.00048225047066807747
1761468797194702000,2.3657021484375,-0.00021471548825502396,0.0009066839702427387,0.00001562153920531273
1761468797204684300,2.375684326171875,0.004282831214368343,-0.00009599607437849045,0.0017967435996979475
1761468797214667000,2.3856669921875,0.0007711597718298435,0.0001629916951060295,0.0000454452820122242
1761468797224650200,2.395650146484375,0.002066254848614335,-0.00048575433902442455,-0.002278162632137537
1761468797234632200,2.405632080078125,0.00009108195081353188,0.0002017882652580738,0.002952184062451124
1761468797244615200,2.415615234375,-0.0011542118154466152,-0.0006155357696115971,-0.00025239773094654083
1761468797254598100,2.42559814453125,0.001720053143799305,-0.00040122191421687603,-0.0013582227984443307
1761468797264580400,2.435580322265625,0.00042069656774401665,-0.000546896830201149,-0.00014701718464493752
1761468797274563000,2.44556298828125,0.002564632100984454,0.0004189873579889536,0.00011303112842142582
1761468797284546000,2.455546142578125,0.0025084393564611673,-0.0034812120720744133,-0.00021080928854644299
1761468797294528300,2.4655283203125,0.000745339784771204,-0.00012412085197865963,-0.0010981147643178701
1761468797304511000,2.475510986328125,-0.0009239292703568935,-0.006013701669871807,-0.0010288725607097149
1761468797314494200,2.485494140625,0.0006518666632473469,-0.002458482049405575,-0.0009029705543071032
1761468797324472300,2.495472412109375,-0.002907714806497097,-0.0001934634055942297,-0.000262480229139328
1761468797334455600,2.50545556640625,0.0015108324587345123,0.001964790979400277,0.001041291980072856
1761468797344437500,2.5154375,0.000013070646673440933,-0.00007625552825629711,0.0014833768364042044
1761468797354420500,2.52542041015625,-0.0009989365935325623,0.0029350516851991415,0.001118718646466732
1761468797364403500,2.535403564453125,0.00016513140872120857,0.0034927173983305693,0.0021312525495886803
1761468797374385700,2.5453857421875,-0.002770528197288513,-0.000302682863548398,-0.00009685824625194073
1761468797384368400,2.555368408203125,0.0007200771942734718,-0.0014630223158746958,0.0008520260453224182
1761468797394351400,2.565351318359375,-0.0004435628652572632,-0.0007441870402544737,-0.0008346501272171736
1761468797404333600,2.57533349609375,0.0018819095566868782,-0.002705871593207121,0.00016163848340511322
1761468797414316300,2.58531640625,-0.00021313223987817764,0.0007533463649451733,0.00046918937005102634
1761468797424299500,2.595299560546875,0.0008151140064001083,0.0011163349263370037,0.0011458983644843102
1761468797434281500,2.605281494140625,-0.00021525565534830093,0.00242700451053679,-0.002470934297889471
1761468797444264400,2.615264404296875,0.0024878529366105795,-0.0015371108893305063,0.0021722870878875256
1761468797454246400,2.625246337890625,-0.00031644757837057114,0.0015647993423044682,0.001110172364860773
1761468797464229600,2.635229736328125,-0.001191562507301569,-0.0005361682269722223,0.0012015188112854958
1761468797474212400,2.64521240234375,0.0010466855019330978,-0.0006746803410351276,0.00024003908038139343
1761468797484194600,2.655194580078125,0.00039634155109524727,-0.0017809575656428933,-0.0012766311410814524
1761468797494177500,2.665177490234375,0.002216888591647148,0.0024008629843592644,0.00005184859037399292
1761468797504160500,2.675160400390625,0.0022475149016827345,0.0028615896590054035,-0.00021127169020473957
1761468797514142500,2.685142578125,0.00006303749978542328,-0.00008394755423069,0.001105656148865819
1761468797524125700,2.695125732421875,0.0008036624640226364,-0.00007515912875533104,-0.0020246230997145176
1761468797534107400,2.705107421875,0.00041978852823376656,0.001446056179702282,-0.00005420669913291931
1761468797544090600,2.715090576171875,0.001594774890691042,-0.0019542681984603405,-0.0014385178219527006
1761468797554073600,2.725073486328125,0.00015875697135925293,0.0021714530885219574,0.0009170991834253073
1761468797564055600,2.7350556640625,-0.000674812588840723,0.002270788885653019,-0.00032233609817922115
1761468797574038500,2.74503857421875,0.0006823414005339146,-0.0009033994283527136,0.0011079704854637384
1761468797584021500,2.755021484375,0.00134680001065135,0.0002446891739964485,-0.0014803558588027954
1761468797594003500,2.76500341796875,-0.0004433281719684601,-0.004809838719666004,0.0035690241493284702
1761468797603986400,2.774986328125,0.0014981161803007126,-0.003205284010618925,-0.0013831236865371466
1761468797613969700,2.7849697265625,-0.0012431293725967407,-0.0010604460258036852,-0.0013013749849051237
1761468797623951400,2.794951416015625,-0.00016028806567192078,-0.000413564033806324,-0.0021003233268857002
1761468797633934600,2.8049345703125,0.00024192314594984055,0.0002370588481426239,-0.000046689994633197784
1761468797643916500,2.81491650390625,0.0005926615558564663,-0.0007701485883444548,-0.00207548588514328
1761468797653899500,2.8248994140625,0.002075588796287775,-0.0004490138962864876,-0.00006808014586567879
1761468797663882500,2.834882568359375,-0.00019369088113307953,0.0006231747101992369,-0.00036342465318739414
1761468797673864700,2.84486474609375,-0.0018693367019295692,0.0001430113334208727,0.000702880322933197
1761468797683847400,2.854847412109375,-0.0005966117605566978,-0.00022423872724175453,-0.0021331198513507843
1761468797693830400,2.864830322265625,0.00039131566882133484,0.0008456713985651731,-0.001556168426759541
1761468797703812600,2.8748125,-0.0005064359866082668,-0.0011298616882413626,0.0011437442153692245
1761468797713795300,2.88479541015625,0.0014773840084671974,-0.0013521579094231129,-0.0008542505092918873
1761468797723777500,2.894777587890625,-0.001578593160957098,-0.0013026229571551085,-0.0002678222954273224
1761468797733760500,2.904760498046875,0.00037064170464873314,0.0017623510211706161,-0.0006546564400196075
1761468797743743500,2.914743408203125,0.0014026165008544922,-0.004267578478902578,-0.0002799497451633215
1761468797753725400,2.924725341796875,-0.000636630691587925,-0.0044304607436060905,-0.002165027428418398
1761468797763708700,2.934708740234375,0.0008321027271449566,0.0023310387041419744,0.00008853967301547527
1761468797773691400,2.94469140625,0.0013900441117584705,0.0010974337346851826,0.0005744420923292637
1761468797783673600,2.954673583984375,-0.0004997351206839085,-0.0013007428497076035,-0.0024983130861073732
1761468797793656600,2.964656494140625,0.0017124484293162823,0.002652783878147602,0.002696717157959938
1761468797803639300,2.974639404296875,0.0002711457200348377,-0.0003067867364734411,-0.0015030878130346537
1761468797813621500,2.98462158203125,0.0005805366672575474,0.0003733453340828419,-0.0032390125561505556
1761468797823604500,2.9946044921875,0.0007334020920097828,0.0016838866285979748,0.002224462106823921
1761468797833586400,3.00458642578125,-0.004729719366878271,-0.0003280588425695896,0.0002126807812601328
1761468797843569400,3.0145693359375,-0.0031621824018657207,0.0010368111543357372,-0.0002128921914845705
1761468797853552600,3.024552734375,-0.0003182203508913517,-0.0005208449438214302,-0.0011166180483996868
1761468797863534300,3.034534423828125,-0.002642893698066473,0.00024268333800137043,-0.0006758649833500385
1761468797873517600,3.044517578125,-0.0005174423567950726,-0.00035255239345133305,0.00005460437387228012
1761468797883500500,3.05450048828125,-0.002770210150629282,-0.0004135388880968094,0.0032184398733079433
1761468797893482500,3.064482421875,-0.0031653880141675472,0.0004399833269417286,-0.0026468250434845686
1761468797903465500,3.074465576171875,0.00025171367451548576,0.0017832815647125244,-0.0004124329425394535
1761468797913448400,3.084448486328125,-0.0017141448333859444,-0.0026537913363426924,0.00016053207218647003
1761468797923430400,3.094430419921875,-0.0009692586027085781,0.0012757026124745607,-0.0006123173516243696
1761468797933413600,3.10441357421875,0.0005827085115015507,-0.0014260322786867619,-0.002694807481020689
1761468797943396600,3.114396728515625,-0.0005299597978591919,-0.0020271078683435917,-0.0025922758504748344
1761468797953378600,3.124378662109375,0.0009643961675465107,-0.002969924360513687,-0.00200636126101017
1761468797963361500,3.134361572265625,0.0007446850650012493,0.0027087340131402016,-0.001865746220573783
1761468797973343500,3.144343505859375,-0.0007362691685557365,0.0021925675682723522,-0.0004978226497769356
1761468797983326500,3.154326416015625,0.0007188823074102402,0.001421316061168909,-0.0014371196739375591
1761468797993309400,3.164309326171875,-0.0010726489126682281,-0.0016296373214572668,0.000612529693171382
1761468798003291600,3.174291748046875,-0.0007325629703700542,-0.0006788887549191713,-0.0012516831047832966
1761468798013274400,3.1842744140625,0.0015089302323758602,-0.002697252668440342,0.00021412200294435024
1761468798023257600,3.194257568359375,0.0009246328845620155,0.00038216053508222103,-0.0013680621050298214
1761468798033239600,3.204239501953125,0.00022602686658501625,-0.0003784014843404293,0.000759264687076211
1761468798043222500,3.214222412109375,-0.00015267450362443924,0.002020840300247073,-0.0022714128717780113
1761468798053204500,3.22420458984375,-0.0023498735390603542,0.0008394387550652027,0.0010843609925359488
1761468798063187700,3.234187744140625,0.0000022300519049167633,0.0004801785107702017,0.0014923571143299341
1761468798073170400,3.24417041015625,0.0005175257101655006,-0.0008668580558151007,0.0003486969508230686
1761468798083152600,3.254152587890625,-0.0004776977002620697,-0.0005102609284222126,-0.0015879538841545582
1761468798093135600,3.264135498046875,0.0018747285939753056,-0.00047418009489774704,0.0008067979943007231
1761468798103118300,3.274118408203125,-0.0018598223105072975,0.0008661889005452394,-0.0013546237023547292
1761468798113100500,3.2841005859375,0.0007860870100557804,-0.0013208882883191109,0.002158466028049588
1761468798123083500,3.29408349609375,0.00037702545523643494,0.0016288291662931442,-0.0002378462813794613
1761468798133066500,3.30406640625,-0.0014596665278077126,0.0000627739354968071,0.001528819790109992
1761468798143048400,3.31404833984375,-0.0010753725655376911,-0.0009721305686980486,-0.0017221008893102407
1761468798153031700,3.32403173828125,-0.000591697171330452,0.002064206637442112,-0.0011475970968604088
1761468798163013400,3.334013427734375,-0.0006159315817058086,0.0006996029987931252,0.00037200259976089
1761468798172996600,3.34399658203125,0.0007983832620084286,0.0024033053778111935,-0.0007921911310404539
1761468798182979600,3.3539794921875,-0.00023971684277057648,-0.0016745267203077674,-0.00018365890718996525
1761468798192961500,3.36396142578125,-0.0017562196590006351,0.00030192709527909756,-0.0024417294189333916
1761468798202944500,3.373944580078125,0.0001391516998410225,0.0023373812437057495,-0.001113611040636897
1761468798212927500,3.383927490234375,0.00002126721665263176,0.0007780329324305058,0.0012979493476450443
1761468798222909400,3.393909423828125,-0.0006738179363310337,-0.0012435726821422577,0.0009200465865433216
1761468798232892400,3.403892333984375,0.001829502172768116,0.000039655715227127075,-0.0008762266952544451
1761468798242875600,3.413875732421875,0.0009421366266906261,0.00023699598386883736,-0.000866639195010066
1761468798252857300,3.423857421875,0.001029878854751587,-0.0005737410392612219,0.00029210210777819157
1761468798262840600,3.433840576171875,0.000954244751483202,0.0010451944544911385,0.0018516492564231157
1761468798272822500,3.443822509765625,-0.000016699545085430145,-0.00009644613601267338,-0.002418096410110593
1761468798282805500,3.453805419921875,-0.001622052863240242,-0.00015050824731588364,-0.0042527480982244015
1761468798292788500,3.46378857421875,0.0007009739056229591,0.001748391194269061,0.00041620805859565735
1761468798302770700,3.473770751953125,-0.00018053222447633743,0.004051492549479008,0.0007174115162342787
1761468798312753400,3.48375341796875,0.0005309619009494781,0.0024119033478200436,0.0011381048243492842
1761468798322737200,3.493737060546875,0.000782097689807415,0.001725073903799057,-0.0007908227853477001
1761468798332719000,3.503718994140625,-0.0007460163906216621,-0.0002286133822053671,0.0015951599925756454
1761468798342702000,3.5137021484375,0.0004971474409103394,0.0005543562583625317,-0.000292488606646657
1761468798352684000,3.52368408203125,-0.0011353460140526295,0.0003662754315882921,0.00256552011705935
1761468798362667000,3.5336669921875,-0.0019273702055215836,0.003549019107595086,0.00020542670972645283
1761468798372650200,3.543650146484375,0.0003073373809456825,0.003488253802061081,-0.0013583246618509293
1761468798382632200,3.553632080078125,-0.00016910210251808167,0.0021934248507022858,-0.00041796243749558926
1761468798392615200,3.563615234375,-0.0003583705984055996,0.005131330341100693,0.00033555179834365845
1761468798402598100,3.57359814453125,-0.0009522554464638233,-0.0005561171565204859,-0.001623735879547894
1761468798412580400,3.583580322265625,0.0015524262562394142,-0.001094198552891612,-0.0024221171624958515
1761468798422563000,3.59356298828125,0.0008283127099275589,0.0005574941169470549,0.00046794512309134007
1761468798432546000,3.603546142578125,0.00002722209319472313,0.0005854582414031029,-0.0015046355547383428
1761468798442528300,3.6135283203125,0.0013588028959929943,0.002752206288278103,0.0004312163218855858
1761468798452511000,3.623510986328125,0.0020562007557600737,0.0005798137281090021,-0.0011227645445615053
1761468798462493200,3.6334931640625,0.0001632259227335453,-0.00023564626462757587,0.0002413066104054451
1761468798472476200,3.64347607421875,0.00229092501103878,0.004373881034553051,0.0012783603742718697
1761468798482459100,3.653459228515625,-0.001970399171113968,-0.005509908311069012,0.0006786163430660963
1761468798492441000,3.663441162109375,-0.00013756472617387772,-0.002682019956409931,0.0012177550233900547
1761468798502424300,3.67342431640625,0.0016608680598437786,-0.0026559210382401943,0.00047899410128593445
1761468798512407000,3.683406982421875,0.0007753069512546062,-0.001445265719667077,0.0010140689555555582
1761468798522389200,3.69338916015625,0.00040459493175148964,-0.0007246143650263548,0.0006281768437474966
1761468798532372200,3.703372314453125,0.0015187929384410381,0.0001689605414867401,0.0024663012009114027
1761468798542355000,3.71335498046875,0.0005773655138909817,0.0015596630983054638,0.0016574992332607508
1761468798552337200,3.723337158203125,0.00136962765827775,0.00014536757953464985,0.0010692758951336145
1761468798562320100,3.733320068359375,0.0009429892525076866,0.001326479483395815,0.0003118729218840599
1761468798572303000,3.74330322265625,-0.0010843765921890736,0.001926858676597476,-0.002014209982007742
1761468798582285000,3.75328515625,-0.0006018118001520634,-0.0003821020945906639,0.0024950543884187937
1761468798592268300,3.763268310546875,-0.0012180851772427559,0.0019298556726425886,0.0012946685310453176
1761468798602250000,3.77325,0.0012639807537198067,-0.0005231818649917841,0.0004136946517974138
1761468798612233200,3.783233154296875,0.00042135268449783325,-0.0016472755232825875,0.0002988711930811405
1761468798622216200,3.79321630859375,-0.002926507033407688,-0.001794814714230597,0.0015263219829648733
1761468798632198100,3.8031982421875,0.0008470616303384304,-0.001238751458004117,-0.0004996373318135738
1761468798642181000,3.81318115234375,0.0011671734973788261,0.0016459845937788486,0.003537182230502367
1761468798652164000,3.8231640625,-0.00038233958184719086,0.00126768765039742,0.0012894270475953817
1761468798662146000,3.83314599609375,-0.0008193640969693661,0.001590729458257556,-0.0011100808624178171
1761468798672129300,3.84312939453125,-0.00155626330524683,0.0014918034430593252,0.00018246588297188282
1761468798682111000,3.853111083984375,0.0004853159189224243,0.0003133548889309168,0.0015121819451451302
1761468798692094200,3.86309423828125,0.004037398844957352,-0.001540760393254459,-0.0010487770196050406
1761468798702077200,3.8730771484375,0.0002905977889895439,0.0019165552221238613,0.0012980005703866482
1761468798712059100,3.88305908203125,0.0010702647268772125,0.0006430824287235737,0.001009498257189989
1761468798722042000,3.8930419921875,0.0016071577556431293,0.0016715950332581997,0.000060614198446273804
1761468798732025000,3.903025146484375,0.0005972073413431644,0.0019564719405025244,0.0009512403048574924
1761468798742007300,3.91300732421875,0.0006494056433439255,-0.00018550828099250793,0.0015126345679163933
1761468798751990000,3.922989990234375,-0.0002430882304906845,0.0008676990400999784,-0.0025269559118896723
1761468798761973200,3.93297314453125,-0.0001962166279554367,0.00022348039783537388,-0.001273672329261899
1761468798771955200,3.942955078125,0.0006584958173334599,-0.00111799081787467,0.001645221607759595
1761468798781938200,3.952938232421875,-0.0027090716175734997,-0.0023576924577355385,-0.001385721960105002
1761468798791920000,3.962920166015625,-0.0015284097753465176,0.001386329298838973,0.0008964324370026588
1761468798801903400,3.9729033203125,0.003084185067564249,0.0019948615226894617,0.001457560807466507
1761468798811886000,3.982885986328125,-0.00234950240701437,-0.001765809953212738,-0.0025849631056189537
1761468798821868300,3.992868408203125,-0.0008687847293913364,-0.0017285257345065475,-0.0009891970548778772
1761468798831851300,4.002851318359375,-0.0008004810661077499,-0.0016010182444006205,0.0005258293822407722
1761468798841834000,4.012833984375,-0.0006888941861689091,0.0018033005762845278,-0.00009735021740198135
1761468798851816200,4.022816162109375,0.001003024633973837,0.001357730245217681,0.001991875236853957
1761468798861799200,4.032799072265625,-0.000860921572893858,0.001310325926169753,-0.0003197486512362957
1761468798871782100,4.0427822265625,-0.0010102828964591026,0.00018400885164737701,0.0003491649404168129
1761468798881764000,4.05276416015625,0.00018920470029115677,-0.0021252180449664593,-0.000334734795615077
1761468798891747300,4.062747314453125,-0.0016861497424542904,-0.0013962858356535435,-0.0003201710060238838
1761468798901729000,4.07272900390625,0.00030696019530296326,0.000021048355847597122,-0.0011920899851247668
1761468798911712300,4.082712158203125,0.0010763788595795631,-0.002886328147724271,0.002479346003383398
1761468798921695200,4.0926953125,-0.00035640178248286247,0.0006034784018993378,-0.0002914068754762411
1761468798931677200,4.10267724609375,0.0018803072161972523,-0.0014530571643263102,-0.0012819572584703565
1761468798941660200,4.11266015625,-0.0014049685560166836,0.0007994442712515593,0.0023207671474665403
1761468798951643100,4.12264306640625,0.000027418602257966995,-0.00104303820990026,-0.001161346212029457
1761468798961625000,4.132625,-0.001026127953082323,-0.00263747270219028,0.00013667833991348743
1761468798971608000,4.142608154296875,-0.001126179937273264,-0.0015976174036040902,-0.000306443776935339
1761468798981590000,4.152590087890625,0.0014024912379682064,0.0006274536717683077,0.0012895888648927212
1761468798991573000,4.162572998046875,-0.0009170221164822578,0.0018608211539685726,-0.0004739041905850172
1761468799001556200,4.17255615234375,-0.00297511275857687,0.0034621800296008587,0.0018803304992616177
1761468799011538000,4.182537841796875,-0.0003996468149125576,-0.001612322754226625,-0.0024908334016799927
1761468799021521200,4.192521240234375,0.00010076118633151054,-0.0010599831584841013,-0.0008149060886353254
1761468799031504100,4.202504150390625,-0.001808255910873413,0.0019347998313605785,0.00018985336646437645
1761468799041486000,4.212486083984375,0.0031790456268936396,-0.0008636501152068377,-0.002040011342614889
1761468799051469000,4.222468994140625,-0.0010604355484247208,-0.005563258193433285,0.0014224438928067684
1761468799061452000,4.2324521484375,0.00019923970103263855,-0.0016809020889922976,-0.0011911822948604822
1761468799071434000,4.24243408203125,-0.0012435466051101685,-0.0017185701290145516,0.00019146199338138103
1761468799081417000,4.2524169921875,-0.00004405900835990906,-0.0025598625652492046,-0.0013816673308610916
1761468799091399200,4.262399169921875,-0.0004640799015760422,-0.00017880252562463284,0.0001203250139951706
1761468799101382100,4.272382080078125,0.001902405172586441,-0.0011295510921627283,0.001505435211583972
1761468799111365000,4.282365234375,-0.0003512641414999962,0.000466933473944664,0.000844460679218173
1761468799121347000,4.29234716796875,0.0005582054145634174,0.0005676010623574257,-0.0011651604436337948
1761468799131330300,4.302330322265625,-0.0005188062787055969,0.0032879298087209463,-0.00018981797620654106
1761468799141313000,4.31231298828125,-0.0009678150527179241,0.0012114632409065962,-0.0007354996632784605
1761468799151295200,4.322295166015625,0.00026585813611745834,0.0009216992184519768,-0.0004866323433816433
1761468799161278200,4.3322783203125,-0.0010566678829491138,-0.00013530929572880268,-0.0003867638297379017
1761468799171261200,4.34226123046875,0.0004327758215367794,0.0008638035506010056,0.002091679023578763
1761468799181243100,4.3522431640625,-0.002906828187406063,-0.0005535308737307787,0.00009164493530988693
1761468799191226400,4.362226318359375,-0.0018073776736855507,0.00002957112155854702,-0.0002084779553115368
1761468799201208000,4.3722080078125,-0.0018928651697933674,-0.0002577838022261858,-0.00015601376071572304
1761468799211191300,4.38219140625,0.0006916364654898643,-0.00011192448437213898,0.0005339931230992079
1761468799221174300,4.39217431640625,0.0010165423154830933,0.002995185786858201,0.000012279953807592392
1761468799231156200,4.40215625,0.0009163585491478443,-0.0014186224434524775,0.0026181982830166817
1761468799241139200,4.41213916015625,-0.0011617057025432587,-0.0002564189489930868,-0.0008729393593966961
1761468799251122200,4.4221220703125,-0.0007003652863204479,0.0008158383425325155,-0.0023827648255974054
1761468799261104000,4.432104248046875,0.00032654963433742523,0.0007708307821303606,-0.0014541206182911992
1761468799271087000,4.442087158203125,-0.0016462416388094425,-0.0021445038728415966,0.0005125741008669138
1761468799281069000,4.452069091796875,0.0018086768686771393,-0.0009838982950896025,-0.0013950481079518795
1761468799291052000,4.462052001953125,0.0003532329574227333,-0.0017453845357522368,-0.0034589418210089207
1761468799301035300,4.47203515625,-0.0004880600608885288,-0.0020519145764410496,-0.001516432035714388
1761468799311017000,4.482016845703125,0.0018137246370315552,0.001327815931290388,-0.000003827735781669617
1761468799320999200,4.491999267578125,-0.0018944605253636837,-0.0010858068708330393,0.0004467789549380541
1761468799330982100,4.501982177734375,0.00046283984556794167,-0.001366139156743884,-0.0003026172053068876
1761468799340964400,4.51196435546875,-0.0007819216698408127,-0.0005602666642516851,0.0003458624705672264
1761468799350947300,4.521947265625,0.0012337174266576767,0.0003470859955996275,0.0002950686030089855
1761468799360930300,4.531930419921875,0.00042278505861759186,-0.0017384353559464216,-0.00039229332469403744
1761468799370912300,4.541912353515625,0.002083590952679515,-0.0017196951666846871,0.00025113834999501705
1761468799380895500,4.5518955078125,-0.0002413485199213028,0.001660655252635479,0.0008535452652722597
1761468799390878200,4.561878173828125,0.00008413847535848618,0.00310702552087605,-0.0006713406182825565
1761468799400860400,4.5718603515625,-0.0014051012694835663,0.0024529530201107264,0.002255207160487771
1761468799410843400,4.581843505859375,-0.0008535566739737988,0.0023112627677619457,-0.0006405250169336796
1761468799420825300,4.591825439453125,0.0012673847377300262,0.001990085933357477,0.000013813609257340431
1761468799430808300,4.601808349609375,0.000016573350876569748,-0.002774836029857397,-0.0009787552990019321
1761468799440791300,4.611791259765625,-0.000020178034901618958,-0.000771606108173728,0.0001464302185922861
1761468799450773200,4.621773193359375,-0.0014444203115999699,0.002410592045634985,-0.00010259519331157207
1761468799460756200,4.631756103515625,-0.00218371395021677,0.0003027000930160284,-0.0014834442408755422
1761468799470739500,4.641739501953125,0.0017090728506445885,-0.0006732265464961529,0.00212127435952425
1761468799480721200,4.65172119140625,-0.001365546602755785,-0.0003270155284553766,-0.0006236457265913486
1761468799490704400,4.661704345703125,-0.0004858151078224182,0.00001668231561779976,-0.0010039664339274168
1761468799500687400,4.671687255859375,0.0005514863878488541,0.0005477163940668106,-0.00004416331648826599
1761468799510669300,4.68166943359375,-0.0004986519925296307,-0.0007811100222170353,0.0007432205602526665
1761468799520652300,4.69165234375,0.00205611833371222,0.0016969614662230015,-0.00019953842274844646
1761468799530634200,4.70163427734375,0.003093615174293518,0.000976694980636239,0.000002766260877251625
1761468799540617200,4.7116171875,-0.0005866070277988911,-0.0006294576451182365,-0.0003610213752835989
1761468799550600200,4.72160009765625,0.001587799284607172,0.000838504871353507,0.0016294652596116066
1761468799560582100,4.73158203125,0.002711653243750334,-0.00009040581062436104,0.0014339890331029892
1761468799570565000,4.741565185546875,0.0020563662983477116,-0.0004226542077958584,-0.0002900250256061554
1761468799580548400,4.75154833984375,-0.00008934270590543747,0.000922508304938674,0.00356330256909132
1761468799590530000,4.761530029296875,0.002719571115449071,0.0017308322712779045,0.00015147426165640354
1761468799600513300,4.77151318359375,-0.0007534571923315525,0.0008988608606159687,-0.0011667902581393719
1761468799610495200,4.7814951171875,0.0012649116106331348,-0.003524807747453451,-0.00204374804161489
1761468799620478200,4.791478271484375,-0.003506673965603113,0.0014222802128642797,0.0011073038913309574
1761468799630461200,4.801461181640625,-0.001273412723094225,-0.002516051521524787,0.00039827125146985054
1761468799640443400,4.811443359375,0.004429746884852648,-0.0014766198582947254,-0.001391106634400785
1761468799650426000,4.821426025390625,-0.0016585658304393291,0.002375025302171707,0.0018371699843555689
1761468799660409000,4.8314091796875,0.0017039417289197445,0.0019467887468636036,-0.0001135955099016428
1761468799670391300,4.841391357421875,0.001518644392490387,-0.0006750551983714104,0.002116736490279436
1761468799680374300,4.851374267578125,0.0007085106335580349,0.0020277872681617737,-0.00007850700058043003
1761468799690357200,4.861357177734375,-0.0000029676593840122223,0.0011761111672967672,0.00010111648589372635
1761468799700339200,4.871339111328125,0.0005278005264699459,-0.0001613281201571226,-0.000009404728189110756
1761468799710322400,4.881322509765625,-0.00045664282515645027,0.002263000700622797,-0.0003637357149273157
1761468799720304000,4.89130419921875,0.002201192080974579,0.0011958722025156021,0.0009436099790036678
1761468799730287400,4.901287353515625,0.0009893937967717648,0.0033381625544279814,0.0014458026271313429
1761468799740270300,4.911270263671875,0.00016541173681616783,0.0009232077281922102,0.0004921245854347944
1761468799750252300,4.921252197265625,-0.0023051341995596886,-0.00017008394934237003,-0.0011910793837159872
1761468799760235300,4.9312353515625,-0.002264386974275112,-0.000992201967164874,-0.0003929298836737871
1761468799770218500,4.941218505859375,0.00147970300167799,0.00003158813342452049,-0.0008260952308773994
1761468799780200200,4.9512001953125,-0.0015674862079322338,-0.0017679098527878523,-0.000557115999981761
1761468799790183400,4.961183349609375,0.0018212408758699894,0.0007813805714249611,-0.0009078243747353554
1761468799800165000,4.9711650390625,0.0007088389247655869,0.002631212119013071,0.0024426986929029226
1761468799810148400,4.9811484375,0.000560590997338295,-0.0011454238556325436,0.0014012828469276428
1761468799820131300,4.99113134765625,0.001369925681501627,-0.0005741757340729237,0.0019845152273774147
1761468799830113300,5.00111328125,-0.0013128709979355335,0.0010967373382300138,0.00027351872995495796
1761468799840096300,5.01109619140625,-0.0017624124884605408,-0.00012645265087485313,-0.0008274319116026163
1761468799850079200,5.021079345703125,0.002524102106690407,0.00018638675101101398,0.0019132110755890608
1761468799860061200,5.031061279296875,-0.0032099499367177486,0.00034777424298226833,0.001370459096506238
1761468799870044200,5.041044189453125,-0.0013898718170821667,-0.00007116771303117275,0.0010791581589728594
1761468799880027400,5.05102734375,-0.0018782955594360828,-0.001291427994146943,-0.0007381830364465714
1761468799890009000,5.061009033203125,-0.0005701957270503044,-0.000030054477974772453,0.002056140685454011
1761468799899992300,5.070992431640625,0.0011946815066039562,0.001800602301955223,0.0004443954676389694
1761468799909974300,5.080974365234375,0.0011436599306762218,0.00011451565660536289,0.0006643699016422033
1761468799919957200,5.090957275390625,-0.00039404910057783127,-0.0006476810667663813,-0.0025964046362787485
1761468799929940200,5.100940185546875,-0.0010097618214786053,-0.0017244135960936546,-0.0013092536246404052
1761468799939922400,5.11092236328125,0.001838488969951868,-0.0019715549424290657,-0.000773159321397543
1761468799949905200,5.1209052734375,0.00036127306520938873,0.00016220356337726116,0.0007229784969240427
1761468799959888100,5.13088818359375,0.002046255161985755,0.0008527613244950771,-0.0008682603947818279
1761468799969870300,5.140870361328125,-0.0058698756620287895,-0.004209898877888918,0.0005732746794819832
1761468799979853000,5.15085302734375,-0.0012242570519447327,0.004250963218510151,-0.001101320842280984
1761468799989836300,5.160836181640625,0.0017578382976353168,0.005309282802045345,0.0006424449384212494
1761468799999818200,5.170818359375,-0.0003300798125565052,0.0012543541379272938,0.002883761189877987
1761468800009801200,5.18080126953125,0.0017522978596389294,0.0018819142132997513,0.00043419143185019493
1761468800019784200,5.1907841796875,0.0021661529317498207,0.0004749661311507225,-0.0005796740297228098
1761468800029766400,5.200766357421875,-0.0012216768227517605,-0.0005083882715553045,0.0008003986440598965
1761468800039749000,5.2107490234375,0.0014180485159158707,-0.0015584728680551052,-0.0013482399517670274
1761468800049731300,5.2207314453125,-0.002940600272268057,-0.0038129216991364956,0.0004411991685628891
1761468800059714300,5.23071435546875,0.0019745295867323875,-0.0006450915243476629,0.0013677128590643406
1761468800069697300,5.240697265625,0.0003870059736073017,-0.0015308770816773176,0.002101058140397072
1761468800079679200,5.25067919921875,0.0031979726627469063,-0.0016677634557709098,-0.00038819853216409683
1761468800089662200,5.260662109375,0.0021647359244525433,-0.003954561427235603,0.0014407942071557045
1761468800099645400,5.2706455078125,0.00009545963257551193,0.0019909455440938473,0.0012019085697829723
1761468800109627100,5.280627197265625,-0.0011026952415704727,0.0017734516877681017,0.00306696561165154
1761468800119610400,5.2906103515625,0.001096809282898903,0.002252021571621299,0.0001457442995160818
1761468800129592000,5.300592041015625,-0.0009504132904112339,0.00023256056010723114,0.0006026038900017738
1761468800139575300,5.3105751953125,0.00023229653015732765,0.0034400715958327055,-0.0012839792761951685
1761468800149558300,5.320558349609375,0.00025930628180503845,0.0000971329864114523,0.0005060445982962847
1761468800159540200,5.330540283203125,0.0009855502285063267,0.0012433575466275215,-0.0011243424378335476
1761468800169523200,5.340523193359375,0.0004093744792044163,0.0010101872030645609,-0.0002035931684076786
1761468800179506200,5.350506103515625,0.0008546551689505577,-0.0016750782961025834,0.0011908379383385181
1761468800189488000,5.360488037109375,-0.00023535173386335373,-0.0010925012174993753,0.001173132797703147
1761468800199471400,5.370471435546875,0.0007870355620980263,-0.0008810462895780802,-0.0008045306894928217
1761468800209454300,5.380454345703125,0.0013018050231039524,0.0030276349280029535,0.0005062855780124664
1761468800219436300,5.390436279296875,-0.0005711959674954414,0.0012435836251825094,0.00026953057385981083
1761468800229419300,5.400419189453125,0.002403597580268979,-0.002646442735567689,0.002649039728567004
1761468800239401200,5.410401123046875,-0.0018689115531742573,-0.0016464258078485727,0.00008175242692232132
1761468800249384200,5.42038427734375,-0.00008520111441612244,-0.0011685423087328672,0.0005957197863608599
1761468800259367200,5.4303671875,-0.00004072627052664757,-0.002589338691905141,0.0018343562260270119
1761468800269349400,5.440349365234375,-0.0017488920129835606,-0.0032569048926234245,-0.001362555311061442
1761468800279332000,5.45033203125,0.000787768978625536,0.002084597246721387,-0.0013068951666355133
1761468800289315300,5.4603154296875,0.0005228836089372635,-0.00027953856624662876,-0.0007168028969317675
1761468800299297300,5.47029736328125,-0.0013008490204811096,-0.0013621135149151087,-0.00112346769310534
1761468800309280300,5.4802802734375,-0.0018841982819139957,-0.0006747364532202482,0.0005254475399851799
1761468800319264500,5.490264404296875,-0.0018807360902428627,0.0008073127828538418,-0.00013927742838859558
1761468800329246200,5.50024609375,-0.0028347736224532127,-0.0006947689689695835,0.000491167651489377
1761468800339229400,5.5102294921875,0.0024737054482102394,-0.000010602874681353569,-0.001549612614326179
1761468800349211100,5.520211181640625,0.0004889410920441151,-0.000021101906895637512,-0.0011899999808520079
1761468800359194400,5.5301943359375,0.001285492442548275,0.0019030317198485136,-0.00037054531276226044
1761468800369177300,5.54017724609375,-0.0004275469109416008,0.0008272707927972078,-0.0009963298216462135
1761468800379159300,5.5501591796875,-0.0018744422122836113,0.00012046750634908676,-0.00016355933621525764
1761468800389142300,5.560142333984375,-0.0017195050604641438,0.0008598975837230682,0.0007151803001761436
1761468800399125200,5.570125244140625,0.0004062303341925144,-0.00041788723319768906,-0.0010254618246108294
1761468800409107200,5.580107177734375,-0.0017858510836958885,0.0033641469199210405,0.0002614355180412531
1761468800419090200,5.590090087890625,0.00007516564801335335,-0.002451131585985422,-0.0013955833856016397
1761468800429072400,5.600072265625,-0.00036606239154934883,-0.0015770497266203165,-0.0005220414604991674
1761468800439055000,5.61005517578125,-0.001329327467828989,0.0006935612764209509,0.00021219206973910332
1761468800449038300,5.620038330078125,0.0016869157552719116,0.00009493809193372726,0.0004586393479257822
1761468800459020300,5.630020263671875,0.0015002284198999405,-0.0003857624251395464,0.0013998006470501423
1761468800469003300,5.640003173828125,0.0006414386443793774,0.00017268909141421318,0.0005336860194802284
1761468800478986200,5.649986328125,0.001007090788334608,0.00039746006950736046,-0.0008506251033395529
1761468800488968400,5.659968505859375,-0.0026913327164947987,0.00041073630563914776,-0.0025023736525326967
1761468800498951200,5.669951171875,-0.0001309695653617382,0.0011481654364615679,0.0012819780968129635
1761468800508934100,5.67993408203125,0.00042612291872501373,-0.002480226568877697,0.0006793555803596973
1761468800518916400,5.689916259765625,0.002133741741999984,-0.00043411972001194954,-0.0004990932065993547
1761468800528899000,5.699899169921875,0.0014032460749149323,0.0017846496775746346,0.0011024631094187498
1761468800538881300,5.70988134765625,-0.001480957493185997,-0.0028180917724967003,0.0008766271639615297
1761468800548864300,5.7198642578125,-0.0005971584469079971,0.0008980485145002604,0.001076018437743187
1761468800558847200,5.72984716796875,0.000992482528090477,0.000279928557574749,-0.0011889999732375145
1761468800568829200,5.7398291015625,0.001244089100509882,-0.000322884414345026,-0.0009288121946156025
1761468800578812400,5.7498125,0.0008917530067265034,0.0016731549985706806,-0.0012238904600962996
1761468800588795400,5.75979541015625,-0.0009615444578230381,0.0022047890815883875,0.0025169195141643286
1761468800598777300,5.76977734375,0.0007727057673037052,0.0010511076543480158,-0.0015950010856613517
1761468800608760300,5.77976025390625,0.0006975694559514523,0.00044570700265467167,0.003664660733193159
1761468800618742300,5.7897421875,-0.001324302051216364,0.0023522640112787485,0.0022467938251793385
1761468800628725200,5.799725341796875,-0.0016302531585097313,-0.0008535897359251976,0.0021028821356594563
1761468800638708500,5.80970849609375,-0.0005921530537307262,0.000557885505259037,-0.0015136906877160072
1761468800648690200,5.819690185546875,-0.0008615809492766857,-0.00260130874812603,0.00037342915311455727
1761468800658673400,5.82967333984375,0.0015483135357499123,-0.00115015241317451,-0.0017227450152859092
1761468800668656400,5.839656494140625,-0.00029048603028059006,0.002656001830473542,0.00020933919586241245
1761468800678638300,5.849638427734375,0.0002264333888888359,-0.001161639578640461,-0.000030345283448696136
1761468800688621300,5.859621337890625,0.0006438917480409145,0.00009452179074287415,-0.0011998324189335108
1761468800698604300,5.869604248046875,0.0031272892374545336,-0.0023630433715879917,-0.0012144797947257757
1761468800708586200,5.879586181640625,0.0008386247791349888,-0.002476537600159645,0.001683766720816493
1761468800718569200,5.8895693359375,-0.00033875880762934685,-0.0007603964768350124,-0.0005554191302508116
1761468800728551400,5.899551513671875,0.00003157183527946472,-0.0003635385073721409,0.0011161942966282368
1761468800738534100,5.9095341796875,0.0006528873927891254,-0.000010136980563402176,0.0001364175695925951
1761468800748517400,5.919517333984375,-0.0014275205321609974,0.0013874620199203491,-0.0011215582489967346
1761468800758499300,5.929499267578125,-0.0009215199388563633,-0.00010044616647064686,-0.001262705773115158
1761468800768482300,5.939482421875,-0.0018204422667622566,0.0010011985432356596,0.0006424037273973227
1761468800778465300,5.94946533203125,-0.002710736822336912,-0.00022172508761286736,0.0008631795644760132
1761468800788447500,5.959447509765625,-0.0006633228622376919,-0.0022947676479816437,-0.0005473627243191004
1761468800798430200,5.96943017578125,-0.00022549927234649658,-0.000014835502952337265,-0.0005146060138940811
1761468800808412400,5.979412353515625,-0.0019473358988761902,-0.001785974600352347,-0.0027653961442410946
1761468800818395400,5.9893955078125,-0.0007206839509308338,-0.0015492194797843695,-0.0016995992045849562
1761468800828378000,5.999378173828125,0.0013356711715459824,-0.0023517203517258167,0.0007892677094787359
1761468800838360300,6.0093603515625,0.00028265733271837234,-0.000016927020624279976,-0.00020009675063192844
1761468800848343300,6.01934326171875,0.002044856548309326,0.0005063388962298632,0.0028083976358175278
1761468800858326300,6.029326171875,-0.0009919460862874985,-0.0030282086227089167,-0.00040044495835900307
1761468800868308200,6.03930810546875,-0.0002807658165693283,-0.0007815903518348932,0.002130192006006837
1761468800878291500,6.04929150390625,-0.00025679729878902435,0.0026898400392383337,0.00030512758530676365
1761468800888274200,6.059274169921875,0.0019578433129936457,0.002246610354632139,-0.00032959715463221073
1761468800898256400,6.06925634765625,0.0003772573545575142,0.0029954914934933186,-0.000002827262505888939
1761468800908239400,6.0792392578125,0.0008163708262145519,0.001597472233697772,-0.0001810390967875719
1761468800918221300,6.08922119140625,-0.0019261520355939865,-0.0017184296157211065,0.0015761146787554026
1761468800928204300,6.099204345703125,-0.0018582986667752266,-0.00008126930333673954,-0.0007598632946610451
1761468800938187300,6.109187255859375,0.0005348180420696735,-0.0005491867195814848,0.00011125672608613968
1761468800948169200,6.119169189453125,-0.00046057533472776413,-0.0010591286700218916,-0.0008730515837669373
1761468800958152200,6.129152099609375,0.0010789977386593819,-0.00008893897756934166,-0.003048055339604616
1761468800968135400,6.139135498046875,0.0014289291575551033,0.0019349516369402409,-0.0014313911087810993
1761468800978117000,6.1491171875,0.00025527412071824074,0.0002968413755297661,0.0024328557774424553
1761468800988100400,6.159100341796875,0.0017340891063213348,-0.002788941143080592,0.00041613494977355003
1761468800998082300,6.169082275390625,-0.0014182943850755692,0.0019485559314489365,-0.0006872126832604408
1761468801008065300,6.179065185546875,-0.0015455931425094604,0.0009915234986692667,-0.00021693645976483822
1761468801018048300,6.18904833984375,0.0011892067268490791,0.0008288042154163122,-0.0015756812645122409
1761468801028030500,6.199030517578125,0.000750676728785038,0.0019241317640990019,0.00438492838293314
1761468801038013200,6.20901318359375,0.0011120676063001156,0.0019928414840251207,-0.000029793474823236465
1761468801047996200,6.21899609375,0.0012625283561646938,-0.00355913070961833,0.0010932143777608871
1761468801057978400,6.228978271484375,-0.0021055713295936584,-0.004241432528942823,0.0026170751079916954
1761468801067961000,6.238961181640625,0.003417340340092778,-0.00009891577064990997,0.00014264602214097977
1761468801077944300,6.2489443359375,-0.00023944629356265068,-0.004978626035153866,0.0005109612829983234
1761468801087926300,6.25892626953125,0.001047445461153984,-0.000193882267922163,0.0027858165558427572
1761468801097909200,6.2689091796875,0.0008620894514024258,0.002784597221761942,0.0006547549273818731
1761468801107891200,6.27889111328125,-0.0019493289291858673,0.0033461505081504583,-0.0019986347761005163
1761468801117874400,6.28887451171875,0.0019631211180239916,0.0033251114655286074,0.0024911887012422085
1761468801127857200,6.298857177734375,-0.0015225429087877274,0.0005405459087342024,-0.0008866786956787109
1761468801137839400,6.30883935546875,-0.002077279146760702,0.0001405391376465559,0.0012206805404275656
1761468801147822300,6.318822265625,0.00025430740788578987,-0.0017144480952993035,-0.0011314773000776768
1761468801157805300,6.328805419921875,0.0001903916709125042,-0.00016076001338660717,-0.002512592589482665
1761468801167787300,6.338787353515625,0.00010944390669465065,0.0007332221139222383,0.0026523254346102476
1761468801177770500,6.3487705078125,0.0011265049688518047,-0.0018628273392096162,0.001387589843943715
1761468801187753200,6.358753173828125,0.002698461525142193,-0.0006287728901952505,-0.002946533029899001
1761468801197735400,6.3687353515625,0.0006960304453969002,-0.002963033504784107,0.00017788773402571678
1761468801207718400,6.378718505859375,-0.00045431358739733696,-0.0027418730314821005,-0.00004092068411409855
1761468801217700400,6.388700439453125,0.0008975071832537651,-0.0019051078706979752,-0.0001993787009268999
1761468801227683300,6.398683349609375,0.0013831593096256256,0.0005444986745715141,0.0018363695126026869
1761468801237666300,6.408666259765625,0.0012204400263726711,0.000011600321158766747,-0.00025794049724936485
1761468801247648300,6.418648193359375,-0.00012069474905729294,-0.0004178581293672323,0.0005934962537139654
1761468801257631200,6.42863134765625,-0.0009886189363896847,0.0004287608899176121,0.001730399439111352
1761468801267614500,6.438614501953125,-0.003614111803472042,0.0015406955499202013,-0.00003580329939723015
1761468801277596200,6.44859619140625,-0.00016585085541009903,-0.000506742624565959,0.00039376458153128624
1761468801287579400,6.458579345703125,-0.003166946116834879,0.000059317564591765404,-0.0001000456977635622
1761468801297561300,6.468561279296875,-0.00004332466050982475,0.00001723947934806347,-0.0013932767324149609
1761468801307544300,6.47854443359375,-0.00040724314749240875,0.0010310793295502663,-0.002058698795735836
1761468801317527300,6.48852734375,0.002861520741134882,0.000818292610347271,0.0016614708583801985
1761468801327512800,6.498512939453125,-0.0011193547397851944,-0.0021683024242520332,0.00252359127625823
1761468801337495800,6.508495849609375,0.0006753494963049889,0.0005081745330244303,0.0003906658384948969
1761468801347478800,6.518478759765625,-0.00044914567843079567,-0.002747132908552885,0.0031118239276111126
1761468801357460700,6.528460693359375,-0.00007177609950304031,-0.0035167864989489317,-0.0015343267004936934
1761468801367443700,6.538443603515625,0.0005309474654495716,-0.0007377939764410257,-0.0003218215424567461
1761468801377425700,6.54842578125,-0.0004365788772702217,-0.0003793323412537575,0.002782092895358801
1761468801387408600,6.55840869140625,0.001610293984413147,0.0019008894450962543,0.000763467513024807
1761468801397392000,6.568391845703125,0.0001016128808259964,-0.001531392801553011,0.0019451119005680084
1761468801407373600,6.57837353515625,0.00028667785227298737,0.0021093387622386217,0.000675697810947895
1761468801417356800,6.588356689453125,0.0011335629969835281,0.0034108252730220556,-0.00005161156877875328
1761468801427339800,6.59833984375,0.001628149300813675,0.0008334179874509573,-0.0017415379406884313
1761468801437321700,6.60832177734375,-0.0009396709501743317,0.00018120999448001385,0.0007064396049827337
1761468801447304700,6.6183046875,0.0008062291890382767,0.002501882379874587,-0.001290885847993195
1761468801457287700,6.62828759765625,-0.002963741309940815,0.0013703054282814264,0.0015967795625329018
1761468801467269600,6.63826953125,-0.000327069777995348,-0.0013769755605608225,0.002684410661458969
1761468801477252600,6.648252685546875,-0.0001145494170486927,0.0005215918645262718,0.0015967758372426033
1761468801487234800,6.65823486328125,0.0004925541579723358,-0.0017511957557871938,0.00008851313032209873
1761468801497217500,6.668217529296875,0.000029962975531816483,-0.0010246853344142437,-0.0018132501281797886
1761468801507200800,6.67820068359375,0.0014389469288289547,-0.003628987353295088,-0.0005909001920372248
1761468801517182700,6.6881826171875,-0.0013224845752120018,-0.0003218739293515682,-0.0008865110576152802
1761468801527165700,6.698165771484375,0.0010055056773126125,0.00021941913291811943,0.00041917222552001476
1761468801537148700,6.708148681640625,-0.0005452530458569527,0.00031955400481820107,0.0002979985438287258
1761468801547131000,6.718130859375,0.0009719431400299072,0.0008682336192578077,-0.0010905649978667498
1761468801557113600,6.728113525390625,0.00040415721014142036,0.0011736985761672258,0.001097221625968814
1761468801567095800,6.738095703125,-0.00020544324070215225,-0.0010825046338140965,-0.00026327907107770443
1761468801577078800,6.748078857421875,0.0005690040998160839,0.001685052178800106,-0.0016880703624337912
1761468801587061800,6.758061767578125,-0.0006349207833409309,0.0018460704013705254,0.0000061925966292619705
1761468801597043700,6.768043701171875,0.002071383409202099,0.0009720209054648876,-0.0011426950804889202
1761468801607026700,6.778026611328125,0.001001544762402773,0.0015408005565404892,-0.00010429089888930321
1761468801617010000,6.788010009765625,-0.0012656040489673615,0.0006491742096841335,-0.0025037990417331457
1761468801626991900,6.797991943359375,0.00043711811304092407,-0.0007865952793508768,-0.0014722472988069057
1761468801636974800,6.807974853515625,0.000479196198284626,-0.0007847312372177839,-0.0020546806044876575
1761468801646957800,6.817957763671875,-0.0006391089409589767,0.00007325643673539162,0.0027068520430475473
1761468801656939800,6.827939697265625,0.0006264252588152885,0.0005254610441625118,-0.0007999984081834555
1761468801666922800,6.8379228515625,0.00367742870002985,0.002040113089606166,0.0008368559647351503
1761468801676904700,6.84790478515625,0.00047977128997445107,0.0012608722317963839,0.0024584548082202673
1761468801686887700,6.8578876953125,-0.0010269777849316597,0.0009964029304683208,0.00011416035704314709
1761468801696871000,6.867870849609375,0.0005629295483231544,0.0008310205303132534,-0.00041634123772382736
1761468801706852600,6.8778525390625,0.0008117188699543476,-0.0018082773312926292,0.0006242471281439066
1761468801716835800,6.8878359375,0.0008034631609916687,0.0036328271962702274,-0.0000021283049136400223
1761468801726818800,6.89781884765625,-0.001564918551594019,0.0014690393581986427,0.0020580424461513758
1761468801736800800,6.90780078125,0.0009906510822474957,0.0035673435777425766,-0.0010024621151387691
1761468801746783700,6.91778369140625,-0.001039284747093916,0.0039025447331368923,0.0005686436779797077
1761468801756766000,6.927765869140625,-0.002113337628543377,0.0006063501350581646,0.0010520073119550943
1761468801766748700,6.937748779296875,0.0016315151005983353,-0.002144869416952133,-0.0003440666478127241
1761468801776731600,6.947731689453125,0.0008456162177026272,-0.006120968610048294,-0.000741942785680294
1761468801786713900,6.9577138671875,-0.0003009028732776642,-0.0018517386633902788,0.00005847564898431301
1761468801796696600,6.967696533203125,0.0010644998401403427,-0.0011284241918474436,-0.00014046230353415012
1761468801806679800,6.9776796875,-0.002116406336426735,0.0002779974602162838,-0.00013210182078182697
1761468801816661800,6.987661865234375,-0.0017962944693863392,-0.0008663628250360489,0.0011339648626744747
1761468801826644700,6.997644775390625,0.00043408293277025223,0.0006396656390279531,0.0025637734215706587
1761468801836626700,7.007626708984375,-0.003385423216968775,0.0004204877186566591,-0.002231514547020197
1761468801846610000,7.01760986328125,-0.0007516657933592796,-0.0027008047327399254,0.0003451353404670954
1761468801856592600,7.027592529296875,-0.0021250583231449127,-0.002360719256103039,-0.0012524951016530395
1761468801866574800,7.037574951171875,-0.0015151980333030224,-0.00043547595851123333,-0.0029944605194032192
1761468801876557800,7.047557861328125,0.00010293861851096153,0.004072456620633602,0.0012881685979664326
1761468801886540500,7.05754052734375,0.0015006274916231632,0.002242397516965866,0.00035494938492774963
1761468801896522800,7.067522705078125,0.0009432281367480755,0.0005662040784955025,-0.0005870105233043432
1761468801906505700,7.077505615234375,-0.0009703617542982101,0.00253593223169446,0.0005253872368484735
1761468801916488700,7.08748876953125,-0.000054500531405210495,-0.0009341663680970669,-0.00017555663362145424
1761468801926470700,7.097470703125,-0.0014213300310075283,-0.0006696931086480618,-0.0010153728071600199
1761468801936454000,7.107453857421875,0.00035393331199884415,0.000170800369232893,-0.00001748627983033657
1761468801946435600,7.117435546875,-0.00011784909293055534,0.0020408406853675842,0.0017383294180035591
1761468801956418800,7.127418701171875,-0.001824402716010809,0.0006520021706819534,0.0004914372693747282
1761468801966401800,7.13740185546875,0.0016762842424213886,0.0010328968055546284,-0.0002855663187801838
1761468801976383700,7.1473837890625,-0.0020350967533886433,-0.0015935127157717943,-0.0011170052457600832
1761468801986366700,7.15736669921875,0.0029526278376579285,-0.0019556349143385887,0.0014020167291164398
1761468801996349700,7.167349609375,-0.000049287453293800354,-0.0029876097105443478,-0.0008416962809860706
1761468802006331600,7.17733154296875,-0.0004916139878332615,-0.002799716778099537,0.0000523407943546772
1761468802016314600,7.187314697265625,-0.0003299601376056671,-0.0009687934070825577,0.00044276006519794464
1761468802026296800,7.197296875,0.0009482251480221748,-0.00021899607963860035,0.0022341636940836906
1761468802036279600,7.207279541015625,0.0018555643036961555,-0.0005260584875941277,0.0000841938890516758
1761468802046262800,7.2172626953125,0.0005418690852820873,0.000236529391258955,0.00017169956117868423
1761468802056244700,7.22724462890625,-0.0005055521614849567,-0.000009813113138079643,-0.000426712678745389
1761468802066227700,7.237227783203125,0.001873307628557086,0.0034172446466982365,-0.0013183149276301265
1761468802076210700,7.247210693359375,0.0008575781248509884,0.0020377272740006447,-0.001986501971259713
1761468802086193000,7.25719287109375,-0.002018347382545471,0.0012151733972132206,-0.0012013462837785482
1761468802096175600,7.267175537109375,0.0017417697235941887,0.0031270566396415234,0.00013928906992077827
1761468802106157800,7.27715771484375,0.0016721910797059536,0.0009441149886697531,-0.0003667036071419716
1761468802116140800,7.287140869140625,0.0007518026977777481,-0.00016935262829065323,0.0021867353934794664
1761468802126123800,7.297123779296875,-0.001551442313939333,-0.0005140409339219332,0.0007729358039796352
1761468802136105700,7.307105712890625,-0.003191150724887848,-0.0014485442079603672,-0.002044688444584608
1761468802146089000,7.3170888671875,0.0003798226825892925,-0.0002137012779712677,-0.002475878456607461
1761468802156071700,7.32707177734375,0.000761453527957201,-0.000490669859573245,-0.00022737146355211735
1761468802166054000,7.337053955078125,-0.00098445825278759,0.0012240821961313486,0.0002686097286641598
1761468802176036900,7.347036865234375,0.0014675143174827099,-0.0006587726529687643,0.0002664790954440832
1761468802186019600,7.35701953125,-0.0004016850143671036,0.000016023870557546616,0.0005185294430702925
1761468802196001800,7.367001708984375,0.0012172507122159004,-0.0008644172921776772,0.00014888262376189232
1761468802205984800,7.37698486328125,0.0005767801776528358,0.0012693321332335472,0.00005984026938676834
1761468802215966700,7.386966796875,-0.002726072445511818,-0.001243626931682229,0.000684085302054882
1761468802225949700,7.39694970703125,-0.0009361132979393005,0.0003616816829890013,-0.0002521723508834839
1761468802235933000,7.406932861328125,-0.0011667427606880665,0.00004263501614332199,-0.002343819011002779
1761468802245914600,7.41691455078125,0.00046760449185967445,0.000733155058696866,-0.0014350905548781157
1761468802255897900,7.42689794921875,-0.0009310874156653881,-0.002621895167976618,-0.0011346859391778708
1761468802265880800,7.436880859375,0.0005100206471979618,0.0015066196210682392,0.0007381397299468517
1761468802275862800,7.44686279296875,-0.00041596079245209694,-0.00018102559261023998,-0.00025362148880958557
1761468802285845800,7.456845703125,0.001593440305441618,0.000296915415674448,0.0002758775372058153
1761468802295828000,7.466827880859375,-0.0008564013987779617,-0.00020668841898441315,0.0007938621565699577
1761468802305810700,7.476810791015625,0.0008645970374345779,0.0019173272885382175,0.00036890944465994835
1761468802315793700,7.486793701171875,0.002096841810271144,0.0008233007974922657,-0.0009549479000270367
1761468802325775000,7.496775146484375,-0.0006564734503626823,-0.000022747088223695755,-0.00020288210362195969
1761468802335758300,7.50675830078125,-0.00008123042061924934,-0.0016611238243058324,0.0014520061668008566
1761468802345741300,7.5167412109375,-0.00006535230204463005,0.0006258583161979914,0.0028803416062146425
1761468802355723300,7.52672314453125,-0.001096528023481369,-0.003540923586115241,0.00025925878435373306
1761468802365706200,7.536706298828125,0.0020653740502893925,0.0020685528870671988,0.0005051002372056246
1761468802375688200,7.546688232421875,0.0018565822392702103,-0.0018891706131398678,-0.0010057110339403152
1761468802385671400,7.55667138671875,-0.0009571216069161892,-0.0005314177833497524,-0.0014699328457936645
1761468802395654100,7.566654052734375,0.003143081208691001,0.0003871065564453602,-0.0007788424845784903
1761468802405636400,7.57663623046875,-0.0004088236019015312,0.0010975725017488003,0.0008485035505145788
1761468802415619300,7.586619384765625,0.0038879206404089928,0.00345793180167675,0.00007592048496007919
1761468802425602300,7.596602294921875,0.00103012565523386,0.0010213223285973072,0.0020757762249559164
1761468802435584300,7.606584228515625,-0.000561645720154047,0.00503683602437377,-0.0001908403355628252
1761468802445567500,7.6165673828125,-0.00022132275626063347,0.0004794136621057987,-0.0007986109703779221
1761468802455549200,7.626549072265625,-0.0027630431577563286,0.0002399957738816738,-0.0016521541401743889
1761468802465532400,7.636532470703125,0.00022400682792067528,-0.0006472067907452583,0.002185619669035077
1761468802475515400,7.646515380859375,-0.0011251503601670265,-0.003264028811827302,0.0006793357897549868
1761468802485497300,7.656497314453125,-0.0009199716150760651,-0.002715867478400469,-0.0007848446257412434
1761468802495480300,7.666480224609375,0.0017810063436627388,-0.00012594345025718212,-0.0010018923785537481
1761468802505463300,7.67646337890625,-0.0002071727067232132,-0.002685914281755686,0.0012037802953273058
1761468802515445200,7.6864453125,-0.0006343438290059566,-0.001986301736906171,-0.0008404620457440615
1761468802525428200,7.69642822265625,0.0018044384196400642,-0.0028947677928954363,0.0015750722959637642
1761468802535410200,7.70641015625,0.000057404860854148865,0.00044350489042699337,0.0013343226164579391
1761468802545393200,7.71639306640625,-0.0023387852124869823,0.004107426851987839,-0.0017995265079662204
1761468802555376400,7.72637646484375,0.0005504782311618328,0.0029390982817858458,0.0004657583776861429
1761468802565358000,7.736358154296875,-0.001094625797122717,0.0007299953140318394,0.0005117708351463079
1761468802575341300,7.74634130859375,0.0012271180748939514,-0.000509173609316349,-0.000552960904315114
1761468802585324300,7.75632421875,0.001516629010438919,0.001448304858058691,0.0010845502838492393
1761468802595306200,7.76630615234375,0.0003538927994668484,0.0008126082830131054,-0.0021871430799365044
1761468802605289200,7.776289306640625,0.003197376849129796,0.0007931897416710854,0.001310866791754961
1761468802615271400,7.786271484375,0.0011241058818995953,-0.0005714141298085451,0.0005201741587370634
1761468802625254100,7.796254150390625,0.00019771093502640724,0.0010158410295844078,-0.0024293181486427784
1761468802635237000,7.806237060546875,0.0034955034498125315,0.0022123991511762142,-0.001210655551403761
1761468802645219300,7.81621923828125,0.0008953846991062164,-0.00038102478720247746,-0.00034863362088799477
1761468802655202000,7.8262021484375,0.0030610673129558563,0.0007755861151963472,0.0008588435593992472
1761468802665185300,7.836185302734375,-0.0015974706038832664,-0.0012828311882913113,-0.0020701210014522076
1761468802675167200,7.846167236328125,-0.0007766843773424625,-0.00055285869166255,0.0016226181760430336
1761468802685150200,7.856150146484375,0.0012471131049096584,0.0015481631271541119,-0.0004268342163413763
1761468802695132200,7.866132080078125,-0.0008344133384525776,-0.001137368381023407,0.0006850354839116335
1761468802705115400,7.876115478515625,0.0025664500426501036,0.0010485679376870394,0.0026746809016913176
1761468802715098400,7.886098388671875,-0.0004743472672998905,-0.00045505259186029434,0.002111955313012004
1761468802725080300,7.896080322265625,0.001872573746368289,-0.0011811540462076664,0.0006380840204656124
1761468802735063300,7.906063232421875,-0.0003138813190162182,-0.001408854266628623,0.0018903021700680256
1761468802745046300,7.91604638671875,-0.000030430033802986145,0.000027435598894953728,0.00006179139018058777
1761468802755028200,7.9260283203125,-0.0016855844296514988,-0.0017504907445982099,0.00037790858186781406
1761468802765011200,7.93601123046875,0.0013650786131620407,0.0004913664888590574,0.0009714213665574789
1761468802774993200,7.9459931640625,0.001934196101501584,0.0013787320349365473,0.00042627216316759586
1761468802784976100,7.95597607421875,0.0009382846765220165,-0.0004630612675100565,0.002709783613681793
1761468802794959400,7.96595947265625,-0.00006173225119709969,0.0007100612856447697,0.0008290591649711132
1761468802804941000,7.975941162109375,-0.0010001631453633308,-0.0003618174232542515,-0.0016313960077241063
1761468802814924300,7.98592431640625,-0.0007847133092582226,-0.001529879868030548,-0.001234584953635931
1761468802824907300,7.9959072265625,-0.0014073573984205723,-0.0023400343488901854,0.0016426944639533758
1761468802834889200,8.00588916015625,-0.002546125091612339,-0.0019243148854002357,-0.0006947619840502739
1761468802844872200,8.0158720703125,-0.0001541217789053917,0.003431854071095586,-0.0013690718915313482
1761468802854854400,8.0258544921875,0.0004650629125535488,0.0007111688610166311,0.0009169855620712042
1761468802864837000,8.035837158203124,0.00013069994747638702,-0.0020840144716203213,-0.0006613526493310928
1761468802874820400,8.0458203125,-0.0003856872208416462,-0.0016222222475335002,-0.0016650981269776821
1761468802884802300,8.05580224609375,-0.0009060786105692387,-0.0010021331254392862,-0.001369210542179644
1761468802894785300,8.065785400390626,-0.0012573492713272572,-0.0015739138470962644,0.0004337495192885399
1761468802904768300,8.075768310546875,0.0020200437866151333,-0.0038373160641640425,-0.00025242986157536507
1761468802914750500,8.08575048828125,-0.0010364660993218422,-0.004986470099538565,0.0011175002437084913
1761468802924733200,8.095733154296875,-0.00020748749375343323,-0.0000989111140370369,0.0013388218358159065
1761468802934715400,8.10571533203125,0.0017145159654319286,0.0015634340234100819,0.002077849116176367
1761468802944698400,8.115698486328125,-0.001539178192615509,0.0020294380374252796,-0.0002321337815374136
1761468802954681000,8.12568115234375,0.0015213266015052795,0.0036470419727265835,-0.0010249570477753878
1761468802964663300,8.135663330078126,0.001020166091620922,0.0022818082943558693,0.0008930494077503681
1761468802974646300,8.145646240234376,0.00034665269777178764,0.0034538651816546917,-0.001061710761860013
1761468802984629200,8.155629150390626,0.00005872780457139015,0.0029435588512569666,-0.0013141946401447058
1761468802994611200,8.165611083984375,-0.0022457055747509003,-0.0013878063764423132,0.001595309004187584
1761468803004594400,8.175594482421875,-0.00002108374610543251,0.0022526835091412067,-0.00005838647484779358
1761468803014577200,8.1855771484375,0.0015717525966465473,0.004294262733310461,0.0005051384214311838
1761468803024559400,8.195559326171875,-0.00007322663441300392,-0.0029250106308609247,0.00031638704240322113
1761468803034542300,8.205542236328125,0.0016647521406412125,0.001491309143602848,0.001324926270172
1761468803044524300,8.215524169921874,0.0003950092941522598,0.00048181554302573204,-0.00021402142010629177
1761468803054507300,8.22550732421875,-0.0014737308956682682,-0.0015147561207413673,-0.000544519629329443
1761468803064490200,8.235490234375,-0.0005791881121695042,0.0005120541900396347,-0.00042941165156662464
1761468803074472200,8.24547216796875,-0.0016188863664865494,-0.002240322530269623,0.00198314618319273
1761468803084455200,8.255455078125,0.0009898855350911617,0.0012173752766102552,-0.0001943905372172594
1761468803094438400,8.2654384765625,0.0021787204314023256,-0.0006931761745363474,-0.001136350678279996
1761468803104420000,8.275420166015625,-0.00016572559252381325,0.00009126635268330574,-0.0015214275335893035
1761468803114403300,8.2854033203125,0.0014992826618254185,-0.000396358547732234,0.0038030303549021482
1761468803124385300,8.29538525390625,0.0005560875870287418,-0.000001492910087108612,-0.00046237907372415066
1761468803134368300,8.3053681640625,-0.0020309067331254482,-0.0012872670777142048,0.0005083431024104357
1761468803144351200,8.315351318359374,0.00004662666469812393,-0.0004954636096954346,-0.00019562756642699242
1761468803154333400,8.32533349609375,-0.00103088840842247,0.00387904467061162,0.0005247574299573898
1761468803164316200,8.335316162109375,0.00276868580840528,0.0029493006877601147,0.0002496703527867794
1761468803174299100,8.345299072265625,0.0009558722376823425,-0.0023016538470983505,-0.0005817683413624763
1761468803184281300,8.35528125,-0.0006889011710882187,0.00015650293789803982,-0.0005665903445333242
1761468803194264000,8.36526416015625,0.00033561699092388153,0.0009490596130490303,-0.0013207976007834077
1761468803204246300,8.375246337890625,-0.0008092322386801243,-0.0028973757289350033,0.0020787063986063004
1761468803214229200,8.385229248046874,0.000060555990785360336,0.0016901856288313866,-0.0003000290598720312
1761468803224212200,8.395212158203124,-0.0007810178212821484,0.0028241921681910753,0.0006605894304811954
1761468803234194200,8.405194091796876,0.0020248887594789267,-0.0002312525175511837,0.002088576555252075
1761468803244177400,8.415177490234376,0.000258816871792078,-0.00023009884171187878,-0.00022423826158046722
1761468803254160100,8.42516015625,0.0012095649726688862,-0.00036378949880599976,-0.0027326697017997503
1761468803264142300,8.435142333984375,-0.0005705030634999275,0.00012139463797211647,-0.0007047925610095263
1761468803274125300,8.445125244140625,-0.0006823558360338211,-0.0018919551512226462,-0.0013692511711269617
1761468803284107300,8.455107177734375,0.0003047850914299488,-0.0014000942464917898,0.0014970314223319292
1761468803294090200,8.46509033203125,-0.00018443772569298744,0.0032742859330028296,0.0013971629086881876
1761468803304073200,8.4750732421875,-0.0007841484621167183,-0.0008660010062158108,0.001293581211939454
1761468803314055200,8.48505517578125,0.0007016290910542011,0.0029255414847284555,0.0012301977258175611
1761468803324034800,8.495034912109375,-0.0006516552530229092,0.00005928962491452694,0.0027272962033748627
1761468803334017000,8.50501708984375,0.003016049973666668,0.0014294858556240797,-0.00011882418766617775
1761468803344000000,8.515,-0.0027112537063658237,-0.00008706282824277878,0.0017433855682611465
1761468803353983000,8.52498291015625,-0.0014515784569084644,-0.00009398697875440121,0.001002493780106306
1761468803363965000,8.53496484375,0.00015426892787218094,-0.00022123917005956173,-0.0012216130271553993
1761468803373948200,8.5449482421875,-0.0002289600670337677,0.0023263406474143267,0.0005861406680196524
1761468803383931000,8.554930908203126,-0.0010679680854082108,-0.0011641932651400566,0.0007123097311705351
1761468803393913000,8.5649130859375,0.0003357836976647377,-0.00017722556367516518,0.00112483324483037
1761468803403896000,8.57489599609375,-0.0019290484488010406,-0.0014410002622753382,-0.0009709487203508615
1761468803413878000,8.5848779296875,-0.000005180947482585907,-0.0010148943401873112,0.0007273491937667131
1761468803423861000,8.594861083984375,-0.0008155410178005695,-0.00003427336923778057,-0.00029510073363780975
1761468803433844000,8.604843994140625,-0.0018714843317866325,0.003374306485056877,-0.0005568894557654858
1761468803443826000,8.614825927734374,0.0019495636224746704,-0.002534096594899893,-0.0013692189240828156
1761468803453809000,8.624808837890624,0.0007093292661011219,0.0006979156751185656,-0.0014408578863367438
1761468803463792000,8.634792236328124,-0.001234796829521656,0.0030608526431024075,0.002954948926344514
1761468803473774000,8.644774169921876,0.0012243660166859627,-0.0003384063020348549,-0.00012872531078755856
1761468803483757000,8.654757080078125,-0.0013704607263207436,-0.0006430125795304775,-0.00013394164852797985
1761468803493739000,8.664739013671875,0.000022372230887413025,-0.002890986856073141,-0.00038294726982712746
1761468803503722000,8.674721923828125,0.000027947593480348587,-0.0005444993730634451,0.0006818538531661034
1761468803513705000,8.684705078125,-0.0001805778592824936,0.00012661726213991642,-0.0003565126098692417
1761468803523687200,8.694687255859375,0.0027956494595855474,0.000801644753664732,0.0014560974668711424
1761468803533670000,8.704669921875,-0.0011311816051602364,-0.0008955877274274826,0.00025368016213178635
1761468803543653000,8.714653076171874,0.00030957581475377083,-0.003409771714359522,0.0011208681389689445
1761468803553635000,8.724635009765626,0.0007410077378153801,0.0025274797808378935,-0.00015079136937856674
1761468803563618000,8.7346181640625,-0.0007400559261441231,-0.00009876233525574207,-0.0013519919011741877
1761468803573600000,8.74460009765625,0.0018125837668776512,-0.0010034381411969662,0.000811826204881072
1761468803583583200,8.754583251953125,0.000593491829931736,0.00034204847179353237,-0.002350053284317255
1761468803593566000,8.76456591796875,-0.0018062824383378029,0.0011894663330167532,0.0006854175589978695
1761468803603548200,8.774548095703125,0.0017964541912078857,0.001367816235870123,0.0023249101359397173
1761468803613531100,8.78453125,-0.001473108772188425,-0.00208044471219182,0.0007299429271370173
1761468803623513900,8.794513916015624,-0.003099330235272646,0.001773822121322155,0.00007476634345948696
1761468803633496000,8.80449609375,-0.0006151339039206505,0.0011868616566061974,0.0005930173210799694
1761468803643479000,8.81447900390625,-0.0015514837577939034,0.00043959380127489567,0.0007501463405787945
1761468803653461000,8.8244609375,0.001918348716571927,0.0015077877324074507,-0.0006418880075216293
1761468803663444000,8.83444384765625,0.0009619314223527908,0.0011597985867410898,0.0003252672031521797
1761468803673427200,8.84442724609375,-0.0008125328458845615,0.0016151994932442904,0.0011180902365595102
1761468803683409000,8.854408935546875,-0.001106888521462679,0.0003297063522040844,0.000823974609375
1761468803693392100,8.86439208984375,-0.0022389981895685196,0.0007787155918776989,-0.00039016036316752434
1761468803703375000,8.874375,-0.00042352359741926193,0.00010077282786369324,-0.000025689834728837013
1761468803713357000,8.884357177734374,0.00172378309071064,-0.0012771468609571457,-0.0011439512018114328
1761468803723340000,8.894340087890624,0.000014232471585273743,-0.0006270082667469978,0.0011541175190359354
1761468803733322000,8.904322021484376,0.001272842288017273,0.002909403294324875,-0.00038705370388925076
1761468803743305000,8.914304931640626,0.0008390136063098907,0.002105587860569358,0.00046618329361081123
1761468803753288000,8.924287841796875,-0.00046620145440101624,0.0013218193780630827,-0.0013053514994680882
1761468803763270000,8.934269775390625,-0.001100477296859026,-0.0015247699338942766,0.000381584744900465
1761468803773252900,8.9442529296875,0.0012002275325357914,-0.00015563867054879665,0.0011879897210747004
1761468803783236000,8.954236083984375,-0.00040382053703069687,-0.00021529430523514748,0.00028911628760397434
1761468803793217800,8.9642177734375,0.0019868994131684303,-0.0007710959762334824,-0.00014338106848299503
1761468803803201000,8.974200927734374,0.0015385965816676617,-0.0013740386348217726,0.0003198415506631136
1761468803813183000,8.984182861328126,0.0008736052550375462,0.005063620395958424,0.0014218578580766916
1761468803823166200,8.994166259765626,0.0005782768130302429,0.0005681337788701057,0.0023436781484633684
1761468803833149000,9.00414892578125,-0.0003069578669965267,0.002184939105063677,-0.004141385201364756
1761468803843131100,9.014131103515625,0.0018605252262204885,-0.00170147477183491,-0.0010114072356373072
1761468803853114000,9.024114013671875,-0.0007541663944721222,-0.00027535203844308853,-0.0005384297110140324
1761468803863096800,9.034096923828125,0.0011314107105135918,-0.001494268188253045,-0.0006136130541563034
1761468803873079000,9.0440791015625,0.00035856151953339577,0.0030858363024890423,-0.0014471826143562794
1761468803883062000,9.05406201171875,0.002827628282830119,0.0013862503692507744,-0.00044454261660575867
1761468803893044000,9.0640439453125,-0.0018755141645669937,-0.001006333390250802,-0.0018144726054742932
1761468803903027000,9.07402685546875,0.0006199427880346775,0.00036106957122683525,0.00041085947304964066
1761468803913010200,9.08401025390625,-0.0007028491236269474,0.000699823722243309,-0.0004919520579278469
1761468803922991900,9.093991943359375,0.00026878854259848595,-0.0005237890873104334,-0.0032740191090852022
1761468803932975000,9.10397509765625,0.0018549675587564707,-0.0018596305744722486,0.0021497744601219893
1761468803942958000,9.1139580078125,-0.0008317949250340462,-0.0018277756171301007,0.0005846433341503143
1761468803952940000,9.12393994140625,0.0019312344957143068,0.0005525576416403055,0.0023532486520707607
1761468803962923000,9.133923095703125,0.0007783286273479462,-0.00031357421539723873,0.00047080148942768574
1761468803972905000,9.143905029296874,-0.00042009400203824043,-0.00047416286543011665,-0.00048021343536674976
1761468803982888000,9.153887939453124,0.00006267335265874863,-0.0017841559601947665,-0.0004994291812181473
1761468803992871200,9.16387109375,0.0004789256490767002,-0.0019724415615200996,-0.0005223324988037348
1761468804002852900,9.173852783203126,0.0008406280539929867,-0.0006989659741520882,0.0015994063578546047
1761468804012836000,9.183836181640626,-0.0033527854830026627,0.001934101339429617,0.0005647682119160891
1761468804022819000,9.193819091796875,-0.0013750591315329075,0.0008747021201997995,0.000048196641728281975
1761468804032801000,9.203801025390625,0.00035493029281497,-0.00025101611390709877,-0.0014096176018938422
1761468804042784000,9.213783935546875,0.0004828614182770252,-0.0005433186888694763,-0.0024349819868803024
1761468804052766200,9.22376611328125,-0.00010250136256217957,-0.0027124634943902493,-0.000004048692062497139
1761468804062749000,9.2337490234375,0.00023489631712436676,-0.0010357496794313192,-0.0010228173341602087
1761468804072732000,9.24373193359375,0.0012887092307209969,0.0011528360191732645,-0.00019803643226623535
1761468804082714000,9.253714111328126,-0.0018474939279258251,0.0008057286031544209,0.0016746078617870808
1761468804092696800,9.26369677734375,-0.0015167295932769775,0.0008555296808481216,-0.002049822825938463
1761468804102679000,9.273678955078125,-0.0018314323388040066,-0.003516377415508032,-0.0001610030885785818
1761468804112662000,9.283662109375,0.0006652814336121082,-0.0012676042970269918,-0.0011831243755295873
1761468804122645000,9.29364501953125,0.0004153335466980934,-0.0005324343219399452,0.0003731376491487026
1761468804132627000,9.303626953125,-0.001865131314843893,-0.00042217946611344814,-0.002187225269153714
1761468804142610200,9.313610107421875,0.0028314990922808647,0.0013020182959735394,0.002107737585902214
1761468804152593000,9.323593017578125,0.0014636996202170849,-0.0006817702669650316,0.0010816212743520737
1761468804162575000,9.3335751953125,-0.0007516262121498585,0.0005184959154576063,0.0012578964233398438
1761468804172558000,9.34355810546875,0.000002847053110599518,0.0008953327778726816,-0.000007371185347437859
1761468804182541000,9.353541015625,-0.00254940427839756,-0.0002880052197724581,-0.0005169203504920006
1761468804192523000,9.36352294921875,-0.0012998487800359726,0.0010355859994888306,0.0045257750898599625
1761468804202506000,9.373506103515625,0.000010920222848653793,-0.0017237243009731174,-0.001938698347657919
1761468804212488000,9.383488037109375,0.0003874911926686764,0.00204092008061707,-0.00019752350635826588
1761468804222471000,9.393470947265625,-0.0014081234112381935,0.0015968331135809422,0.0002765590324997902
1761468804232454100,9.4034541015625,0.0005287937819957733,-0.0006162538193166256,0.0002768253907561302
1761468804242435800,9.413435791015624,-0.0018634619191288948,-0.0010787220671772957,-0.002802471863105893
1761468804252419000,9.423419189453124,0.0016622967086732388,-0.0018212113063782454,0.0006167606916278601
1761468804262401000,9.433401123046876,-0.0006029796786606312,-0.001637033186852932,0.0015771728940308094
1761468804272384000,9.443384033203126,-0.000367023516446352,0.0007925687823444605,0.0008120466955006123
1761468804282367000,9.453366943359375,0.00014764070510864258,-0.0007414361461997032,0.001988794654607773
1761468804292349200,9.46334912109375,-0.0007053697481751442,0.001459666294977069,0.000815671868622303
1761468804302332000,9.473331787109375,-0.0011531389318406582,0.00020943139679729939,0.000964202219620347
1761468804312314000,9.483314208984375,0.002013359684497118,0.0009607092943042517,0.0010962949600070715
1761468804322297000,9.493297119140625,-0.00036648428067564964,0.0015554609708487988,-0.00044562527909874916
1761468804332280000,9.503280029296874,-0.0005763410590589046,-0.0002147420309484005,-0.00010500685311853886
1761468804342262300,9.51326220703125,0.0002517751418054104,-0.0014317918103188276,-0.0006631084252148867
1761468804352245200,9.523245361328126,-0.0007391870021820068,-0.00004428485408425331,0.00023331167176365852
1761468804362228200,9.533228271484376,-0.000038164202123880386,-0.00028847926296293736,0.0010088086128234863
1761468804372210200,9.543210205078125,0.001691292505711317,-0.00042483326978981495,0.0003584644291549921
1761468804382193400,9.553193359375,0.0004359525628387928,-0.0004814073909074068,-0.0021020877175033092
1761468804392175000,9.563175048828125,0.0027933826204389334,-0.0004110999871045351,0.0017006401903927326
1761468804402158300,9.573158447265625,0.0013671442866325378,0.0012845788151025772,0.0014271358959376812
1761468804412141300,9.583141357421875,0.0028329482302069664,0.0018837898969650269,-0.00003999960608780384
1761468804422123300,9.593123291015624,0.0025735378731042147,0.0016418995801359415,-0.00021853367798030376
1761468804432106200,9.603106201171874,-0.0013173404149711132,0.007074748165905476,0.0021106668282300234
1761468804442089200,9.613089111328126,-0.0005924403667449951,0.0028434351552277803,0.0012118397280573845
1761468804452071200,9.6230712890625,-0.0025722337886691093,-0.00017579039558768272,-0.0011554439552128315
1761468804462054100,9.63305419921875,-0.0030377916991710663,0.0002242585178464651,0.003083311254158616
1761468804472036400,9.643036376953125,0.0016738725826144218,-0.0011323557700961828,-0.0013934625312685966
1761468804482019000,9.65301904296875,-0.0012510898523032665,-0.00227291788905859,0.000411641551181674
1761468804492002300,9.663002197265625,-0.0009003514423966408,0.06812667846679688,0.02567092515528202
1761468804501984300,9.672984375,-0.001409134827554226,0.039066582918167114,0.011751058511435986
1761468804511967200,9.68296728515625,-0.0000064480118453502655,-0.06494290381669998,-0.01858181320130825
1761468804521950200,9.6929501953125,-0.001846517901867628,0.024929208680987358,0.006383945234119892
1761468804531932400,9.702932373046876,-0.0006962986662983894,-0.011083120480179787,-0.004781889729201794
1761468804541915100,9.7129150390625,-0.0021400386467576027,-0.019649192690849304,-0.005007084924727678
1761468804551897300,9.7228974609375,0.003033151850104332,0.0036686474923044443,0.0012478812132030725
1761468804561880300,9.73288037109375,0.00004954356700181961,-0.01595074124634266,-0.005602431483566761
1761468804571863300,9.74286328125,-0.0014418265782296658,-0.012540830299258232,-0.004990703426301479
1761468804581845200,9.75284521484375,0.0012340494431555271,-0.006486702710390091,-0.0006913661491125822
1761468804591828200,9.762828125,-0.0009223120287060738,-0.0018653192091733217,0.001662868307903409
1761468804601810200,9.77281005859375,-0.0017881724052131176,0.0011728834360837936,0.00042600464075803757
