time,seconds_elapsed,z,y,x
1761468784277517800,0.118517822265625,0.0019317588303238153,-0.000014482764527201653,0.001957537140697241
1761468784287500800,0.128500732421875,-0.0003652176819741726,-0.0021396854426711798,-0.0019852728582918644
1761468784297482800,0.138482666015625,-0.0007670666091144085,-0.0004961774684488773,-0.000020812032744288445
1761468784307465700,0.1484658203125,-0.0018317983485758305,-0.001363835297524929,-0.0011728955432772636
1761468784317447700,0.15844775390625,0.0003848932683467865,-0.001826015068218112,-0.0013366984203457832
1761468784327430700,0.1684306640625,-0.001043892465531826,-0.001953314058482647,-0.0019289854681119323
1761468784337412900,0.178412841796875,0.00026307860389351845,-0.0008716038428246975,-0.0026091192848980427
1761468784347395600,0.1883955078125,-0.00033480115234851837,0.0019862342160195112,-0.0011124226730316877
1761468784357378800,0.19837890625,-0.0017938129603862762,0.002319761086255312,-0.00017917435616254807
1761468784367360800,0.20836083984375,0.0010677534155547619,0.00017751427367329597,0.0004029925912618637
1761468784377343700,0.21834375,0.0014386074617505074,0.00019491277635097504,-0.00011375639587640762
1761468784387325700,0.22832568359375,0.002803211100399494,0.0002737422473728657,0.00022979150526225567
1761468784397309000,0.238308837890625,-0.0002474444918334484,0.002121156547218561,0.000807817792519927
1761468784407291600,0.248291748046875,-0.001123091671615839,-0.0016887618694454432,0.001370277488604188
1761468784417273900,0.25827392578125,0.000921283382922411,-0.0014393569435924292,0.001109034288674593
1761468784427256800,0.2682568359375,-0.002602078951895237,0.00004429020918905735,-0.0011104440782219172
1761468784437238800,0.27823876953125,-0.0006591416895389557,0.002627789741382003,-0.0020661004818975925
1761468784447221800,0.2882216796875,-0.0005459575913846493,0.003144176909700036,0.002157140290364623
1761468784457203700,0.29820361328125,-0.001038157381117344,0.0013559137005358934,0.0012667509727180004
1761468784467186700,0.308186767578125,-0.0005902135744690895,-0.00027660420164465904,0.00017805048264563084
1761468784477169700,0.318169677734375,0.00032562436535954475,-0.0004057011101394892,-0.0018374674255028367
1761468784487151600,0.328151611328125,-0.002126880455762148,0.000019605504348874092,-0.000042496947571635246
1761468784497134600,0.338134521484375,0.003879453521221876,0.00013308972120285034,0.0002636148128658533
1761468784507116800,0.34811669921875,0.0038757252041250467,-0.0010022157803177834,0.0012148958630859852
1761468784517099500,0.358099609375,-0.0005699931643903255,0.0019894628785550594,0.00007306458428502083
1761468784527082800,0.368082763671875,0.0016430937685072422,-0.00006676372140645981,-0.001424696994945407
1761468784537064700,0.378064697265625,-0.00028875982388854027,0.0005611293017864227,-0.0025618860963732004
1761468784547047700,0.388047607421875,-0.0007907659746706486,-0.00045113847590982914,-0.000281687593087554
1761468784557029600,0.398029541015625,0.00003342656418681145,-0.003120893146842718,-0.0034287828020751476
1761468784567012900,0.408012939453125,0.0005748472176492214,-0.00021165586076676846,0.001618972746655345
1761468784576994600,0.41799462890625,-0.001056554727256298,0.0021567922085523605,0.0008821524679660797
1761468784586977800,0.427977783203125,-0.0017982451245188713,0.0030100690200924873,-0.0011213435791432858
1761468784596960800,0.437960693359375,0.0006918087601661682,-0.0032056637573987246,0.0004741763696074486
1761468784606942700,0.447942626953125,-0.00004615355283021927,-0.0007955029141157866,-0.0005609942600131035
1761468784616925700,0.45792578125,0.0015394389629364014,-0.0001829061657190323,0.0013758859131485224
1761468784626908000,0.467907958984375,-0.0007716524414718151,-0.0007672037463635206,0.0021133150439709425
1761468784636890600,0.477890625,0.0003969441168010235,-0.0019223034614697099,-0.0003099155146628618
1761468784646873600,0.48787353515625,-0.0006898920983076096,-0.0006706176791340113,-0.002369604306295514
1761468784656855800,0.497855712890625,0.0018898611888289452,-0.00017340225167572498,0.000051359646022319794
1761468784666838500,0.507838623046875,-0.0006883451715111732,0.0007326048798859119,0.0011863990221172571
1761468784676820700,0.51782080078125,-0.00284409336745739,-0.0012365987058728933,-0.0010468894615769386
1761468784686803700,0.5278037109375,-0.0007955897599458694,-0.00004110555164515972,0.0012122702319175005
1761468784696785700,0.53778564453125,-0.0012947330251336098,-0.0030367043800652027,-0.0013801651075482368
1761468784706768600,0.5477685546875,0.0007806685753166676,-0.0003330633044242859,-0.00015324680134654045
1761468784716752000,0.557751953125,-0.002998464275151491,-0.0018561348551884294,0.0003426943439990282
1761468784726733600,0.567733642578125,-0.0012956392019987106,0.0016661619301885366,-0.0028190105222165585
1761468784736716800,0.577716796875,-0.0006708940491080284,0.0008372468873858452,0.0006439713761210442
1761468784746698500,0.587698486328125,-0.0004903320223093033,0.003290284425020218,0.0007321219891309738
1761468784756681700,0.597681640625,-0.0007715136744081974,0.0017298616003245115,0.0011817517224699259
1761468784766664700,0.607664794921875,-0.00011211493983864784,0.00048563280142843723,-0.001911776140332222
1761468784776646700,0.617646728515625,-0.0029638721607625484,-0.0008433929178863764,0.0004696105606853962
1761468784786629600,0.627629638671875,-0.00039179110899567604,-0.0005022420082241297,-0.0027304438408464193
1761468784796611800,0.63761181640625,0.0006513912230730057,0.0000024815090000629425,-0.00035521178506314754
1761468784806594600,0.647594482421875,-0.001329468097537756,0.0009391151834279299,0.0010514699388295412
1761468784816576800,0.65757666015625,-0.0004601934924721718,-0.001476440578699112,0.00014998833648860455
1761468784826559700,0.667559814453125,-0.0008950876072049141,-0.00010571163147687912,0.0018552104011178017
1761468784836542700,0.677542724609375,-0.0011598155833780766,-0.000429574865847826,-0.0010528366547077894
1761468784846524700,0.687524658203125,-0.0007949625141918659,-0.0022117621265351772,-0.0013183539267629385
1761468784856508000,0.6975078125,-0.0010059569031000137,-0.0021682600490748882,-0.002831724239513278
1761468784866489600,0.707489501953125,0.0004342803731560707,-0.002870002994313836,-0.00007481989450752735
1761468784876472800,0.717472900390625,0.0010169330053031445,-0.0006428523920476437,0.0006243251264095306
1761468784886455800,0.727455810546875,-0.00153703847900033,0.003180381841957569,-0.004442605189979076
1761468784896437800,0.737437744140625,-0.0012600375339388847,0.002915574237704277,0.003063263837248087
1761468784906420700,0.747420654296875,0.0001354585401713848,0.0008108778856694698,-0.0014292227569967508
1761468784916403000,0.75740283203125,-0.0023450865410268307,0.0023659446742385626,-0.0015964919002726674
1761468784926385700,0.7673857421875,-0.00061030313372612,0.00020399061031639576,0.0016602878458797932
1761468784936367900,0.777367919921875,0.0019067490939050913,-0.00003783847205340862,-0.001669975114054978
1761468784946350800,0.787350830078125,-0.0017404500395059586,-0.00021600397303700447,-0.0012558535672724247
1761468784956333600,0.79733349609375,-0.0008142073638737202,-0.001884198049083352,0.00031066476367414
1761468784966315800,0.807315673828125,-0.000636042095720768,-0.0007534197065979242,0.0012283902615308762
1761468784976298800,0.817298828125,-0.0007345876656472683,-0.0020931288599967957,-0.0023869178257882595
1761468784986280700,0.82728076171875,0.0018769081216305494,0.0008640452288091183,0.0013974341563880444
1761468784996263700,0.837263671875,0.00028518494218587875,0.0001537795178592205,0.00222012703306973
1761468785006247000,0.847246826171875,-0.0020099272951483727,-0.0007506299298256636,0.0011841573286801577
1761468785016228600,0.857228515625,0.0027796602807939053,-0.0014133637305349112,-0.0015897533157840371
1761468785026211800,0.8672119140625,-0.00041054049506783485,0.000703583238646388,-0.0008762925863265991
1761468785036193500,0.877193603515625,0.0005293297581374645,0.00031463708728551865,-0.0018088658107444644
1761468785046176800,0.8871767578125,0.000874475110322237,-0.001758367521688342,-0.00012068799696862698
1761468785056158700,0.89715869140625,-0.0010183085687458515,0.0021530750673264265,0.001410684548318386
1761468785066142000,0.907141845703125,0.0011154161766171455,0.0029658714774996042,-0.0005424777045845985
1761468785076124700,0.917124755859375,0.003045201301574707,0.0032194152008742094,0.00020250235684216022
1761468785086107000,0.92710693359375,0.00015061162412166595,0.002717409050092101,-0.00017247069627046585
1761468785096089900,0.93708984375,0.0012908577919006348,-0.0012714311014860868,-0.0020318992901593447
1761468785106071800,0.94707177734375,-0.0005014496855437756,-0.0017870191950351,0.0012656266335397959
1761468785116054800,0.9570546875,0.0007938030175864697,-0.0021816694643348455,-0.0004025097005069256
1761468785126037800,0.967037841796875,-0.000006743241101503372,-0.0019702143035829067,-0.00030610314570367336
1761468785136019700,0.977019775390625,0.0011823331005871296,-0.003917974885553122,0.0018796662334352732
1761468785146002700,0.987002685546875,0.0012499773874878883,-0.00001963973045349121,-0.0016386357601732016
1761468785155984600,0.996984619140625,-0.0016963165253400803,-0.0017307456582784653,-0.0012372015044093132
1761468785165967600,1.006967529296875,0.0009157117456197739,-0.00036907149478793144,0.00011035799980163574
1761468785175950800,1.016950927734375,0.0007938779890537262,0.00012529711239039898,-0.00012232386507093906
1761468785185932500,1.0269326171875,-0.0014413129538297653,-0.0003788392059504986,-0.0009572247508913279
1761468785195915800,1.036915771484375,0.0007038651965558529,-0.0011474918574094772,0.0013131112791597843
1761468785205897700,1.046897705078125,0.002822143491357565,0.0031641656532883644,-0.002389481756836176
1761468785215880700,1.056880615234375,0.0004601581022143364,0.0021589300595223904,0.00007644155994057655
1761468785225863700,1.06686376953125,0.0030250484123826027,0.0005237488076090813,0.0018807330634444952
1761468785235846000,1.076845947265625,0.00021334132179617882,-0.0015541017055511475,-0.001229801680892706
1761468785245828600,1.08682861328125,-0.0010287570767104626,-0.0022864709608256817,-0.0024902757722884417
1761468785255810800,1.096810791015625,-0.000788253266364336,-0.0033313212916254997,-0.0006548871751874685
1761468785265793800,1.106793701171875,0.0005481205880641937,-0.0006415287498384714,-0.0016663556452840567
1761468785275775700,1.116775634765625,0.0008726632222533226,-0.003717112587764859,-0.0013369356747716665
1761468785285758700,1.1267587890625,-0.0008786316029727459,0.0008747098036110401,0.0024048055056482553
1761468785295741700,1.13674169921875,-0.0004719765856862068,-0.0009273984469473362,0.0012096085119992495
1761468785305724000,1.146723876953125,-0.0003345571458339691,-0.0007505645044147968,0.000855941092595458
1761468785315706600,1.15670654296875,0.0006269719451665878,0.0001940771471709013,-0.00036274618469178677
1761468785325688800,1.166688720703125,-0.00024441443383693695,0.002380798803642392,0.0003435241524130106
1761468785335671800,1.176671875,0.0015137037262320518,0.002394824055954814,0.0003234471660107374
1761468785345654800,1.18665478515625,0.0004622875712811947,0.003241443308070302,-0.0014701917534694076
1761468785355636700,1.19663671875,-0.0004803142510354519,0.000693056033924222,-0.0015067196218296885
1761468785365620000,1.206619873046875,-0.00007498124614357948,0.000042445724830031395,-0.0004808700177818537
1761468785375601700,1.2166015625,0.000902760773897171,-0.0001503343228250742,-0.00028632557950913906
1761468785385585000,1.2265849609375,-0.00019952189177274704,0.0007604670245200396,0.0007997113279998302
1761468785395567900,1.23656787109375,-0.00013710232451558113,0.00156583939678967,0.0024351240135729313
1761468785405549800,1.2465498046875,-0.0023704292252659798,-0.000299438601359725,0.002032454125583172
1761468785415532800,1.25653271484375,0.00042956555262207985,-0.000322520500048995,-0.0006205497775226831
1761468785425514800,1.2665146484375,0.0010077375918626785,0.004263442475348711,0.0005935854278504848
1761468785435497700,1.276497802734375,-0.0007386775687336922,-0.0014566830359399319,0.0008498982060700655
1761468785445480700,1.286480712890625,0.0006618788465857506,0.0010605365969240665,0.0006259263027459383
1761468785455462700,1.296462646484375,-0.0016523930244147778,0.0008013013284653425,0.002130464417859912
1761468785465445600,1.306445556640625,-0.0012095090933144093,0.0002737289760261774,-0.001708482508547604
1761468785475427800,1.316427734375,0.0008843713440001011,0.0020434828475117683,0.0011843962129205465
1761468785485410800,1.326410888671875,-0.0008948864415287971,0.0018410827033221722,0.00244007701985538
1761468785495393800,1.336393798828125,0.00001975148916244507,0.0015964426565915346,0.0003783374559134245
1761468785505375700,1.346375732421875,0.00025597354397177696,-0.00002915062941610813,-0.0015649710549041629
1761468785515359000,1.35635888671875,-0.000640838872641325,0.0007468154653906822,0.0008249992970377207
1761468785525340700,1.366340576171875,0.0009045936167240143,0.0028499136678874493,0.0006945047061890364
1761468785535324000,1.376323974609375,-0.001539131160825491,-0.0000608125701546669,-0.0019035832956433296
1761468785545305900,1.386305908203125,0.0019583983812481165,0.000525349285453558,-0.0004907764960080385
1761468785555288800,1.396288818359375,0.003462746972218156,-0.0022008984815329313,-0.0007562246173620224
1761468785565271800,1.406271728515625,0.00011275662109255791,-0.0008860959205776453,-0.00126142636872828
1761468785575253800,1.416253662109375,-0.0007860236801207066,-0.00006699562072753906,-0.000990018481388688
1761468785585236700,1.42623681640625,-0.0013325042091310024,-0.0005847141146659851,-0.0005039917305111885
1761468785595219000,1.436218994140625,-0.0023514102213084698,-0.0003374572843313217,0.0010330332443118095
1761468785605201700,1.44620166015625,-0.000223544891923666,-0.0022722436115145683,0.00034939986653625965
1761468785615185000,1.456184814453125,0.0010129902511835098,0.0002935887314379215,-0.003524170955643058
1761468785625166800,1.466166748046875,-0.0023923940025269985,0.0010089133866131306,-0.00016885437071323395
1761468785635149800,1.47614990234375,-0.0001252046786248684,-0.00006148056127130985,0.001341724069789052
1761468785645131800,1.4861318359375,-0.0019585248082876205,-0.0004827925004065037,-0.0020332999993115664
1761468785655115000,1.496114990234375,0.0002359701320528984,0.0003226185217499733,-0.0005962187424302101
1761468785665097700,1.50609765625,-0.00047109881415963173,0.000672557856887579,0.003310905070975423
1761468785675080000,1.516079833984375,-0.0016331840306520462,-0.0012132921256124973,-0.0007238511461764574
1761468785685063000,1.52606298828125,-0.0009394306689500809,0.00022747786715626717,-0.000049805035814642906
1761468785695044900,1.536044921875,-0.002158558461815119,0.0018423628062009811,-0.0001371493563055992
1761468785705027800,1.54602783203125,-0.0006669224239885807,0.002433850895613432,-0.0012745852582156658
1761468785715010800,1.5560107421875,-0.0005618175491690636,-0.0006710439920425415,-0.0015676339389756322
1761468785724992800,1.56599267578125,-0.0025274972431361675,-0.0007093935273587704,-0.00236951163969934
1761468785734975700,1.575975830078125,-0.0019853771664202213,-0.0012113829143345356,-0.001736305421218276
1761468785744958000,1.5859580078125,0.0016346573829650879,0.0020483259577304125,0.0010320506989955902
1761468785754940700,1.595940673828125,0.00021610595285892487,-0.00032544019632041454,0.0025482503697276115
1761468785764924000,1.605923828125,-0.00012637628242373466,0.0017196012195199728,-0.00031491415575146675
1761468785774905900,1.61590576171875,-0.0003557777963578701,0.0008982124272733927,0.0016010452527552843
1761468785784888800,1.625888916015625,-0.0027393074706196785,0.001394359627738595,0.000526726245880127
1761468785794870800,1.635870849609375,-0.0007047271355986595,-0.0009481220040470362,0.0025068989489227533
1761468785804854000,1.64585400390625,-0.00008580880239605904,0.0013797469437122345,0.002064015017822385
1761468785814836700,1.655836669921875,0.0008368478156626225,0.001637354027479887,-0.0024004762526601553
1761468785824819000,1.66581884765625,0.002149519743397832,0.0017518699169158936,-0.00025556632317602634
1761468785834802000,1.675802001953125,-0.00016168877482414246,0.001274104230105877,0.0013513106387108564
1761468785844783900,1.685783935546875,-0.0002311975695192814,0.0035521723330020905,-0.0002636304125189781
1761468785854766800,1.695766845703125,0.002045949688181281,0.0019117912743240595,-0.0001000820193439722
1761468785864749800,1.705749755859375,0.0007378049194812775,0.000698987627401948,0.0009561278857290745
1761468785874731800,1.715731689453125,0.0016640475951135159,-0.0002528638578951359,0.0006021866574883461
1761468785884714800,1.72571484375,0.00023978902027010918,-0.0018611468840390444,0.00040005287155508995
1761468785894696700,1.73569677734375,0.0006891358643770218,-0.002144305035471916,-0.0007499353960156441
1761468785904679700,1.7456796875,0.0016225739382207394,-0.0010366963688284159,-0.00006124190986156464
1761468785914663000,1.755662841796875,-0.0001871492713689804,-0.0017732889391481876,-0.00044812215492129326
1761468785924644600,1.76564453125,0.00034894514828920364,-0.0005735349841415882,0.0014270094688981771
1761468785934627800,1.7756279296875,-0.0006587211973965168,0.001007579267024994,0.000050500500947237015
1761468785944609800,1.78560986328125,-0.00010345224291086197,-0.0015101730823516846,-0.0017050552414730191
1761468785954592800,1.7955927734375,0.0012159827165305614,0.0007963825482875109,0.0020358869805932045
1761468785964575700,1.80557568359375,0.0005991943180561066,-0.002807140350341797,-0.0009005144238471985
1761468785974558000,1.815557861328125,-0.0009420923888683319,0.0018718303181231022,-0.0012335041537880898
1761468785984540700,1.825540771484375,0.000451007392257452,-0.001799337100237608,0.0007505507674068213
1761468785994523000,1.83552294921875,-0.0009530517272651196,-0.0013525369577109814,-0.00010935915634036064
1761468786004505900,1.845505859375,-0.0012952680699527264,0.002236871514469385,0.0007319336291402578
1761468786014488600,1.855488525390625,0.0027591614052653313,0.00200395449064672,0.0001292242668569088
1761468786024470800,1.865470703125,-0.00031386036425828934,0.003329942235723138,0.0005894184578210115
1761468786034453800,1.875453857421875,0.000441043172031641,-0.00020378967747092247,-0.0013889269903302193
1761468786044435700,1.885435791015625,0.0006703413091599941,-0.0009345612488687038,-0.0001984939444810152
1761468786054418700,1.895418701171875,-0.0017059841193258762,0.0011835850309580564,0.00042756530456244946
1761468786064402000,1.90540185546875,0.00047700898721814156,0.0002900946419686079,-0.001382318907417357
1761468786074383600,1.915383544921875,0.0011273217387497425,0.00037150224670767784,0.0009034480899572372
1761468786084366800,1.925366943359375,-0.0004591229371726513,-0.003246135776862502,-0.0015511875972151756
1761468786094348800,1.935348876953125,0.00030428124591708183,-0.0019642612896859646,-0.0021160664036870003
1761468786104331800,1.945331787109375,-0.0007785600610077381,-0.0014627878554165363,0.0017867961432784796
1761468786114314800,1.955314697265625,-0.00022895494475960732,-0.0002592883538454771,-0.001650475081987679
1761468786124297000,1.965296875,0.0035101233515888453,0.0018472718074917793,0.0009037626441568136
1761468786134279700,1.97527978515625,-0.001084259245544672,-0.0005538053810596466,-0.0012434667441993952
1761468786144262000,1.985261962890625,0.0014313627034425735,-0.0016566202975809574,-0.001180882565677166
1761468786154244900,1.995244873046875,0.002707731444388628,-0.0010075625032186508,0.0006852601654827595
1761468786164227800,2.005227783203125,-0.001851600594818592,0.001996216829866171,0.0011332039721310139
1761468786174209800,2.015209716796875,-0.0007183118723332882,-0.00030933809466660023,-0.0012012578081339598
1761468786184192800,2.02519287109375,-0.0008496055379509926,-0.0009061524178832769,-0.0008025825954973698
1761468786194174700,2.0351748046875,-0.0031197573989629745,0.0009399745613336563,0.0012071756646037102
1761468786204158000,2.045157958984375,0.0026659597642719746,0.0014576930552721024,0.0011507165618240833
1761468786214141000,2.055140869140625,-0.0016671298071742058,-0.0005110730417072773,0.0022703863214701414
1761468786224123000,2.065122802734375,0.001604829914867878,0.0006340863183140755,0.00006289221346378326
1761468786234105900,2.07510595703125,-0.0021411385387182236,-0.0020017214119434357,-0.0016585338162258267
1761468786244087800,2.085087890625,-0.00028251809999346733,-0.0020161024294793606,0.000768937636166811
1761468786254070800,2.09507080078125,0.0015089064836502075,0.00012620771303772926,-0.0016222023405134678
1761468786264053800,2.1050537109375,-0.0013428064994513988,0.001035943627357483,0.0011762473732233047
1761468786274036000,2.115035888671875,-0.0000032423995435237885,0.0029822527430951595,-0.002137857023626566
1761468786284018700,2.125018798828125,0.001093180850148201,0.0006788847967982292,0.0010097329504787922
1761468786294001000,2.1350009765625,-0.0006350474432110786,0.00047172093763947487,-0.00109994993545115
1761468786303983900,2.14498388671875,-0.002088600303977728,-0.0029653545934706926,-0.001659480039961636
1761468786313966600,2.154966552734375,-0.0002611866220831871,-0.0007722582668066025,-0.0015375094953924417
1761468786323948500,2.164948486328125,-0.0015312484465539455,-0.0008154015522450209,-0.0018411099445074797
1761468786333931500,2.174931640625,0.0005914345383644104,-0.0021445732563734055,0.0018226057291030884
1761468786343913500,2.18491357421875,-0.0008887504227459431,-0.00003614858724176884,0.0002587973140180111
1761468786353896700,2.194896728515625,-0.0017815977334976196,-0.00020509911701083183,-0.00016622315160930157
1761468786363879700,2.204879638671875,0.001804881263524294,-0.0009838074911385775,0.000032448675483465195
1761468786373861600,2.214861572265625,0.0002796761691570282,-0.0002404067199677229,0.0004531831946223974
1761468786383844600,2.2248447265625,-0.00016294140368700027,-0.00226174620911479,-0.0012224775273352861
1761468786393826600,2.23482666015625,0.00007866974920034409,-0.0017098519019782543,0.0008370729628950357
1761468786403809500,2.2448095703125,0.0015561915934085846,-0.0021298322826623917,0.0011180366855114698
1761468786413792500,2.25479248046875,-0.00038354843854904175,0.00026036007329821587,-0.0026548467576503754
1761468786423774500,2.2647744140625,-0.0012362925335764885,-0.00016974075697362423,0.0001348145306110382
1761468786433757400,2.27475732421875,-0.0006591812707483768,-0.0014836175832897425,0.0012379635591059923
1761468786443739600,2.28473974609375,0.0007195374928414822,-0.0011422003153711557,-0.000286429887637496
1761468786453722400,2.294722412109375,0.0020977132953703403,0.0007824171334505081,0.002364820335060358
1761468786463705600,2.30470556640625,-0.000781696755439043,-0.002821372589096427,0.0009397626854479313
1761468786473687600,2.3146875,0.0021939638536423445,-0.0023276787251234055,-0.00014161178842186928
1761468786483670500,2.32467041015625,-0.0000657280907034874,-0.0017324623186141253,-0.0002840908709913492
1761468786493652500,2.334652587890625,0.00012864312157034874,-0.0031867821235209703,-0.0006058623548597097
1761468786503635700,2.3446357421875,0.0007696659304201603,-0.0007931329309940338,0.0010370418895035982
1761468786513618400,2.354618408203125,-0.0008601960726082325,-0.00019157305359840393,0.000446197809651494
1761468786523600600,2.3646005859375,0.0019949788693338633,-0.0009990434627979994,-0.0009519618470221758
1761468786533583600,2.37458349609375,0.000427955761551857,-0.0010478999465703964,-0.00231735548004508
1761468786543566600,2.384566650390625,-0.00012624822556972504,0.0018325753044337034,-0.0005668594967573881
1761468786553548500,2.394548583984375,0.00020162342116236687,-0.003541276091709733,-0.0003835412207990885
1761468786563531500,2.404531494140625,0.0019683646969497204,0.0007813007105141878,0.0009581593330949545
1761468786573513500,2.414513427734375,0.0009226142428815365,-0.00019976147450506687,-0.0004124667029827833
1761468786583496400,2.424496337890625,0.0002773306332528591,0.001522238366305828,-0.002199980430305004
1761468786593479700,2.434479736328125,-0.000008149538189172745,0.002281272318214178,-0.0002487669698894024
1761468786603461400,2.44446142578125,0.000847790390253067,-0.00020292424596846104,0.0023717836011201143
1761468786613444600,2.454444580078125,0.0015220679342746735,0.0007140352390706539,-0.00030758907087147236
1761468786623426600,2.464426513671875,0.00043443311005830765,0.000017884885892271996,0.0016383826732635498
1761468786633409500,2.474409423828125,0.0002389173023402691,0.0009368297178298235,0.00038483506068587303
1761468786643392500,2.484392578125,0.00025063520297408104,0.0013046122621744871,-0.0007768357172608376
1761468786653374700,2.494374755859375,-0.0008818455971777439,0.0030173168051987886,-0.00019192183390259743
1761468786663357400,2.504357421875,0.0010862303897738457,0.0030170504469424486,0.0022270274348556995
1761468786673339600,2.514339599609375,-0.0015382315032184124,0.0020847429987043142,0.001800974365323782
1761468786683322600,2.524322509765625,-0.001088157296180725,0.0014402579981833696,0.005625540390610695
1761468786693305600,2.5343056640625,0.0029740254394710064,0.0021057259291410446,0.0022930551785975695
1761468786703287600,2.54428759765625,0.0002727811224758625,0.0007837330922484398,-0.0005919469986110926
1761468786713270800,2.554270751953125,0.0008248514495790005,0.001179954269900918,0.0015736357308924198
1761468786723253500,2.56425341796875,0.0010067452676594257,0.00407214742153883,0.0022290400229394436
1761468786733235700,2.574235595703125,-0.0017984858714044094,0.0005658117588609457,0.0010646660812199116
1761468786743218700,2.58421875,0.0008998289704322815,-0.0017367573454976082,0.0008281772024929523
1761468786753200600,2.59420068359375,-0.0010417220182716846,0.00004486716352403164,0.0009607370011508465
1761468786763183600,2.60418359375,0.0016502011567354202,-0.002908578608185053,0.0012057479470968246
1761468786773166600,2.61416650390625,0.0014437497593462467,0.003618489485234022,0.00253096385858953
1761468786783148500,2.6241484375,-0.0004593450576066971,0.0007705050520598888,0.0010771441739052534
1761468786793131500,2.634131591796875,0.0007986947894096375,-0.00038661318831145763,0.0007474122103303671
1761468786803113500,2.644113525390625,0.000034634023904800415,0.0035047978162765503,0.002696580020710826
1761468786813096400,2.654096435546875,0.000009335111826658249,0.0014056782238185406,0.0004231380298733711
1761468786823079700,2.66407958984375,0.0005544843152165413,-0.0014303219504654408,-0.0013023240026086569
1761468786833061400,2.674061279296875,-0.0021036267280578613,0.0031327293254435062,-0.002690454013645649
1761468786843044600,2.684044677734375,-0.0009382269345223904,-0.002524623880162835,-0.000813191756606102
1761468786853026600,2.694026611328125,-0.0013504503294825554,-0.0009019363205879927,-0.002773633226752281
1761468786863009500,2.704009521484375,0.0012794211506843567,-0.0002321514766663313,0.0029372493736445904
1761468786872992500,2.713992431640625,0.0004402138292789459,0.0016721265856176615,-0.0015858670230954885
1761468786882974700,2.723974609375,0.002561155240982771,-0.00032417895272374153,-0.0002897065132856369
1761468786892957400,2.73395751953125,-0.0003504222258925438,0.0005506824236363173,-0.001307851169258356
1761468786902940400,2.7439404296875,0.0029441742226481438,-0.002755365800112486,-0.0014242313336580992
1761468786912922600,2.753922607421875,-0.0014044884592294693,0.0005583325400948524,0.0009010692592710257
1761468786922905300,2.7639052734375,-0.003088138997554779,-0.002047038171440363,0.0007093220483511686
1761468786932887600,2.773887451171875,0.0019031097181141376,-0.0018038749694824219,-0.0013980641961097717
1761468786942870500,2.78387060546875,0.0018429222982376814,0.0024001910351216793,0.0028749778866767883
1761468786952853800,2.793853759765625,0.0016964548267424107,0.0035730311647057533,-0.0028926050290465355
1761468786962835500,2.80383544921875,-0.0004617711529135704,-0.0001487364061176777,0.0038760851603001356
1761468786972818700,2.813818603515625,0.0009289891459047794,0.0028219246305525303,-0.0019125142134726048
1761468786982800400,2.82380029296875,0.00034176232293248177,0.0005587702617049217,0.003001284319907427
1761468786992783600,2.83378369140625,-0.00038638897240161896,0.0005547201726585627,0.00018942821770906448
1761468787002766600,2.8437666015625,-0.0005429829470813274,-0.0019174923654645681,-0.00015198905020952225
1761468787012748500,2.85374853515625,0.0027183007914572954,-0.014887695200741291,-0.008410739712417126
1761468787022731500,2.8637314453125,0.0022674277424812317,0.02985900454223156,0.0082297557964921
1761468787032713700,2.873713623046875,-0.0005196426063776016,0.01794189028441906,0.006014538928866386
1761468787042696400,2.883696533203125,-0.002905835397541523,-0.01605655625462532,-0.002200514078140259
1761468787052679400,2.893679443359375,-0.0007212362252175808,0.0002938357647508383,-0.010115230455994606
1761468787062661600,2.90366162109375,-0.0016275099478662014,-0.001552001340314746,0.005278374068439007
1761468787072644400,2.913644287109375,0.000051095150411129,-0.005969275254756212,0.0032494463957846165
1761468787082627600,2.923627685546875,0.0015150350518524647,0.0001032643485814333,-0.001850506872870028
1761468787092609500,2.933609619140625,0.0008190637454390526,-0.0018942198948934674,-0.0023637323174625635
1761468787102592500,2.943592529296875,0.0008907029405236244,-0.003928076010197401,0.002725834958255291
1761468787112574500,2.953574462890625,-0.0018138857558369637,0.0033735346514731646,-0.005826582200825214
1761468787122557700,2.9635576171875,-0.0013156081549823284,-0.003361067268997431,0.0024449294432997704
1761468787132540400,2.97354052734375,-0.005111450329422951,-0.004331811331212521,-0.003720879089087248
1761468787142522600,2.983522705078125,0.0012971805408596992,0.005848920904099941,0.0036901654675602913
1761468787152505600,2.993505615234375,-0.0015140934847295284,0.006268260534852743,0.00040806224569678307
1761468787162487600,3.003487548828125,0.00183163583278656,-0.004021927714347839,-0.0001267006155103445
1761468787172470500,3.013470458984375,0.0027632159180939198,0.006242557428777218,-0.0023365099914371967
1761468787182453800,3.023453857421875,-0.0026142392307519913,-0.0026995381340384483,0.004389303270727396
1761468787192435500,3.033435546875,-0.00196218304336071,-0.002767132595181465,-0.0029029485303908587
1761468787202418700,3.043418701171875,-0.0021464736200869083,0.0005953744985163212,-0.0000962431076914072
1761468787212400600,3.053400634765625,0.00021904753521084785,-0.0005296822637319565,-0.0021067464258521795
1761468787222383600,3.063383544921875,0.0004187850281596184,-0.0015648528933525085,0.0002360362559556961
1761468787232366600,3.07336669921875,0.0010385890491306782,0.004054843448102474,0.004820011090487242
1761468787242348500,3.0833486328125,-0.000797660555690527,0.0013522680383175611,0.005439728032797575
1761468787252331500,3.09333154296875,0.00215763202868402,-0.0060726068913936615,-0.005751099903136492
1761468787262314500,3.103314453125,0.0005677249282598495,-0.0011532155331224203,0.00138270971365273
1761468787272296700,3.113296630859375,-0.0016447813250124454,-0.003514575771987438,0.0011635569389909506
1761468787282279400,3.123279541015625,0.0016080038622021675,-0.0022216110955923796,-0.004790472332388163
1761468787292261600,3.13326171875,-0.00010038260370492935,-0.0020275337155908346,-0.004030314274132252
1761468787302244600,3.14324462890625,0.0006671403534710407,-0.001662680646404624,0.0013311617076396942
1761468787312228000,3.15322802734375,0.003366181394085288,0.002537907101213932,-0.0017189123900607228
1761468787322210000,3.1632099609375,0.0008122101426124573,-0.0029942775145173073,-0.0007268849294632673
1761468787332193000,3.173193115234375,0.0016416660510003567,-0.0013206636067479849,-0.0036096267867833376
1761468787342175200,3.18317529296875,-0.0013514608144760132,-0.0035633116494864225,-0.0017768392572179437
1761468787352158000,3.193157958984375,-0.0003319690003991127,-0.00017032469622790813,-0.0011667462531477213
1761468787362141200,3.20314111328125,-0.0001444825902581215,-0.00033757113851606846,-0.002450922504067421
1761468787372123100,3.213123046875,-0.001274599228054285,-0.000869902316480875,-0.0006253125611692667
1761468787382106400,3.2231064453125,-0.0014956416562199593,-0.0020387638360261917,-0.003877831157296896
1761468787392088000,3.233088134765625,0.0012583276256918907,-0.003296684008091688,0.0019392874091863632
1761468787402071300,3.2430712890625,-0.0018956540152430534,-0.0014388628769665956,-0.0024123177863657475
1761468787412054300,3.25305419921875,0.0013299919664859772,-0.0035247320774942636,0.00041153025813400745
1761468787422036200,3.2630361328125,-0.0001970645971596241,-0.0023225811310112476,-0.0000015259720385074615
1761468787432019200,3.273019287109375,0.0005734902806580067,-0.002927721245214343,-0.0025133281014859676
1761468787442002200,3.283002197265625,0.00010983366519212723,-0.0015157132875174284,-0.0008925280999392271
1761468787451984100,3.292984130859375,-0.001949281431734562,-0.0014221752062439919,0.0007128338329494
1761468787461967000,3.302967041015625,-0.0001468542031943798,-0.0004583774134516716,-0.000354561023414135
1761468787471949000,3.312948974609375,-0.000427913386374712,-0.001849696971476078,-0.0004912479780614376
1761468787481932300,3.322932373046875,-0.00009182235226035118,-0.0008661914616823196,-0.0007200136315077543
1761468787491915300,3.332915283203125,0.0009006010368466377,-0.0024517211131751537,-0.0007876327726989985
1761468787501897200,3.342897216796875,0.001903813797980547,-0.004036035388708115,-0.0019165466073900461
1761468787511880200,3.352880126953125,-0.002447259146720171,-0.0005019414238631725,-0.0004423195496201515
1761468787521863200,3.36286328125,0.0008968724869191647,0.0030501829460263252,0.0029279107693582773
1761468787531845000,3.37284521484375,0.0025107492692768574,-0.0012453091330826283,0.00030799186788499355
1761468787541828000,3.382828125,-0.0005438965745270252,0.001748882932588458,0.0010193220805376768
1761468787551810300,3.392810302734375,-0.000049398746341466904,0.00041826791130006313,-0.0002758968621492386
1761468787561793000,3.40279296875,-0.000814258586615324,-0.0021732538007199764,0.00039548613131046295
1761468787571776300,3.4127763671875,-0.0008380557410418987,-0.001640233676880598,0.0017667736392468214
1761468787581758200,3.42275830078125,0.0020589306950569153,-0.0020072171464562416,-0.0016162397805601358
1761468787591741200,3.4327412109375,0.0012849429622292519,-0.002461048774421215,-0.00469322269782424
1761468787601723100,3.44272314453125,0.0015794886276125908,-0.0009281332604587078,0.0032949286978691816
1761468787611706400,3.452706298828125,0.00030399998649954796,-0.0014323336072266102,-0.0023527448065578938
1761468787621689000,3.462689208984375,-0.000763661228120327,-0.0020456595811992884,-0.001448601484298706
1761468787631671300,3.47267138671875,0.00043554138392210007,0.00008392194285988808,0.00010970328003168106
1761468787641654300,3.482654296875,0.0009410092607140541,-0.0037883142940700054,-0.0009012327063828707
1761468787651636200,3.49263623046875,-0.0007122093811631203,0.002483359072357416,0.0018922477029263973
1761468787661619200,3.502619140625,-0.00011246558278799057,0.006724177394062281,0.00038969237357378006
1761468787671602200,3.512602294921875,0.0008757808245718479,-0.00010776915587484837,-0.0026160345878452063
1761468787681584000,3.522584228515625,0.0007625962607562542,-0.002031903015449643,-0.0018405220471322536
1761468787691567000,3.532567138671875,0.0007604304701089859,0.002886248519644141,-0.0008021886460483074
1761468787701550300,3.54255029296875,-0.0015205671079456806,-0.0006464344915002584,-0.0000999129842966795
1761468787711532000,3.552531982421875,0.0008716541342437267,-0.0010265619494020939,0.0014674910344183445
1761468787721515300,3.562515380859375,0.0007629971951246262,0.00095935701392591,-0.0017895547207444906
1761468787731497200,3.572497314453125,-0.0004160893149673939,0.0007976165506988764,-0.002888074144721031
1761468787741480200,3.582480224609375,0.00005289353430271149,0.0004119907971471548,0.0004256970714777708
1761468787751463200,3.592463134765625,0.0007076556794345379,0.003036694135516882,0.000249701552093029
1761468787761445400,3.6024453125,-0.0012369845062494278,-0.001064573647454381,0.0009961856994777918
1761468787771428000,3.612427978515625,-0.0009778207167983055,-0.0004637709353119135,-0.0020045547280460596
1761468787781411000,3.6224111328125,-0.0012111137621104717,0.000770338112488389,-0.0012245147954672575
1761468787791393300,3.632393310546875,-0.0005087633617222309,0.0028455257415771484,-0.00036459718830883503
1761468787801376000,3.6423759765625,0.0005687517113983631,0.0002292362041771412,0.00223864265717566
1761468787811358200,3.652358154296875,-0.00023529073223471642,-0.00007382221519947052,-0.00043804547749459743
1761468787821341200,3.662341064453125,-0.0004297015257179737,0.0001861019991338253,0.0006210936699062586
1761468787831324200,3.67232421875,-0.0030299508944153786,-0.003028108738362789,0.0035124134737998247
1761468787841306000,3.68230615234375,-0.0015276619233191013,-0.002489617560058832,-0.0006309323944151402
1761468787851289300,3.692289306640625,0.001319862436503172,-0.0018606289522722363,-0.000911015784367919
1761468787861271000,3.70227099609375,-0.0023182816803455353,-0.00375094055198133,0.0009587898384779692
1761468787871254300,3.712254150390625,0.000718441791832447,-0.0008740928024053574,-0.00008900859393179417
1761468787881237200,3.7222373046875,0.0008476050570607185,-0.00632105628028512,-0.0012211182620376348
1761468787891219200,3.73221923828125,-0.001980687491595745,-0.001149007584899664,-0.0006416710093617439
1761468787901202200,3.7422021484375,0.0010617077350616455,-0.00348806194961071,0.0007618148811161518
1761468787911185200,3.75218505859375,0.0011236853897571564,-0.005974992178380489,-0.0009708567522466183
1761468787921167000,3.7621669921875,-0.00034664571285247803,-0.0038151685148477554,0.0006470135413110256
1761468787931150000,3.772150146484375,0.00012090196833014488,-0.004987272433936596,-0.0033968465868383646
1761468787941132000,3.782132080078125,-0.0012793880887329578,-0.0033707336988300085,0.0020676935091614723
1761468787951115000,3.792114990234375,-0.0006165211088955402,0.001182930776849389,0.0009769080206751823
1761468787961098200,3.80209814453125,0.0007337015122175217,-0.0020354995504021645,-0.002683074213564396
1761468787971080200,3.812080078125,-0.0017842752858996391,0.002378639532253146,0.0004158185329288244
1761468787981063200,3.822063232421875,-4.898756742477417e-7,0.005050322972238064,-0.0005714152939617634
1761468787991045000,3.832045166015625,0.001699230633676052,0.0017879374790936708,0.0018153497949242592
1761468788001028400,3.8420283203125,-0.0016867122612893581,0.0015458560083061457,-0.0006057301070541143
1761468788011011000,3.852010986328125,0.0019872859120368958,0.0005751992575824261,0.0009444605093449354
1761468788020993300,3.8619931640625,0.00022666994482278824,0.0007797302678227425,-0.0008140248246490955
1761468788030976300,3.871976318359375,-0.0017521027475595474,-0.0007260357961058617,-0.0005187264177948236
1761468788040959200,3.881959228515625,0.0009406195022165775,-0.000933229923248291,0.002303691813722253
1761468788050941200,3.891941162109375,-0.00040740566328167915,-0.0013117501512169838,0.000001755543053150177
1761468788060924400,3.90192431640625,0.0013830377720296383,0.0005548594053834677,-0.0025764505844563246
1761468788070906000,3.911906005859375,-0.000024054665118455887,0.0008947269525378942,0.00036881305277347565
1761468788080889300,3.921889404296875,-0.0012464453466236591,-0.004112548660486937,-0.0006921901367604733
1761468788090872300,3.931872314453125,-0.002175165805965662,-0.004112666938453913,-0.0005635356064885855
1761468788100854300,3.941854248046875,-0.001386337447911501,-0.0031712395139038563,-0.0008405044209212065
1761468788110837200,3.951837158203125,-0.0019617131911218166,-0.0030957304406911135,-0.001816949574276805
1761468788120819200,3.961819091796875,0.0021731106098741293,-0.0024264780804514885,0.0012275760527700186
1761468788130802200,3.97180224609375,-0.0006908080540597439,0.0008737111929804087,0.00009008962661027908
1761468788140785200,3.98178515625,0.0002998877316713333,0.0014082074631005526,0.0001904906239360571
1761468788150767000,3.99176708984375,-0.0008429256267845631,-0.0005506656598299742,0.00043876515701413155
1761468788160750000,4.00175,-0.00017473846673965454,0.001809694105759263,-0.00043768109753727913
1761468788170733300,4.0117333984375,0.0005847029387950897,0.0012258756905794144,-0.00115119107067585
1761468788180715000,4.021715087890625,-0.0003034612163901329,0.0014154929667711258,0.0005343237426131964
1761468788190698200,4.0316982421875,-0.0017507942393422127,0.0019577890634536743,0.001187166664749384
1761468788200680200,4.04168017578125,0.000985603779554367,-0.0007381287869066,-0.0034720334224402905
1761468788210663200,4.0516630859375,-0.002835705876350403,-0.002933443058282137,-0.0006499092560261488
1761468788220646100,4.061646240234375,-0.00040157604962587357,-0.002397881355136633,-0.0008640273008495569
1761468788230628400,4.07162841796875,-0.001256740652024746,0.0024103072937577963,-0.001440864522010088
1761468788240611000,4.081611083984375,0.00015420233830809593,-0.0007900134660303593,0.001379955792799592
1761468788250594000,4.091593994140625,0.0008129989728331566,-0.001468852860853076,0.001208459259942174
1761468788260576300,4.101576171875,0.000041214749217033386,0.0008699351456016302,0.0011354887392371893
1761468788270559000,4.11155908203125,-0.000751604326069355,0.0039036907255649567,0.0021770023740828037
1761468788280541200,4.121541259765625,0.0015877163968980312,-0.0006034430116415024,0.0002083936706185341
1761468788290524200,4.131524169921875,-0.0018371548503637314,-0.0024795476347208023,-0.0008301953785121441
1761468788300507100,4.141507080078125,-0.004120549652725458,-0.0031392124947160482,-0.0026339543983340263
1761468788310489600,4.151489501953125,-0.0000822865404188633,-0.002335494849830866,-0.003758487058803439
1761468788320472800,4.161472900390625,0.00088550616055727,-0.0024960832670331,-0.0014143725857138634
1761468788330454500,4.17145458984375,-0.001573366578668356,-0.005101948045194149,-0.0003417686093598604
1761468788340437800,4.181437744140625,0.0006991089321672916,0.0009157303720712662,0.00004705297760665417
1761468788350420700,4.191420654296875,0.002646464155986905,-0.000630152178928256,-0.000279492000117898
1761468788360402700,4.201402587890625,-0.0010742382146418095,-0.005594816990196705,-0.0008691158145666122
1761468788370385700,4.2113857421875,-0.001138297375291586,0.0030847620218992233,-0.001324398908764124
1761468788380368600,4.22136865234375,-0.0010458859615027905,-0.0016639204695820808,0.0008609909564256668
1761468788390350600,4.2313505859375,-0.0005311509594321251,0.00032287253998219967,-0.0008120483253151178
1761468788400333600,4.24133349609375,-0.0019996180199086666,0.004100566729903221,-0.0007316209375858307
1761468788410315800,4.251315673828125,-0.0008289557881653309,0.0020430812146514654,0.000162533950060606
1761468788420298500,4.261298583984375,0.0008317911997437477,0.0010143022518604994,0.003087750170379877
1761468788430281700,4.27128173828125,-0.0005008676089346409,-0.0031146251130849123,-0.002106070052832365
1761468788440263700,4.281263671875,-0.0015147333033382893,-0.0035878687631338835,-0.0007172315381467342
1761468788450246700,4.29124658203125,0.0029451458249241114,-0.0006049941293895245,-0.00047957058995962143
1761468788460229600,4.301229736328125,0.0012271404266357422,-0.001570656429976225,0.0009862331207841635
1761468788470211800,4.3112119140625,0.00008426280692219734,-0.000011665048077702522,0.00006319675594568253
1761468788480194600,4.321194580078125,-0.0001535573974251747,0.000911919167265296,0.0002855707425624132
1761468788490176800,4.3311767578125,-0.00014017103239893913,0.001521926373243332,0.0007594323251396418
1761468788500159700,4.34115966796875,0.0028478954918682575,-0.0010365727357566357,0.001305913319811225
1761468788510142700,4.351142822265625,-0.00048670871183276176,0.0035916150081902742,0.0016355249099433422
1761468788520124700,4.361124755859375,0.0007055886089801788,0.005090441554784775,0.0015513687394559383
1761468788530107600,4.371107666015625,0.0033163169864565134,0.0029862024821341038,0.0015626659151166677
1761468788540091000,4.3810908203125,-0.0009426102042198181,0.00105328019708395,0.0021315168123692274
1761468788550072600,4.391072509765625,-0.00034485524520277977,-0.0006255004554986954,0.000579093350097537
1761468788560055800,4.401055908203125,0.00009456649422645569,-0.004238078370690346,-0.001771679031662643
1761468788570037500,4.41103759765625,-0.0028355875983834267,-0.0019773675594478846,0.0018745709676295519
1761468788580020700,4.421020751953125,0.0014060293324291706,-0.0017712388653308153,-0.000418943352997303
1761468788590003700,4.431003662109375,-0.0023122350685298443,-0.0016107037663459778,0.0007768196519464254
1761468788599985700,4.440985595703125,-0.0005851746536791325,-0.00105277169495821,-0.0005739356856793165
1761468788609968600,4.45096875,0.00015867268666625023,-0.003388000652194023,-0.0009015887044370174
1761468788619951600,4.46095166015625,-0.002179582603275776,-0.0006710437592118979,-0.003367409575730562
1761468788629933600,4.47093359375,0.002492041327059269,-0.00076669966802001,-0.0002918415702879429
1761468788639916500,4.48091650390625,0.0004970673471689224,-0.0029749928507953882,-0.0014937262749299407
1761468788649898800,4.490898681640625,0.00016620056703686714,-0.0005237676668912172,-0.001895324094220996
1761468788659881500,4.500881591796875,0.0008690087124705315,-0.002075591590255499,-0.0007371152751147747
1761468788669864700,4.51086474609375,-0.0018115644343197346,-0.0014429963193833828,-0.0009054597467184067
1761468788679846700,4.5208466796875,-0.0010839891619980335,0.0015266945119947195,0.0004333113320171833
1761468788689829600,4.53082958984375,0.00025929510593414307,0.003438674146309495,0.0009424658492207527
1761468788699811600,4.5408115234375,-0.0015881401486694813,0.0008138625416904688,-0.0026157835964113474
1761468788709794800,4.550794921875,0.0003873365931212902,0.0036328707356005907,-0.0017800673376768827
1761468788719777500,4.560777587890625,0.002747163875028491,0.0040752217173576355,-0.00037098885513842106
1761468788729759700,4.570759765625,0.00007973657920956612,0.0027782581746578217,-0.0011197598651051521
1761468788739742700,4.58074267578125,0.000662968959659338,0.0017324346117675304,0.0030177270527929068
1761468788749725700,4.5907255859375,0.000048428308218717575,0.0007118228822946548,0.0005036264192312956
1761468788759708700,4.600708740234375,-0.00038753123953938484,-0.0007321431767195463,-0.0017547340830788016
1761468788769691600,4.610691650390625,0.0015449738129973412,-0.00026123179122805595,0.0005236181896179914
1761468788779673600,4.620673583984375,-0.000498735811561346,-0.00503867631778121,0.00041602645069360733
1761468788789656600,4.630656494140625,0.0008942526765167713,0.00020218663848936558,0.0016074737068265676
1761468788799639800,4.640639892578125,0.001557646319270134,-0.00015893788076937199,0.0005504649598151445
1761468788809621500,4.65062158203125,-0.0019977111369371414,-0.0012268186546862125,0.0003897265996783972
1761468788819604700,4.660604736328125,0.0007589268498122692,0.0009005144238471985,0.0006792121566832066
1761468788829586700,4.670586669921875,0.0006494037806987762,-0.0010493574663996696,-0.0005317600443959236
1761468788839569700,4.680569580078125,-0.0010278550907969475,0.0013877011369913816,-0.001053206855431199
1761468788849552600,4.690552734375,0.0019977830816060305,-0.00017388002015650272,0.0014061897527426481
1761468788859534800,4.700534912109375,-0.00013620778918266296,0.0008149517234414816,-0.0004950407892465591
1761468788869517800,4.710517822265625,-0.0000624428503215313,-0.0006784503348171711,-0.001637146808207035
1761468788879500500,4.72050048828125,0.0012552891857922077,-0.0017005715053528547,-0.0005087654571980238
1761468788889482800,4.730482666015625,0.00038152048364281654,-0.0005360699724406004,-0.0005661472678184509
1761468788899465700,4.7404658203125,0.0014278762973845005,0.0005939092952758074,-0.0027755056507885456
1761468788909447700,4.75044775390625,-0.0003651939332485199,0.003555500181391835,-0.00035908794961869717
1761468788919430700,4.7604306640625,0.0008273697458207607,-0.000636315206065774,0.0016140479128807783
1761468788929414000,4.770413818359375,-0.0007069646380841732,0.001053936081007123,0.0002795301843434572
1761468788939395600,4.7803955078125,-0.00048751989379525185,0.0006664458196610212,-0.000019276514649391174
1761468788949378800,4.79037890625,-0.0015123751945793629,-0.0003722338005900383,0.0014333610888570547
1761468788959361800,4.80036181640625,-0.0018183724023401737,0.0005132670048624277,0.0015334959607571363
1761468788969343700,4.81034375,-0.0003336654044687748,0.0005895996000617743,0.003073211992159486
1761468788979326700,4.82032666015625,-0.001884157769382,0.0007744233589619398,-0.00115215964615345
1761468788989308700,4.83030859375,0.0018585268408060074,-0.0024730516597628593,-0.0033550276421010494
1761468788999291600,4.840291748046875,-0.0012890631332993507,-0.002736171707510948,0.0003731315955519676
1761468789009274600,4.850274658203125,-0.0011168685741722584,-0.0036927596665918827,0.0009830077178776264
1761468789019256600,4.860256591796875,0.00020778784528374672,-0.0015534423291683197,0.0011625047773122787
1761468789029239600,4.870239501953125,-0.00018647825345396996,-0.0005061673000454903,-0.0005129813216626644
1761468789039222800,4.880222900390625,0.001398102380335331,-0.0016436034347862005,-0.0006144477520138025
1761468789049204500,4.89020458984375,0.000780927948653698,-0.000489584868773818,0.0007936262991279364
1761468789059187700,4.900187744140625,-0.00105745205655694,0.0012294857297092676,-0.0010412917472422123
1761468789069169700,4.910169677734375,0.001492985524237156,-0.0003980665933340788,0.0012710730079561472
1761468789079152600,4.920152587890625,-0.0008077193051576614,0.0008986264001578093,-0.00039233756251633167
1761468789089135600,4.930135498046875,-0.00014815619215369225,0.0021514485124498606,-0.001945772673934698
1761468789099117800,4.940117919921875,0.00256746937520802,0.0017841982189565897,-0.00012683379463851452
1761468789109100500,4.9501005859375,0.0018584858626127243,-0.0012058964930474758,-0.00018258416093885899
1761468789119082800,4.960082763671875,-0.0007815053686499596,0.000581617234274745,-0.0023285592906177044
1761468789129065700,4.970065673828125,0.0015135891735553741,0.0019243871793150902,0.003544360166415572
1761468789139048700,4.980048583984375,-0.0020427959971129894,0.00013128062710165977,0.00279468041844666
1761468789149030700,4.99003076171875,-0.00043729692697525024,0.0020562501158565283,0.0014869433362036943
1761468789159013600,5.000013671875,-0.00020347163081169128,0.0025321568828076124,0.0009354029316455126
1761468789168996600,5.00999658203125,-0.0042522805742919445,-0.0019109254935756326,0.0009423301089555025
1761468789178978600,5.019978515625,-0.001505496446043253,-0.0003263447433710098,-0.0004169472958892584
1761468789188961800,5.0299619140625,-0.0018138126470148563,-0.0028783618472516537,-0.00232298974879086
1761468789198943500,5.039943603515625,0.0006839660927653313,-0.0017377298790961504,-0.001852409215644002
1761468789208926700,5.0499267578125,0.0004477766342461109,-0.002681687008589506,-0.00009941286407411098
1761468789218909700,5.05990966796875,-0.002526175696402788,-0.0002656674478203058,0.00012402632273733616
1761468789228891600,5.0698916015625,0.00008656783029437065,-0.0014766862150281668,-0.00047130370512604713
1761468789238874600,5.07987451171875,-0.00010278308764100075,0.000581138301640749,-0.0011655897833406925
1761468789248857900,5.08985791015625,0.00032031629234552383,-0.002888163784518838,0.0010582678951323032
1761468789258839600,5.099839599609375,0.0007418948225677013,0.0013790193479508162,-0.003343138610944152
1761468789268822800,5.10982275390625,0.0001865234225988388,0.00042924657464027405,-0.0005610401276499033
1761468789278804700,5.1198046875,-0.0005130888894200325,-0.0008248358499258757,-0.0005748886615037918
1761468789288787700,5.12978759765625,0.0016789953224360943,-0.000861454987898469,-0.00022986996918916702
1761468789298770700,5.139770751953125,-0.00027043838053941727,0.0015969087835401297,-0.0008682296611368656
1761468789308753000,5.1497529296875,-0.0004618791863322258,0.0016260112170130014,-0.0015775503125041723
1761468789318736100,5.159736083984375,-0.002008643001317978,-0.0008848172146826982,-0.00472940132021904
1761468789328718800,5.16971875,-0.0031567001715302467,0.0025345305912196636,0.0020920499227941036
1761468789338701000,5.179701171875,-0.0006067235954105854,-0.003509779926389456,-0.0019112138543277979
1761468789348684000,5.18968408203125,-0.0008079507388174534,-0.000662897014990449,-0.0017459846567362547
1761468789358666000,5.199666015625,-0.001681733876466751,0.0007041033823043108,-0.0009603521320968866
1761468789368649000,5.20964892578125,0.00015784287825226784,0.00015050708316266537,-0.0006504289340227842
1761468789378632200,5.219632080078125,-0.00027092592790722847,0.0019401514437049627,0.00233044708147645
1761468789388614000,5.22961376953125,0.0028328995686024427,-0.0005643982440233231,0.0013188242446631193
1761468789398597000,5.23959716796875,-0.0006877994164824486,-0.000460535055026412,-0.0007328749634325504
1761468789408580000,5.249580078125,-0.0010840417817234993,0.0007740582805126905,-0.00226538791321218
1761468789418562000,5.25956201171875,0.0010872334241867065,-0.0007319594733417034,0.0007538378704339266
1761468789428545000,5.269544921875,-0.0006873044185340405,0.0017299335449934006,0.0013429711107164621
1761468789438527000,5.27952685546875,0.0009265709668397903,-0.0005129808560013771,0.0013192689511924982
1761468789448510000,5.289510009765625,-0.0010361415334045887,-0.0011571249924600124,0.001471048453822732
1761468789458493000,5.299492919921875,0.001706381794065237,0.0004002912901341915,-0.0015284697292372584
1761468789468475000,5.309474853515625,0.0006829933263361454,0.0013140905648469925,-0.0007580481469631195
1761468789478457900,5.319457763671875,-0.0010595130734145641,0.0011343271471560001,0.0005500966217368841
1761468789488441000,5.329441162109375,-0.00163306575268507,0.0038166942540556192,-0.0013660762924700975
1761468789498422800,5.3394228515625,0.0002702958881855011,-0.0006994940340518951,0.0007223745342344046
1761468789508406000,5.349406005859375,0.0014686924405395985,-0.002974201925098896,0.0004178406670689583
1761468789518388000,5.359387939453125,0.0005994369275867939,-0.003629872342571616,-0.0002801737282425165
1761468789528371200,5.36937109375,-0.0009219958446919918,-0.0015543268527835608,-0.0017246102215722203
1761468789538354000,5.37935400390625,-0.00009401887655258179,0.0010872625280171633,-0.0010119483340531588
1761468789548336000,5.389336181640625,0.000652075745165348,0.00032916897907853127,0.000697326147928834
1761468789558319000,5.399319091796875,-0.0009934911504387856,0.0040831612423062325,-0.0022499943152070045
1761468789568301800,5.4093017578125,-0.0005846321582794189,-0.00013467343524098396,0.002303996356204152
1761468789578284000,5.419283935546875,0.0007461495697498322,0.0021066428162157536,-0.003416473511606455
1761468789588267000,5.42926708984375,0.0018410044722259045,-0.0019856588914990425,0.0012056741397827864
1761468789598249000,5.4392490234375,0.0018239603377878666,0.004065043292939663,0.0014067429583519697
1761468789608232000,5.44923193359375,0.0024044793099164963,-0.00020084739662706852,0.0017367680557072163
1761468789618215200,5.459215087890625,-0.002829164732247591,-0.00033001066185534,-0.0005761873908340931
1761468789628196900,5.46919677734375,0.0008018435910344124,-0.0019544996321201324,0.0012175608426332474
1761468789638180000,5.47918017578125,0.0006119599565863609,0.00019493745639920235,-0.001071958802640438
1761468789648163000,5.4891630859375,-0.0011635548435151577,-0.000695499125868082,0.002555655315518379
1761468789658145000,5.49914501953125,-0.0008319909684360027,0.0034680869430303574,-0.0018968837102875113
1761468789668128000,5.5091279296875,-0.0007720282301306725,-0.003636264940723777,0.0017402756493538618
1761468789678110000,5.51910986328125,0.0009225411340594292,-0.0021355734206736088,0.00002120528370141983
1761468789688093000,5.529093017578125,-0.0009131473489105701,-0.0007608707528561354,0.0029985657893121243
1761468789698076000,5.539075927734375,0.000899133738130331,0.005831518210470676,0.0012898817658424377
1761468789708057900,5.549057861328125,-0.0008910065516829491,-0.0002097326796501875,0.0021728957071900368
1761468789718040800,5.559040771484375,0.0011311317794024944,0.002725869882851839,-0.001561388955451548
1761468789728024000,5.569024169921875,-0.00032661715522408485,-0.0021363848354667425,0.0007464801892638206
1761468789738005800,5.579005859375,-0.00017774617299437523,0.0017558247782289982,-0.00129616423510015
1761468789747989000,5.588989013671875,-0.00037804851308465004,-0.00026178197003901005,0.00005922955460846424
1761468789757972000,5.598971923828125,0.000684819184243679,-0.000955269206315279,-0.0022811563685536385
1761468789767954000,5.608953857421875,-0.0005293823778629303,-0.0004399972967803478,0.002669542795047164
1761468789777937000,5.61893701171875,-0.0004385686479508877,-0.001889289589598775,-0.0007118729408830404
1761468789787919000,5.628919189453125,0.0006936169229447842,-0.0028734994120895863,0.0006182328797876835
1761468789797901800,5.63890185546875,0.0012291786260902882,0.0005864794366061687,0.00007335003465414047
1761468789807885000,5.648885009765625,0.0008792593143880367,-0.0010701999999582767,0.0009662173688411713
1761468789817867000,5.658866943359375,0.00001852540299296379,0.0013082693330943584,-0.00003459863364696503
1761468789827850000,5.66885009765625,0.0006503099575638771,0.0012026932090520859,0.002318168757483363
1761468789837833000,5.6788330078125,-0.00024717533960938454,-0.00021464098244905472,-0.0016406201757490635
1761468789847815000,5.68881494140625,0.0004024025984108448,0.0009772870689630508,-0.001406808733008802
1761468789857798000,5.6987978515625,0.0015965639613568783,-0.00025415862910449505,0.00030906591564416885
1761468789867780000,5.708780029296875,-0.0014771097339689732,-0.003546183230355382,0.0003795337397605181
1761468789877763000,5.71876318359375,0.0010880469344556332,0.0020288783125579357,-0.0009930594824254513
1761468789887746000,5.72874609375,-0.001495386939495802,-0.0010032029822468758,0.002157578943297267
1761468789897728000,5.73872802734375,0.0005682967603206635,-0.001065520802512765,-0.003060086164623499
1761468789907711000,5.7487109375,0.00048263929784297943,0.0005954857915639877,-0.00044102431274950504
1761468789917694200,5.758694091796875,-0.0012910258956253529,-0.00013155722990632057,-0.0007579403463751078
1761468789927676000,5.768676025390625,0.001935665961354971,-0.0029078987427055836,-0.0006444689352065325
1761468789937659100,5.7786591796875,-0.0017259139567613602,-0.0008522048592567444,-0.0016018754104152322
1761468789947640800,5.788640869140625,-0.001160651445388794,0.0007584672421216965,0.0005046501755714417
1761468789957624000,5.7986240234375,-0.0005348087288439274,0.0009587369859218597,-0.0008397134952247143
1761468789967607000,5.80860693359375,-0.0004907608963549137,0.0007443418726325035,0.00012604077346622944
1761468789977589000,5.818589111328125,-0.0024652290157973766,0.00045991595834493637,-0.0012151270639151335
1761468789987572000,5.828572021484375,0.0008683972992002964,-0.00253269262611866,-0.001384534640237689
1761468789997555000,5.838554931640625,-0.0017729257233440876,-0.0033343040850013494,-0.0007869212422519922
1761468790007537000,5.848536865234375,0.0004574684426188469,-0.0014843866229057312,0.000363044673576951
1761468790017519900,5.858519775390625,0.002783473115414381,0.0013641302939504385,-0.0019171539461240172
1761468790027502000,5.868502197265625,-0.0014965776354074478,0.0008356454782187939,-0.0016507715918123722
1761468790037484800,5.87848486328125,-0.0017836662009358406,-0.001540160272270441,0.000052053481340408325
1761468790047468000,5.888468017578125,0.00007435213774442673,0.002022074768319726,-0.0010033827275037766
1761468790057450000,5.898449951171875,0.001372643280774355,-0.002079992089420557,0.00014603743329644203
1761468790067433000,5.908432861328125,-0.0007284809835255146,-0.00015084724873304367,0.0008537974208593369
1761468790077416000,5.918416015625,0.0024611870758235455,-0.0011788273695856333,-0.0011283934582024813
1761468790087398100,5.928398193359375,-0.0009675328619778156,0.001610931707546115,0.00042024883441627026
1761468790097380900,5.938380859375,-0.0013531586155295372,-0.00014702090993523598,-0.00010359496809542179
1761468790107363000,5.948363037109375,-0.0016408138908445835,-0.0012300328817218542,-0.0003861677832901478
1761468790117346000,5.958345947265625,-0.0019036680459976196,-0.001538693206384778,-0.0019896570593118668
1761468790127328800,5.968328857421875,-0.00040742382407188416,-0.0005864189006388187,-0.0004289874341338873
1761468790137311000,5.97831103515625,-0.0001421729102730751,-0.0028245393186807632,-0.0001943628303706646
1761468790147294000,5.9882939453125,0.0025940174236893654,-0.000040084123611450195,-0.001292128232307732
1761468790157277000,5.99827685546875,0.0007849321700632572,-0.0030039160046726465,-0.0013262166175991297
1761468790167259000,6.0082587890625,-0.0017256289720535278,0.002432769862934947,0.000599690480157733
1761468790177242000,6.0182421875,-0.0005120267160236835,0.001105716684833169,0.000481446273624897
1761468790187223800,6.028223876953125,0.0005285940133035183,-0.0019802208989858627,-0.0014834594912827015
1761468790197207000,6.03820703125,0.001690531149506569,0.0012858796399086714,-0.00109810009598732
1761468790207190000,6.04818994140625,-0.0008268924430012703,-0.0008353176526725292,-0.002320551546290517
1761468790217172000,6.058171875,-0.0012330245226621628,0.0006382090505212545,0.0004957413766533136
1761468790227155000,6.068155029296875,0.0019195349887013435,0.0013908941764384508,-0.0011337192263454199
1761468790237138000,6.078137939453125,0.00027822889387607574,-0.0005737198516726494,0.0020112073980271816
1761468790247120000,6.088119873046875,-0.002159383613616228,-0.0009287439752370119,-0.001277082716114819
1761468790257102800,6.098102783203125,0.002224445343017578,0.0010220215190201998,0.00024411478079855442
1761468790267085000,6.1080849609375,-0.0014715190045535564,-0.00014562229625880718,-0.0007654346991330385
1761468790277067800,6.11806787109375,-0.00007975101470947266,-0.0008851820603013039,0.0004849194083362818
1761468790287051000,6.128051025390625,0.0006001535803079605,0.0010407916270196438,0.00033505354076623917
1761468790297033000,6.138032958984375,0.0009836489334702492,-0.002257799729704857,0.0011569049675017595
1761468790307016000,6.148015869140625,-0.0007631415501236916,-0.0011102084536105394,0.0013961647637188435
1761468790316999200,6.157999267578125,-0.0009759282693266869,-0.0017083545681089163,-0.0006270387675613165
1761468790326981000,6.167981201171875,0.0010097199119627476,-0.0020418839994817972,0.0016905015800148249
1761468790336964000,6.177964111328125,0.000341266393661499,-0.00153188849799335,0.000565848546102643
1761468790346947000,6.187947021484375,0.00044360430911183357,0.0008922258857637644,-0.0010642779525369406
1761468790356929300,6.19792919921875,-0.0003502839244902134,-0.0021925135515630245,0.00023774150758981705
1761468790366912000,6.207912109375,-0.0005819657817482948,-0.00011345348320901394,0.0007330644875764847
1761468790376894200,6.217894287109375,0.0005474807694554329,-0.002384064719080925,-0.0007484520319849253
1761468790386877200,6.227877197265625,0.0004136189818382263,-0.0008075304795056581,0.002315353835001588
1761468790396860200,6.237860107421875,-0.0012082462199032307,0.001950705423951149,-0.0010852364357560873
1761468790406842000,6.247842041015625,-0.00145639106631279,0.004618988372385502,0.0016102558001875877
1761468790416825300,6.257825439453125,0.0006413809023797512,0.004614727571606636,0.0009165024384856224
1761468790426808000,6.26780810546875,0.0005508712492883205,0.002583480440080166,0.00011569308117032051
1761468790436790300,6.277790283203125,-0.002730409149080515,0.0019373977556824684,-0.0007173437625169754
1761468790446773200,6.287773193359375,-0.00185445137321949,-0.00015379441902041435,-0.00040574721060693264
1761468790456755200,6.297755126953125,0.0005112346261739731,-0.0004725747276097536,-0.0009945719502866268
1761468790466738200,6.30773828125,0.0006107133813202381,-0.0029903268441557884,-0.0006771862972527742
1761468790476721400,6.317721435546875,0.0023782532662153244,-0.006416217423975468,-0.00041113654151558876
1761468790486703000,6.327703125,-0.00014944886788725853,-0.0019385636551305652,0.0008430695161223412
1761468790496686300,6.337686279296875,0.0017339386977255344,-0.002886648988351226,0.0026044840924441814
1761468790506669300,6.34766943359375,0.0019073414150625467,-0.006369533017277718,-0.001105504110455513
1761468790516651300,6.3576513671875,-0.0000953557901084423,-0.0030507014598697424,-0.00021387776359915733
1761468790526634200,6.36763427734375,0.00046852463856339455,-0.0052467696368694305,-0.0020493678748607635
1761468790536616200,6.3776162109375,-0.0008217771537601948,0.001041486393660307,-0.0001601213589310646
1761468790546599200,6.38759912109375,-0.0009685722179710865,0.0012843920849263668,0.0017522668931633234
1761468790556582100,6.39758203125,-0.0006226277910172939,0.0031824270263314247,0.0035640152636915445
1761468790566564000,6.407564208984375,-0.001507928129285574,0.0036518655251711607,0.0010193467605859041
1761468790576547000,6.417547119140625,0.0005522929131984711,0.0033794238697737455,0.0002459646202623844
1761468790586530300,6.4275302734375,0.0017217108979821205,0.005276859737932682,0.0008179687429219484
1761468790596512000,6.437511962890625,5.098991096019745e-7,0.00196175673045218,0.0012259648647159338
1761468790606495200,6.4474951171875,0.0001963428221642971,-0.0018892489606514573,-0.0023093302734196186
1761468790616477200,6.457477294921875,0.000010454095900058746,0.0016615437343716621,0.0018361464608460665
1761468790626460200,6.467460205078125,-0.0007425565272569656,-0.0023585930466651917,-0.0008722501806914806
1761468790636443100,6.477443115234375,0.0007280413992702961,-0.0026635248214006424,-0.0025231437757611275
1761468790646425300,6.48742529296875,-0.0004896032623946667,-0.0024542519822716713,-0.0009825406596064568
1761468790656408000,6.497407958984375,-0.00010344479233026505,-0.0042641363106667995,0.0008566384203732014
1761468790666391000,6.50739111328125,0.0028219474479556084,-0.0031189285218715668,-0.00012812879867851734
1761468790676373200,6.517373291015625,-0.00006225612014532089,-0.002269380260258913,-0.00007593072950839996
1761468790686356000,6.52735595703125,0.0007349094375967979,0.0008261813782155514,-0.00012636790052056313
1761468790696338200,6.537338134765625,0.0026284169871360064,0.001971340738236904,-0.0022254716604948044
1761468790706321200,6.547321044921875,-0.0006866501644253731,0.0011069998145103455,-0.000520989065989852
1761468790716304400,6.557304443359375,0.0000909930095076561,0.0011173863895237446,0.0002835518680512905
1761468790726286000,6.5672861328125,0.00012837257236242294,0.0011280630715191364,-0.0007596623618155718
1761468790736269300,6.577269287109375,0.0003560725599527359,0.0007861130870878696,0.0008773824665695429
1761468790746252300,6.587252197265625,0.00024952320381999016,0.0004721512086689472,0.0014716153964400291
1761468790756234200,6.597234130859375,-0.00041120685636997223,-0.0003646139521151781,-0.000492465915158391
1761468790766217200,6.60721728515625,-0.0020929560996592045,-0.002586320973932743,0.00036102766171097755
1761468790776200200,6.6172001953125,-0.0012836214154958725,-0.0006685785483568907,0.000639328034594655
1761468790786182100,6.62718212890625,-0.0011585480533540249,0.00007371907122433186,0.0016470153350383043
1761468790796165000,6.6371650390625,-0.00000779610127210617,0.000707551371306181,-0.00012611737474799156
1761468790806147000,6.64714697265625,0.0002633598633110523,-0.0011959329713135958,-0.002267427509650588
1761468790816130000,6.657130126953125,-0.0006272010505199432,-0.002478244947269559,-0.0018873944645747542
1761468790826113300,6.66711328125,0.0012524435296654701,-0.0020520174875855446,0.0009145268704742193
1761468790836095000,6.677094970703125,-0.0010107108391821384,-0.003089318750426173,0.00153584242798388
1761468790846078200,6.687078125,-0.0000292300246655941,0.002058555604889989,-0.00010452466085553169
1761468790856061200,6.697061279296875,0.0013952949084341526,-0.0004512073937803507,0.0006092025432735682
1761468790866043100,6.707043212890625,-0.001760093029588461,-0.0040954770520329475,-0.0009683663956820965
1761468790876026000,6.717026123046875,0.000050057657063007355,-0.004034224431961775,0.003652217797935009
1761468790886008300,6.72700830078125,0.000025084707885980606,0.0013210037723183632,0.0003947278019040823
1761468790895991000,6.736990966796875,-0.0009347186423838139,0.00211382657289505,0.00032362155616283417
1761468790905974300,6.746974365234375,0.0008327295072376728,0.003523903666064143,-0.000293482793495059
1761468790915956200,6.756956298828125,0.00006627198308706284,0.0017489066813141108,0.0014423655811697245
1761468790925939200,6.766939208984375,0.00039617717266082764,0.0007252958603203297,0.0022066321689635515
1761468790935922200,6.776922119140625,-0.0009681601077318192,-0.00009256089106202126,-0.001417397172190249
1761468790945904000,6.786904052734375,-0.0013265106827020645,-0.0041382513009011745,0.0007184466812759638
1761468790955887000,6.79688720703125,-0.0008258363232016563,-0.004742789082229137,-0.00002510775811970234
1761468790965869300,6.806869384765625,-0.0003842026926577091,-0.0036686735693365335,-0.00005853408947587013
1761468790975852300,6.816852294921875,0.000128189567476511,0.0006499085575342178,-0.000025777379050850868
1761468790985835000,6.8268349609375,0.0028129182755947113,0.002521553309634328,0.0027358790393918753
1761468790995817200,6.836817138671875,0.0006126146763563156,0.0020139545667916536,0.0010607505682855844
1761468791005800200,6.84680029296875,-0.001524433959275484,0.0041831922717392445,0.0009031747467815876
1761468791015783200,6.856783203125,0.0006452435627579689,0.0024231085553765297,-0.000903779873624444
1761468791025765000,6.86676513671875,-0.0004940228536725044,-0.0014271654654294252,0.0005271723493933678
1761468791035748400,6.876748291015625,-0.0005856356583535671,0.0029681154992431402,-0.0002917496021836996
1761468791045731000,6.88673095703125,-0.000333364587277174,0.0001505659893155098,-0.0006173788569867611
1761468791055713300,6.89671337890625,-0.0018809274770319462,-0.002566923853009939,-0.0008655854035168886
1761468791065696300,6.9066962890625,0.0009226580150425434,0.00009370106272399426,0.0017799078486859798
1761468791075678200,6.91667822265625,-0.00035778991878032684,-0.0025899664033204317,-0.0012619546614587307
1761468791085661200,6.9266611328125,-0.000626993365585804,0.0007697257678955793,0.0007704452145844698
1761468791095644200,6.93664404296875,0.00014212727546691895,-0.0007480096537619829,0.0006114544812589884
1761468791105626000,6.946626220703125,-0.0001823115162551403,-0.0006564860232174397,-0.0008361877407878637
1761468791115609000,6.956609130859375,-0.001040648203343153,0.002004810608923435,0.0010285577736794949
1761468791125592300,6.96659228515625,0.001015782356262207,-0.0019499458139762282,0.0014125967863947153
1761468791135574000,6.976573974609375,-0.00031792838126420975,-0.00023540272377431393,0.0012525406200438738
1761468791145557200,6.98655712890625,0.0005336832255125046,-0.0012290759477764368,-0.0002729687839746475
1761468791155539200,6.996539306640625,0.000662313774228096,0.0001765405759215355,-0.000925975851714611
1761468791165522200,7.006522216796875,0.0006740405224263668,-0.00011313706636428833,-0.0011134680826216936
1761468791175505200,7.016505126953125,0.000045268330723047256,0.005283226724714041,0.0016844491474330425
1761468791185487400,7.0264873046875,0.0011184425093233585,0.0013150011654943228,0.000021709129214286804
1761468791195470000,7.036469970703125,-0.0004927697591483593,-0.002090915571898222,-0.0006672507151961327
1761468791205453000,7.046453125,0.00019958708435297012,-0.0022912665735930204,-0.0014108597533777356
1761468791215435300,7.056435302734375,-0.0023754234425723553,0.0026502287946641445,0.0015516404528170824
1761468791225418000,7.06641796875,0.0008507557213306427,0.0004543440882116556,0.0007974035106599331
1761468791235401200,7.076401123046875,0.0037176485639065504,0.0013736675027757883,0.000040533021092414856
1761468791245383200,7.086383056640625,0.0008305651135742664,-0.000853618374094367,-0.00018083001486957073
1761468791255366100,7.0963662109375,-0.00028929393738508224,0.0013373640831559896,0.0004703130107372999
1761468791265348000,7.10634814453125,-0.0017959829419851303,-0.0008823731914162636,0.001080426387488842
1761468791275331300,7.116331298828125,-0.0010228673927485943,-0.002868558745831251,0.0015986775979399681
1761468791285314000,7.12631396484375,0.00021250220015645027,-0.0013149043079465628,0.0015527226496487856
1761468791295296300,7.136296142578125,-0.0002239895984530449,0.0012712916359305382,0.0017500629182904959
1761468791305279200,7.146279296875,-0.0007052645087242126,0.0010540836956351995,-0.0005062671843916178
1761468791315262000,7.156261962890625,0.0018596258014440536,0.00018988759256899357,-0.0019571573939174414
1761468791325244000,7.166243896484375,-0.0018523815087974072,-0.00076464400626719,0.002329639159142971
1761468791335227000,7.176226806640625,-0.0013074986636638641,-0.00007461896166205406,0.0004467843100428581
1761468791345208800,7.186208740234375,-0.00042925914749503136,-0.0005895267240703106,-0.0011723893694579601
1761468791355192000,7.196192138671875,-0.00008837459608912468,-0.0011400021612644196,0.0006904918700456619
1761468791365174800,7.2061748046875,-0.00003485102206468582,-0.002904084511101246,0.00011567003093659878
1761468791375157000,7.216156982421875,-0.00276752095669508,-0.0003865982871502638,-0.002424186561256647
1761468791385140000,7.226139892578125,-0.0006407657638192177,0.0013856736477464437,0.0002886212896555662
1761468791395122700,7.236122802734375,-0.000598155427724123,0.0008301383350044489,0.000600211089476943
1761468791405105000,7.24610498046875,-0.0030421512201428413,-0.0024120754096657038,0.0006245470140129328
1761468791415087900,7.256087890625,0.000609841663390398,0.0018844022415578365,0.0036443050485104322
1761468791425070800,7.26607080078125,0.001753577496856451,-0.0017662823665887117,-0.0008487883023917675
1761468791435052800,7.276052734375,0.0005370457656681538,-0.00027171638794243336,0.001190926879644394
1761468791445036000,7.2860361328125,-0.001065101008862257,0.0018645229283720255,0.002561192726716399
1761468791455017700,7.296017822265625,0.00017140479758381844,0.0009337479714304209,0.00040989136323332787
1761468791465001000,7.3060009765625,-0.0006201840005815029,0.002929769456386566,-0.0009617141913622618
1761468791474984000,7.31598388671875,-0.00047184573486447334,-0.0016647158190608025,-0.00014838483184576035
1761468791484966000,7.3259658203125,-0.0005244025960564613,0.0011454001069068909,-0.0010166976135224104
1761468791494948900,7.335948974609375,0.0007666982710361481,-0.0012658259365707636,0.00040969159454107285
1761468791504931800,7.345931884765625,0.0007069832645356655,0.0006872978992760181,0.000816588755697012
1761468791514913800,7.355913818359375,-0.000546034425497055,0.0009858384728431702,-0.00013921968638896942
1761468791524896800,7.365896728515625,0.0007044156081974506,-0.003700494533404708,0.0015945176128298044
1761468791534879000,7.37587890625,0.00020480621606111526,-0.0005550349596887827,0.0024360765237361193
1761468791544861700,7.38586181640625,-0.0006030970253050327,-0.0018110410310328007,0.0007984093390405178
1761468791554845000,7.395844970703125,0.0014299601316452026,-0.00443931482732296,-0.00272335484623909
1761468791564827000,7.405826904296875,-0.0028806240297853947,-0.00012546381913125515,0.0010754975955933332
1761468791574809900,7.415809814453125,0.002477123402059078,0.0016505983658134937,-0.0007679425179958344
1761468791584792800,7.425792724609375,0.002161520067602396,0.001092888182029128,-0.0008619243744760752
1761468791594775000,7.435775146484375,-0.0012188302353024483,-0.0008152665104717016,-0.00020944979041814804
1761468791604757800,7.4457578125,0.000536672305315733,0.004109677392989397,-0.0004608465824276209
1761468791614740700,7.45574072265625,0.0004999204538762569,0.0013048360124230385,0.00025421218015253544
1761468791624723000,7.465722900390625,-0.0002352292649447918,0.0011939755640923977,0.0002586490008980036
1761468791634705700,7.47570556640625,0.0015890360809862614,-0.0040809474885463715,-0.0009035544935613871
1761468791644688000,7.48568798828125,0.0010778335854411125,0.0013645621947944164,0.001819848781451583
1761468791654670800,7.4956708984375,-0.0010494994930922985,-0.0014514641370624304,0.0012483347672969103
1761468791664653800,7.50565380859375,0.000733034685254097,-0.003874346846714616,-0.0009906929917633533
1761468791674635800,7.5156357421875,0.0009490172378718853,-0.001429298659786582,0.0019385176710784435
1761468791684619000,7.525618896484375,0.0001969197764992714,-0.0030532872769981623,-0.0012662401422858238
1761468791694601700,7.535601806640625,-0.0001562153920531273,-0.002763002645224333,0.00016227946616709232
1761468791704584000,7.545583984375,-0.0008720885962247849,-0.0029940889216959476,0.0009051898960024118
1761468791714567000,7.55556689453125,-0.002128301654011011,-0.0028542731888592243,0.00048520928248763084
1761468791724548900,7.565548828125,0.0021562424954026937,-0.0024196517188102007,0.0008286165539175272
1761468791734531800,7.57553173828125,-0.0008549937047064304,-0.0018025971949100494,0.0013982669916003942
1761468791744514800,7.585514892578125,0.0007736110128462315,0.0017476074863225222,0.0005455061327666044
1761468791754496800,7.595496826171875,-0.0009435955435037613,0.00006741913966834545,-0.0009892736561596394
1761468791764480000,7.60547998046875,-0.00016277143731713295,-0.00039547868072986603,0.0011639008298516273
1761468791774463000,7.615462890625,0.0005357759073376656,0.0021505034528672695,0.0021908157505095005
1761468791784445000,7.62544482421875,-0.004475935362279415,0.001210285583510995,-0.0016292303334921598
1761468791794428000,7.635427978515625,-0.0005858559161424637,-0.0014291733969002962,0.00021394342184066772
1761468791804411000,7.645410888671875,0.0017168433405458927,0.0022187773138284683,0.002630828879773617
1761468791814392800,7.655392822265625,0.000894459430128336,0.001735946163535118,-0.0006613710429519415
1761468791824375800,7.665375732421875,0.0017105783335864544,-0.00020819064229726791,0.00019279075786471367
1761468791834357800,7.675357666015625,-0.0012535196729004383,-0.00015572644770145416,0.00027694646269083023
1761468791844340700,7.6853408203125,-0.0011579408310353756,-0.0007857801392674446,-0.0009195338934659958
1761468791854324000,7.695323974609375,0.0025417222641408443,-0.00024515832774341106,0.0026477703358978033
1761468791864305700,7.7053056640625,-0.0008129100315272808,0.0013712553773075342,0.0006399464327841997
1761468791874289000,7.715288818359375,-0.0015082615427672863,0.0004934777971357107,0.001107863849028945
1761468791884271900,7.72527197265625,0.00066020293161273,-0.0010529987048357725,-0.0006489187944680452
1761468791894254000,7.735254150390625,0.0004032077267765999,0.0002740544732660055,-0.00015357066877186298
1761468791904236800,7.74523681640625,0.00010683294385671616,0.0005201287567615509,-0.0017662501195445657
1761468791914219000,7.755218994140625,-0.00047773122787475586,0.0030362834222614765,0.0014753493014723063
1761468791924202000,7.765201904296875,-0.0029372237622737885,0.0013118747156113386,-0.0010560916271060705
1761468791934184700,7.775184814453125,0.001920914277434349,-0.0017193350940942764,-0.00028856866993010044
1761468791944167000,7.7851669921875,0.000411241315305233,-0.0010160496458411217,0.0008985870517790318
1761468791954150000,7.79514990234375,-0.0006239293143153191,-0.0003262909594923258,0.0006927244830876589
1761468791964132900,7.8051328125,0.0000379965640604496,-0.00029310607351362705,-0.0023999738041311502
1761468791974114800,7.81511474609375,0.00005610613152384758,0.0006896003615111113,-0.00018768594600260258
1761468791984098000,7.82509814453125,-0.0008891234174370766,0.00026721274480223656,-0.002416227012872696
1761468791994080800,7.835080810546875,0.0018691127188503742,0.0005175499245524406,-0.0008960945997387171
1761468792004063000,7.84506298828125,-0.003287825733423233,0.0018081932794302702,-0.0014622865710407495
1761468792014046000,7.8550458984375,0.00019425712525844574,-0.0018067813944071531,0.00019659637473523617
1761468792024028000,7.86502783203125,-0.002019936218857765,-0.001198955811560154,-0.0011753260623663664
1761468792034011000,7.875010986328125,-0.0014747870154678822,0.0009089363738894463,-0.0003707851283252239
1761468792043993900,7.884993896484375,-0.0003926302306354046,-0.001704605296254158,0.002387924585491419
1761468792053975800,7.894975830078125,-0.0014437800273299217,-0.0010542613454163074,-0.0012875038664788008
1761468792063958800,7.904958740234375,-0.0018496504053473473,-0.0003070365637540817,-0.0008008044678717852
1761468792073942000,7.91494189453125,0.0004798164591193199,0.0015308111906051636,-0.00003301515243947506
1761468792083923700,7.924923828125,-0.0014841770753264427,0.0014154317323118448,0.00031495257280766964
1761468792093907000,7.934906982421875,0.0009547458030283451,0.001918502850458026,0.0007210844196379185
1761468792103890000,7.944889892578125,0.002058371901512146,-0.0015759493689984083,0.00022323476150631905
1761468792113872000,7.954871826171875,-0.0009355535730719566,0.0017229083459824324,0.0024741385132074356
1761468792123854800,7.964854736328125,0.0030373414047062397,0.001049704384058714,-0.0003547859378159046
1761468792133836800,7.9748369140625,0.00005886191502213478,-0.0003085080534219742,-0.0011430815793573856
1761468792143819800,7.98481982421875,-0.00011259783059358597,-0.0019290198106318712,0.0026265718042850494
1761468792153802800,7.994802734375,-0.000118989497423172,0.0005272137932479382,-0.0017431429587304592
1761468792163784700,8.00478466796875,-0.000570633914321661,0.00027240440249443054,-0.001669674413278699
1761468792173767000,8.014766845703125,0.000015527941286563873,-0.0016820894088596106,0.0034925967920571566
1761468792183750000,8.02475,-0.0013842754997313023,-0.0005322862416505814,0.0004922780208289623
1761468792193731800,8.03473193359375,-0.0008801394142210484,0.00008743139915168285,0.00011730496771633625
1761468792203714800,8.04471484375,0.0004795026034116745,-0.000009438488632440567,0.0026163412258028984
1761468792213697800,8.05469775390625,-0.0007173218764364719,-0.0019229197641834617,0.0013095280155539513
1761468792223679700,8.0646796875,0.0014810371212661266,-0.0006473069079220295,0.0005656101275235415
1761468792233662700,8.074662841796876,0.00082403514534235,-0.0016369377262890339,0.00008171377703547478
1761468792243646000,8.08464599609375,-0.0009897388517856598,-0.0029754391871392727,0.0005223643966019154
1761468792253628000,8.0946279296875,-0.0026097395457327366,0.00041130254976451397,0.0009788302704691887
1761468792263611000,8.10461083984375,0.00018372200429439545,-0.00007786508649587631,-0.00008755223825573921
1761468792273592800,8.1145927734375,-0.0019571930170059204,0.0014606430195271969,0.001263202866539359
1761468792283575800,8.124575927734375,-0.00013875216245651245,0.0016283460427075624,-0.0011043071281164885
1761468792293558800,8.134558837890625,-0.0001310287043452263,-0.0018052674131467938,0.0019173154141753912
1761468792303541000,8.144541015625,-0.0005837911739945412,0.0003453879617154598,-0.00014503230340778828
1761468792313523200,8.154523193359376,0.0022388934157788754,-0.0007979068905115128,-0.00020442064851522446
1761468792323506200,8.164506103515626,-0.0014904513955116272,0.0009784619323909283,-0.002329663373529911
1761468792333488000,8.174488037109375,0.0018337061628699303,-0.0003517868462949991,0.00010819430463016033
1761468792343471400,8.184471435546875,0.0019832481630146503,0.002093699760735035,-0.002024705521762371
1761468792353453000,8.194453125,0.0005067917518317699,-0.00019768415950238705,0.0023234374821186066
1761468792363436300,8.204436279296875,-0.0017142430879175663,-0.00138374837115407,-0.0023137961979955435
1761468792373419300,8.214419189453125,0.0006447853520512581,-0.0034335835371166468,-0.00017927261069417
1761468792383401200,8.224401123046874,-0.001986708026379347,0.001629118574783206,-0.002132068620994687
1761468792393384200,8.23438427734375,0.00028789788484573364,0.0007635911460965872,0.0016421631444245577
1761468792403367200,8.2443671875,0.0003217095509171486,0.0007612912449985743,-0.00012772949412465096
1761468792413349000,8.25434912109375,-0.0010040118359029293,-0.0009894706308841705,0.0012326131109148264
1761468792423332000,8.26433203125,-0.00009339209645986557,0.0016346746124327183,0.0010536005720496178
1761468792433315300,8.2743154296875,-0.0019397614523768425,-0.0016892168205231428,0.0007752999663352966
1761468792443297000,8.284297119140625,-0.0007347604259848595,0.0002959554549306631,0.00024493131786584854
1761468792453280300,8.2942802734375,0.000222113449126482,-0.0007312255911529064,0.00245082750916481
1761468792463262200,8.30426220703125,0.0017144400626420975,0.0006683056708425283,-0.002719681244343519
1761468792473245200,8.3142451171875,0.0005836617201566696,0.0027224018704146147,0.0021536373533308506
1761468792483228200,8.324228271484374,-0.002053714357316494,0.0012677176855504513,-0.002530190860852599
1761468792493210000,8.334210205078126,-0.0013085617683827877,-0.0028519262559711933,0.0005729245021939278
1761468792503193000,8.344193115234376,0.00006134016439318657,0.0028266743756830692,-0.001435865298844874
1761468792513176300,8.35417626953125,0.0016685575246810913,-0.0030280188657343388,0.0021796419750899076
1761468792523158000,8.364157958984375,-0.0002519451081752777,0.0006243400275707245,-0.0020954408682882786
1761468792533141200,8.374141357421875,0.00014566490426659584,-0.0000877894926816225,0.0008119319099932909
1761468792543124200,8.384124267578125,-0.0007774373516440392,0.0024567798245698214,-0.0012804209254682064
1761468792553106200,8.394106201171875,-0.000873844139277935,-0.0012732436880469322,0.0012991167604923248
1761468792563089200,8.404089111328124,0.0016014534048736095,0.0036833155900239944,-0.0010556313209235668
1761468792573071400,8.4140712890625,-0.0026276460848748684,0.0017964662984013557,0.001240812474861741
1761468792583054300,8.424054443359376,-0.00011245068162679672,0.0003791907802224159,-0.001138963270932436
1761468792593037000,8.434037109375,0.0011331099085509777,0.0009501725435256958,0.0006187229882925749
1761468792603019300,8.444019287109375,-0.0001538512296974659,0.0008400019723922014,-0.0026349255349487066
1761468792613002200,8.454002197265625,-0.0011972780339419842,-0.004163811448961496,0.002968898043036461
1761468792622985200,8.463985107421875,-0.0001242971047759056,-0.000894173514097929,-0.0001471070572733879
1761468792632967200,8.47396728515625,0.00199264963157475,-0.0019495843444019556,-0.0009444574825465679
1761468792642950400,8.483950439453125,-0.003353285603225231,0.001928083598613739,-0.00004359660670161247
1761468792652933000,8.49393310546875,-0.00000542541965842247,-0.0018160545732825994,0.002541534136980772
1761468792662915300,8.503915283203124,0.0004586959257721901,-0.001967491814866662,0.0016704117879271507
1761468792672898300,8.513898193359376,0.000497045461088419,-0.0013613563496619463,-0.0005205709021538496
1761468792682880300,8.52388037109375,-0.0009962823241949081,-0.001845859456807375,0.0007420859765261412
1761468792692863200,8.53386328125,-0.00039254361763596535,-0.00274174683727324,-0.0012614098377525806
1761468792702846200,8.54384619140625,-0.0012575429864227772,0.00037666200660169125,0.00018768594600260258
1761468792712828200,8.553828125,0.0009542121551930904,-0.0009951323736459017,-6.682239472866058e-8
1761468792722811100,8.56381103515625,0.0019442785996943712,-0.0009968276135623455,-0.00040301098488271236
1761468792732794400,8.57379443359375,-0.0013756179250776768,-0.00027777417562901974,-0.0022589678410440683
1761468792742776000,8.583776123046874,0.0019083218649029732,0.0029221088625490665,-0.00023021060042083263
1761468792752759300,8.59375927734375,-0.0013910685665905476,0.0010906532406806946,0.00010907603427767754
1761468792762742300,8.6037421875,-0.0009890664368867874,0.0006633554585278034,-0.0001699563581496477
1761468792772724200,8.61372412109375,0.001002445351332426,0.0019201012328267097,-0.0015966118080541492
1761468792782707200,8.623707275390625,0.0006545558571815491,-0.0008557080291211605,-0.0012608170509338379
1761468792792689200,8.633689208984375,-0.002823000308126211,-0.003010205226019025,-0.0012464358005672693
1761468792802672000,8.643672119140625,-0.00044309627264738083,0.0004594600759446621,-0.0025100810453295708
1761468792812655000,8.653655029296875,-0.0018247445113956928,0.0022299299016594887,-0.0006599829066544771
1761468792822637000,8.663636962890624,0.0011876244097948074,-0.00286522856913507,-0.002123478800058365
1761468792832620000,8.6736201171875,0.0031280035618692636,-0.0013011540286242962,-0.0005948240868747234
1761468792842603300,8.683603271484374,-0.0011562593281269073,-0.000015726080164313316,-0.0003795882221311331
1761468792852585000,8.6935849609375,-0.0003013848327100277,0.0015009441412985325,0.0012452062219381332
1761468792862568200,8.703568115234376,0.0014278925955295563,-0.00014075799845159054,0.0015359015669673681
1761468792872550100,8.713550048828125,-0.001981752458959818,-0.0039986129850149155,-0.0002702539786696434
1761468792882533000,8.723533203125,0.00424893107265234,0.0006401366554200649,0.001926457043737173
1761468792892516000,8.73351611328125,-0.0020193508826196194,0.0019884947687387466,0.0009847632609307766
1761468792902498300,8.743498291015625,-0.0005542798899114132,0.000053216004744172096,0.00019668019376695156
1761468792912481000,8.75348095703125,0.0006816932000219822,-0.0011814255267381668,0.00012477487325668335
1761468792922464300,8.76346435546875,0.001042138785123825,0.0004616384394466877,0.00019118748605251312
1761468792932446200,8.7734462890625,0.0012370822951197624,-0.0006931084208190441,0.000999190378934145
1761468792942429200,8.78342919921875,0.0019548654090613127,0.0016503590159118176,-0.0013559451326727867
1761468792952412200,8.793412109375,0.000640595331788063,0.0005134553648531437,-0.000597476726397872
1761468792962394000,8.80339404296875,0.0006846045143902302,-0.0021144202910363674,-0.0016948567936196923
1761468792972377300,8.81337744140625,0.0009663673117756844,-0.0008728546090424061,-0.0009627537801861763
1761468792982359300,8.823359375,0.0010603931732475758,-0.0001493571326136589,-0.0008067740127444267
1761468792992342300,8.83334228515625,-0.0005577434785664082,-0.0027901476714760065,-0.0016741655999794602
1761468793002325200,8.8433251953125,-0.00007095420733094215,0.0010818142909556627,0.0011045313440263271
1761468793012307200,8.85330712890625,-0.0008201012387871742,-0.0011547086760401726,0.00018920283764600754
1761468793022290200,8.863290283203124,0.002126086736097932,0.0011694261338561773,-0.00014329981058835983
1761468793032273400,8.8732734375,-0.0010800929740071297,-0.0010849398095160723,-0.00037100003100931644
1761468793042255000,8.883255126953125,0.00207415665499866,0.0011740003246814013,0.0013463778886944056
1761468793052238300,8.89323828125,-0.0015618572942912579,-0.0013892925344407558,-0.00214076554402709
1761468793062221300,8.90322119140625,0.00009514112025499344,-0.00034706247970461845,0.0004670384805649519
1761468793072203300,8.913203369140625,0.0007372288964688778,0.0019136948976665735,-0.00016626110300421715
1761468793082186200,8.923186279296875,0.000024931970983743668,0.0017956651281565428,-0.0009302441030740738
1761468793092168200,8.933168212890624,0.0008691539987921715,0.0004414480645209551,0.0013661999255418777
1761468793102151200,8.943151123046874,0.000491150189191103,0.0009155396837741137,-0.0004526043776422739
1761468793112134100,8.953134033203124,0.0011201887391507626,0.0008814509492367506,-0.0036483975127339363
1761468793122116000,8.9631162109375,-0.00028601475059986115,-0.0009259558282792568,0.0020274892449378967
1761468793132099000,8.97309912109375,-0.0009334292262792587,0.002303659450262785,-0.0004146294668316841
1761468793142082300,8.983082275390625,-0.0008809785358607769,0.00002681417390704155,0.00024678721092641354
1761468793152064000,8.99306396484375,-0.0005028098821640015,0.0004382727202028036,0.00010697124525904655
1761468793162047200,9.003047119140625,0.00014990195631980896,-0.0018735370831564069,-0.000060399528592824936
1761468793172030200,9.0130302734375,-0.0003925841301679611,0.0012442257720977068,0.0013316348195075989
1761468793182012200,9.02301220703125,-0.00036330288276076317,0.0012117554433643818,-0.00038634403608739376
1761468793191995100,9.0329951171875,-0.002267729490995407,-0.0014588625635951757,-0.00026543671265244484
1761468793201977300,9.042977294921876,0.0018937932327389717,-0.003301171585917473,-0.0011651308741420507
1761468793211960000,9.0529599609375,-0.00030624400824308395,-0.0012936806306242943,0.0002316972240805626
1761468793221943000,9.062943115234376,-0.00017298897728323936,-0.0002415014896541834,0.0005227115470916033
1761468793231925200,9.07292529296875,0.0007343501783907413,-0.0004987628199160099,0.0022742722649127245
1761468793241908000,9.082907958984375,-0.0013643084093928337,0.0017918602097779512,-0.0003514320123940706
1761468793251891200,9.09289111328125,0.0008495775982737541,-0.0029136789962649345,-0.0013450572732836008
1761468793261873200,9.102873046875,0.0011963862925767899,0.0011366824619472027,0.0013544303365051746
1761468793271856000,9.112856201171875,-0.0011554514057934284,0.00010470743291079998,0.0011256649158895016
1761468793281839000,9.122839111328124,0.00027925893664360046,-0.0006330267060548067,0.0006964860949665308
1761468793291821300,9.1328212890625,-0.00001475401222705841,0.0021707492414861917,-0.0007783723995089531
1761468793301804300,9.14280419921875,-0.001881252508610487,0.0012329649180173874,0.0006366041488945484
1761468793311787500,9.15278759765625,0.0007488853298127651,0.000060374848544597626,0.00147336907684803
1761468793321769500,9.16276953125,-0.0014077681116759777,0.0006156431045383215,0.001107164891436696
1761468793331752400,9.17275244140625,-0.0002865772694349289,-0.0009353819768875837,-0.0007362754549831152
1761468793341734700,9.182734619140625,0.0009182654321193695,-0.0018524301704019308,0.0010039201006293297
1761468793351717400,9.19271728515625,-0.0006961426697671413,0.0006964814383536577,-0.0004088866990059614
1761468793361700600,9.20270068359375,0.0011377772316336632,0.0009268494322896004,0.0004534416366368532
1761468793371682600,9.2126826171875,-0.00199676351621747,0.0019638841040432453,-0.002305060625076294
1761468793381665500,9.22266552734375,-0.002014169003814459,-0.000769526232033968,0.00003794883377850056
1761468793391648500,9.2326484375,0.0018876288086175919,-0.0004334354307502508,-0.0008582049049437046
1761468793401630700,9.242630615234376,-0.0011767642572522163,0.0022481465712189674,-0.002834383165463805
1761468793411613400,9.252613525390625,-0.0008270912803709507,0.0014819549396634102,0.0017830056603997946
1761468793421595600,9.262595703125,0.0004554418846964836,-0.0010360786691308022,-0.0008541995193809271
1761468793431578600,9.27257861328125,0.0015638493932783604,-0.0020848314743489027,-0.0043791597709059715
1761468793441561300,9.282561279296875,-0.0025941417552530766,-0.0017375898314639926,0.0002963526640087366
1761468793451543600,9.29254345703125,0.002887176116928458,-0.0022020451724529266,-0.0005452062468975782
1761468793461526500,9.302526611328124,-0.00026895804330706596,-0.0008993130177259445,0.0010272290091961622
1761468793471509500,9.312509521484374,0.00088099529966712,-0.0019970680586993694,0.00008393754251301289
1761468793481491500,9.322491455078126,-0.0005215923301875591,-0.00045120716094970703,-0.001655068015679717
1761468793491474700,9.332474609375,-0.0009980318136513233,-0.000027764588594436646,-0.001387420343235135
1761468793501457400,9.34245751953125,-0.00031093740835785866,0.0018892656080424786,0.0021095406264066696
1761468793511439600,9.352439697265625,0.00013993587344884872,-0.0009251630399376154,-0.0009959714952856302
1761468793521422600,9.362422607421875,0.000715901143848896,-0.0009998956229537725,-0.0005128735210746527
1761468793531404500,9.372404541015625,0.0005443934351205826,-0.001670213183388114,-0.0012439112178981304
1761468793541387500,9.382387451171875,-0.0013872459530830383,-0.0039547160267829895,0.000034618424251675606
1761468793551370500,9.39237060546875,0.000435421708971262,-0.0016787786735221744,-0.002699382835999131
1761468793561352400,9.4023525390625,0.0005818232893943787,0.0017841728404164314,0.002285099821165204
1761468793571335700,9.412335693359376,-0.0004767831414937973,0.002399363089352846,-0.000004419824108481407
1761468793581318700,9.422318603515626,0.001159008126705885,0.00047935196198523045,0.00016636261716485023
1761468793591300600,9.432300537109375,-0.0005185171030461788,0.0023395700845867395,0.0030502998270094395
1761468793601283600,9.44228369140625,0.00010579545050859451,-0.0013294981326907873,0.00031722569838166237
1761468793611266600,9.4522666015625,0.002320746425539255,-0.0023452278692275286,0.0009960653260350227
1761468793621248500,9.46224853515625,-0.0009264983236789703,-0.0010158992372453213,-0.0003047033678740263
1761468793631231500,9.4722314453125,0.003140414832159877,0.0011162273585796356,-0.0006088363006711006
1761468793641213700,9.482213623046874,0.00010678032413125038,-0.001280627679079771,0.0009977950248867273
1761468793651196400,9.492196533203124,0.002149158390238881,-0.00021323282271623611,0.0030790555756539106
1761468793661179600,9.5021796875,-0.0028618662618100643,0.0024320969823747873,0.0014584548771381378
1761468793671161600,9.51216162109375,-0.000030126888304948807,0.002466451609507203,0.001420638058334589
1761468793681144600,9.52214453125,-0.0012682112865149975,0.0013156619388610125,0.00017008674331009388
1761468793691127600,9.53212744140625,0.0015243790112435818,0.004911461845040321,-0.0012376601807773113
1761468793701109800,9.54210986328125,-0.0008491245098412037,0.0011954279616475105,-0.0001752474345266819
1761468793711092500,9.552092529296875,0.0014846036210656166,-0.0024520375300198793,0.0012338310480117798
1761468793721075500,9.562075439453125,0.001866698730736971,-0.00031655048951506615,-0.0025228739250451326
1761468793731057700,9.5720576171875,-0.0002846028655767441,-0.0001999041996896267,-0.0010410912800580263
1761468793741040400,9.582040283203124,0.00026028184220194817,-0.0020584650337696075,-0.0009953391272574663
1761468793751022600,9.592022705078126,-0.0007051141001284122,-0.0003668251447379589,-0.0011780320201069117
1761468793761005600,9.602005615234376,-0.0011778236366808414,0.0010707315523177385,0.0014264872297644615
1761468793770988500,9.611988525390625,-0.0028143362142145634,0.0014291934203356504,-0.0006457183044403791
1761468793780970500,9.621970458984375,-0.000347937922924757,0.0013260841369628906,-0.0008468490559607744
1761468793790953700,9.63195361328125,0.0009080087766051292,0.0031484849750995636,0.0019143165554851294
1761468793800936400,9.6419365234375,0.0002652718685567379,-0.00018662144429981709,0.002287141978740692
1761468793810918700,9.651918701171875,0.000771538820117712,0.0008810397703200579,0.001071409322321415
1761468793820901600,9.661901611328124,0.0006717890501022339,0.0002847218420356512,0.002803293289616704
1761468793830884400,9.67188427734375,0.0018760706298053265,-0.0016007961239665747,0.0020797124598175287
1761468793840866600,9.681866455078126,0.0011170939542353153,0.003006577957421541,0.001437600003555417
1761468793850849500,9.691849609375,0.0006289361044764519,-0.0018632784485816956,0.0013065722305327654
1761468793860831500,9.70183154296875,-0.002015723381191492,-0.001190614653751254,0.0012108255177736282
1761468793870814500,9.711814453125,-0.0031196041963994503,0.0000738541129976511,0.00290512852370739
1761468793880797700,9.721797607421875,0.0020960664842277765,0.09130657464265823,0.03365953266620636
1761468793890779400,9.731779296875,-0.000294653233140707,0.05673128738999367,0.014964406378567219
1761468793900762600,9.7417626953125,0.0008699470199644566,-0.07365228980779648,-0.019854027777910233
1761468793910745600,9.75174560546875,-0.000005700159817934036,0.04208097234368324,0.01175609603524208
1761468793920727600,9.7617275390625,-0.0033436506055295467,-0.022545931860804558,-0.005997275933623314
1761468793930710500,9.77171044921875,0.0029094514902681112,-0.02148466184735298,-0.005100855603814125
1761468793940693500,9.781693603515626,-0.0006284019909799099,0.004563931375741959,0.0005630378145724535
1761468793950675500,9.791675537109375,-0.000918953213840723,-0.02852185070514679,-0.008445637300610542
1761468793960658400,9.801658447265625,0.002798679983243346,-0.016505027189850807,-0.005141383968293667
1761468793970640600,9.811640625,-0.00003758631646633148,-0.0013311337679624557,-0.0018204221269115806
1761468793980623400,9.821623291015625,-0.0006239078938961029,-0.009958583861589432,-0.004648505710065365
1761468793990606600,9.831606689453125,0.0007912958972156048,0.000012824079021811485,0.0003811402712017298
1761468794000588500,9.841588623046874,-0.0024971631355583668,-0.0004128816071897745,-0.0006406863685697317
