time,seconds_elapsed,z,y,x
1761468656104420600,0.113420654296875,0.00006962241604924202,-0.0006269763689488173,0.0002191588282585144
1761468656114403800,0.12340380859375,-0.0014534392394125462,-0.0010682621505111456,-0.00019895751029253006
1761468656124386800,0.13338671875,-0.00012372294440865517,0.0012457584962248802,0.0001584386918693781
1761468656134369500,0.14336962890625,0.0006469413638114929,0.0018308509606868029,-0.0010328213684260845
1761468656144352800,0.153352783203125,0.0008000731468200684,0.0008518730755895376,0.001967229414731264
1761468656154335700,0.163335693359375,0.000472288578748703,-0.00029417267069220543,-0.0005485902074724436
1761468656164318700,0.173318603515625,0.0024896329268813133,-0.0030580011662095785,-0.0013685773592442274
1761468656174304500,0.183304443359375,-0.0018714666366577148,0.0013937843032181263,0.00033609475940465927
1761468656184287500,0.19328759765625,0.0009141997434198856,-0.0006517898291349411,-0.0013691274216398597
1761468656194270700,0.203270751953125,0.0020447210408747196,0.0008697670418769121,0.0005597556009888649
1761468656204253700,0.213253662109375,-0.000042664818465709686,-0.0028211078606545925,0.002447404433041811
1761468656214236400,0.223236328125,-0.0004959274083375931,0.003977891057729721,0.0016500758938491344
1761468656224219600,0.2332197265625,-0.00205787131562829,-0.000748420599848032,0.0007944023236632347
1761468656234202600,0.24320263671875,-0.000010089948773384094,0.0020263586193323135,0.00251204171217978
1761468656244185600,0.253185546875,0.0006871256045997143,-0.0006493192631751299,0.0024475932586938143
1761468656254168600,0.26316845703125,0.0022260986734181643,-0.0013842496555298567,-0.00022189319133758545
1761468656264151600,0.273151611328125,0.000006886664777994156,-0.0016407119110226631,-0.0002948637120425701
1761468656274134500,0.283134521484375,-0.0018096710555255413,0.002079398836940527,-0.0015272994060069323
1761468656284117800,0.29311767578125,0.0013693440705537796,0.0015725991688668728,0.0009795341175049543
1761468656294100500,0.3031005859375,-0.00016050832346081734,0.0014807505067437887,0.00003560842014849186
1761468656304083700,0.313083740234375,0.00011832453310489655,-0.0007427225355058908,-0.000011795898899435997
1761468656314066700,0.323066650390625,0.0009376639500260353,0.004231337457895279,0.0014281666371971369
1761468656324049700,0.333049560546875,0.0010383310727775097,-0.002566115465015173,-0.0009164803195744753
1761468656334032600,0.34303271484375,-0.00023201247677206993,0.002127824816852808,0.0007528082933276892
1761468656344015600,0.353015625,-0.0006565204821527004,-0.0006248182617127895,0.002413289388641715
1761468656353998600,0.36299853515625,0.0016570258885622025,0.0016696604434400797,-0.0003896406851708889
1761468656363981600,0.372981689453125,0.0012959009036421776,-0.0022220169194042683,0.0006796186789870262
1761468656373964500,0.382964599609375,0.0011089788749814034,-0.0019389860099181533,-0.0003327836748212576
1761468656383947500,0.392947509765625,-0.0015065115876495838,0.0010490806307643652,-0.000908825546503067
1761468656393930800,0.4029306640625,-0.0018091192469000816,-0.00282824388705194,-0.0009110537357628345
1761468656403913500,0.41291357421875,0.002235156949609518,-0.0033800508826971054,-0.001201072009280324
1761468656413896400,0.422896484375,-0.0018561952747404575,0.0030006819870322943,0.0012290147133171558
1761468656423879700,0.432879638671875,0.00030016619712114334,-0.0017037917859852314,-0.0039505669847130775
1761468656433862700,0.442862548828125,0.0006361296400427818,-0.0031535932794213295,-0.0032801220659166574
1761468656443845600,0.452845703125,0.0011783489026129246,0.0023924396373331547,-0.0001154877245426178
1761468656453828600,0.46282861328125,0.002201511524617672,-0.003576453775167465,-0.0010186268482357264
1761468656463811600,0.4728115234375,-0.0001828167587518692,0.0018356223590672016,0.000989929074421525
1761468656473794800,0.482794921875,0.0012001655995845795,-0.006508613936603069,-0.0018530639354139566
1761468656483777500,0.492777587890625,0.0012310585007071495,0.009580075740814209,0.0029009447898715734
1761468656493760500,0.502760498046875,-0.0020077754743397236,-0.01021100115031004,-0.002475314075127244
1761468656503743700,0.51274365234375,-0.0013406532816588879,-0.0008268200326710939,-0.0008012510370463133
1761468656513726700,0.522726806640625,-0.0030381940305233,-0.004118573386222124,-0.0020044641569256783
1761468656523709400,0.53270947265625,-0.0002474673092365265,-0.0006024015601724386,0.0014075778890401125
1761468656533692700,0.542692626953125,-0.00024992600083351135,-0.00409327307716012,0.0017995948437601328
1761468656543675600,0.552675537109375,-0.0019373050890862942,-0.000268175033852458,-0.002774916822090745
1761468656553658400,0.562658447265625,0.0009399037808179855,0.0004520372021943331,0.0018308893777430058
1761468656563641600,0.5726416015625,0.0008909017778933048,-0.0008087034802883863,-0.00028925342485308647
1761468656573624600,0.58262451171875,-0.0029091183096170425,-0.00010357145220041275,-0.0005140905268490314
1761468656583607600,0.592607666015625,-0.00025288108736276627,-0.002091354690492153,0.0014167011249810457
1761468656593590500,0.602590576171875,-0.002447303384542465,-0.003771773539483547,-0.0006784782744944096
1761468656603573500,0.612573486328125,-0.001464596949517727,0.0006517369765788317,-0.00004837452434003353
1761468656613556700,0.622556640625,0.0002181236632168293,-0.0018453724915161729,0.000274070305749774
1761468656623539700,0.632539794921875,-0.00032196566462516785,-0.0019297946710139513,-0.0012620410416275263
1761468656633522400,0.6425224609375,-0.00024994416162371635,-0.001797912293113768,0.000030122464522719383
1761468656643505700,0.652505615234375,-0.001911490224301815,-0.002800326095893979,0.0009387929458171129
1761468656653488600,0.662488525390625,-0.0011312710121273994,-0.000058708712458610535,0.002094148425385356
1761468656663471600,0.6724716796875,-0.004184318706393242,-0.001523713581264019,0.0005998488049954176
1761468656673454600,0.68245458984375,-0.0013591758906841278,-0.00032904185354709625,0.0009389952756464481
1761468656683437600,0.6924375,0.0021069280337542295,-0.004301146604120731,-0.0028301766142249107
1761468656693420500,0.702420654296875,0.001627406571060419,-0.001356462249532342,0.000578401843085885
1761468656703403800,0.71240380859375,-0.0014575994573533535,-0.004998601041734219,0.00022073951549828053
1761468656713386500,0.722386474609375,-0.0004068235866725445,0.0027355309575796127,0.0004429146647453308
1761468656723369500,0.732369384765625,0.0017250371165573597,-0.0005982141010463238,0.00047354097478091717
1761468656733352700,0.742352783203125,-0.001996748149394989,-0.0007984102703630924,-0.0018127167131751776
1761468656743334700,0.752334716796875,0.0007593575865030289,-0.005407010670751333,0.00002300017513334751
1761468656753317600,0.762317626953125,-0.00022165104746818542,-0.00010553048923611641,0.0008523843716830015
1761468656763300600,0.772300537109375,0.0007964754477143288,-0.004462994635105133,-0.0014091720804572105
1761468656773283600,0.78228369140625,0.002225639531388879,0.003661241615191102,-0.0027184532955288887
1761468656783266600,0.7922666015625,-0.0004692133516073227,-0.0022906572557985783,-0.0013133697211742401
1761468656793249500,0.80224951171875,0.0020278855226933956,0.003215828677639365,-0.0017709070816636086
1761468656803232800,0.812232666015625,0.002258515451103449,-0.00026305881328880787,0.0018914719112217426
1761468656813215500,0.822215576171875,-0.001866878941655159,0.0023422755766659975,0.0025546702090650797
1761468656823198500,0.832198486328125,-0.00002583581954240799,-0.004388331435620785,-0.001577757066115737
1761468656833181700,0.842181640625,0.0013947193510830402,0.002601884538307786,-0.003433977020904422
1761468656843164700,0.85216455078125,-0.0014423462562263012,-0.004565481096506119,0.004675348289310932
1761468656853147400,0.8621474609375,-0.0008497461676597595,-0.0036359152290970087,0.0018862830474972725
1761468656863130600,0.872130615234375,-0.004003994632512331,-0.004786400590091944,0.00037733581848442554
1761468656873113600,0.882113525390625,-0.0012802821584045887,-0.0026480217929929495,0.0018823519349098206
1761468656883096600,0.8920966796875,0.00043372856453061104,-0.006478180177509785,-0.0005203518085181713
1761468656893079600,0.90207958984375,-0.0013895821757614613,0.004162860102951527,0.004179265815764666
1761468656903062500,0.9120625,0.0002930029295384884,-0.00099275354295969,0.0031677973456680775
1761468656913045800,0.922045654296875,-0.0015299557708203793,-0.0074171447195112705,-0.0005739405751228333
1761468656923028700,0.93202880859375,0.0007864614017307758,-0.00015417183749377728,0.0006314062047749758
1761468656933011500,0.942011474609375,-0.0008979360572993755,-0.0006193264853209257,-0.0002951135393232107
1761468656942994700,0.95199462890625,-0.0009581232443451881,0.0010049354750663042,0.0024535348638892174
1761468656952977700,0.961977783203125,-0.0007746447809040546,-0.007156813517212868,-0.0015021286671981215
1761468656962960400,0.97196044921875,-0.0004912847653031349,0.0034074140712618828,0.0006731415633112192
1761468656972943600,0.981943603515625,-0.0018685455434024334,0.0003379075787961483,-0.0014212292153388262
1761468656982926600,0.991926513671875,0.00026917411014437675,0.000718207098543644,0.000944989500567317
1761468656992909600,1.00190966796875,0.0011367499828338623,0.0011809670832008123,-0.00011927448213100433
1761468657002892500,1.011892578125,-0.0032207146286964417,-0.00495042884722352,0.0011012519244104624
1761468657012875500,1.02187548828125,0.0005574817769229412,0.000033147865906357765,0.0009965193457901478
1761468657022858500,1.0318583984375,0.001653372310101986,0.00015565333887934685,0.002268711570650339
1761468657032841700,1.041841796875,-0.0010352572426199913,-0.004275717306882143,-0.0013789560180157423
1761468657042824400,1.051824462890625,0.0008643758483231068,-0.005053360480815172,-0.0009773513302206993
1761468657052807700,1.0618076171875,-0.0016381940804421902,-0.0027364701963961124,0.0008131642825901508
1761468657062790700,1.071790771484375,0.0007445360533893108,-0.006533605046570301,-0.00047793611884117126
1761468657072773600,1.081773681640625,-0.0012062420137226582,-0.000699442345649004,0.0005812046583741903
1761468657082756600,1.091756591796875,-0.0029948209412395954,0.0019490714184939861,0.0008943926077336073
1761468657092739600,1.101739501953125,0.0009061731398105621,-0.004707444459199905,-0.003908425569534302
1761468657102722600,1.11172265625,0.00044890865683555603,0.006239213515073061,-0.0005501792766153812
1761468657112705800,1.121705810546875,0.002936147153377533,0.000716708367690444,-0.0007191549520939589
1761468657122688500,1.1316884765625,-0.000237275380641222,0.005635300651192665,-0.0017617825651541352
1761468657132671500,1.14167138671875,0.0008119111880660057,-0.0019129608990624547,-0.0017928113229572773
1761468657142654700,1.15165478515625,-0.0011684154160320759,0.0029960437677800655,-0.0012218295596539974
1761468657152637400,1.161637451171875,0.001163617242127657,-0.001479793805629015,-0.0032530867028981447
1761468657162620700,1.17162060546875,-0.0018715877085924149,0.005755215883255005,-0.001197658944875002
1761468657172603600,1.181603759765625,0.0029395134188234806,0.0020883784163743258,-0.0026201829314231873
1761468657182587000,1.1915869140625,0.0018124636262655258,0.003358173882588744,0.000531668309122324
1761468657192569900,1.20156982421875,0.0014475854113698006,-0.002934123855084181,-0.002219373593106866
1761468657202552800,1.211552734375,0.0005538281984627247,0.0028736977837979794,-0.0000547564122825861
1761468657212535800,1.221535888671875,-0.0019554775208234787,0.0008829624857753515,0.0010268795304000378
1761468657222519000,1.23151904296875,0.001891991589218378,-0.00408303365111351,-0.002197942230850458
1761468657232501800,1.241501708984375,0.002870226977393031,-0.0018608454847708344,-0.0004479114431887865
1761468657242484700,1.251484619140625,0.0013588829897344112,-0.0015359397511929274,-0.0014969304902479053
1761468657252468000,1.261468017578125,0.0011087292805314064,0.0037663152907043695,0.0011203591711819172
1761468657262450700,1.27145068359375,-0.0008212635293602943,-0.004545410163700581,-0.0027279085479676723
1761468657272433700,1.28143359375,0.0032918264623731375,0.006263346411287785,-0.0006067035719752312
1761468657282417000,1.2914169921875,0.002085414482280612,-0.0003311724867671728,-0.00015316717326641083
1761468657292399900,1.30139990234375,-0.0011329734697937965,-0.00009300094097852707,-0.0013952685985714197
1761468657302382600,1.311382568359375,0.00006704684346914291,0.0006694619078189135,-0.0006157613825052977
1761468657312365800,1.32136572265625,0.00008620740845799446,-0.0014224802143871784,-0.001005114521831274
1761468657322348800,1.331348876953125,0.0005392110906541348,-0.0023652391973882914,-0.0004218823742121458
1761468657332331800,1.341331787109375,0.001046590507030487,0.000600423663854599,0.00027254619635641575
1761468657342314800,1.351314697265625,-0.00011800974607467651,-0.005821256898343563,-0.001990874297916889
1761468657352297700,1.361297607421875,0.0007915180176496506,0.004010844975709915,0.0003160818014293909
1761468657362281000,1.371281005859375,0.0011529088951647282,-0.006960312835872173,-0.0036206028889864683
1761468657372264000,1.381263916015625,-0.0015709283761680126,0.005530079826712608,0.0007306712213903666
1761468657382246700,1.39124658203125,0.001724999863654375,0.0017763541545718908,-0.0005148893687874079
1761468657392230000,1.40122998046875,0.0011252830736339092,0.0034984073136001825,-0.002657138742506504
1761468657402212900,1.411212890625,0.0001985030248761177,-0.005467923358082771,-0.005263840779662132
1761468657412194800,1.42119482421875,0.0020759578328579664,0.004496459849178791,-0.00254561728797853
1761468657422177800,1.431177734375,0.0008194786496460438,0.0023046780843287706,0.0011268819216638803
1761468657432160800,1.441160888671875,0.0003998149186372757,0.0037681551184505224,0.0016463352367281914
1761468657442144000,1.45114404296875,0.003521572332829237,0.0019377649296075106,-0.001305778743699193
1761468657452126700,1.461126708984375,-0.0003754179924726486,-0.0037637725472450256,-0.0008122967556118965
1761468657462109700,1.471109619140625,0.0023529904428869486,0.0008014182094484568,-0.00032067717984318733
1761468657472093000,1.481093017578125,-0.00242221774533391,-0.0021489043720066547,-0.0007798722945153713
1761468657482075600,1.49107568359375,-0.00012444192543625832,0.002908705035224557,0.001276354305446148
1761468657492059000,1.501058837890625,-0.0017266971990466118,-0.00153480120934546,0.0006240771617740393
1761468657502041900,1.511041748046875,0.00012473203241825104,-0.003082364099100232,0.0021886841859668493
1761468657512024800,1.52102490234375,0.0018366742879152298,-0.0004368999507278204,0.0015781540423631668
1761468657522007800,1.5310078125,-0.0028646038845181465,-0.0006403655279427767,0.00011714361608028412
1761468657531990800,1.54099072265625,0.001048083882778883,-0.0029599680565297604,-0.000338858924806118
1761468657541973800,1.550973876953125,0.004335223697125912,-0.0012185268569737673,0.000832399120554328
1761468657551957000,1.56095703125,0.0003512892872095108,-0.0002833819016814232,0.0005684171337634325
1761468657561939700,1.570939697265625,0.0011209426447749138,0.0023984212893992662,0.0007974489126354456
1761468657571922700,1.580922607421875,-0.00007581152021884918,0.0011140520218759775,-0.0005460495594888926
1761468657581906000,1.590906005859375,0.001194249838590622,0.002906359499320388,-0.002322910586372018
1761468657591889000,1.600888916015625,0.0009608445689082146,0.003227178007364273,0.00030549452640116215
1761468657601871600,1.61087158203125,-0.00048232264816761017,-0.003875206457450986,-0.0015363477868959308
1761468657611854800,1.620854736328125,-0.0016428548842668533,-0.004522071219980717,-0.0020057237707078457
1761468657621837800,1.630837890625,0.0026677376590669155,0.0018149202223867178,0.0007141625974327326
1761468657631820800,1.64082080078125,-0.001792597584426403,-0.0003273431211709976,-0.00005509750917553902
1761468657641803800,1.6508037109375,0.0007685641758143902,0.0017845435068011284,0.0005052315536886454
1761468657651786800,1.660786865234375,-0.0006227116100490093,-0.0015538083389401436,-0.00042527331970632076
1761468657661770000,1.67077001953125,-0.0012821103446185589,0.0020598347764462233,0.00020136847160756588
1761468657671752700,1.680752685546875,0.003451829543337226,0.005241925362497568,0.0015555231366306543
1761468657681735700,1.690735595703125,-0.0014758175238966942,0.0010261409915983677,0.001406119903549552
1761468657691719000,1.700718994140625,-0.002483487594872713,0.003708016825839877,0.00020083924755454063
1761468657701702000,1.710701904296875,0.0011040568351745605,-0.0004686187021434307,-0.0009991812985390425
1761468657711684600,1.7206845703125,-0.001439013984054327,0.004183684475719929,0.0032487548887729645
1761468657721667800,1.730667724609375,0.0018622404895722866,-0.002756246831268072,-0.0032885067630559206
1761468657731650800,1.74065087890625,0.0016139373183250427,-0.0002793653402477503,-0.0010693580843508244
1761468657741633800,1.7506337890625,0.00006451038643717766,-0.002628273330628872,0.001280082855373621
1761468657751616800,1.76061669921875,0.0005869190208613873,-0.0002085661981254816,-0.0014503276906907558
1761468657761599700,1.770599853515625,0.0009704143740236759,-0.0015252330340445042,0.0003638176713138819
1761468657771582700,1.780582763671875,-0.00005166884511709213,-0.0024602687917649746,0.0018850150518119335
1761468657781566000,1.79056591796875,0.000019437633454799652,0.0008316645398736,0.0022282968275249004
1761468657791548700,1.800548583984375,0.0018230085261166096,-0.0021323412656784058,0.0014028516598045826
1761468657801532000,1.810531982421875,-0.0008558649569749832,-0.00039516156539320946,0.0032817120663821697
1761468657811515000,1.820514892578125,-0.000026102177798748016,0.0002244322095066309,0.0009346045553684235
1761468657821497900,1.830497802734375,0.0010737832635641098,-0.0022754771634936333,-0.000786063726991415
1761468657831480800,1.840480712890625,-0.0015648151747882366,-0.0018128376686945558,0.00003958377055823803
1761468657841463800,1.8504638671875,-0.0005799778737127781,0.004164894111454487,0.001149589428678155
1761468657851446800,1.86044677734375,0.00011945189908146858,-0.004157799296081066,-0.001318695954978466
1761468657861429800,1.8704296875,0.002276878571137786,-0.0005790435243397951,-0.0004046990070492029
1761468657871412700,1.880412841796875,0.0015922063030302525,0.003296365961432457,0.00020775897428393364
1761468657881395700,1.890395751953125,-0.000006755813956260681,-0.00001500849612057209,0.0013553148601204157
1761468657891379000,1.90037890625,0.0012465552426874638,0.0027218481991440058,-0.0011853361502289772
1761468657901361700,1.910361572265625,-0.0015873140655457973,-0.002292884048074484,-0.001137132989242673
1761468657911344600,1.9203447265625,-0.00009271269664168358,0.000530060613527894,0.0011071702465415
1761468657921327900,1.930327880859375,0.0018247631378471851,-0.0045592403039336205,0.000056819524616003036
1761468657931310800,1.940310791015625,0.0004293415695428848,0.001961443806067109,0.0005170854274183512
1761468657941293800,1.9502939453125,0.001414444763213396,-0.0014237004797905684,-0.0009327393490821123
1761468657951276800,1.96027685546875,0.0027206898666918278,0.004203210584819317,-0.001684754271991551
1761468657961259800,1.970259765625,-0.0012282454408705235,0.0016769359353929758,-0.003490111092105508
1761468657971243000,1.980242919921875,0.0004695579409599304,0.002180089009925723,-0.002345546381548047
1761468657981225700,1.990225830078125,0.00005064299330115318,0.00008151819929480553,0.0006979142781347036
1761468657991208700,2.000208740234375,0.00018166564404964447,-0.001176462508738041,-0.0007506515830755234
1761468658001192000,2.01019189453125,-0.0014601731672883034,0.0040065813809633255,0.00011114729568362236
1761468658011175000,2.0201748046875,0.0010421057231724262,-0.00043862219899892807,-0.00033485819585621357
1761468658021157600,2.03015771484375,-0.0008628536015748978,0.0007502126973122358,-0.0029226518236100674
1761468658031140900,2.040140869140625,-0.0016591548919677734,-0.000850580632686615,0.0009471159428358078
1761468658041123800,2.050123779296875,-0.0014469008892774582,-0.0041869888082146645,0.001436871476471424
1761468658051105800,2.060105712890625,0.0006230990402400494,-0.004217596724629402,-0.002412392757833004
1761468658061088800,2.0700888671875,-0.0005079451948404312,-0.002729422179982066,-0.00004484271630644798
1761468658071071700,2.08007177734375,-0.00003286171704530716,-0.0018767990404739976,0.00002866866998374462
1761468658081054700,2.0900546875,0.0001908433623611927,-0.0005449522286653519,0.00014371704310178757
1761468658091037700,2.10003759765625,0.0011948845349252224,-0.0005788726266473532,-0.0010165625717490911
1761468658101021000,2.11002099609375,0.00040126265957951546,-0.006848752498626709,-0.0026741139590740204
1761468658111004000,2.12000390625,0.00021289056167006493,0.007881822064518929,0.0006731410976499319
1761468658120986600,2.129986572265625,0.00017534010112285614,0.005749162286520004,-0.0006366015877574682
1761468658130969900,2.139969970703125,0.0001863311044871807,0.006862846668809652,0.0003817358519881964
1761468658140952800,2.149952880859375,-0.0006256666965782642,-0.00042116502299904823,0.0003228799905627966
1761468658150935800,2.159935791015625,0.0019024251960217953,0.002314868150278926,-0.0002684774808585644
1761468658160918800,2.169918701171875,0.0027610284741967916,0.0019960880745202303,-0.0014509210595861077
1761468658170901800,2.17990185546875,0.0026360764168202877,0.005829685367643833,-0.0016872129635885358
1761468658180884500,2.189884521484375,0.0016152868047356606,-0.0006551120895892382,-0.000762563431635499
1761468658190867500,2.199867431640625,-0.0017467658035457134,0.0002557153347879648,0.002056657802313566
1761468658200850400,2.209850341796875,-0.0014450293965637684,0.0017196547705680132,0.0006885919719934464
1761468658210833700,2.219833740234375,0.0008337576873600483,-0.002310122363269329,-0.00015755626372992992
1761468658220816400,2.22981640625,-0.001195038203150034,0.0020731743425130844,0.0010368714574724436
1761468658230799400,2.23979931640625,0.00010590814054012299,-0.001617479370906949,0.0007821349427103996
1761468658240782600,2.249782470703125,0.0007783561013638973,-0.0011476976796984673,0.00007080473005771637
1761468658250765300,2.259765380859375,0.0010732673108577728,0.00006389431655406952,0.0014307487290352583
1761468658260748300,2.269748291015625,0.000797896645963192,-0.0029915503691881895,-0.0009328068699687719
1761468658270731500,2.2797314453125,-0.0017562243156135082,-0.0023724855855107307,-0.000367817934602499
1761468658280714500,2.289714599609375,-0.0014121439307928085,-0.0022731495555490255,0.0021174438297748566
1761468658290697200,2.299697265625,-0.0014246688224375248,-0.0006333719938993454,0.0022523365914821625
1761468658300680400,2.309680419921875,0.0010211784392595291,-0.002373215276747942,-0.0007016416639089584
1761468658310663400,2.319663330078125,0.000261703971773386,0.0024880224373191595,-0.0002716055605560541
1761468658320646400,2.329646484375,0.0014753062278032303,-0.00392460310831666,-0.00029211188666522503
1761468658330629400,2.33962939453125,-0.000451480969786644,0.005030664149671793,-0.0006762610282748938
1761468658340612400,2.3496123046875,0.0028191471938043833,0.0016575041227042675,-0.0008344529196619987
1761468658350595600,2.359595703125,0.0019272291101515293,0.0030732019804418087,0.00015353807248175144
1761468658360578600,2.36957861328125,0.0002196100540459156,0.00046490225940942764,-0.003750922391191125
1761468658370561300,2.379561279296875,0.0002714376896619797,0.0008197999559342861,-0.001457876292988658
1761468658380544500,2.38954443359375,0.001442695502191782,0.0021127648651599884,-0.0016022196505218744
1761468658390527500,2.399527587890625,-0.000507779885083437,0.0030167086515575647,-0.0006184412632137537
1761468658400510500,2.409510498046875,0.001915164291858673,-0.00039932806976139545,0.001953905913978815
1761468658410493400,2.419493408203125,0.0020928706508129835,0.0010978465434163809,0.0016388699878007174
1761468658420476400,2.429476318359375,0.001765834167599678,-0.0003229500725865364,0.0011222169268876314
1761468658430459400,2.43945947265625,-0.0011553289368748665,-0.0010374689009040594,-0.002958812052384019
1761468658440442400,2.4494423828125,0.00013337470591068268,0.00034364662133157253,0.0008564325980842113
1761468658450425300,2.45942529296875,-0.001617498230189085,-0.00477996189147234,-0.0002723794896155596
1761468658460408600,2.46940869140625,-0.0007141539826989174,0.005879340693354607,0.005280045326799154
1761468658470391600,2.4793916015625,-0.0002361377701163292,-0.009232155047357082,-0.0007256530225276947
1761468658480374300,2.489374267578125,-0.001357062254101038,-0.0028525525704026222,-0.001035378547385335
1761468658490357500,2.499357421875,-0.0009728111326694489,0.0073196301236748695,-0.0005200558807700872
1761468658500340500,2.509340576171875,0.0005590389482676983,0.0011086058802902699,0.0011137935798615217
1761468658510323500,2.519323486328125,-0.00004550442099571228,0.0019650899339467287,-0.00014009233564138412
1761468658520306400,2.529306396484375,0.0017723692581057549,-0.0008181796874850988,-0.003572640474885702
1761468658530289400,2.539289306640625,-0.000673273578286171,0.006127258762717247,0.0010000099427998066
1761468658540272400,2.5492724609375,0.002160595962777734,-0.000150343868881464,-0.0025454561691731215
1761468658550255600,2.559255615234375,0.00033520301803946495,0.0011261827312409878,-0.001934993313625455
1761468658560238300,2.56923828125,-0.00022565852850675583,-0.002841927343979478,-0.0027435291558504105
1761468658570221300,2.57922119140625,-0.0005309684202075005,0.0014179653953760862,-0.002279138658195734
1761468658580204500,2.58920458984375,-0.0013046166859567165,-0.0017607833724468946,-0.002598451916128397
1761468658590187500,2.5991875,-0.0013396171852946281,0.0008091658819466829,0.0006104616913944483
1761468658600170500,2.60917041015625,0.0018889331258833408,-0.004037787206470966,0.0003808974288403988
1761468658610153500,2.619153564453125,0.000328646507114172,0.0003506659995764494,0.0025503728538751602
1761468658620135400,2.629135498046875,0.0006466279737651348,-0.004994564689695835,0.00022250390611588955
1761468658630118400,2.639118408203125,0.0003520292229950428,-0.00014615990221500397,0.004543141927570105
1761468658640101400,2.649101318359375,0.001145651564002037,-0.0056045749224722385,0.00230555422604084
1761468658650084600,2.659084716796875,0.0011883284896612167,-0.00366125232540071,0.0015783128328621387
1761468658660067300,2.6690673828125,0.00286904931999743,-0.0011890397872775793,0.0012139924801886082
1761468658670050300,2.67905029296875,0.00020928308367729187,0.002813557395711541,0.0014219917356967926
1761468658680033500,2.689033447265625,0.00025881780311465263,-0.001697304891422391,-0.0009460912551730871
1761468658690016500,2.6990166015625,0.0010063420049846172,0.004229501821100712,-0.0018586964579299092
1761468658699999200,2.708999267578125,0.00081299664452672,0.00021531921811401844,-0.0011223324108868837
1761468658709982500,2.718982421875,0.0026278311852365732,0.0027645553927868605,-0.002841196721419692
1761468658719965400,2.72896533203125,-0.0006619715131819248,0.0024993044789880514,0.00036764610558748245
1761468658729948400,2.738948486328125,-0.0003333115018904209,0.0003111821133643389,0.0017840447835624218
1761468658739931400,2.748931396484375,-0.0010044281370937824,0.0029213463421911,-0.001075125066563487
1761468658749914400,2.758914306640625,-0.0005148919299244881,0.0009828764013946056,0.0004810984246432781
1761468658759897300,2.7688974609375,0.0003647501580417156,-0.0015971940010786057,-0.00025020563043653965
1761468658769880600,2.778880615234375,0.00016005057841539383,-0.001350483624264598,-0.0037029997911304235
1761468658779863300,2.78886328125,0.0000833515077829361,0.00120082451030612,0.003259568242356181
1761468658789846500,2.798846435546875,0.001812683418393135,-0.0070698680356144905,0.0012766474392265081
1761468658799829500,2.80882958984375,-0.0017807199619710445,0.0006812622305005789,0.0014436275232583284
1761468658809812500,2.8188125,-0.00033829640597105026,-0.007848210632801056,0.0013725864700973034
1761468658819795500,2.82879541015625,-0.0005129994824528694,0.0016406320501118898,0.0033864686265587807
1761468658829778400,2.8387783203125,0.000337488017976284,-0.00247487286105752,-0.000607998576015234
1761468658839761400,2.848761474609375,-0.0004303012974560261,0.0032743592746555805,0.0015257259365171194
1761468658849744400,2.858744384765625,-0.0035500586964190006,0.0009697556961327791,-0.000866598216816783
1761468658859727400,2.868727294921875,0.0015099472366273403,0.0032864392269402742,-0.000836770748719573
1761468658869710300,2.87871044921875,0.000807217787951231,-0.0007963709067553282,-0.0007648689206689596
1761468658879693600,2.888693603515625,-0.0001315465196967125,0.0012939441949129105,-0.0006607393734157085
1761468658889676300,2.89867626953125,0.001079438254237175,0.0005763869266957045,0.00016584061086177826
1761468658899659500,2.908659423828125,-0.0016692103818058968,0.002487471094354987,-0.00025467248633503914
1761468658909642500,2.918642578125,0.000023331958800554276,0.0030029858462512493,0.0008885560091584921
1761468658919625500,2.92862548828125,0.001174350269138813,0.0014413082972168922,-0.0025330730713903904
1761468658929608400,2.9386083984375,0.0008400487713515759,-0.0003883747849613428,-0.0012700706720352173
1761468658939591400,2.94859130859375,0.0014509777538478374,0.0004606409929692745,-0.00016619032248854637
1761468658949574400,2.958574462890625,0.0007505319081246853,-0.0015248013660311699,-0.0011369104031473398
1761468658959557600,2.9685576171875,-0.0020204870961606503,-0.0005958906840533018,0.004554264713078737
1761468658969540400,2.978540283203125,-0.00009499303996562958,-0.005632583051919937,-0.0012213245499879122
1761468658979523300,2.9885234375,-0.0025264588184654713,-0.00036857882514595985,0.0015598146710544825
1761468658989506600,2.998506591796875,-0.0017455616034567356,-0.0006477769929915667,0.0018504958134144545
1761468658999489500,3.008489501953125,0.0014710044488310814,-0.000024863751605153084,-0.0016459684120491147
1761468659009472300,3.01847216796875,-0.0005327947437763214,0.0037351089995354414,-0.0011556174140423536
1761468659019455500,3.02845556640625,0.00033939070999622345,0.0002993650268763304,-0.0006642641965299845
1761468659029438500,3.0384384765625,-0.000517639797180891,0.001300034811720252,-0.0007509493734687567
1761468659039421400,3.04842138671875,-0.003171479795128107,0.0006313154008239508,-0.002435931470245123
1761468659049404400,3.058404296875,-0.0004474553279578686,0.0009107538498938084,-0.0015381134580820799
1761468659059387400,3.068387451171875,-0.0015974082052707672,-0.0005678331945091486,-0.001104018185287714
1761468659069370600,3.07837060546875,-0.0009517678990960121,-0.003664210205897689,-0.002593528013676405
1761468659079353300,3.088353271484375,0.0024091415107250214,0.006766326725482941,0.004347202368080616
1761468659089336300,3.09833642578125,-0.0006502675823867321,-0.0021242229267954826,-0.0007747227791696787
1761468659099319600,3.108319580078125,-0.0007767677307128906,0.003282260149717331,0.001332104206085205
1761468659109302500,3.118302490234375,0.0010245414450764656,-0.0026019650977104902,-0.0005129347555339336
1761468659119285200,3.12828515625,-0.003191775642335415,0.00024761748500168324,-0.0019201490795239806
1761468659129268500,3.1382685546875,0.0010202815756201744,-0.0018582077464088798,0.0013846391811966896
1761468659139251500,3.14825146484375,-0.0003086361102759838,-0.00040545337833464146,0.0022935764864087105
1761468659149234400,3.158234375,-0.0006569367833435535,0.0038572819903492928,0.0018895710818469524
1761468659159216400,3.16821630859375,-0.0006689210422337055,-0.0038384548388421535,-0.002229007426649332
1761468659169199400,3.178199462890625,-0.0018214811570942402,0.0021196152083575726,0.003000975353643298
1761468659179179300,3.18817919921875,0.0014070686884224415,0.001760887447744608,-0.0002267756499350071
1761468659189162200,3.198162353515625,0.0010441932827234268,0.0009726851712912321,-0.00047617871314287186
1761468659199145000,3.20814501953125,-0.001467434223741293,-0.0032979599200189114,-0.002532671671360731
1761468659209128200,3.218128173828125,0.0009759250096976757,0.0073172543197870255,0.00166174559853971
1761468659219111200,3.228111083984375,0.0011298558674752712,-0.003958037123084068,-0.0038496660999953747
1761468659229094100,3.23809423828125,-0.00026846490800380707,0.003093819599598646,-0.00006737862713634968
1761468659239077000,3.2480771484375,0.0020663284230977297,0.0018530525267124176,-0.0037534600123763084
1761468659249060000,3.25806005859375,-0.0003532138653099537,-0.003125719027593732,-0.0005807110574096441
1761468659259043300,3.268043212890625,0.00011177407577633858,-0.001130212564021349,-0.00045234663411974907
1761468659269026300,3.2780263671875,0.002045022090896964,-0.0014406971167773008,0.0007797693833708763
1761468659279009000,3.288009033203125,0.00044446252286434174,-0.002688121749088168,-0.0018357210792601109
1761468659288992300,3.2979921875,0.0030523028690367937,0.00016414839774370193,0.002033921657130122
1761468659298975200,3.307975341796875,-0.0007363101467490196,0.00041927932761609554,0.0017428381834179163
1761468659308958200,3.317958251953125,-0.0029669543728232384,0.0004874833393841982,0.0021495725959539413
1761468659318941200,3.327941162109375,-0.0006715757772326469,0.0016590079758316278,0.0008528796024620533
1761468659328924200,3.337924072265625,-0.0020313323475420475,-0.002697321819141507,-0.0024116288404911757
1761468659338907100,3.3479072265625,-0.0017090896144509315,0.0010119287762790918,0.002303497865796089
1761468659348890000,3.35789013671875,-0.002181573770940304,-0.0037797994446009398,0.0022325271274894476
1761468659358873000,3.367873046875,-0.0008153719827532768,0.0039976960979402065,0.0018873813096433878
1761468659368856000,3.37785595703125,0.0005598119460046291,0.0008542516734451056,0.0002827646676450968
1761468659378839300,3.38783935546875,0.003931906074285507,0.000001507345587015152,-0.00036198669113218784
1761468659388822000,3.397822021484375,-0.0007835328578948975,-0.003635866567492485,-0.0054454985074698925
1761468659398805200,3.40780517578125,-0.00019151205196976662,0.006142728496342897,0.0008869657758623362
1761468659408788200,3.417788330078125,-0.00249228673055768,-0.006219205446541309,-0.002192779676988721
1761468659418771200,3.427771240234375,0.00020203320309519768,0.0019929183181375265,-0.0017421727534383535
1761468659428754200,3.437754150390625,0.0009629353880882263,-0.0004839531611651182,0.0001400723122060299
1761468659438737200,3.447737060546875,-0.0022989041171967983,0.0009405717719346285,-0.0010604807175695896
1761468659448720100,3.45772021484375,0.0020988318137824535,-0.0008634692057967186,-0.0006709867157042027
1761468659458703400,3.467703369140625,0.0012905625626444817,0.004100663587450981,0.0027069668285548687
1761468659468686000,3.47768603515625,0.0012075393460690975,-0.0007734408136457205,0.0008913679048418999
1761468659478669000,3.4876689453125,0.0013417629525065422,-0.007909913547337055,-0.0010266408789902925
1761468659488652300,3.49765234375,-0.00044415146112442017,0.00036139111034572124,0.0023118196986615658
1761468659498635300,3.50763525390625,-0.0009437603875994682,-0.004983573220670223,-0.00029568118043243885
1761468659508618200,3.5176181640625,-0.0011332374997437,0.002375153126195073,0.0006272364407777786
1761468659518601200,3.527601318359375,-0.0004200432449579239,-0.0008006663993000984,0.0011529442854225636
1761468659528584200,3.537584228515625,-0.0009947684593498707,0.00044652633368968964,-0.002941204234957695
1761468659538567200,3.547567138671875,0.0018976908177137375,-0.005171145778149366,-0.001070333644747734
1761468659548550100,3.557550048828125,-0.0016457601450383663,0.00042127305641770363,-0.0003701739478856325
1761468659558533000,3.567533203125,0.0010464293882250786,0.0071239168755710125,-0.0005928142927587032
1761468659568516400,3.577516357421875,-0.001237437129020691,-0.0008151205256581306,0.0013283807784318924
1761468659578499000,3.5874990234375,0.0003937492147088051,-0.005091624800115824,-0.0023137584794312716
1761468659588482000,3.59748193359375,-0.003598609007894993,0.001536959083750844,-0.00010466459207236767
1761468659598465300,3.60746533203125,-0.0009306538850069046,-0.0040274495258927345,0.000394678208976984
1761468659608448300,3.6174482421875,0.0020195390097796917,0.0019523638766258955,0.001738174818456173
1761468659618431000,3.627430908203125,-0.00031445547938346863,-0.0008562060538679361,-0.00013376097194850445
1761468659628414200,3.637414306640625,0.002125878119841218,0.0032629373017698526,-0.0011163258459419012
1761468659638397200,3.647397216796875,-0.0007466073147952557,-0.001764311920851469,-0.0016279190313071012
1761468659648380200,3.657380126953125,-0.0009335428476333618,-0.001240281155332923,-0.004284826572984457
1761468659658363100,3.667363037109375,0.000003091059625148773,-0.00020271353423595428,0.001185838831588626
1761468659668345000,3.677344970703125,0.0008351178839802742,-0.004134094342589378,-0.0007667890749871731
1761468659678328300,3.687328369140625,0.0009453729726374149,0.0015429663471877575,-0.0002314937300980091
1761468659688311000,3.69731103515625,-0.0007049958221614361,0.002013961086049676,0.0007669162005186081
1761468659698294300,3.707294189453125,0.002109699184074998,0.0021026444155722857,-0.00008502928540110588
1761468659708277200,3.71727734375,0.00014342600479722023,-0.0013175064232200384,-0.0008348426781594753
1761468659718260200,3.72726025390625,-0.002226521261036396,-0.0029668021015822887,-0.001460951752960682
1761468659728243200,3.7372431640625,0.0020337209571152925,0.0002743785735219717,0.0014452934265136719
1761468659738226200,3.74722607421875,0.0009154598228633404,0.0043021440505981445,0.0007589966990053654
1761468659748209200,3.757209228515625,-0.001017027534544468,-0.0015085830818861723,-0.0005155226681381464
1761468659758192000,3.767192138671875,-0.00031874654814600945,-0.003569869790226221,-0.00022550439462065697
1761468659768175000,3.777175048828125,0.0023952252231538296,0.002295403741300106,0.0017963012214750051
1761468659778158000,3.787157958984375,-0.0014514448121190071,-0.004878619685769081,-0.0010167956352233887
1761468659788141300,3.797141357421875,0.0003557601012289524,-0.002810235833749175,-0.0002172545064240694
1761468659798124000,3.8071240234375,-0.00013159820809960365,-0.0049926964566111565,-0.0024186233058571815
1761468659808107300,3.817107177734375,0.0004899110645055771,0.002121743280440569,0.00010626111179590225
1761468659818090200,3.82709033203125,0.0011588972993195057,0.0017110835760831833,0.0018104177433997393
1761468659828073200,3.8370732421875,0.0028094365261495113,-0.0012677053455263376,-0.0020646904595196247
1761468659838056200,3.84705615234375,-0.0015469621866941452,0.0022969357669353485,0.00038381991907954216
1761468659848039200,3.8570390625,0.0010888786055147648,-0.007048380561172962,-0.00321843009442091
1761468659858022100,3.867022216796875,0.0011048573069274426,0.004102274309843779,0.002621882129460573
1761468659868005400,3.87700537109375,-0.000515080988407135,-0.006249637342989445,-0.0005134060047566891
1761468659877988000,3.886988037109375,0.0009531197138130665,0.0003062663599848747,0.0032677501440048218
1761468659887971000,3.89697119140625,0.00006442563608288765,-0.0054197004064917564,-0.001042582793161273
1761468659897954300,3.906954345703125,-0.0009270692244172096,-0.0040724072605371475,-0.0008263341151177883
1761468659907937300,3.916937255859375,0.002471389714628458,0.01158085372298956,0.0027114800177514553
1761468659917920000,3.926919921875,0.0009496593847870827,-0.006062055937945843,-0.00024462887085974216
1761468659927903200,3.9369033203125,0.0013717934489250183,0.0010350255761295557,0.0003175626043230295
1761468659937886200,3.94688623046875,0.0008266442455351353,0.005039621144533157,0.0009758961386978626
1761468659947869200,3.956869140625,-0.00042762234807014465,-0.005541407037526369,-0.0015115594724193215
1761468659957852200,3.96685205078125,-0.000631354283541441,0.0038022936787456274,0.002093561692163348
1761468659967835100,3.976835205078125,0.0007656142115592957,-0.0028767413459718227,-0.0005539089906960726
1761468659977818400,3.986818359375,0.00013630930334329605,-0.0036157683935016394,-0.0010396696161478758
1761468659987801000,3.996801025390625,0.00025255465880036354,-0.0015569787938147783,-0.0007602714467793703
1761468659997783300,4.006783203125,-0.00016662664711475372,0.0030907699838280678,-0.0003213824238628149
1761468660007766300,4.016766357421875,0.001779687125235796,0.002106972737237811,-0.0006449625361710787
1761468660017749000,4.0267490234375,0.001248386688530445,0.0016603607218712568,-0.0011882472317665815
1761468660027732200,4.036732177734375,-0.002325877547264099,0.00045185256749391556,-0.0022291410714387894
1761468660037715200,4.046715087890625,0.0007194476202130318,-0.0020208924543112516,0.00016317656263709068
1761468660047698200,4.0566982421875,-0.0012336228974163532,-0.0012664534151554108,0.0003133199643343687
1761468660057681200,4.06668115234375,0.0005405750125646591,-0.002527726348489523,-0.0010065427049994469
1761468660067664100,4.0766640625,-0.00020655663684010506,-0.0004980056546628475,-0.0008983684238046408
1761468660077647000,4.086647216796875,-0.00007952377200126648,0.00253986194729805,0.0021107373759150505
1761468660087630300,4.09663037109375,0.0005907421000301838,0.0016209937166422606,-0.001753572840243578
1761468660097613000,4.106613037109375,0.001355868298560381,-0.0006078055594116449,-0.000525056617334485
1761468660107596000,4.116595947265625,-0.0008794283494353294,-0.001958896405994892,0.0019148846622556448
1761468660117579300,4.126579345703125,-0.0010014013387262821,0.002103223232552409,-0.0014745203079655766
1761468660127562200,4.136562255859375,-0.0006229081191122532,0.0008498986717313528,-0.0024091782979667187
1761468660137545200,4.146545166015625,-0.00014167465269565582,-0.0011293627321720123,0.002539773704484105
1761468660147528200,4.156528076171875,-0.0005297274328768253,-0.002383696846663952,0.0004503785166889429
1761468660157511200,4.16651123046875,-0.0009502405300736427,-0.0001825941726565361,0.0010839446913450956
1761468660167494400,4.176494384765625,0.0008621388114988804,-0.0007860921323299408,-0.0009081799071282148
1761468660177477000,4.18647705078125,-0.0012518786825239658,0.0004421577323228121,-0.0007864735089242458
1761468660187460600,4.196460693359375,-0.0013930448330938816,0.0012965984642505646,0.0032029275316745043
1761468660197443800,4.20644384765625,0.0009263022802770138,-0.00667264498770237,-0.0022799884900450706
1761468660207426800,4.2164267578125,-0.00023683393374085426,-0.001621839590370655,-0.0008911013137549162
1761468660217409500,4.226409423828125,0.0008723726496100426,-0.00838919822126627,-0.0011456995271146297
1761468660227391700,4.236391845703125,-0.0009070844389498234,0.0034855708945542574,0.0005638322327286005
1761468660237374700,4.246374755859375,-0.000030638184398412704,0.0032440221402794123,0.0041055697947740555
1761468660247357700,4.256357666015625,0.0015174169093370438,-0.006024021655321121,-0.00021640444174408913
1761468660257340700,4.266340576171875,-0.0017886310815811157,0.005854476243257523,0.0006235567852854729
1761468660267323600,4.27632373046875,-0.00022973213344812393,0.00007435516454279423,0.0010673108045011759
1761468660277307000,4.286306884765625,0.0014922674745321274,0.000021890969946980476,0.0022667984012514353
1761468660287289600,4.29628955078125,-0.0004469463601708412,-0.004463404882699251,-0.0008253979030996561
1761468660297272600,4.3062724609375,-0.0002959449775516987,0.0013058008626103401,-0.0025013252161443233
1761468660307255800,4.316255859375,0.0002851742319762707,0.0011795195750892162,0.00112782116048038
1761468660317238500,4.326238525390625,-0.0003529191017150879,0.0032583829015493393,0.0003320684190839529
1761468660327221800,4.3362216796875,0.00046218419447541237,-0.0010632751509547234,-0.0013089615385979414
1761468660337204700,4.346204833984375,-0.0019588954746723175,0.00017030094750225544,-0.00033770687878131866
1761468660347187700,4.356187744140625,-0.0006409380584955215,-0.0010803714394569397,-0.004199429880827665
1761468660357170700,4.366170654296875,0.0008765310049057007,0.002533271675929427,-0.00040389271453022957
1761468660367153700,4.376153564453125,-0.00097624771296978,-0.005581912584602833,0.00018333434127271175
1761468660377136600,4.38613671875,0.0010458901524543762,0.0021777397487312555,0.002067254390567541
1761468660387119900,4.396119873046875,0.0012239227071404457,-0.004090080037713051,-0.0015410572523251176
1761468660397102600,4.4061025390625,0.0005802367813885212,-0.00008734897710382938,0.002053677337244153
1761468660407085600,4.41608544921875,0.00022471463307738304,0.0002906236331909895,0.0033658118918538094
1761468660417068800,4.42606884765625,-0.002454692032188177,-0.002994385315105319,0.001298932358622551
1761468660427051800,4.4360517578125,0.00038605788722634315,-0.00011305930092930794,0.0011416790075600147
1761468660437034500,4.446034423828125,-0.0008315392769873142,0.0005790961440652609,-0.002646933775395155
1761468660447017700,4.456017822265625,-0.001974224578589201,0.000076997559517622,0.0025773250963538885
1761468660457000700,4.466000732421875,-0.0013270764611661434,-0.0017744319047778845,0.00117250788025558
1761468660466983700,4.475983642578125,0.0005118846893310547,-0.001119156600907445,-0.0029012695886194706
1761468660476966700,4.485966552734375,0.00003704335540533066,0.00044145574793219566,0.0001706867478787899
1761468660486949600,4.49594970703125,0.0016968166455626488,0.0024783846456557512,-0.0007949620485305786
1761468660496932900,4.505932861328125,-0.00010880641639232635,-0.0016846687067300081,-0.0014908461598679423
1761468660506915600,4.51591552734375,0.00022641615942120552,0.0035456218756735325,0.0034991796128451824
1761468660516898600,4.525898681640625,-0.0009544291533529758,-0.004111765418201685,-0.0011448406148701906
1761468660526881800,4.5358818359375,-0.0024113249965012074,0.0002378204371780157,0.00036569475196301937
1761468660536864800,4.54586474609375,0.00020150234922766685,0.003948935307562351,0.0008155028335750103
1761468660546847500,4.555847412109375,-0.003194252960383892,-0.0009064653422683477,0.00010750559158623219
1761468660556830700,4.565830810546875,-0.0015372340567409992,-0.0009325642604380846,0.0007426694501191378
1761468660566813700,4.575813720703125,-0.0016648019663989544,-0.003891385393217206,-0.00021194643341004848
1761468660576796700,4.585796630859375,-0.0029316674917936325,-0.0017392849549651146,-0.0007903850637376308
1761468660586779600,4.595779541015625,-0.0006112442351877689,0.0013793299440294504,0.0004618307575583458
1761468660596762600,4.6057626953125,0.0005461657419800758,-0.0022116764448583126,0.00011828308925032616
1761468660606745600,4.61574560546875,-0.002802254632115364,-0.0009158607572317123,0.0009265565313398838
1761468660616728800,4.625728759765625,0.001497951801866293,-0.0017196028493344784,-0.0013278094120323658
1761468660626711600,4.635711669921875,0.0002761213108897209,-0.0015858872793614864,-0.0016465202206745744
1761468660636694800,4.64569482421875,-0.003114881459623575,0.0013915267772972584,-0.0023695684503763914
1761468660646677800,4.655677734375,0.0013913363218307495,0.003426514333114028,-0.002477569505572319
1761468660656660700,4.66566064453125,0.0017623146995902061,-0.00015836674720048904,0.0007826723158359528
1761468660666643700,4.675643798828125,-0.00012144679203629494,-0.0017853575991466641,-0.0030125267803668976
1761468660676626700,4.685626708984375,0.0004021306522190571,-0.009466713294386864,-0.003793099196627736
1761468660686609700,4.695609619140625,0.0010133832693099976,0.008282407186925411,0.0027380401734262705
1761468660696592600,4.705592529296875,0.001653607003390789,-0.0005718045867979527,-0.00025482033379375935
1761468660706575600,4.71557568359375,0.0029130589682608843,0.0011344673112034798,-0.0006877761334180832
1761468660716558600,4.72555859375,-0.000875554047524929,0.002980038058012724,-0.0005705971270799637
1761468660726540500,4.73554052734375,0.000916541088372469,-0.001596440328285098,-0.0019519909983500838
1761468660736523500,4.7455234375,-0.00479221111163497,0.0006222391966730356,0.00022940430790185928
1761468660746506800,4.7555068359375,0.00012569688260555267,0.0026479086373001337,0.0016849585808813572
1761468660756489700,4.76548974609375,0.0014064107090234756,-0.0028592420276254416,-0.002659722464159131
1761468660766472700,4.77547265625,0.00020185811445116997,-0.0013112917076796293,-0.001307235099375248
1761468660776455700,4.78545556640625,0.0019241245463490486,-0.00009236298501491547,0.001381492242217064
1761468660786438700,4.795438720703125,0.0005722418427467346,-0.0016700432170182467,-0.0014755453448742628
1761468660796422000,4.805421875,-0.00023389700800180435,0.000020265113562345505,-0.00022625643759965897
1761468660806404600,4.815404541015625,0.0016740360297262669,-0.004705950617790222,-0.00034070806577801704
1761468660816387600,4.8253876953125,-0.0019742283038794994,0.0026544940192252398,0.002710741711780429
1761468660826370800,4.835370849609375,-0.0006273430772125721,-0.00012311036698520184,0.00008972501382231712
1761468660836353800,4.845353759765625,-0.001722435001283884,0.0005746379029005766,0.001455127727240324
1761468660846336500,4.85533642578125,-0.0003755083307623863,0.0012219829950481653,0.000003568129613995552
1761468660856319700,4.86531982421875,0.0007342305034399033,0.0019908377435058355,-0.0009160211775451899
1761468660866302700,4.875302734375,0.003340050345286727,0.002460520016029477,-0.00116855395026505
1761468660876285700,4.88528564453125,-0.001045376993715763,0.004313814453780651,-0.00047053955495357513
1761468660886268700,4.8952685546875,0.0027923330198973417,0.0008481445256620646,-0.0021585063077509403
1761468660896251600,4.905251708984375,0.00024848151952028275,0.0027839962858706713,-0.00133638852275908
1761468660906234600,4.915234619140625,0.0016119708307087421,0.0014087650924921036,0.0009962369222193956
1761468660916217600,4.925217529296875,0.0012119640596210957,-0.0028927726671099663,0.0004313807003200054
1761468660926200600,4.93520068359375,-0.002706446684896946,-0.001287758583202958,0.002665954176336527
1761468660936183800,4.945183837890625,0.0010914872400462627,-0.00004938873462378979,-0.00026458827778697014
1761468660946166800,4.955166748046875,-0.0005992059595882893,-0.002971573732793331,-0.0006713299080729485
1761468660956149500,4.9651494140625,0.0004644603468477726,-0.000338240060955286,-0.002510508755221963
1761468660966132700,4.9751328125,0.0007026977837085724,-0.0018675277242437005,0.0010920793283730745
1761468660976115700,4.98511572265625,-0.003434522543102503,-0.0015138599555939436,-0.001113816862925887
1761468660986098700,4.9950986328125,-0.0014825011603534222,-0.0026430627331137657,-0.003590963315218687
1761468660996081700,5.00508154296875,0.0014509707689285278,0.007185866124927998,0.003013942390680313
1761468661006064600,5.015064697265625,-0.0031736642122268677,-0.006207217462360859,-0.00006887153722345829
1761468661016047600,5.025047607421875,0.0015792790800333023,0.001963360933586955,0.0003401900175958872
1761468661026030800,5.03503076171875,0.0013809478841722012,0.0010336705017834902,-0.0003027855418622494
1761468661036013600,5.045013671875,-0.0004997765645384789,-0.0001698120031505823,0.0011539633851498365
1761468661045996500,5.05499658203125,0.000631207600235939,0.0017514012288302183,0.0010708640329539776
1761468661055979800,5.064979736328125,-0.0010290071368217468,-0.0021804897114634514,-0.00035445974208414555
1761468661065962800,5.074962646484375,-0.0007667643949389458,0.0008670780807733536,-0.0028352371882647276
1761468661075945700,5.08494580078125,0.00009530084207654,0.0017027780413627625,0.001232474809512496
1761468661085928700,5.0949287109375,-0.0014546210877597332,-0.0017922818660736084,-0.0000035746488720178604
1761468661095911700,5.10491162109375,0.0003984062932431698,-0.0018519366858527064,0.0011338614858686924
1761468661105894700,5.114894775390625,-0.0011887489818036556,0.005828136578202248,0.0005473119672387838
1761468661115877600,5.124877685546875,-0.0030162096954882145,-0.0010252422653138638,0.0002732726279646158
1761468661125860600,5.134860595703125,-0.0003183768130838871,0.005248729605227709,0.0008474190253764391
1761468661135843800,5.14484375,-0.00197592843323946,-0.0009521748870611191,-0.0026415882166475058
1761468661145826600,5.15482666015625,-0.00046866200864315033,0.00022830604575574398,0.0011597429402172565
1761468661155809500,5.1648095703125,-0.0009874459356069565,-0.0005866214632987976,0.0011355080641806126
1761468661165792800,5.174792724609375,-0.002878277562558651,0.00047094537876546383,-0.0016091469442471862
1761468661175775700,5.184775634765625,-0.00033948570489883423,-0.0011368049308657646,-0.0008962186984717846
1761468661185758500,5.194758544921875,-0.000928209163248539,-0.0016568489372730255,0.0012688019778579473
1761468661195741400,5.204741455078125,0.0002467771992087364,-0.003305878257378936,-0.0003725043497979641
1761468661205724400,5.214724365234375,0.000053907278925180435,-0.005223669111728668,-0.0003880185540765524
1761468661215707600,5.224707763671875,-0.0004904428496956825,0.0021277207415550947,0.0005763119552284479
1761468661225690400,5.2346904296875,-0.00043106684461236,-0.00029471423476934433,0.0008772511500865221
1761468661235673300,5.24467333984375,-0.00043239863589406013,0.0019695053342729807,0.0012375765945762396
1761468661245655600,5.254655517578125,-0.0028425022028386593,0.001683531329035759,0.0006897007115185261
1761468661255638300,5.26463818359375,0.00006780028343200684,0.0015924512408673763,-0.00009140442125499249
1761468661265621500,5.27462158203125,-0.0003558010794222355,0.0006751369219273329,-0.0005842470563948154
1761468661275604500,5.2846044921875,-0.0008713887073099613,-0.00032940739765763283,-0.002344863023608923
1761468661285587500,5.29458740234375,0.00013867532834410667,0.0022356128320097923,-0.00020689284428954124
1761468661295570400,5.3045703125,-0.001014739740639925,-0.0003516480792313814,-0.0016114439349621534
1761468661305553400,5.314553466796875,-0.00037400005385279655,0.007384559139609337,-0.002813836559653282
1761468661315536400,5.324536376953125,-0.002096798736602068,-0.0028060267213732004,0.0002546575851738453
1761468661325519400,5.334519287109375,-0.0014490308240056038,0.002470786217600107,0.00006933975964784622
1761468661335502300,5.34450244140625,0.0002644471824169159,-0.003105606883764267,-0.001356783090159297
1761468661345485600,5.354485595703125,-0.002882246859371662,-0.00029633683152496815,0.00001423712819814682
1761468661355468500,5.364468505859375,0.000298899132758379,-0.00023295357823371887,0.000885889632627368
1761468661365451300,5.374451171875,-0.00018237251788377762,-0.0031684308778494596,0.0016078695189207792
1761468661375434500,5.3844345703125,-0.0014708098024129868,-0.0019332568626850843,0.0020464921835809946
1761468661385417500,5.39441748046875,-0.00004170695319771767,-0.0023397072218358517,0.0003198476042598486
1761468661395400400,5.404400390625,0.0012331483885645866,-0.003801782615482807,-0.0011861701495945454
1761468661405383400,5.414383544921875,-0.0002536121755838394,0.0006202834192663431,0.0006991412956267595
1761468661415366400,5.424366455078125,0.0013426868245005608,-0.0018564565107226372,0.003147651208564639
1761468661425349400,5.434349365234375,0.0013518761843442917,-0.0028808615170419216,-0.0009361444972455502
1761468661435332600,5.44433251953125,-0.0004052775911986828,0.0012289287988096476,-0.0007286842446774244
1761468661445315300,5.4543154296875,0.0010928609408438206,0.002895513316616416,0.0020125729497522116
1761468661455298300,5.46429833984375,-0.00007946277037262917,0.0050430865958333015,-0.0029472983442246914
1761468661465281500,5.474281494140625,0.0008161361329257488,0.0016977246850728989,0.0003493677359074354
1761468661475264500,5.484264404296875,0.0015106885693967342,0.002148331142961979,-0.00015263794921338558
1761468661485247500,5.49424755859375,-0.001987359020859003,0.00006938818842172623,-0.0012741286773234606
1761468661495230500,5.50423046875,0.0007785996422171593,0.001561823533847928,-0.0028288820758461952
1761468661505213400,5.51421337890625,0.0011466527357697487,-0.003783793654292822,-0.0007179281674325466
1761468661515196400,5.524196533203125,-0.0018765679560601711,-0.0022575361654162407,-0.0018234063172712922
1761468661525179400,5.534179443359375,0.0023279928136616945,-0.002093002200126648,0.0005971437785774469
1761468661535162400,5.544162353515625,-0.0020648916251957417,0.0037712783087044954,0.002470145234838128
1761468661545145600,5.5541455078125,-0.00126999756321311,-0.00036672945134341717,0.0002750272396951914
1761468661555128300,5.56412841796875,-0.00016292184591293335,-0.004012596793472767,-0.0035825613886117935
1761468661565111300,5.574111328125,0.001796843484044075,-0.005444901064038277,-0.0022637618239969015
1761468661575094500,5.584094482421875,0.0031041891779750586,0.00458269938826561,0.0017096742521971464
1761468661585077500,5.594077392578125,0.000007778871804475784,-0.001840137643739581,0.0009990083053708076
1761468661595060200,5.604060302734375,-0.002714238129556179,0.0030941672157496214,0.0006053932011127472
1761468661605043500,5.61404345703125,0.0011061006225645542,0.00009490619413554668,-0.0016605500131845474
1761468661615026400,5.6240263671875,-0.004003706853836775,0.0006959817837923765,0.0014383040834218264
1761468661625009700,5.634009765625,0.0009116604924201965,-0.000960066681727767,0.0008725842926651239
1761468661634992400,5.643992431640625,0.003850991604849696,0.0022184159606695175,0.0017210675869137049
1761468661644975400,5.653975341796875,-0.0036833640187978745,-0.004535045474767685,0.0011018086224794388
1761468661654958600,5.66395849609375,-0.0013765334151685238,0.002045891946181655,-0.0003615983296185732
1761468661664941600,5.673941650390625,-0.00035434262827038765,0.0030667546670883894,0.0017263861373066902
1761468661674924300,5.68392431640625,0.0003769616596400738,-0.0004382315091788769,-0.0013524945825338364
1761468661684907500,5.693907470703125,0.003142668167129159,-0.0026880428194999695,-0.0030710333958268166
1761468661694890500,5.703890380859375,0.0008283811621367931,-0.000013430137187242508,-0.0009982951451092958
1761468661704873200,5.713873291015625,0.0005653472617268562,0.0027067644987255335,0.0023158802650868893
1761468661714856400,5.7238564453125,-0.0002618301659822464,0.0003874178510159254,0.00038136006332933903
1761468661724839400,5.73383935546875,-0.0001808488741517067,-0.0017810605932027102,0.000758457463234663
1761468661734822400,5.743822509765625,0.00215447717346251,-0.0033688372932374477,-0.0022458545863628387
1761468661744805400,5.753805419921875,-0.0017238613218069077,-0.00005506584420800209,0.0005419424269348383
1761468661754788400,5.763788330078125,0.00022317562252283096,-0.007812054827809334,-0.0006495558191090822
1761468661764771600,5.773771484375,0.002707160310819745,-0.003022541757673025,0.0012606680393218994
1761468661774754600,5.783754638671875,0.0006788969039916992,0.0015042994637042284,-0.00017131376080214977
1761468661784737300,5.7937373046875,0.001678945031017065,0.0009739513043314219,0.0013637947849929333
1761468661794720500,5.803720458984375,-0.00041643017902970314,-0.0020271651446819305,0.0015872339718043804
1761468661804703500,5.813703369140625,0.0020204808097332716,0.0004800730384886265,0.0025067597161978483
1761468661814686500,5.8236865234375,0.000990103930234909,-0.00504918210208416,-0.0008070115000009537
1761468661824669400,5.83366943359375,0.0006092716939747334,-0.007783182896673679,-0.0016869198298081756
1761468661834652400,5.84365234375,-0.001657610759139061,0.003521669190376997,0.0020207331981509924
1761468661844634600,5.853634521484375,0.0021424675360322,0.0024950471706688404,0.0017291156109422445
1761468661854617300,5.863617431640625,-0.002978791482746601,0.00004680338315665722,-0.001477064099162817
1761468661864600300,5.873600341796875,-0.00010568974539637566,0.0022964768577367067,0.00006896583363413811
1761468661874583600,5.88358349609375,-0.0020466013811528683,0.0009137636516243219,-0.0015057611744850874
1761468661884566500,5.89356640625,-0.00201072683557868,0.0015354594215750694,-0.004233894404023886
1761468661894549200,5.90354931640625,0.003833579830825329,0.0020960550755262375,-0.0025313356891274452
1761468661904532500,5.913532470703125,-0.0003204941749572754,-0.0038324303459376097,-0.0020718141458928585
1761468661914515500,5.923515380859375,-0.0009900126606225967,0.0026805961970239878,0.0010643242858350277
1761468661924498400,5.93349853515625,0.00028707319870591164,-0.005878733936697245,-0.003051720792427659
1761468661934481400,5.9434814453125,-0.00041147368028759956,-0.001846175524406135,-0.00005859415978193283
1761468661944464400,5.95346435546875,-0.0006951997056603432,0.0038324850611388683,-0.0011890472378581762
1761468661954447600,5.963447509765625,-0.0008198358118534088,-0.0019827932119369507,-0.0016772046219557524
1761468661964430300,5.973430419921875,-0.0012671914882957935,0.00040763523429632187,0.00206707208417356
1761468661974413300,5.983413330078125,0.0007855729199945927,0.00031176116317510605,-0.0005950238555669785
1761468661984396500,5.993396484375,0.00030721817165613174,-0.003593328408896923,-0.0016400418244302273
1761468661994379500,6.003379638671875,-0.0019253096543252468,0.0022413909900933504,0.001380781875923276
1761468662004362200,6.0133623046875,0.001516722608357668,-0.003809324000030756,-0.0020274752750992775
1761468662014345500,6.023345458984375,-0.0010763974860310555,0.003223551670089364,-0.0016381212044507265
1761468662024328400,6.033328369140625,-0.0003336416557431221,-0.002249510493129492,-0.0005424967966973782
1761468662034311400,6.0433115234375,-0.0005727936513721943,0.0009137920569628477,-0.00006312783807516098
1761468662044294400,6.05329443359375,0.0028427690267562866,-0.008674931712448597,-0.0035171073395758867
1761468662054277400,6.06327734375,0.0009242277592420578,0.009566389955580235,0.0014968262985348701
1761468662064260600,6.073260498046875,-0.0006596269086003304,0.0023630557116121054,-0.0038623863365501165
1761468662074243600,6.08324365234375,0.0009404001757502556,0.0023779694456607103,-0.0008634007535874844
1761468662084226300,6.093226318359375,0.001870531588792801,0.0017807355616241693,-0.0012604526709765196
1761468662094209500,6.10320947265625,0.002995717339217663,-0.003937337547540665,-0.0016849605599418283
1761468662104192500,6.113192626953125,0.0009311782196164131,-0.00027367426082491875,0.0007743933238089085
1761468662114175200,6.12317529296875,-0.0007585976272821426,0.0019415428396314383,-0.0013308352790772915
1761468662124158500,6.133158447265625,0.0010237861424684525,0.0010647571180015802,0.0009969763923436403
1761468662134141400,6.143141357421875,0.0002240389585494995,0.001142255263403058,0.00014050398021936417
1761468662144124400,6.15312451171875,0.000739766750484705,-0.0008408548310399055,0.0005088336765766144
1761468662154107400,6.163107421875,0.0006223213858902454,-0.005634012166410685,-0.003053144318982959
1761468662164090400,6.17309033203125,-0.00044395215809345245,-0.002745233941823244,0.0004394988063722849
1761468662174073300,6.1830732421875,0.0015110746026039124,-0.0020762477070093155,0.00037291995249688625
1761468662184056600,6.193056640625,-0.0014381390064954758,0.0041531589813530445,0.0016219408717006445
1761468662194039600,6.20303955078125,-0.0024735755287110806,-0.005872044712305069,-0.0026849231217056513
1761468662204022500,6.2130224609375,-0.0006059710867702961,0.005450577940791845,0.003387273056432605
1761468662214005500,6.223005615234375,-0.0008163605816662312,-0.004146123304963112,-0.0004498092457652092
1761468662223988500,6.232988525390625,-0.001449155155569315,0.0053001223132014275,0.0006374840158969164
1761468662233971500,6.242971435546875,0.0009562121704220772,-0.003527191234752536,0.000740282004699111
1761468662243954400,6.252954345703125,0.0028417992871254683,0.006111087277531624,0.0015236872714012861
1761468662253937400,6.2629375,-0.0022317892871797085,-0.00859488733112812,-0.004284400958567858
1761468662263920600,6.272920654296875,0.0004311753436923027,0.004172646440565586,0.0020252836402505636
1761468662273903400,6.2829033203125,0.0006708595901727676,0.00026552239432930946,-0.0012408171314746141
1761468662283886300,6.29288623046875,0.00030951201915740967,-0.00023593055084347725,0.0008004980627447367
1761468662293869600,6.30286962890625,0.0006653103046119213,0.003870397573336959,0.0011235394049435854
1761468662303852500,6.3128525390625,-0.00014096032828092575,0.0007346214260905981,0.0001697479747235775
1761468662313835300,6.322835205078125,-0.00020487606525421143,0.00154209160245955,0.0005902610719203949
1761468662323818500,6.332818603515625,-0.0012702913954854012,-0.00017639179714024067,0.00028393627144396305
1761468662333801500,6.342801513671875,0.0004857969470322132,-0.00030821841210126877,-0.0013118297792971134
1761468662343784400,6.352784423828125,-0.0006996775045990944,-0.002643595216795802,-0.0014587617479264736
1761468662353767400,6.362767333984375,-0.00037636933848261833,0.0017538161482661963,-0.0009295917116105556
1761468662363750400,6.37275048828125,-0.0000536465086042881,-0.002518370980396867,0.0001526509877294302
1761468662373733600,6.382733642578125,0.00292802881449461,-0.0013143557589501143,0.0003880744334310293
1761468662383716600,6.392716552734375,-0.0011580567806959152,0.002667010994628072,-0.00023898831568658352
1761468662393699300,6.40269921875,0.001497381366789341,-0.0004435612354427576,-0.0009702923707664013
1761468662403682600,6.4126826171875,-0.0015887841582298279,-0.002995254471898079,-0.0025129523128271103
1761468662413665500,6.42266552734375,-0.0008758557960391045,0.002393119502812624,0.002598718972876668
1761468662423648300,6.432648193359375,0.0014079944230616093,-0.000008011003956198692,-0.00044289720244705677
1761468662433631500,6.442631591796875,-0.0013174843043088913,-0.0009523679036647081,0.00012249196879565716
1761468662443614500,6.452614501953125,-0.00038429396227002144,-0.00673677958548069,-0.0023895769845694304
1761468662453597400,6.462597412109375,0.0009046760387718678,0.010492807254195213,0.0033199740573763847
1761468662463580400,6.472580322265625,-0.0019747340120375156,-0.006291226018220186,-0.0025772047229111195
1761468662473563400,6.4825634765625,-0.0006881607696413994,0.005719896871596575,0.0018170110415667295
1761468662483546400,6.49254638671875,-0.0004543331451714039,-0.0017264657653868198,0.00020000501535832882
1761468662493529600,6.502529541015625,-0.001724660862237215,0.004646211862564087,0.0005028063897043467
1761468662503512300,6.51251220703125,0.00025381986051797867,-0.0011690547689795494,-0.003586871549487114
1761468662513495600,6.52249560546875,-0.00030038412660360336,0.0027820111718028784,-0.0008632566314190626
1761468662523478500,6.532478515625,0.0007511181756854057,0.0014832390006631613,-0.0012827073223888874
1761468662533461500,6.54246142578125,0.0005641644820570946,-0.001795911113731563,-0.0017178677953779697
1761468662543444500,6.552444580078125,0.0007745553739368916,-0.001491704722866416,-0.00003042258322238922
1761468662553427500,6.562427490234375,-0.0016574431210756302,0.0026867948472499847,0.0008441596291959286
1761468662563410400,6.572410400390625,-0.0011259578168392181,0.0005952417850494385,0.002626286819577217
1761468662573393700,6.5823935546875,-0.0016018645837903023,0.0006325258873403072,-0.000332485418766737
1761468662583375400,6.592375244140625,-0.0003005717881023884,0.0003932768013328314,0.0015387821476906538
1761468662593358600,6.602358642578125,-0.0010531814768910408,-0.0031979961786419153,-0.00012489431537687778
1761468662603341600,6.612341552734375,-0.00009899912402033806,0.0013401282485574484,0.0004762455355376005
1761468662613324300,6.62232421875,0.0021556331776082516,-0.000044182874262332916,0.0004634624347090721
1761468662623307500,6.6323076171875,0.0008378298953175545,0.000041385646909475327,0.00033323047682642937
1761468662633290500,6.64229052734375,-0.002143578603863716,-0.001339196925982833,-0.00038608931936323643
1761468662643273500,6.6522734375,0.0010571707971394062,-0.0015803412534296513,-0.0015571453841403127
1761468662653256400,6.66225634765625,0.0005338597111403942,0.003614687127992511,0.002942531369626522
1761468662663239400,6.672239501953125,0.0004630596376955509,-0.005879234988242388,-0.0003718410152941942
1761468662673222700,6.68222265625,-0.0017580166459083557,0.0063531962223351,0.001916080480441451
1761468662683205400,6.692205322265625,-0.0010260744020342827,-0.0021093678660690784,0.00022024335339665413
1761468662693188400,6.702188232421875,-0.0029667196795344353,-0.0016350590158253908,-0.0013217268278822303
1761468662703171600,6.712171630859375,-0.003229247871786356,0.007524886168539524,0.0011005557607859373
1761468662713154600,6.722154541015625,0.0008605681359767914,-0.0036388186272233725,0.001950636738911271
1761468662723137300,6.73213720703125,-0.0002878108061850071,0.0027165308129042387,0.0008336382452398539
1761468662733120500,6.74212060546875,-0.0003743637353181839,-0.0007221426349133253,-0.0015645381063222885
1761468662743103500,6.752103515625,0.002857072511687875,-0.002934338990598917,-0.0018573510460555553
1761468662753086500,6.76208642578125,0.0014405371621251106,0.006849049590528011,0.0029901345260441303
1761468662763069400,6.7720693359375,0.0030751479789614677,-0.0011486781295388937,-0.0016608793521299958
1761468662773052400,6.782052490234375,0.0005587274208664894,0.0002228498924523592,-0.0017221319722011685
1761468662783035400,6.792035400390625,0.0008846516720950603,-0.003899605246260762,-0.0016908394172787666
1761468662793018600,6.8020185546875,0.0017472496256232262,0.005204943008720875,0.0008673931006342173
1761468662803001300,6.81200146484375,0.0006503849290311337,0.0014304823707789183,0.0004478162154555321
1761468662812984600,6.821984619140625,0.0014533279463648796,-0.0024329652078449726,-0.0019668720196932554
1761468662822967600,6.831967529296875,0.0016242815181612968,0.0033769949804991484,0.00012603658251464367
1761468662832950300,6.8419501953125,0.0019758190028369427,0.0020209134090691805,0.00020193657837808132
1761468662842933500,6.85193359375,-0.00010476727038621902,0.0006668341811746359,-0.00039627356454730034
1761468662852916500,6.86191650390625,0.0010121623054146767,-0.0014296062290668488,-0.001239962875843048
1761468662862899500,6.8718994140625,0.00003290874883532524,-0.00012168101966381073,0.0020118243992328644
1761468662872882400,6.88188232421875,0.0006595505401492119,-0.0010332809761166573,-0.0008819666691124439
1761468662882865400,6.891865478515625,0.0003497786819934845,0.002292702905833721,-0.0005017702933400869
1761468662892848400,6.901848388671875,-0.00006274459883570671,-0.0038070010486990213,-0.0023454767651855946
1761468662902831600,6.91183154296875,0.0005008191801607609,0.005388820543885231,0.002017779741436243
1761468662912814300,6.921814453125,-0.001126904971897602,-0.004676863085478544,0.0021852925419807434
1761468662922797600,6.931797607421875,-0.000023925676941871643,0.003025110112503171,0.0015820241533219814
1761468662932780500,6.941780517578125,0.0007957951165735722,-0.005970781669020653,-0.0023208383936434984
1761468662942763500,6.951763427734375,-0.001394547987729311,-0.002522660419344902,-0.001459774561226368
1761468662952746500,6.96174658203125,-0.0006286231800913811,0.004772004205733538,0.003140037413686514
1761468662962729500,6.9717294921875,-0.0014150859788060188,0.0002016529906541109,-0.0001985665876418352
1761468662972712400,6.98171240234375,0.00229443097487092,0.002559615531936288,0.0008824104443192482
1761468662982695700,6.99169580078125,0.0016472451388835907,-0.0022371970117092133,-0.0007529705762863159
1761468662992678400,7.001678466796875,0.00044536031782627106,-0.0040161884389817715,-0.0002104847226291895
1761468663002661400,7.011661376953125,-0.002680568490177393,0.005189055111259222,0.0009964588098227978
1761468663012644600,7.02164453125,-0.0005202116444706917,-0.003900313749909401,0.000946924090385437
1761468663022627300,7.03162744140625,-0.0015131193213164806,0.0016844968777149916,0.001445265021175146
1761468663032610300,7.0416103515625,0.0008989060297608376,-0.001166683156043291,-0.0029702559113502502
1761468663042593500,7.051593505859375,-0.0018964717164635658,0.00017743953503668308,0.0022201850078999996
1761468663052576500,7.061576416015625,-0.0017595854587852955,0.001252823742106557,-0.00041261594742536545
1761468663062559500,7.0715595703125,0.0000513237901031971,-0.0017516303341835737,-0.0021996577270329
1761468663072542500,7.08154248046875,-0.0017359238117933273,0.0007767747156322002,-0.0034785077441483736
1761468663082525400,7.091525390625,-0.0017197411507368088,-0.0002925354056060314,-0.00012146634981036186
1761468663092508700,7.1015087890625,-0.00010027270764112473,-0.0014552713837474585,-0.0023286943323910236
1761468663102491400,7.111491455078125,0.0003700992092490196,-0.0020178041886538267,-0.001226211665198207
1761468663112474400,7.121474365234375,0.0005722329951822758,-0.004040208645164967,-0.0010560357477515936
1761468663122457600,7.13145751953125,0.003645802615210414,-0.001170604256913066,0.0012655099853873253
1761468663132440600,7.141440673828125,0.001338972244411707,-0.002070220187306404,-0.0006048283539712429
1761468663142423300,7.15142333984375,0.0009790509939193726,-0.0012264580000191927,0.0004067064728587866
1761468663152406500,7.161406494140625,-0.0012201876379549503,0.003711042692884803,0.0016778330318629742
1761468663162389500,7.171389404296875,-0.00023444835096597672,-0.003974694758653641,-0.000669877277687192
1761468663172372500,7.18137255859375,0.000356507021933794,0.0019657521042972803,0.001594342291355133
1761468663182355500,7.19135546875,-0.0015695388428866863,-0.0036265680100768805,-0.0013441924238577485
1761468663192342300,7.20134228515625,0.0009961505420506,0.0007924151141196489,0.0004124285187572241
1761468663202325200,7.2113251953125,-0.0007430566474795341,0.003886769525706768,0.0002473117783665657
1761468663212308500,7.22130859375,-0.00017074355855584145,-0.0027945691253989935,-0.0013724227901548147
1761468663222291200,7.231291259765625,0.002148527419194579,-0.0017041235696524382,-0.0015563149936497211
1761468663232274200,7.241274169921875,-0.0019609960727393627,0.005165766924619675,0.0011289501562714577
1761468663242257400,7.25125732421875,0.00027083931490778923,-0.003542560851201415,-0.0021365443244576454
1761468663252240400,7.261240478515625,0.0001533939503133297,0.007791852578520775,0.0024358369410037994
1761468663262223400,7.271223388671875,-0.0004319767467677593,-0.002272576093673706,-0.003248156514018774
1761468663272206300,7.281206298828125,-0.0009174710139632225,0.0004853936843574047,-0.00012986105866730213
1761468663282189300,7.291189208984375,-0.00012018159031867981,0.0003602784126996994,0.0007736887782812119
1761468663292171300,7.301171142578125,0.000441212672740221,-0.002660545287653804,-0.0020926715806126595
1761468663302154200,7.311154296875,-0.00016419962048530579,0.002506326185539365,0.0013420735485851765
1761468663312137500,7.321137451171875,-0.0016004419885575771,0.001927621429786086,0.0012302207760512829
1761468663322120200,7.3311201171875,-0.001322960015386343,-0.0011361767537891865,-0.0008255382999777794
1761468663332103200,7.341103271484375,0.00037081027403473854,-0.005136777646839619,0.001988091506063938
1761468663342086400,7.35108642578125,-0.000049816444516181946,0.0017521425615996122,0.0009208307601511478
1761468663352069400,7.3610693359375,0.000732087530195713,0.0020139312837272882,-0.0008712105918675661
1761468663362052000,7.371052001953125,-0.0017988858744502068,-0.004080682992935181,-0.0003149481490254402
1761468663372035300,7.381035400390625,-0.0003341473639011383,-0.0010404183994978666,0.0009391345083713531
1761468663382018300,7.391018310546875,0.003105256473645568,0.0006281700916588306,0.00045631290413439274
1761468663392001300,7.401001220703125,-0.0005107834003865719,0.0014745229855179787,0.001006255391985178
1761468663401984300,7.410984375,0.00003643706440925598,-0.0051499223336577415,-0.002768183359876275
1761468663411967200,7.42096728515625,0.001630871556699276,0.003953827545046806,0.0005391964223235846
1761468663421950500,7.430950439453125,0.0019902638159692287,-0.0008704806677997112,-0.0003919145092368126
1761468663431933400,7.440933349609375,0.0006965002976357937,0.0012131764087826014,-0.0017187012126669288
1761468663441916200,7.450916259765625,-0.0018084151670336723,0.002966254251077771,-0.0005849900189787149
1761468663451899400,7.4608994140625,0.001029981765896082,-0.00027907383628189564,-0.0026063292752951384
1761468663461882400,7.47088232421875,-0.0010473094880580902,0.00451527489349246,-0.000227796146646142
1761468663471865300,7.480865234375,0.0009311530739068985,-0.0027301206719130278,-0.0021844205912202597
1761468663481848300,7.490848388671875,0.001911164727061987,0.00797721091657877,0.0027817105874419212
1761468663491831300,7.500831298828125,0.0017138244584202766,-0.0037678617518395185,-0.002693482208997011
1761468663501814300,7.510814208984375,-0.002467136364430189,0.004187846556305885,0.007915287278592587
1761468663511797200,7.52079736328125,0.0009566238150000572,-0.004377146251499653,0.0004288754425942898
1761468663521780200,7.5307802734375,-0.0020891916938126087,-0.0041909548453986645,-0.000815690727904439
1761468663531763200,7.54076318359375,0.0004706387408077717,-0.0023917234502732754,0.003004613798111677
1761468663541746400,7.550746337890625,-0.0007939198985695839,0.0017946362495422363,0.00239681638777256
1761468663551729200,7.560729248046875,-0.0009204200468957424,-0.0010384346824139357,-0.0015015186509117484
1761468663561712400,7.57071240234375,0.0007147830910980701,-0.0022565913386642933,-0.0009853967931121588
1761468663571695400,7.5806953125,-0.0004311748780310154,-0.0016826798673719168,0.0014255628921091557
1761468663581678300,7.59067822265625,-0.001261881086975336,0.001233528833836317,-0.0017411343287676573
1761468663591661300,7.600661376953125,0.00018634553998708725,-0.00075718411244452,-0.0014708234230056405
1761468663601644300,7.610644287109375,-0.0010309559293091297,-0.001246114494279027,-0.0004833247512578964
1761468663611627300,7.620627197265625,-0.0003324085846543312,-0.003058661939576268,-0.002565117785707116
1761468663621610500,7.630610595703125,0.0014482573606073856,-0.0011459579691290855,-0.0017658342840149999
1761468663631593200,7.64059326171875,-0.00010915892198681831,0.002372077899053693,0.0005268810782581568
1761468663641576200,7.650576171875,-0.0006676628254354,0.0010964719112962484,-0.003962874412536621
1761468663651559400,7.660559326171875,0.000656194519251585,-0.002922237850725651,-0.0014531111810356379
1761468663661542400,7.67054248046875,-0.0027394178323447704,0.00032254098914563656,0.0011624530889093876
1761468663671525000,7.680525146484375,0.0016611889004707336,0.0024410856422036886,-0.0011331916321069002
1761468663681508400,7.69050830078125,-0.000886240042746067,0.0019673502538353205,-0.000542578287422657
1761468663691491300,7.7004912109375,0.000007250811904668808,0.00019847857765853405,-0.0022816224955022335
1761468663701474300,7.710474365234375,0.0001813429407775402,0.0018387080635875463,0.0010019168257713318
1761468663711457300,7.720457275390625,0.0008005276322364807,0.0002693070564419031,0.001477823592722416
1761468663721440300,7.730440185546875,0.0007204604335129261,-0.005800239741802216,-0.0015057040145620704
1761468663731423500,7.740423583984375,-0.0017283163033425808,-0.002318156883120537,-0.0023216966073960066
1761468663741406200,7.75040625,-0.00030336109921336174,-0.000559238251298666,-0.00005954829975962639
1761468663751389200,7.76038916015625,0.002822923706844449,-0.003040505573153496,-0.0011631622910499573
1761468663761372400,7.770372314453125,0.00034061260521411896,-0.00034473324194550514,-0.00023491703905165195
1761468663771355400,7.78035546875,-0.0005571390502154827,0.0012166781816631556,0.0016471389681100845
1761468663781338000,7.790338134765625,0.00017324229702353477,-0.00034345011226832867,-0.001189124071970582
1761468663791321300,7.8003212890625,0.0008840402588248253,-0.0005240126047283411,-0.00052226847037673
1761468663801304300,7.81030419921875,-0.0012890715152025223,-0.0008131538052111864,0.00020224903710186481
1761468663811287300,7.820287353515625,-0.0004025055095553398,0.0003834047820419073,-0.0020286808721721172
1761468663821270300,7.830270263671875,0.0013763420283794403,0.0007361953612416983,0.0004623022396117449
1761468663831253200,7.840253173828125,0.0004961672239005566,-0.0023983451537787914,-0.001834674272686243
1761468663841236500,7.850236572265625,0.0015651504509150982,-0.0023340906482189894,-0.003949424251914024
1761468663851219500,7.860219482421875,-0.0003278246149420738,0.00496483501046896,0.0003646302502602339
1761468663861202200,7.8702021484375,-0.0008120979182422161,0.0008939825929701328,0.00039358530193567276
1761468663871185400,7.880185302734375,-0.0012666997499763966,0.003513733856379986,-0.001934283645823598
1761468663881168400,7.89016845703125,-0.0008471878245472908,0.0017753418069332838,0.0007401960901916027
1761468663891151000,7.900151123046875,-0.0005920566618442535,0.0016453794669359922,0.0010858746245503426
1761468663901134300,7.91013427734375,-0.0003790212795138359,-0.0014187381602823734,-0.0008905192371457815
1761468663911117300,7.920117431640625,-0.00033161696046590805,-0.001824870239943266,-0.0007898518815636635
1761468663921100300,7.930100341796875,0.0007393318228423595,-0.001959795132279396,-0.0010400530882179737
1761468663931083300,7.940083251953125,0.0009151003323495388,0.002818182110786438,0.0014934120699763298
1761468663941065200,7.950065185546875,0.0005925078876316547,-0.00748478202149272,-0.00304347719065845
1761468663951048400,7.96004833984375,-0.0016852938570082188,0.0037976999301463366,0.002405350562185049
1761468663961031200,7.97003125,0.0010224352590739727,0.00023917737416923046,0.001215839758515358
1761468663971014100,7.98001416015625,-0.0012905201874673367,-0.00025563803501427174,0.0025996179319918156
1761468663980997400,7.989997314453125,-0.001841648481786251,0.00023600482381880283,-0.00024803075939416885
1761468663990980400,7.99998046875,0.0026577620301395655,0.00100086466409266,0.0025464240461587906
1761468664000963300,8.00996337890625,0.0002254890277981758,-0.001703909132629633,0.0017070011235773563
1761468664010946300,8.0199462890625,0.0006097829900681973,-0.0011062957346439362,-0.00009808945469558239
1761468664020929300,8.02992919921875,-0.0008862162940204144,0.0018400994595140219,0.0008183647878468037
1761468664030912500,8.03991259765625,0.0005684024654328823,0.0013295712415128946,0.0008556493557989597
1761468664040895200,8.049895263671875,0.0017222510650753975,-0.0009838191326707602,0.00031269551254808903
1761468664050878200,8.059878173828125,-0.0021129674278199673,0.0000026158522814512253,-0.0023363507352769375
1761468664060861400,8.069861328125,-0.000893840566277504,0.0038566705770790577,0.000545993447303772
1761468664070844400,8.079844482421874,0.000947202555835247,-0.006536315195262432,-0.004681525751948357
1761468664080827100,8.0898271484375,0.0020345270168036222,-0.0031563532538712025,-0.001814233954064548
1761468664090810400,8.099810302734374,0.0005649947561323643,0.004692248534411192,0.0006569130346179008
1761468664100793300,8.10979345703125,0.00019848020747303963,-0.0016373354010283947,-0.000012140953913331032
1761468664110776300,8.1197763671875,-0.00015172548592090607,0.003367543453350663,0.003353295847773552
1761468664120759300,8.12975927734375,0.0021870152559131384,-0.0065486617386341095,-0.00040922267362475395
1761468664130742300,8.1397421875,0.0018250918947160244,0.0034648242872208357,0.0005061058327555656
1761468664140725200,8.149725341796875,0.00004175398498773575,0.00028637354262173176,0.001064250711351633
1761468664150708200,8.159708251953125,-0.0002163061872124672,-0.00322846625931561,-0.000020454637706279755
1761468664160691200,8.169691162109375,0.0004779086448252201,-0.003893686458468437,-0.000012274831533432007
1761468664170674400,8.17967431640625,-0.00028961431235074997,0.0008089232724159956,0.002064724452793598
1761468664180657400,8.189657470703125,-0.00043260306119918823,-0.004904743283987045,-0.0007527677807956934
1761468664190636800,8.19963671875,-0.0005250144749879837,0.004290885291993618,0.00023473240435123444
1761468664200620000,8.2096201171875,0.0014312327839434147,-0.004747156985104084,-0.00016321009024977684
1761468664210603000,8.21960302734375,0.0005374755710363388,0.00018102279864251614,0.0016940785571932793
1761468664220585700,8.229585693359375,-0.0020327656529843807,0.0025286744348704815,-0.0009835923556238413
1761468664230569000,8.23956884765625,0.0016093733720481396,-0.002846916439011693,-0.0015881297877058387
1761468664240552000,8.249552001953125,-0.000498936977237463,0.005124431103467941,0.0018467456102371216
1761468664250535000,8.259534912109375,0.0018078931607306004,-0.0005283951759338379,-0.0026281639002263546
1761468664260518000,8.269517822265625,-0.00029039569199085236,0.0018653266597539186,-0.0023085186257958412
1761468664270500900,8.2795009765625,0.0004017599858343601,0.0010796941351145506,-0.001042718067765236
1761468664280483800,8.28948388671875,0.0002279006876051426,-0.0017706870567053556,-0.0030826993752270937
1761468664290467000,8.299467041015625,-0.0007377616129815578,-0.004031710792332888,0.0013706386089324951
1761468664300449800,8.30944970703125,0.0007353797554969788,0.00370579119771719,-0.00041793682612478733
1761468664310433000,8.31943310546875,0.0009580203332006931,0.0008498174138367176,0.00030058412812650204
1761468664320416000,8.329416015625,0.0005823886021971703,-0.008616063743829727,0.0010487884283065796
1761468664330399000,8.33939892578125,-0.0009824847802519798,-0.0006564075592905283,0.0026062047109007835
1761468664340382000,8.3493818359375,-0.0009390269406139851,-0.003877317765727639,0.0003230804577469826
1761468664350365000,8.359364990234376,0.0006993496790528297,-0.000424795551225543,0.0015966040082275867
1761468664360348000,8.369347900390625,0.000822585541754961,0.002882105065509677,0.00242532417178154
1761468664370331100,8.3793310546875,-0.0000037937425076961517,-0.003952364902943373,-0.0034054007846862078
1761468664380313900,8.38931396484375,0.0019908235408365726,0.006615013815462589,0.0024103964678943157
1761468664390296800,8.399296875,-0.0004715351387858391,-0.003071169601753354,-0.00003811391070485115
1761468664400280000,8.409280029296875,-0.0009012115187942982,-0.0034361791331321,-0.0017185603501275182
1761468664410262800,8.4192626953125,-0.00039414549246430397,-0.0013008567038923502,0.0012665768153965473
1761468664420245800,8.429245849609375,0.0008466495200991631,0.0018411644268780947,0.002287098206579685
1761468664430229000,8.43922900390625,0.00047806790098547935,-0.0015719425864517689,-0.0016450589755550027
1761468664440212000,8.4492119140625,0.00021878676488995552,-0.00048367748968303204,-0.0006503034383058548
1761468664450195000,8.45919482421875,0.00012158136814832687,0.0008947746828198433,-0.0025086572859436274
1761468664460178000,8.469177978515624,-0.000722165685147047,0.003550140652805567,-0.000257215928286314
1761468664470160100,8.47916015625,0.002871503820642829,-0.003514959244057536,-0.0005136784166097641
1761468664480142800,8.489142822265626,-0.0028773522935807705,0.0007608677260577679,-0.0008259331807494164
1761468664490125800,8.499125732421875,0.0014420291408896446,0.0035659754648804665,0.00024811970070004463
1761468664500109000,8.509109130859375,-0.00008455757051706314,0.004267836920917034,0.0019526053220033646
1761468664510093000,8.519093017578125,-0.00015726173296570778,-0.005315814167261124,-0.0012826027814298868
1761468664520074800,8.52907470703125,0.0003907126374542713,0.0015270817093551159,0.0009248270653188229
1761468664530058000,8.53905810546875,-0.0011757584288716316,-0.0039007067680358887,0.0015831603668630123
1761468664540041000,8.549041015625,0.0018644076772034168,-0.0017033321782946587,-0.0019107115222141147
1761468664550024000,8.55902392578125,0.00013468461111187935,0.0034208560828119516,0.0011444669216871262
1761468664560007000,8.5690068359375,-0.0013574655167758465,-0.0003813884686678648,0.0010107792913913727
1761468664569990000,8.578989990234374,0.0012441761791706085,-0.0015443910378962755,-0.003226842498406768
1761468664579972900,8.588972900390624,0.002529952209442854,-0.00579362828284502,-0.00032213865779340267
1761468664589959000,8.598958984375,0.00009182840585708618,0.0029814874287694693,0.0019689789041876793
1761468664599942000,8.60894189453125,0.0018191859126091003,-0.00433436268940568,-0.0006309312302619219
1761468664609925000,8.618925048828125,0.000026878435164690018,-0.0008922272827476263,0.0017525977455079556
1761468664619907800,8.628907958984374,-0.0001165405847132206,0.002876699436455965,0.002312534488737583
1761468664629890800,8.638890869140624,0.0008541815914213657,0.0006196703761816025,-0.000762351555749774
1761468664639874000,8.6488740234375,-0.0004810364916920662,-0.000991203123703599,-0.0014039119705557823
1761468664649857000,8.65885693359375,0.0002244347706437111,0.0007643529679626226,-0.000006551388651132584
1761468664659839700,8.66883984375,0.0015230407007038593,0.005150871351361275,0.0007441923953592777
1761468664669823000,8.678822998046876,-0.0012647565454244614,-0.00043351086787879467,0.001194266602396965
1761468664679806000,8.688805908203125,-0.0020073135383427143,0.005855553783476353,0.0007451879791915417
1761468664689789000,8.698788818359375,-0.002600932028144598,-0.01332080364227295,-0.00445436779409647
1761468664699772000,8.70877197265625,0.00013371137902140617,0.01126374863088131,0.0054915533401072025
1761468664709755000,8.7187548828125,-0.000936613418161869,-0.00997442752122879,-0.0018569070380181074
1761468664719738000,8.728738037109375,-0.0014038612134754658,0.0030455440282821655,0.0000626957044005394
1761468664729720800,8.738720947265625,0.00007046479731798172,-0.005964462645351887,0.0019077337346971035
1761468664739703800,8.748703857421875,0.0005576359108090401,-0.005228123627603054,-0.0016769508365541697
1761468664749687000,8.75868701171875,-0.001557180192321539,-0.0008221901953220367,-0.0000726624857634306
1761468664759670000,8.768669921875,0.00023960601538419724,-0.00011449074372649193,0.0012185736559331417
1761468664769652700,8.77865283203125,0.002140570431947708,-0.0019480771152302623,0.0005176297854632139
1761468664779636000,8.788635986328124,-0.0010034549050033092,-0.0043893964029848576,-0.000023329397663474083
1761468664789618000,8.798617919921876,-0.00038746604695916176,0.00019150669686496258,0.0017759022302925587
1761468664799601000,8.808600830078126,0.0025438342709094286,-0.0014834769535809755,0.00033640069887042046
1761468664809583900,8.818583984375,-0.0002383701503276825,0.0021541346795856953,0.001032284926623106
1761468664819566800,8.82856689453125,0.0001983526162803173,-0.0025989976711571217,-0.0009327239822596312
1761468664829550000,8.838550048828125,-0.0006762295961380005,0.0034961793571710587,-0.0009574913419783115
1761468664839532800,8.84853271484375,0.001616134773939848,-0.000921162310987711,0.002524321898818016
1761468664849516000,8.85851611328125,-0.0010592765174806118,0.002316176425665617,0.0032207383774220943
1761468664859499000,8.8684990234375,0.00020878296345472336,-0.0000017667189240455627,-0.00026367558166384697
1761468664869482000,8.87848193359375,-0.002106835599988699,0.0006533709820359945,-0.001578478142619133
1761468664879465000,8.88846484375,0.0009879767894744873,0.0037769924383610487,0.0008609774522483349
1761468664889448000,8.898447998046874,0.00006705569103360176,-0.001755191944539547,-0.0009920501615852118
1761468664899431000,8.908430908203124,0.0015452303923666477,0.00038775638677179813,-0.0000741942785680294
1761468664909414000,8.918413818359374,-0.0030559133738279343,-0.006625944282859564,-0.0007445120718330145
1761468664919396900,8.92839697265625,0.0021731082815676928,0.0014636265113949776,0.0021863002330064774
1761468664929379800,8.9383798828125,0.0003491095267236233,-0.0036669534165412188,-0.0007935105822980404
1761468664939363000,8.948363037109376,-0.00018793251365423203,0.0019285890739411116,-0.00008011935278773308
1761468664949345800,8.958345703125,0.0022685672156512737,0.004324102774262428,0.0006099056918174028
1761468664959328800,8.968328857421875,-0.0011899624951183796,-0.005159483291208744,0.0005043076816946268
1761468664969312000,8.97831201171875,0.004070046823471785,-0.0016923141665756702,-0.00009437091648578644
1761468664979295000,8.988294921875,0.0025337322149425745,-0.002978620585054159,-0.0022183661349117756
1761468664989278000,8.99827783203125,0.000982441008090973,-0.004480377305299044,-0.0011064962018281221
1761468664999261000,9.008260986328125,-0.00025952979922294617,0.005743620451539755,0.0003218911588191986
1761468665009244000,9.018243896484375,0.001010797917842865,0.0048762294463813305,0.0007618451490998268
1761468665019227100,9.02822705078125,0.00011085858568549156,0.0011733192950487137,-0.00001772982068359852
1761468665029209900,9.0382099609375,0.0009947619400918484,0.003756319172680378,0.00008160597644746304
1761468665039192800,9.04819287109375,-0.0017778552137315273,-0.0009614706505089998,-0.0021802166011184454
1761468665049176000,9.058176025390624,0.000854147132486105,0.0009706527926027775,0.0008531236089766026
1761468665059159000,9.068158935546874,0.0006565642543137074,-0.0009712786413729191,-0.0010804568883031607
1761468665069141800,9.078141845703126,0.0008501759730279446,-0.000037574442103505135,-0.0029928728472441435
1761468665079125000,9.088125,0.0009384872391819954,-0.0007429178804159164,-0.001077321358025074
1761468665089108000,9.09810791015625,-0.00029295869171619415,0.0028222559485584497,0.0020905088167637587
1761468665099090700,9.108090576171875,0.0008701025508344173,-0.0025058791507035494,-0.0020181480795145035
1761468665109074000,9.118073974609375,-0.00010834308341145515,-0.00011436059139668941,-0.0012109437957406044
1761468665119057000,9.128056884765625,0.0011941422708332539,-0.0004944028332829475,-0.001377801294438541
1761468665129040100,9.1380400390625,0.0009110486134886742,0.001352233113721013,-0.0015551678370684385
1761468665139022800,9.14802294921875,-0.0011737863533198833,0.0008001355454325676,-0.0011630905792117119
1761468665149005800,9.158005859375,-0.0007340987212955952,-0.0008550190832465887,-0.0005084855947643518
1761468665158989000,9.167989013671875,-0.00011310679838061333,0.0028607728891074657,0.0005426676943898201
1761468665168972000,9.177971923828125,-0.0025328551419079304,0.0011124075390398502,-0.001343382871709764
1761468665178954800,9.187954833984374,0.0010455460287630558,0.0014310202095657587,0.0009696567431092262
1761468665188940800,9.19794091796875,-0.00030627427622675896,-0.0010680898558348417,0.0004857606254518032
1761468665198923800,9.207923828125,-0.0007984843105077744,-0.0026820164639502764,-0.001947792829014361
1761468665208907000,9.217906982421875,0.001508878543972969,0.0027481690049171448,-0.0008455105125904083
1761468665218889700,9.2278896484375,-0.0008635804988443851,0.002108377404510975,0.00039075082167983055
1761468665228872000,9.237871826171874,0.0015612277202308178,-0.0007686351891607046,-0.00016984459944069386
1761468665238855000,9.24785498046875,-0.00016269367188215256,-0.004403899423778057,-0.004861203022301197
1761468665248837600,9.257837646484376,0.000247166957706213,0.0049744220450520515,0.0004909515846520662
1761468665258820900,9.26782080078125,0.001743572298437357,-0.006965905427932739,-0.00283514684997499
1761468665268803800,9.277803955078125,0.0004825657233595848,0.015734346583485603,0.004324229434132576
1761468665278786800,9.287786865234375,0.0012208777479827404,-0.00498979352414608,-0.001971073681488633
1761468665288769800,9.297769775390625,0.0003846455365419388,0.0060556670650839806,0.002070273505523801
1761468665298752800,9.307752685546875,0.0004698643460869789,-0.009941094554960728,-0.005974417086690664
1761468665308735700,9.31773583984375,-0.0015898244455456734,0.0046764640137553215,0.0036483830772340298
1761468665318719000,9.327718994140625,-0.0006788247264921665,-0.004110488574951887,-0.00045633362606167793
1761468665328701700,9.33770166015625,-0.0017371647991240025,0.00512322410941124,0.0024089612998068333
1761468665338684700,9.3476845703125,-0.0004530833102762699,0.00037234206683933735,-0.0031055216677486897
1761468665348668000,9.35766796875,-0.0006419015116989613,0.004719685763120651,0.0021816520020365715
1761468665358651000,9.36765087890625,-0.0013449983671307564,-0.003324641613289714,-0.0036089327186346054
1761468665368633900,9.3776337890625,0.0008715507574379444,0.0016765084583312273,0.0008124473970383406
1761468665378616800,9.387616943359374,0.001017201691865921,-0.0009131950791925192,-0.001124200178310275
1761468665388599800,9.397599853515626,0.0001484784297645092,-0.0003219733480364084,-0.00011566095054149628
1761468665398582800,9.407582763671876,0.0003229728899896145,0.00130526814609766,0.0014942879788577557
1761468665408565800,9.417565673828125,-0.0021239398047327995,0.0007563908584415913,0.00046577490866184235
1761468665418548700,9.427548828125,-0.0016010445542633533,-0.00047601782716810703,-0.0026246868073940277
1761468665428532000,9.437531982421875,-0.0006771939806640148,0.002321899402886629,0.0025706079322844744
1761468665438514700,9.4475146484375,-0.0028887055814266205,-0.004185520112514496,-0.0019706885796040297
1761468665448497700,9.45749755859375,0.0009308005683124065,0.009466908872127533,0.001756139099597931
1761468665458481000,9.46748095703125,0.0004248218610882759,-0.0005790821742266417,-0.002857713494449854
1761468665468463900,9.4774638671875,0.0008272253908216953,0.004469472449272871,0.0003687061835080385
1761468665478446800,9.48744677734375,0.0008181710727512836,0.0013623624108731747,-0.0028704965952783823
1761468665488429800,9.497429931640625,-0.0006066202186048031,-0.0036078952252864838,-0.002312297932803631
1761468665498412800,9.507412841796874,0.0018687550909817219,0.005130147561430931,0.001481649000197649
1761468665508396000,9.51739599609375,0.0002223891206085682,0.0005937193054705858,0.0013189297169446945
1761468665518378800,9.527378662109374,-0.0017243893817067146,0.002636893419548869,0.00024819117970764637
1761468665528361700,9.53736181640625,0.0016887173987925053,0.0009852007497102022,-0.00034196535125374794
1761468665538345000,9.547344970703126,-0.0007424005307257175,0.002264641225337982,0.0016243865247815847
1761468665548328000,9.557327880859376,0.0018565780483186245,-0.005891822278499603,-0.0013964369427412748
1761468665558310700,9.567310546875,0.0012174607254564762,0.000516081228852272,0.0011762429494410753
1761468665568294000,9.5772939453125,-0.0014116116799414158,0.0033134659752249718,-0.0013953055022284389
1761468665578276900,9.58727685546875,0.002114261733368039,-0.00009664264507591724,0.0005955491214990616
1761468665588259600,9.597259521484375,0.0007816161960363388,-0.0032218622509390116,-0.0008894293569028378
1761468665598242800,9.607242919921875,-0.0006685680709779263,-0.0019231458427384496,0.001134968362748623
1761468665608225800,9.617225830078125,0.0022294840309768915,0.007200844585895538,0.0014146002940833569
1761468665618208800,9.627208740234375,-0.003877054899930954,-0.0032950041349977255,-0.0003272478934377432
1761468665628191700,9.637191650390625,0.002100143814459443,0.0064207399263978004,0.003072276944294572
1761468665638173700,9.647173583984374,-0.0031046830117702484,-0.0024525956250727177,-0.0013362517347559333
1761468665648157000,9.657156982421874,-0.0008796113543212414,0.004851922392845154,0.0008059951942414045
1761468665658139600,9.6671396484375,-0.00002727936953306198,-0.004881242755800486,0.0024562946055084467
1761468665668123000,9.677122802734376,-0.0008105146698653698,-0.0000015329569578170776,0.0014373695012181997
1761468665678105900,9.68710595703125,-0.0005165976472198963,0.00131263118237257,-0.0003797663375735283
1761468665688088800,9.6970888671875,0.00179342832416296,-0.005274964030832052,-0.0006149234250187874
1761468665698071800,9.70707177734375,0.0008762562647461891,-0.009006563574075699,-0.0044899010099470615
1761468665708054800,9.7170546875,0.0000879606232047081,0.008008638396859169,0.0023621462751179934
1761468665718037800,9.727037841796875,-0.0006357403472065926,-0.003706411924213171,-0.0002619326114654541
1761468665728021000,9.73702099609375,-0.001604864839464426,0.0021554718259721994,-0.0002928252797573805
1761468665738003700,9.747003662109375,0.0010516596958041191,-0.004545594099909067,-0.001527997083030641
1761468665747986700,9.756986572265625,-0.0012857969850301743,0.001256368588656187,0.0012009439524263144
1761468665757970000,9.766969970703125,0.0013729529455304146,0.002903940621763468,0.0015396398957818747
1761468665767953000,9.776952880859374,0.0027514053508639336,-0.0007808087393641472,-0.00013016210868954659
1761468665777935600,9.786935546875,-0.0005432846955955029,-0.000028857029974460602,0.0004950135480612516
1761468665787918800,9.7969189453125,0.0011792480945587158,0.0018713080789893866,0.0032343410421162844
1761468665797901800,9.80690185546875,-0.00030523957684636116,-0.00022000097669661045,-0.0014839156065136194
1761468665807884800,9.816884765625,-0.0017263023182749748,-0.0033441553823649883,-0.0015030903741717339
1761468665817867800,9.82686767578125,0.0016651717014610767,-0.0023380282800644636,0.0009235090110450983
1761468665827850800,9.836850830078125,-0.001374560408294201,-0.004469356033951044,-0.000634440453723073
1761468665837834000,9.846833984375,-0.0007652007043361664,0.002864775015041232,0.0017765876837074757
1761468665847816700,9.856816650390625,0.0005432101897895336,-0.0034474493004381657,-0.0020628918427973986
1761468665857799700,9.866799560546875,-0.00023299409076571465,0.0019519056659191847,-0.0016120250802487135
1761468665867783000,9.876782958984375,0.003115664701908827,-0.0002582517918199301,-0.0017433188622817397
1761468665877766000,9.886765869140625,0.001850915141403675,0.0007001981139183044,0.0020620739087462425
1761468665887748600,9.89674853515625,-0.0028229323215782642,-0.00035041896626353264,0.0008838912472128868
1761468665897731800,9.90673193359375,0.0003275033086538315,-0.000044304877519607544,0.0018224515952169895
1761468665907714800,9.91671484375,-0.002932205330580473,-0.0036528881173580885,-0.0009496326092630625
1761468665917697800,9.92669775390625,0.00011759903281927109,-0.0013879556208848953,-0.0022740145213901997
1761468665927680800,9.9366806640625,0.0009714085608720779,0.004080046899616718,0.00007542618550360203
1761468665937663700,9.946663818359376,-0.0007664058357477188,-0.0007052458822727203,0.0008812407031655312
1761468665947647000,9.95664697265625,0.00004905415698885918,-0.004549785051494837,-0.002663693157956004
1761468665957630000,9.9666298828125,-0.0006569060496985912,0.0023015362676233053,0.0016522156074643135
1761468665967612700,9.97661279296875,-0.001832691952586174,-0.0069564105942845345,-0.00040108151733875275
1761468665977596000,9.986595947265625,0.0010143662802875042,0.000395654933527112,-0.0013873844873160124
1761468665987579000,9.996578857421875,-0.005804391112178564,0.0021943540778011084,0.0026473046746104956
1761468665997560800,10.006560791015625,-0.003035583533346653,-0.0063827140256762505,0.00040192995220422745
1761468666007543800,10.016543701171875,-0.000932751689106226,-0.0028249972965568304,0.0005116520915180445
1761468666017526800,10.02652685546875,-0.0006207567639648914,0.002655931282788515,0.0011416214983910322
1761468666027509800,10.036509765625,-0.0016487366519868374,0.0009853304363787174,0.0008492066990584135
1761468666037492700,10.04649267578125,-0.0009481282904744148,0.0001865765079855919,0.0018875070381909609
1761468666047475700,10.056475830078124,-0.0009912718087434769,-0.002224116586148739,0.0016494204755872488
1761468666057459000,10.066458984375,-0.0005164188332855701,-0.000007281079888343811,0.0007676456589251757
1761468666067441700,10.076441650390626,-0.0036941026337444782,-0.0006890504155308008,0.003533870680257678
1761468666077424600,10.086424560546876,-0.001168904360383749,-0.005906203296035528,0.0030702168587595224
1761468666087407900,10.096407958984376,0.0004542921669781208,-0.0007513887248933315,-0.00038656615652143955
1761468666097390800,10.106390869140625,-0.000558218453079462,0.0004915501922369003,0.003918429370969534
1761468666107373800,10.116373779296875,0.0004942626692354679,-0.005998839624226093,0.0016757813282310963
1761468666117356800,10.126356689453125,0.0020972914062440395,-0.00461236946284771,0.0036495965905487537
1761468666127339800,10.13633984375,-0.001485725399106741,-0.0020251083187758923,0.0006543390918523073
1761468666137323000,10.146322998046875,0.0030316882766783237,0.002408699132502079,0.004215112421661615
1761468666147305700,10.1563056640625,-0.0016618669033050537,-0.002720282878726721,-0.00176395068410784
1761468666157288700,10.166288818359375,-0.0011913175694644451,0.0017822720110416412,0.00026485323905944824
1761468666167272000,10.17627197265625,0.0009325533173978329,-0.004069758113473654,0.0018598204478621483
1761468666177255000,10.1862548828125,0.002944917418062687,0.00040204240940511227,0.00013788370415568352
1761468666187234800,10.19623486328125,-0.00015500187873840332,0.006211196072399616,-0.000408330699428916
1761468666197218000,10.206218017578125,-0.0021417797543108463,-0.0010190736502408981,-0.0008171943482011557
1761468666207201000,10.216200927734375,-0.0029681590385735035,0.0014352956786751747,0.0004773682449012995
1761468666217184000,10.22618408203125,0.002170746913179755,-0.0008070149924606085,-0.0022267396561801434
1761468666227167000,10.2361669921875,0.00204158341512084,-0.00021286378614604473,-0.0006336367223411798
1761468666237150000,10.24614990234375,-0.0021309885196387768,-0.004714545328170061,-0.0005937018431723118
1761468666247133000,10.2561328125,-0.0034987875260412693,-0.002143529709428549,0.007024803198873997
1761468666257116200,10.2661162109375,-0.0063879359513521194,-0.01172921247780323,0.008838551118969917
1761468666267099000,10.276098876953125,-0.005650506354868412,-0.014926871284842491,0.0062297191470861435
1761468666277081900,10.286081787109374,-0.0041023073717951775,-0.01501440815627575,0.004585089161992073
1761468666287065000,10.296065185546874,-0.0029989592730998993,-0.00680787768214941,0.001441759755834937
1761468666297047800,10.3060478515625,0.0018354239873588085,-0.0043839565478265285,0.002030597999691963
1761468666307031000,10.316031005859376,0.003696174593642354,-0.008530497550964355,-0.0009686541743576527
1761468666317014000,10.326013916015626,-0.0019508199766278267,0.006018614396452904,0.00721942400559783
1761468666326996000,10.335995849609375,-0.003555907402187586,-0.013492769561707973,0.00027736229822039604
1761468666336979000,10.34597900390625,-0.0016888007521629333,0.002930667484179139,0.005038222298026085
1761468666346962000,10.3559619140625,-0.0039452966302633286,-0.0069318171590566635,0.0003004590980708599
1761468666356945200,10.365945068359375,-0.00032565509900450706,0.007790015544742346,0.0033347303979098797
1761468666366928000,10.375927978515625,0.0018368316814303398,0.0024647582322359085,-0.00110902008600533
1761468666376910800,10.385910888671875,-0.00018399814143776894,0.0017531197518110275,0.0029451141599565744
1761468666386894000,10.39589404296875,-0.0015659122727811337,-0.004846992436796427,0.0004585208371281624
1761468666396877000,10.405876953125,-0.0031787450425326824,-0.006626288406550884,-0.00017051305621862411
1761468666406859800,10.41585986328125,-0.0001342189498245716,-0.00464383140206337,0.0021584215573966503
1761468666416843000,10.425843017578124,0.0010292259976267815,-0.006191498599946499,0.0019351877272129059
1761468666426826000,10.435825927734374,-0.000721269752830267,0.0012829289771616459,-0.0015900384169071913
1761468666436809000,10.44580908203125,0.0036022544372826815,0.0010415385477244854,0.0009472840465605259
1761468666446792000,10.4557919921875,0.001897032605484128,0.0043960558250546455,-0.0017984348814934492
1761468666456775000,10.46577490234375,0.0008021704852581024,-0.00014305091463029385,-0.00004241964779794216
1761468666466758000,10.4757578125,0.0000546211376786232,0.003176845610141754,0.001739234896376729
1761468666476741000,10.4857412109375,-0.0015355455689132214,-0.00047278241254389286,0.0003078680019825697
1761468666486723800,10.495723876953125,-0.001665507908910513,0.004225832410156727,-0.000033283140510320663
1761468666496707000,10.50570703125,0.002366800792515278,0.006374544929713011,0.0007682419382035732
1761468666506690000,10.51568994140625,-0.0020415298640727997,0.004170246887952089,-0.0005271194968372583
1761468666516673000,10.525673095703125,-0.0025455835275352,-0.0002177995629608631,0.0009638620540499687
1761468666526656000,10.535656005859375,-0.0023373248986899853,-0.004866080824285746,0.0036656386218965054
1761468666536639000,10.545638916015625,-0.00374803738668561,-0.0048325397074222565,0.002840518020093441
1761468666546622000,10.5556220703125,-0.0001759394071996212,-0.006274375133216381,0.0029483758844435215
1761468666556605000,10.56560498046875,0.00008428702130913734,0.0008421891834586859,0.002781123388558626
1761468666566588000,10.575587890625,0.00015992065891623497,-0.0028364353347569704,0.0011709765531122684
1761468666576571000,10.58557080078125,0.0019963551312685013,-0.001525722211226821,-0.001959367422387004
1761468666586554000,10.59555419921875,0.0003907354548573494,-0.005238967947661877,0.0007610516622662544
1761468666596536800,10.605536865234376,0.0006493162363767624,-0.003854678012430668,-0.001974545419216156
1761468666606520000,10.61552001953125,0.0005007116124033928,0.0015872251242399216,-0.0036083946470171213
1761468666616503000,10.6255029296875,-0.002423508558422327,0.002033232944086194,-0.0016015026485547423
1761468666626486000,10.635486083984375,-0.0005568987689912319,0.0034327239263802767,-0.0038212472572922707
1761468666636469000,10.645468994140625,-0.003079094924032688,0.0030159889720380306,-0.0013020189944654703
1761468666646452000,10.655451904296875,-0.000966142863035202,0.003179507330060005,-0.0007233140058815479
1761468666656434200,10.66543408203125,0.0009546414948999882,0.000864832429215312,-0.0025043801870197058
1761468666666417000,10.6754169921875,-0.00010210089385509491,0.002982844365760684,-0.0024439264088869095
1761468666676399900,10.68539990234375,0.00037041911855340004,0.001382053829729557,-0.00033908290788531303
1761468666686383000,10.695383056640624,0.000027404166758060455,0.0010110754519701004,-0.001983851194381714
1761468666696366000,10.705365966796874,-0.00119839608669281,-0.000051171984523534775,0.0029728112276643515
1761468666706348800,10.715348876953126,0.00010708533227443695,-0.0040685501880943775,0.001261730445548892
1761468666716332000,10.72533203125,0.00024354411289095879,-0.0037347194738686085,0.001024236436933279
1761468666726315000,10.73531494140625,-0.00009654182940721512,-0.0035261940211057663,0.0029321247711777687
1761468666736298000,10.745298095703125,0.0004826490767300129,-0.0034596999175846577,0.002160615287721157
1761468666746281000,10.755281005859375,-0.0014811656437814236,-0.003626680001616478,0.0020578172989189625
1761468666756264000,10.765263916015625,0.00031392090022563934,-0.0024308152496814728,0.00025020050816237926
1761468666766247000,10.775246826171875,0.0021006357856094837,-0.000929325120523572,-0.00005845981650054455
1761468666776230000,10.78522998046875,-0.0009979130700230598,0.10392999649047852,0.04643561318516731
1761468666786212900,10.795212890625,-0.001440796535462141,-0.032951951026916504,-0.01694442331790924
1761468666796196000,10.805196044921875,0.002155625494197011,0.03347085416316986,0.01166703924536705
1761468666806179000,10.815178955078125,0.0008448176085948944,0.020847734063863754,0.007134340237826109
1761468666816161800,10.825161865234374,-0.001080971211194992,-0.016918905079364777,-0.009513860568404198
1761468666826145000,10.83514501953125,-0.0006332937628030777,0.013378012925386429,0.0018525111954659224
1761468666836128000,10.8451279296875,0.0002078581601381302,-0.01768920198082924,-0.007349195424467325
1761468666846111000,10.855111083984376,0.0018004286102950573,-0.010974041186273098,-0.005983792711049318
1761468666856094000,10.865093994140626,-0.0034670676104724407,-0.031221570447087288,-0.015555983409285545
1761468666866077000,10.875076904296876,-0.00002306746318936348,-0.02418443374335766,-0.007791271898895502
1761468666876060000,10.885059814453125,-0.0010967850685119629,-0.009931391105055809,-0.00044833822175860405
1761468666886043100,10.895043212890625,0.0009490549564361572,0.0011036829091608524,0.003661185735836625
