time,seconds_elapsed,z,y,x
1761468683361939500,0.123939453125,-0.002025637775659561,0.0003142945934087038,0.0002473830245435238
1761468683371921400,0.13392138671875,0.00009610224515199661,0.00299236923456192,-0.002208583988249302
1761468683381904400,0.143904296875,-0.0013857707381248474,-0.004112419672310352,-0.002489232923835516
1761468683391887400,0.153887451171875,-0.0007040016353130341,-0.0007696198299527168,0.0004253305960446596
1761468683401870600,0.16387060546875,0.00015490688383579254,-0.00039839628152549267,0.001368414843454957
1761468683411853300,0.173853271484375,-0.00029809679836034775,-0.002916681347414851,-0.001382363960146904
1761468683421836300,0.183836181640625,-0.0007646088488399982,0.0032376982271671295,0.002682640217244625
1761468683431818500,0.193818603515625,0.0003049164079129696,-0.0017488044686615467,0.00026262574829161167
1761468683441801200,0.20380126953125,-0.001864386722445488,0.00028920150361955166,0.002027957933023572
1761468683451784400,0.213784423828125,-0.0004297415725886822,-0.0014104279689490795,0.00042393594048917294
1761468683461767400,0.223767333984375,-0.0000972086563706398,0.0025077355094254017,0.0005390138830989599
1761468683471750100,0.233750244140625,-0.0011198623105883598,-0.00013012555427849293,0.003054369706660509
1761468683481732400,0.243732421875,0.002031262731179595,0.0019292216747999191,-0.001178908976726234
1761468683491715300,0.25371533203125,-0.0005562645383179188,-0.0031638075597584248,-0.0010907584801316261
1761468683501698600,0.263698486328125,-0.0020607602782547474,0.0007219063118100166,-0.001043746480718255
1761468683511681300,0.273681396484375,0.001000543124973774,-0.0006642688531428576,-0.0018576084403321147
1761468683521664300,0.283664306640625,0.000826577190309763,0.0026766732335090637,0.0009351999033242464
1761468683531646500,0.293646484375,-0.000563593115657568,-0.0001460113562643528,0.00016661151312291622
1761468683541629400,0.30362939453125,-0.0006266916170716286,-0.00490529416128993,0.0007501731161028147
1761468683551612400,0.3136123046875,-0.0006037885323166847,0.0031097554601728916,-0.000536932609975338
1761468683561595400,0.323595458984375,-0.0008716043084859848,0.001448760274797678,0.0017863132525235415
1761468683571578400,0.333578369140625,-0.00020900974050164223,0.0014090794138610363,-0.0001476744655519724
1761468683581561300,0.343561279296875,0.0006305393762886524,0.002559073269367218,0.00138987903483212
1761468683591543600,0.35354345703125,-0.00005921907722949982,-0.0009605605155229568,0.0005941267590969801
1761468683601526300,0.3635263671875,-0.0029483591206371784,-0.004120933823287487,0.0013419424649327993
1761468683611509200,0.37350927734375,-0.0004899948835372925,-0.004598705098032951,-0.003089557634666562
1761468683621492500,0.383492431640625,0.0020272850524634123,0.0043775178492069244,0.0019724727608263493
1761468683631475500,0.393475341796875,-0.0001397291198372841,-0.001372247003018856,-0.0018598161404952407
1761468683641457400,0.40345751953125,-0.000601078849285841,0.005400536116212606,-0.0004027124959975481
1761468683651440400,0.4134404296875,0.00044394563883543015,-0.000607821624726057,0.0024311570450663567
1761468683661423400,0.42342333984375,0.0006437343545258045,0.0027010058984160423,-0.0002657109871506691
1761468683671406300,0.43340625,0.001867456827312708,-0.002839700784534216,-0.0031320713460445404
1761468683681389300,0.443389404296875,-0.0008369120769202709,0.0021297307685017586,0.0007186518050730228
1761468683691371500,0.45337158203125,0.0020286489743739367,0.0021366546861827374,0.0002494028303772211
1761468683701354200,0.463354248046875,0.002356048673391342,-0.0005979409907013178,0.002092561684548855
1761468683711337200,0.473337158203125,0.00018211035057902336,0.004865534137934446,0.0005838808137923479
1761468683721320400,0.483320556640625,0.0010967017151415348,0.0012700371444225311,0.001120933797210455
1761468683731303400,0.493303466796875,0.0003414289094507694,0.00016376003623008728,0.001343573909252882
1761468683741286400,0.503286376953125,0.0006921361200511456,0.0006709950976073742,0.0019391488749533892
1761468683751268400,0.513268310546875,0.000842072069644928,-0.0057251183316111565,-0.0015762238763272762
1761468683761251300,0.523251220703125,0.0012874691747128963,0.0013217022642493248,0.0031420066952705383
1761468683771234300,0.533234375,-0.002032693475484848,-0.0018796834629029036,0.0009315828792750835
1761468683781217300,0.54321728515625,0.003861652920022607,-0.005514565855264664,-0.0007600907701998949
1761468683791200500,0.553200439453125,-0.00010965298861265182,-0.0008401856757700443,0.0004886654205620289
1761468683801182200,0.56318212890625,-0.00021003605797886848,-0.0014457963407039642,-0.000017439713701605797
1761468683811165400,0.57316552734375,-0.0009956685826182365,-0.0001328578218817711,-0.004490485414862633
1761468683821148400,0.5831484375,-0.0015520877204835415,0.003789690788835287,-0.00019902433268725872
1761468683831131400,0.59313134765625,-0.0003414149396121502,0.005355363711714745,0.0029869151767343283
1761468683841114400,0.6031142578125,0.001031478401273489,0.0034691125620156527,0.0010861223563551903
1761468683851096300,0.613096435546875,0.0001651518978178501,0.0029985320288687944,-0.0008068524766713381
1761468683861079600,0.62307958984375,0.003459264524281025,0.00019651465117931366,0.0005312359426170588
1761468683871062300,0.633062255859375,0.002787349047139287,0.0029233251698315144,-0.001984119415283203
1761468683881045200,0.643045166015625,0.00032659806311130524,-0.00129213510081172,0.0003558192402124405
1761468683891028500,0.653028564453125,0.0010096984915435314,-0.0026085355784744024,-0.0003075741697102785
1761468683901011500,0.663011474609375,-0.0014270488172769547,0.001827817177399993,0.0027198255993425846
1761468683910993400,0.672993408203125,-0.0005916152149438858,-0.0015749037265777588,-0.0003129823599010706
1761468683920976400,0.682976318359375,0.00002842256799340248,-0.004396954085677862,-0.00031207711435854435
1761468683930959400,0.69295947265625,0.0019482951611280441,0.0002774260938167572,-0.0005549571942538023
1761468683940942300,0.7029423828125,0.00046627316623926163,-0.0041234674863517284,-0.0012760352110490203
1761468683950925300,0.71292529296875,-0.0008975313976407051,-0.00013085617683827877,0.00003344099968671799
1761468683960907500,0.722907470703125,0.0009381338022649288,-0.002629241207614541,-0.0017774052685126662
1761468683970890200,0.73289013671875,0.0008582388982176781,-0.0008222865872085094,0.002506555523723364
1761468683980873500,0.74287353515625,0.00004110857844352722,0.00039415108039975166,-0.0012661329237744212
1761468683990856400,0.7528564453125,0.0005412502214312553,0.000564326997846365,-0.002318880520761013
1761468684000839400,0.76283935546875,-0.0001937439665198326,0.0020542959682643414,0.0021983457263559103
1761468684010821400,0.7728212890625,0.0017045573331415653,0.004063118249177933,0.0006848711054772139
1761468684020804400,0.782804443359375,0.0020944029092788696,0.00029439362697303295,-0.0007812837138772011
1761468684030787600,0.79278759765625,-0.0012473315000534058,0.001843287842348218,0.003042749594897032
1761468684040770300,0.802770263671875,0.000982239842414856,0.0004213675856590271,-0.002371204784139991
1761468684050753300,0.812753173828125,-0.0009464211761951447,-0.001289180712774396,0.0005806430708616972
1761468684060736500,0.822736572265625,-0.0010670339688658714,0.0012968932278454304,0.0015700063668191433
1761468684070718200,0.83271826171875,-0.00046356162056326866,-0.005888048559427261,-0.0007027352694422007
1761468684080701400,0.842701416015625,-0.000004293397068977356,-0.0015171852428466082,0.0004970254376530647
1761468684090684400,0.852684326171875,0.0014173020608723164,-0.0025203980039805174,-0.0001850102562457323
1761468684100667400,0.86266748046875,-0.0008104019798338413,0.0018499400466680527,0.0025351212825626135
1761468684110650400,0.872650390625,-0.0002468768507242203,-0.0009133557323366404,0.0009361596312373877
1761468684120632300,0.88263232421875,0.0011934987269341946,0.0036432354245334864,0.0017431960441172123
1761468684130615600,0.892615478515625,0.00163265410810709,0.0010391965042799711,-0.0007178308442234993
1761468684140598300,0.902598388671875,0.0009823944419622421,0.00520231993868947,0.0006040683947503567
1761468684150581200,0.912581298828125,0.0016865343786776066,0.006325108464807272,0.0012418953701853752
1761468684160564500,0.922564453125,-0.0008140723221004009,-0.0011621143203228712,0.0004270563367754221
1761468684170546200,0.932546142578125,-0.0013429760001599789,0.0010041010100394487,-0.0010669769253581762
1761468684180529400,0.942529296875,0.00013396656140685081,-0.0018934766994789243,0.0003098980523645878
1761468684190512400,0.952512451171875,-0.0007978733628988266,0.000380862969905138,-0.0009862624574452639
1761468684200494300,0.962494384765625,0.0002945195883512497,0.000471385195851326,0.0011450725141912699
1761468684210477300,0.972477294921875,0.0006409967318177223,-0.0006394193042069674,-0.002564711030572653
1761468684220460300,0.982460205078125,-0.00041398918256163597,0.001103139016777277,-0.0003917636349797249
1761468684230442200,0.992442138671875,0.0007548723369836807,-0.004515864420682192,0.0012569993268698454
1761468684240425500,1.002425537109375,-0.0024971477687358856,-0.004195209126919508,-0.0013117983471602201
1761468684250408400,1.012408447265625,0.0008448529988527298,-0.0004878223408013582,0.00031832256354391575
1761468684260391200,1.02239111328125,-0.0009015561081469059,0.00017246324568986893,0.0016517015174031258
1761468684270374400,1.03237451171875,-0.0002823714166879654,-0.0047453297302126884,0.001571806613355875
1761468684280356400,1.0423564453125,-0.003018398769199848,-0.0007664498407393694,0.0005387319251894951
1761468684290339300,1.05233935546875,0.0015172306448221207,0.005026192404329777,0.0008713607676327229
1761468684300322300,1.062322265625,-0.0020091324113309383,0.0038670727517455816,0.00035365810617804527
1761468684310305300,1.07230517578125,0.0011629587970674038,0.00036874436773359776,-0.0025728894397616386
1761468684320288500,1.08228857421875,-0.0009164772927761078,0.0052725691348314285,-0.001495093572884798
1761468684330270200,1.092270263671875,-0.0005343137308955193,-0.002855931408703327,-0.002506828401237726
1761468684340253400,1.10225341796875,0.0021695855539292097,0.0027675649616867304,0.00007758638821542263
1761468684350236400,1.112236328125,-0.0017676320858299732,0.003384619252756238,0.0012805359438061714
1761468684360219100,1.12221923828125,-0.0009715310297906399,-0.003769215429201722,-0.0025429618544876575
1761468684370202400,1.132202392578125,0.0003608483821153641,0.004682326223701239,-0.0005903320852667093
1761468684380185300,1.142185302734375,-0.0017735976725816727,0.003844639053568244,0.0016656408552080393
1761468684390167300,1.152167236328125,0.0008956887759268284,-0.0009189571719616652,-0.001055310945957899
1761468684400150300,1.162150390625,0.0014725052751600742,0.0017470933962613344,0.0012849802151322365
1761468684410133200,1.17213330078125,-0.0015608351677656174,-0.0004180567339062691,0.001092433463782072
1761468684420116500,1.182116455078125,0.0008352361619472504,-0.00224221870303154,0.0011770089622586966
1761468684430099200,1.19209912109375,0.0002778363414108753,0.000043572625145316124,-0.0004666943568736315
1761468684440081400,1.202081298828125,0.00019430415704846382,-0.002626401372253895,-0.00043537653982639313
1761468684450064400,1.212064453125,0.00043718423694372177,0.0014812580775469542,-0.000762412790209055
1761468684460047400,1.22204736328125,0.00024419184774160385,0.00037125241942703724,-0.0012316439533606172
1761468684470030300,1.2320302734375,0.0007786881178617477,-0.000458321999758482,0.0002520030830055475
1761468684480013300,1.242013427734375,0.0020252850372344255,0.002718214876949787,-0.0011526725720614195
1761468684489995300,1.251995361328125,-0.0003076442517340183,-0.0009731925092637539,-0.000755595276132226
1761468684499978200,1.261978271484375,0.001177182886749506,0.00129839894361794,0.0003229440189898014
1761468684509961500,1.27196142578125,-0.0003591948188841343,0.002356206299737096,-0.000231526093557477
1761468684519944400,1.2819443359375,0.0007463931106030941,-0.0003613485023379326,-0.0017673291731625795
1761468684529927200,1.29192724609375,-0.0017607067711651325,-0.0017674975097179413,0.0012404448352754116
1761468684539909400,1.301909423828125,-0.002567808609455824,0.0007447125390172005,-0.0013460797490552068
1761468684549892400,1.311892333984375,0.0010386439971625805,-0.0005128320772200823,-0.002266201889142394
1761468684559875300,1.321875244140625,0.001413809135556221,-0.00292711379006505,0.0002443157136440277
1761468684569858300,1.3318583984375,0.0007203216664493084,0.0021374195348471403,0.0016147783026099205
1761468684579841300,1.34184130859375,0.0015648556873202324,-0.0005498500540852547,-0.0004155677743256092
1761468684589824500,1.351824462890625,-0.00045382045209407806,0.0013276785612106323,-0.0002491201739758253
1761468684599806200,1.36180615234375,-9.64384526014328e-7,0.0026602321304380894,-0.0003693744074553251
1761468684609789400,1.37178955078125,-0.00016608042642474174,0.0013867081142961979,-0.0014008167199790478
1761468684619772400,1.3817724609375,-0.0016703610308468342,-0.0008000470697879791,-0.0008436937350779772
1761468684629755100,1.391755126953125,0.0016396818682551384,0.00022234045900404453,0.00016138330101966858
1761468684639738400,1.40173828125,-0.00097650196403265,-0.0018956715939566493,-0.0028688423335552216
1761468684649720300,1.41172021484375,-0.0010481406934559345,-0.0016005933284759521,-0.001231531030498445
1761468684659703300,1.421703369140625,-0.0003054230473935604,-0.0009680807124823332,0.0016139363870024681
1761468684669686300,1.431686279296875,0.0013710367493331432,-0.00037392950616776943,-0.000056398333981633186
1761468684679669500,1.44166943359375,0.0002936343662440777,0.0005979724228382111,-0.0008717798627912998
1761468684689652500,1.451652587890625,-0.00016256468370556831,-0.00043373601511120796,-0.0010265095625072718
1761468684699634400,1.461634521484375,-0.0017272057011723518,0.003215131117030978,-0.001112709054723382
1761468684709617400,1.471617431640625,0.0005420735105872154,-0.002928781555965543,-0.002489296952262521
1761468684719600400,1.481600341796875,0.002912692027166486,-0.0055946167558431625,-0.0016215561190620065
1761468684729583400,1.491583251953125,-0.0006229206919670105,0.001459031831473112,-0.0008572288788855076
1761468684739566300,1.50156640625,-0.0015878132544457912,-0.0038747915532439947,-0.0010568078141659498
1761468684749549300,1.51154931640625,0.0009978502057492733,-0.0011253440752625465,0.0009871681686490774
1761468684759531300,1.52153125,-0.000561919528990984,0.0014886122662574053,-0.0016428346280008554
1761468684769514200,1.53151416015625,0.00020294031128287315,0.0004885948728770018,0.0004248435143381357
1761468684779497500,1.54149755859375,0.00007414491847157478,0.002221453934907913,-0.000833060359582305
1761468684789480400,1.55148046875,0.0015348889864981174,-0.0021322821266949177,0.00006256066262722015
1761468684799463200,1.561463134765625,0.0004442427307367325,-0.0028367566410452127,-0.0008715195581316948
1761468684809445400,1.5714453125,-0.0006465883925557137,0.0025012833066284657,0.00013781851157546043
1761468684819428400,1.581428466796875,0.0013096649199724197,-0.00043566804379224777,-0.0011011373717337847
1761468684829411300,1.591411376953125,-0.0002525453455746174,0.0014189574867486954,0.0028009263332933187
1761468684839394300,1.601394287109375,-0.001951112411916256,-0.004664928652346134,-0.002996724331751466
1761468684849377300,1.611377197265625,0.001318983267992735,-0.0017477020155638456,0.00005712243728339672
1761468684859359200,1.621359130859375,-0.0016158642247319221,-0.0005078052636235952,-0.0022901275660842657
1761468684869342200,1.63134228515625,-0.0009253066964447498,0.002168405568227172,0.0003991324920207262
1761468684879325400,1.641325439453125,-0.0006514033302664757,-0.0009265353437513113,-0.0003495803102850914
1761468684889308400,1.651308349609375,-0.00045273173600435257,-0.0014850003644824028,0.0023516640067100525
1761468684899291400,1.66129150390625,0.0017642760649323463,-0.002398444339632988,-0.0033114443067461252
1761468684909273300,1.6712734375,0.0004787682555615902,-0.0014322495553642511,-0.0013960989890620112
1761468684919256600,1.681256591796875,-0.0014905580319464207,0.002065494190901518,-0.002486992860212922
1761468684929239300,1.6912392578125,0.00044209789484739304,0.006287669762969017,-0.0003551323898136616
1761468684939222300,1.70122216796875,0.000896939542144537,-0.0015810707118362188,0.0001637402456253767
1761468684949205500,1.71120556640625,-0.00011399621143937111,0.00009592180140316486,0.0007043620571494102
1761468684959188200,1.721188232421875,0.00293330242857337,-0.00018870248459279537,-0.0023801082279533148
1761468684969170400,1.73117041015625,-0.0009708916768431664,0.0030989700462669134,0.002174429828301072
1761468684979153400,1.7411533203125,0.0022340312134474516,0.0006135471630841494,0.0003847053740173578
1761468684989136100,1.75113623046875,-0.0019026570953428745,-0.002135633956640959,-0.001141285989433527
1761468684999119400,1.761119384765625,-0.001874700654298067,0.003115753410384059,0.0023870107252150774
1761468685009102300,1.771102294921875,0.0017304206266999245,0.0008592570666223764,-0.0005296831950545311
1761468685019084500,1.78108447265625,0.000636368989944458,-0.0020550996996462345,-0.002394189592450857
1761468685029067300,1.7910673828125,-0.00018521631136536598,0.001948164077475667,-0.001816549920476973
1761468685039050200,1.80105029296875,-0.0016331044025719166,-0.0021389457397162914,-0.0014023538678884506
1761468685049033500,1.811033447265625,-0.0003678365610539913,0.0030853773932904005,-0.0016577510396018624
1761468685059016200,1.82101611328125,0.00022634584456682205,-0.0004567604046314955,-0.0004731456283479929
1761468685068998400,1.830998291015625,0.0011667078360915184,0.004994464106857777,-0.0008688913658261299
1761468685078981400,1.8409814453125,0.0009236256591975689,0.001884532393887639,-0.002272579586133361
1761468685088964000,1.850964111328125,-0.00011660484597086906,0.001405696151778102,0.0016960629727691412
1761468685098947300,1.860947265625,-0.0007415860891342163,0.0013335759285837412,0.0011427209246903658
1761468685108930300,1.870930419921875,0.0003753439523279667,0.0006728454027324915,-0.003381190588697791
1761468685118912300,1.880912353515625,-0.0008444748818874359,0.0005472376942634583,0.0010757832787930965
1761468685128895200,1.890895263671875,-0.001871123444288969,0.0016156979836523533,-0.0014520891709253192
1761468685138878500,1.90087841796875,-0.0005838004872202873,0.00022500427439808846,-0.003583465237170458
1761468685148861400,1.910861328125,0.001933419145643711,-0.0005774062592536211,-0.0016332323430106044
1761468685158844200,1.92084423828125,-0.002373508643358946,-0.001377737382426858,-0.0009067847859114408
1761468685168827400,1.930827392578125,0.0007176226936280727,-0.0008088862523436546,0.0011624915059655905
1761468685178809300,1.940809326171875,0.0020811762660741806,-0.00510823167860508,0.0024711836595088243
1761468685188792300,1.950792236328125,0.0020004822872579098,-0.0004844514187425375,-0.000401834724470973
1761468685198775300,1.960775390625,-0.00008658831939101219,-0.0005712811835110188,-0.001504335319623351
1761468685208758000,1.970758056640625,-0.00036808475852012634,-0.0015422697179019451,0.0009849213529378176
1761468685218741200,1.9807412109375,0.0011636614799499512,0.002320149913430214,0.0012159773614257574
1761468685228723200,1.99072314453125,-0.0030971295200288296,0.001697236206382513,0.0012745668645948172
1761468685238706200,2.0007060546875,0.0004168259911239147,-0.0012183163780719042,0.00021907384507358074
1761468685248689200,2.010689208984375,-0.0001027565449476242,-0.0008955411612987518,-0.0028249192982912064
1761468685258672000,2.020672119140625,0.00041823554784059525,-0.006258501671254635,-0.002032550983130932
1761468685268655400,2.0306552734375,-0.00037085916846990585,0.005111331585794687,0.0006726880092173815
1761468685278637000,2.040636962890625,0.0018829451873898506,-0.00024121254682540894,0.0002657275181263685
1761468685288620300,2.050620361328125,-0.0006896681152284145,0.0033788224682211876,0.0019810693338513374
1761468685298603300,2.060603271484375,0.0016376967541873455,-0.0010490922722965479,-0.0007603589911013842
1761468685308586200,2.070586181640625,0.002041698433458805,-0.00038063875399529934,-0.00034890067763626575
1761468685318569200,2.0805693359375,-0.00030871713533997536,0.0010609030723571777,-0.00002598087303340435
1761468685328551200,2.09055126953125,0.0008481601253151894,-0.0010919964406639338,-0.0011261326726526022
1761468685338534100,2.1005341796875,0.0011168220080435276,0.0030385733116418123,0.0000666487030684948
1761468685348517000,2.11051708984375,-0.0011916058138012886,-0.0010523081291466951,0.0010083424858748913
1761468685358500400,2.120500244140625,0.00005026115104556084,0.00005819927901029587,-0.0013638942036777735
1761468685368483300,2.1304833984375,-0.0007249852642416954,0.0007492895238101482,-0.0014983838191255927
1761468685378466000,2.140466064453125,0.0007908404804766178,-0.0018989271484315395,0.002387859858572483
1761468685388448300,2.1504482421875,-0.0023511573672294617,-0.0019135745242238045,0.0001302983146160841
1761468685398431200,2.16043115234375,-0.00043355533853173256,0.0021203153301030397,-0.0005927500315010548
1761468685408414200,2.170414306640625,-0.0005312934517860413,0.003484120359644294,-0.000006321817636489868
1761468685418397200,2.180397216796875,-0.0006288010627031326,-0.0039278860203921795,-0.00009408034384250641
1761468685428380200,2.190380126953125,0.0020356918685138226,0.0017611586954444647,-0.0008794467430561781
1761468685438362000,2.200362060546875,0.0023249336518347263,0.0018749353475868702,0.001859096810221672
1761468685448345000,2.210344970703125,-0.002578211948275566,-0.005247422493994236,-0.000137741444632411
1761468685458328300,2.220328369140625,0.00018171360716223717,-0.0013623074628412724,-0.00006299861706793308
1761468685468311300,2.230311279296875,0.0019436613656580448,0.003321926575154066,0.0035905917175114155
1761468685478294000,2.2402939453125,0.0005686087533831596,-0.0027571655809879303,0.0006785148289054632
1761468685488276200,2.250276123046875,-0.00028679845854640007,0.00017151236534118652,0.00017597642727196217
1761468685498259200,2.26025927734375,-0.0011814329773187637,-0.0036113038659095764,-0.0012337800581008196
1761468685508242200,2.2702421875,-0.002763350959867239,-0.002601965796202421,-0.0009637356270104647
1761468685518225200,2.28022509765625,0.00017404090613126755,0.0049954974092543125,0.0030688364058732986
1761468685528208100,2.2902080078125,-0.0009676562622189522,-0.0028139562346041203,0.0021492470987141132
1761468685538190000,2.300190185546875,-0.0007916642352938652,-0.0021890485659241676,0.000046496978029608727
1761468685548173300,2.31017333984375,0.0003377827815711498,-0.0002492018975317478,-0.000288794981315732
1761468685558156300,2.32015625,-0.001897183246910572,-0.000907830661162734,-0.00006069266237318516
1761468685568139300,2.33013916015625,-0.0004710606299340725,-0.001202109968289733,-0.0013190362369641662
1761468685578122200,2.340122314453125,-0.002372805029153824,0.0004637259989976883,0.0025043352507054806
1761468685588105200,2.350105224609375,-0.000299268402159214,-0.004156591836363077,-0.0006685550324618816
1761468685598087400,2.36008740234375,0.00037435954436659813,0.002888340502977371,-0.0012853833613917232
1761468685608070100,2.370070068359375,-0.0010416428558528423,-0.001952487276867032,-0.0003902949392795563
1761468685618053000,2.38005322265625,0.000911930575966835,-0.0005199494771659374,-0.0005432101897895336
1761468685628036400,2.390036376953125,0.002233657520264387,0.0013016527518630028,0.0013937070034444332
1761468685638019300,2.400019287109375,-0.001135007943958044,0.0015840772539377213,0.0011899550445377827
1761468685648001300,2.410001220703125,0.0006053675897419453,0.002683696337044239,0.0025617489591240883
1761468685657984300,2.419984375,0.0005577025003731251,-0.0006651778239756823,-0.0010555176995694637
1761468685667967200,2.42996728515625,-0.0011626998893916607,-0.001684902235865593,0.00003664474934339523
1761468685677950200,2.4399501953125,0.0015550912357866764,0.0009916508570313454,-0.0003943690098822117
1761468685687933200,2.44993310546875,0.0010387045331299305,0.0006361189298331738,-0.0036993518006056547
1761468685697916200,2.459916259765625,-0.0004321006126701832,-0.003955830819904804,-0.0009062644094228745
1761468685707898000,2.469898193359375,-0.001278985757380724,-0.0012418031692504883,-0.00007802131585776806
1761468685717881000,2.479881103515625,0.0009982800111174583,-0.0034274845384061337,-0.0010047266259789467
1761468685727864300,2.4898642578125,-0.0026840725913643837,-0.0007842970080673695,0.0013431161642074585
1761468685737847300,2.499847412109375,0.0019451668485999107,-0.004015510436147451,-0.00013561989180743694
1761468685747830300,2.509830322265625,-0.0004855003207921982,0.000018646009266376495,-0.0004384212661534548
1761468685757812200,2.519812255859375,0.0020215765107423067,-0.0016751098446547985,-0.00006569130346179008
1761468685767795200,2.529795166015625,0.0012378082610666752,0.002834154525771737,-0.0007850110996514559
1761468685777778200,2.539778076171875,-0.0019605313427746296,0.0028621028177440166,-0.0015846694586798549
1761468685787761200,2.54976123046875,0.0017034457996487617,-0.0027222794014960527,-0.0010387215297669172
1761468685797744400,2.559744384765625,-0.0015825056470930576,0.003426492679864168,-0.0015256906626746058
1761468685807726000,2.56972607421875,-0.00003707315772771835,0.000571051612496376,-0.0018926742486655712
1761468685817709300,2.579709228515625,0.0020912198815494776,0.0015019900165498257,0.0009048853535205126
1761468685827692300,2.5896923828125,-0.0015229559503495693,0.0007837354205548763,0.0011741307098418474
1761468685837675000,2.599675048828125,0.0005610347725450993,-0.003034705063328147,-0.0024557788856327534
1761468685847658200,2.609658203125,-0.003790836315602064,0.0011941283009946346,0.00230355653911829
1761468685857640200,2.61964013671875,-0.003266128245741129,-0.005266454070806503,-0.0018988711526617408
1761468685867623200,2.629623046875,-0.000619745347648859,0.0038900261279195547,0.002426368650048971
1761468685877606100,2.639606201171875,-0.0004889839328825474,0.0009541574399918318,0.002515318337827921
1761468685887589000,2.649589111328125,0.0006747310981154442,-0.004055666271597147,-0.0012713143369182944
1761468685897572400,2.659572265625,0.00029548536986112595,-0.002347978064790368,0.002513765124604106
1761468685907554000,2.669553955078125,-0.002106419298797846,0.0007340980228036642,0.0015457060653716326
1761468685917537300,2.679537353515625,0.0018653296865522861,0.0019886521622538567,-0.002338545862585306
1761468685927520300,2.689520263671875,0.0017566727474331856,0.0008853045292198658,0.0009890738874673843
1761468685937503000,2.6995029296875,-0.001267747487872839,0.0003494622651487589,-0.00051130261272192
1761468685947486200,2.709486328125,0.0012792996130883694,0.0015145952347666025,-0.00006149476394057274
1761468685957469200,2.71946923828125,0.001123703084886074,0.0012149957474321127,-0.00016696006059646606
1761468685967451100,2.729451171875,0.0006262245588004589,0.0018962325993925333,0.0003494268748909235
1761468685977434000,2.73943408203125,-0.0008899983949959278,0.0011530134361237288,-0.001468944363296032
1761468685987417300,2.749417236328125,-0.001372563187032938,-0.0013484936207532883,0.0007302938029170036
1761468685997400300,2.759400390625,-0.0025568054988980293,-0.00009638490155339241,0.0016782081220299006
1761468686007383000,2.769383056640625,-0.00038819387555122375,-0.0015400846023112535,0.0002659335732460022
1761468686017365200,2.779365234375,0.0010481555946171284,-0.00023282039910554886,0.001590469852089882
1761468686027348200,2.78934814453125,0.001657220534980297,-0.004987628199160099,0.001855987124145031
1761468686037331200,2.799331298828125,0.0003644851967692375,-0.0011824853718280792,-0.0008557131513953209
1761468686047314200,2.809314208984375,-0.0013585803098976612,0.0026186443865299225,0.0009752099867910147
1761468686057297200,2.819297119140625,-0.0009714113548398018,-0.0013998416252434254,-0.0013761002337560058
1761468686067279000,2.829279052734375,-0.0002963002771139145,0.0009890138171613216,-0.0021958211436867714
1761468686077262000,2.839261962890625,0.0021748088765889406,0.0022504120133817196,-0.0013334196992218494
1761468686087245300,2.849245361328125,0.0006030113436281681,-0.0009395224042236805,0.0018551831599324942
1761468686097228300,2.859228271484375,-0.0015827198512852192,-0.0020846526604145765,0.000802105525508523
1761468686107211000,2.8692109375,-0.0007893643341958523,-0.0009216500911861658,0.000010081101208925247
1761468686117194200,2.8791943359375,-0.0009758411906659603,0.00024860422126948833,0.0008819270879030228
1761468686127176200,2.88917626953125,0.0011099465191364288,-0.000987901585176587,0.0020031179301440716
1761468686137159200,2.8991591796875,0.0012999936006963253,0.0019624934066087008,0.0012447778135538101
1761468686147142100,2.90914208984375,-0.0003210725262761116,-0.0026527647860348225,-0.00012994580902159214
1761468686157125000,2.919125,0.0013814140111207962,0.0028616462368518114,0.0016711903735995293
1761468686167108400,2.9291083984375,-0.00046522170305252075,0.00136388442479074,0.0007630521431565285
1761468686177090000,2.939090087890625,-0.001912540290504694,-0.005305213388055563,0.000201815040782094
1761468686187073300,2.9490732421875,0.00124010955914855,0.0008549443446099758,-0.0008107186295092106
1761468686197056300,2.95905615234375,-0.001742327120155096,0.0002656483557075262,0.0024183867499232292
1761468686207039700,2.969039794921875,0.0004177624359726906,0.0020616839174181223,0.00026575359515845776
1761468686217022700,2.979022705078125,0.0007968698628246784,-0.0004357416182756424,0.0013678146060556173
1761468686227004700,2.989004638671875,0.0003934013657271862,0.0003099434543401003,0.0013664828147739172
1761468686236988000,2.99898779296875,0.0012095915153622627,0.0005560864228755236,0.0017960327677428722
1761468686246970600,3.008970703125,-0.00026633264496922493,-0.001554735004901886,0.0002721718046814203
1761468686256953600,3.01895361328125,0.0009996653534471989,0.002451329492032528,0.0014047168660908937
1761468686266936800,3.028936767578125,-0.0007950388826429844,-0.0010738968849182129,-0.0022320959251374006
1761468686276918500,3.03891845703125,-0.0002536224201321602,-0.00025259144604206085,-0.0003299687523394823
1761468686286901800,3.04890185546875,0.00007075071334838867,-0.0029479768127202988,0.0014338428154587746
1761468686296884700,3.058884765625,0.0008008251897990704,0.0005651926621794701,-0.0010414284188300371
1761468686306867700,3.06886767578125,0.0013957754708826542,-0.0016407037619501352,-0.0005902890115976334
1761468686316850700,3.0788505859375,-0.0012248917482793331,-0.0025094556622207165,-0.00013346876949071884
1761468686326833700,3.088833740234375,0.0006270706653594971,-0.0009930517990142107,-0.0024416306987404823
1761468686336815900,3.09881591796875,-0.0015132580883800983,0.003323183860629797,0.0017698726151138544
1761468686346798600,3.108798583984375,0.0009264638647437096,0.00019317073747515678,0.001349093159660697
1761468686356781800,3.11878173828125,-0.0001971484161913395,-0.004565291106700897,-0.0013315934920683503
1761468686366764800,3.128764892578125,-0.001062675379216671,0.003861483186483383,0.0010756379924714565
1761468686376747800,3.138747802734375,0.0011993031948804855,0.0002873733174055815,-0.00041089835576713085
1761468686386729700,3.148729736328125,-0.0030950442887842655,-0.002385375089943409,-0.0005645626224577427
1761468686396712700,3.158712646484375,0.001036901492625475,-0.0009654182940721512,-0.00011810241267085075
1761468686406696000,3.168696044921875,0.003313371678814292,-0.0018746214918792248,0.00026512634940445423
1761468686416678700,3.1786787109375,-0.0006371592171490192,-0.0010172657202929258,-0.000942982966080308
1761468686426661600,3.18866162109375,0.0013045514933764935,0.00029940088279545307,0.0020104628056287766
1761468686436643800,3.198643798828125,-0.001275151502341032,-0.00044191349297761917,-0.000517797889187932
1761468686446626600,3.20862646484375,-0.0013606389984488487,-0.0005740062333643436,-0.00002271612174808979
1761468686456609800,3.21860986328125,-0.000725865364074707,-0.000847978750243783,-0.000987623818218708
1761468686466592800,3.2285927734375,0.0022387655917555094,-0.001978224376216531,-0.00031677354127168655
1761468686476575700,3.23857568359375,-0.0017212526872754097,-0.00002245488576591015,-0.001167472219094634
1761468686486557700,3.2485576171875,0.0007658731192350388,0.0016904901713132858,0.0017617386765778065
1761468686496540700,3.258540771484375,0.00011131679639220238,-0.00024142744950950146,0.00022841431200504303
1761468686506524000,3.26852392578125,-0.0006053401157259941,-0.000033700838685035706,0.0006324159912765026
1761468686516506600,3.278506591796875,0.0031193068716675043,-0.003192896954715252,-0.0003235174808651209
1761468686526489900,3.28848974609375,0.0017544366419315338,0.0016282238066196442,0.0014434896875172853
1761468686536472800,3.298472900390625,0.002096031326800585,0.001660594716668129,-0.0008261001203209162
1761468686546454800,3.308454833984375,-0.0007809814997017384,0.00009918306022882462,0.000038894591853022575
1761468686556437800,3.318437744140625,0.000932830385863781,0.0017717410810291767,0.00028260773979127407
1761468686566420700,3.328420654296875,-0.0009012888185679913,-0.005307207349687815,-0.0023291544057428837
1761468686576404000,3.338404052734375,0.0011427453719079494,0.0020664166659116745,0.0012711065355688334
1761468686586386700,3.34838671875,0.000983221922069788,0.00381478201597929,-0.0005172062665224075
1761468686596369000,3.358368896484375,0.0017042099498212337,-0.0008237999863922596,-0.0012217049952596426
1761468686606352000,3.368351806640625,-0.0004702610895037651,0.0005330806598067284,0.0017373331356793642
1761468686616334600,3.37833447265625,0.002214440843090415,-0.002158400369808078,-0.001449360977858305
1761468686626317800,3.38831787109375,-0.0023129330947995186,0.003339429385960102,0.0007615955546498299
1761468686636300800,3.39830078125,-0.0004987102001905441,-0.000833028694614768,0.001165309688076377
1761468686646282800,3.40828271484375,0.0026259764563292265,-0.0027307975105941296,0.0003581056371331215
1761468686656265700,3.418265625,-0.00045489752665162086,0.00017753825522959232,-0.0012152257841080427
1761468686666248700,3.428248779296875,0.0009685619734227657,0.000843861373141408,0.0008146357722580433
1761468686676232000,3.43823193359375,-0.000910087488591671,-0.0013221243862062693,-0.0008274521678686142
1761468686686214700,3.448214599609375,-0.00019928999245166779,-0.0021985708735883236,0.00024047540500760078
1761468686696196900,3.45819677734375,0.0004345797933638096,0.0006614965386688709,-0.0006113129202276468
1761468686706179800,3.468179931640625,0.0015909243375062943,-0.0005462472327053547,-0.0007689720951020718
1761468686716162600,3.47816259765625,-0.0030232975259423256,-0.0006801150739192963,-0.00005320250056684017
1761468686726145800,3.488145751953125,0.0005748993717133999,0.0011625259649008512,0.0007771709933876991
1761468686736128800,3.498128662109375,0.001181380357593298,0.001332295360043645,0.00037125730887055397
1761468686746111700,3.50811181640625,-0.00009214365854859352,-0.00005654338747262955,-0.0017209219513460994
1761468686756093700,3.51809375,-0.0009445049799978733,-0.00424515176564455,0.000038571422919631004
1761468686766077000,3.528076904296875,-0.0030550602823495865,0.0013666613958775997,0.0015666934195905924
1761468686776060000,3.538059814453125,0.0022046659141778946,-0.0016828742809593678,0.0012471734080463648
1761468686786042600,3.548042724609375,-0.000849713571369648,-0.0002836494240909815,0.002261038636788726
1761468686796025900,3.55802587890625,-0.0016635390929877758,0.00012970366515219212,-0.0018876834074035287
1761468686806007800,3.5680078125,-0.0007431507110595703,-0.004183019511401653,0.0013424644712358713
1761468686815990800,3.57799072265625,-0.000528266653418541,0.00003587850369513035,-0.0007423213683068752
1761468686825973800,3.587973876953125,0.0020022685639560223,-0.0022816043347120285,-0.0010163607075810432
1761468686835956700,3.597956787109375,0.0001928466372191906,0.00003468059003353119,-0.0013759073335677385
1761468686845939700,3.607939697265625,-0.002539556473493576,-0.0014252641703933477,-0.00002674991264939308
1761468686855921700,3.617921630859375,-0.0006400421261787415,0.00018325401470065117,0.0021493530366569757
1761468686865905000,3.62790478515625,0.0010031284764409065,0.0008359947241842747,0.0008827534038573503
1761468686875887600,3.6378876953125,0.000029813498258590698,0.00040737329982221127,-0.00029842881485819817
1761468686885870600,3.64787060546875,0.0003126412630081177,-0.0007284649182111025,-0.0036649308167397976
1761468686895853800,3.657853759765625,-0.0028619817458093166,0.0009689379949122667,0.0010368202347308397
1761468686905836800,3.6678369140625,0.0004600454121828079,0.0016544356476515532,0.002587845316156745
1761468686915818800,3.67781884765625,0.0016522849909961224,-0.0007789970841258764,-0.0006770866457372904
1761468686925801700,3.6878017578125,-0.00021911831572651863,-0.0002663384657353163,-0.0003335387445986271
1761468686935784700,3.69778466796875,0.0004900903441011906,-0.0009766125585883856,0.00019989069551229477
1761468686945767700,3.707767578125,0.00023522600531578064,-0.001165430760011077,0.001610034378245473
1761468686955750700,3.717750732421875,-0.001104577910155058,-0.0016874461434781551,-0.00013263453729450703
1761468686965732900,3.72773291015625,0.0020203753374516964,-0.001677592284977436,0.00019173836335539818
1761468686975715600,3.737715576171875,0.0020046099089086056,-0.0012723610270768404,-0.0013635702198371291
1761468686985698800,3.74769873046875,-0.0011762697249650955,0.0035269216168671846,0.002287623705342412
1761468686995681800,3.757681884765625,0.0014864373952150345,-0.003271673107519746,0.00015875743702054024
1761468687005664800,3.767664794921875,-0.0020204135216772556,-0.001124100061133504,-0.0021651170682162046
1761468687015646700,3.777646728515625,0.0029484706465154886,0.0009789136238396168,-0.00038998876698315144
1761468687025629700,3.787629638671875,-0.00024172989651560783,-0.0039007964078336954,-0.0009074409026652575
1761468687035613000,3.797613037109375,0.0001553199253976345,-0.0006046995986253023,-0.0011194078251719475
1761468687045595600,3.807595703125,0.0013619977980852127,0.0011463288683444262,0.0013235097285360098
1761468687055578600,3.81757861328125,-0.00026446999981999397,0.002300890162587166,0.00038347882218658924
1761468687065561900,3.827561767578125,-0.0012383880093693733,-0.0005569481290876865,0.0000852048397064209
1761468687075543600,3.83754345703125,0.0005880766548216343,-0.0031422493048012257,-0.0013027818640694022
1761468687085526800,3.84752685546875,0.0010671797208487988,-0.002723866607993841,-0.0009848005138337612
1761468687095509800,3.857509765625,0.00042218295857310295,0.0023445794358849525,0.0012734939809888601
1761468687105492700,3.86749267578125,-0.0019307197071611881,-0.0007774443365633488,-0.00041548279114067554
1761468687115475700,3.877475830078125,0.0014717215672135353,0.0006800794508308172,-0.001544482191093266
1761468687125457700,3.887457763671875,0.0018328460864722729,-0.004154623486101627,0.001086188480257988
1761468687135441000,3.89744091796875,-0.00010006455704569817,-0.0021057119593024254,-0.0015269251307472587
1761468687145423600,3.907423583984375,0.0007446897216141224,0.002049085684120655,-0.0009737866930663586
1761468687155406600,3.917406494140625,-0.0005106627941131592,0.0033739381469786167,0.0025067413225769997
1761468687165389800,3.927389892578125,-0.0007823053747415543,-0.003894360736012459,0.002630311995744705
1761468687175371500,3.93737158203125,-0.00017033610492944717,0.0022978498600423336,-0.000923485029488802
1761468687185354800,3.947354736328125,0.00001874798908829689,0.001924208365380764,-0.0004289359785616398
1761468687195337700,3.957337646484375,-0.0022623250260949135,0.002036960329860449,0.0012195450253784657
1761468687205321000,3.967321044921875,0.001602986827492714,-0.0021817530505359173,-0.0020825080573558807
1761468687215304000,3.977303955078125,0.00017877435311675072,0.0004922130610793829,0.0012979533057659864
1761468687225286000,3.987285888671875,0.0003172587603330612,0.0007691814098507166,-0.00026638759300112724
1761468687235268900,3.997268798828125,0.001702792476862669,-0.001707093557342887,0.002471131505444646
1761468687245250000,4.00725,0.002547813579440117,-0.002062093000859022,-0.0015387901803478599
1761468687255231700,4.017231689453125,0.0030674717854708433,-0.00039049144834280014,0.0014801311772316694
1761468687265215000,4.027215087890625,0.0011121788993477821,0.00032856198959052563,-0.00010977569036185741
1761468687275198000,4.037197998046875,-0.0030172294937074184,-0.0005197187419980764,-0.002601476153358817
1761468687285181000,4.047180908203125,0.0020113508217036724,0.0008078671526163816,0.002623379696160555
1761468687295164000,4.057163818359375,-0.00011364277452230453,0.0000029776711016893387,-0.0026357509195804596
1761468687305145900,4.067145751953125,-0.0015181940980255604,-0.007717792876064777,-0.0024131108075380325
1761468687315128800,4.07712890625,0.001782191451638937,0.009215565398335457,0.004637202247977257
1761468687325111800,4.08711181640625,-0.0003001345321536064,-0.0017547942698001862,-0.0017823480302467942
1761468687335095000,4.097094970703125,0.00001628883183002472,-0.0007995585910975933,0.003326824400573969
1761468687345078000,4.107078125,0.002081037499010563,-0.0006951626855880022,0.0015656761825084686
1761468687355060000,4.11706005859375,0.0005845869891345501,-0.0005621134769171476,-0.0002067345194518566
1761468687365043000,4.12704296875,0.00012199580669403076,0.005373540334403515,-0.0009561479091644287
1761468687375026000,4.13702587890625,0.00019723782315850258,-0.002675509313121438,0.00030414643697440624
1761468687385009000,4.1470087890625,0.0008337334729731083,0.0009232200682163239,-0.001228502718731761
1761468687394991900,4.156991943359375,-0.0013915076851844788,-0.006258776877075434,-0.0011570409405976534
1761468687404974800,4.166974853515625,-0.00024608243256807327,-0.000026181107386946678,0.001530887559056282
1761468687414956800,4.176956787109375,-0.00030109379440546036,-0.00010653259232640266,0.000022025080397725105
1761468687424939800,4.186939697265625,0.002199081936851144,-0.00005220412276685238,-0.0004576102364808321
1761468687434923000,4.196923095703125,-0.0005950359627604485,-0.002638010773807764,-0.000016487669199705124
1761468687444905700,4.20690576171875,0.00013067573308944702,0.0004358096048235893,0.0016381342429667711
1761468687454888700,4.216888671875,-0.000877082347869873,0.00019505969248712063,0.0012020058929920197
1761468687464871000,4.226870849609375,-0.00004591001197695732,0.0010472710710018873,0.00027495925314724445
1761468687474854000,4.23685400390625,0.0033198518212884665,0.00030370522290468216,0.000022393884137272835
1761468687484836900,4.2468369140625,-0.002543363720178604,-0.00015782052651047707,0.0015760823152959347
1761468687494819800,4.25681982421875,-0.0009840629063546658,-0.0013737687841057777,-0.0047106193378567696
1761468687504802800,4.266802734375,0.0007006525993347168,0.0009804654400795698,-0.0009824603330343962
1761468687514784800,4.27678466796875,-0.0003472883254289627,0.0034307276364415884,0.002281320048496127
1761468687524768000,4.28676806640625,0.003082330571487546,-0.004329989664256573,-0.0012031598016619682
1761468687534751000,4.2967509765625,0.0011361436918377876,-0.001201574457809329,0.0013440968468785286
1761468687544733700,4.306733642578125,-0.0010753455571830273,-0.0060077812522649765,-0.0014263896737247705
1761468687554717000,4.316717041015625,0.00153742590919137,0.001234989846125245,-0.0013462601928040385
1761468687564700000,4.326699951171875,0.000034870579838752747,0.0027159738820046186,0.0014873433392494917
1761468687574681900,4.336681884765625,0.00043013086542487144,-0.002697595162317157,-0.0005839376244693995
1761468687584664800,4.346664794921875,0.0019713020883500576,0.0030175484716892242,-0.0005202880129218102
1761468687594647800,4.356647705078125,-0.0011850041337311268,0.00036622839979827404,0.0025631003081798553
1761468687604631000,4.366631103515625,0.002006794326007366,0.0008008561562746763,0.0014549586921930313
1761468687614613800,4.37661376953125,-0.0003215884789824486,-0.00029126228764653206,0.001447346992790699
1761468687624596000,4.386595947265625,-0.0009604808874428272,-0.0007392058614641428,-0.00030714343301951885
1761468687634579000,4.396578857421875,0.0010037641040980816,-0.0019658671226352453,0.00003517046570777893
1761468687644561700,4.406561767578125,-0.0016316999681293964,0.0001508132554590702,0.0001779159065335989
1761468687654545000,4.416544921875,-0.0008514928631484509,0.001125796465203166,0.0003816478420048952
1761468687664528000,4.42652783203125,-0.0010775956325232983,-0.002747504971921444,0.001058889552950859
1761468687674509800,4.436509765625,-0.0009907078929245472,0.0018425730522722006,0.001506812870502472
1761468687684492800,4.446492919921875,0.0016428916715085506,-0.0015630770940333605,-0.0003438177518546581
1761468687694475800,4.456475830078125,-0.0014490457251667976,-0.0005056892987340689,-0.0004703938029706478
1761468687704459000,4.466458984375,-0.0017957892268896103,-0.004605625756084919,0.00032908725552260876
1761468687714441700,4.476441650390625,0.002853888086974621,-0.0004534018225967884,0.0008820469956845045
1761468687724425000,4.486425048828125,-0.00021806824952363968,0.00011757970787584782,0.000369388610124588
1761468687734407000,4.496406982421875,0.0010159946978092194,0.002131883753463626,0.0008420990779995918
1761468687744390000,4.506389892578125,0.0034578468184918165,-0.0028756577521562576,-0.004482092335820198
1761468687754372900,4.516372802734375,-0.0016104243695735931,0.0037494420539587736,0.0023601027205586433
1761468687764355800,4.52635595703125,0.00004552910104393959,-0.0007369189988821745,-0.0009701803792268038
1761468687774339000,4.536339111328125,0.0010598311200737953,-0.0009052245877683163,-0.0011838146019726992
1761468687784320800,4.54632080078125,-0.001946078147739172,0.0032591605558991432,0.0016742900479584932
1761468687794304000,4.556303955078125,-0.00036329636350274086,0.0023568489123135805,0.0006453515961766243
1761468687804287000,4.566286865234375,0.0002505620941519737,0.002481485018506646,0.0017372476868331432
1761468687814269700,4.576269775390625,-0.0016578440554440022,-0.005793034564703703,-0.00097456737421453
1761468687824253000,4.5862529296875,0.0005142302252352238,0.005997312255203724,0.0029181751888245344
1761468687834236000,4.59623583984375,-0.00038587022572755814,-0.0048232669942080975,-0.0004147486761212349
1761468687844219000,4.606218994140625,0.002050922019407153,-0.0005885746795684099,-0.0015433963853865862
1761468687854201900,4.616201904296875,0.0010679573751986027,-0.003469256218522787,-0.0008882440160959959
1761468687864184800,4.626184814453125,0.0016498579643666744,-0.0014854674227535725,-0.00021180091425776482
1761468687874167800,4.636167724609375,0.00025735702365636826,0.0031695065554231405,0.001347156474366784
1761468687884149800,4.646149658203125,-0.0011088447645306587,0.0004333744291216135,-0.0025498471222817898
1761468687894132700,4.6561328125,-0.0015785587020218372,-0.0008870693854987621,0.000050084665417671204
1761468687904116000,4.666115966796875,0.0014414656907320023,0.000046368688344955444,-0.0011502020061016083
1761468687914099000,4.676098876953125,-0.0027289995923638344,-0.000321047380566597,-0.0008207608480006456
1761468687924082000,4.68608203125,0.0006446922197937965,-0.0009732553735375404,0.002182485768571496
1761468687934063900,4.69606396484375,-0.0004517287015914917,0.0007483405061066151,0.0016494193114340305
1761468687944046800,4.706046875,-0.0007361541502177715,-0.0011624775361269712,-0.003609791398048401
1761468687954029800,4.71602978515625,0.0022441698238253593,0.002550348173826933,-0.0009129967074841261
1761468687964012800,4.7260126953125,0.0005306918174028397,-0.00010295934043824673,0.00042044813744723797
1761468687973996000,4.73599609375,-0.0012481934390962124,0.0017539311666041613,0.000019977102056145668
1761468687983979000,4.74597900390625,0.000778472051024437,-0.0014850054867565632,-0.0003749697934836149
1761468687993961000,4.7559609375,0.0009317356161773205,-0.0012815722730010748,-0.0010902374051511288
1761468688003944000,4.76594384765625,-0.0022672531194984913,-0.0020184689201414585,0.000800606794655323
1761468688013927000,4.775927001953125,0.003213270800188184,-0.0016771245282143354,-0.00034660007804632187
1761468688023910000,4.785909912109375,-0.001258176751434803,0.0003143874928355217,-0.0018899019341915846
1761468688033892900,4.795892822265625,-0.0009400052949786186,-0.0034679893869906664,-0.0006264576222747564
1761468688043875000,4.805875,0.0005641481839120388,0.004322555847465992,0.002466537756845355
1761468688053857800,4.81585791015625,-0.0015566893853247166,-0.0047835856676101685,0.0011016551870852709
1761468688063840800,4.8258408203125,-0.0020706793293356895,-0.004713544622063637,-0.0031772456131875515
1761468688073824000,4.835823974609375,0.00010550953447818756,0.00001558614894747734,0.001043521100655198
1761468688083807000,4.845806884765625,0.0009302906692028046,-0.0010171877220273018,-0.0008220232557505369
1761468688093789700,4.855789794921875,-0.0009022303856909275,0.003932459279894829,0.0004838649183511734
1761468688103772000,4.86577197265625,0.0009603844955563545,-0.0011227531358599663,0.0000020989682525396347
1761468688113755000,4.8757548828125,-0.0006293342448771,0.004226790741086006,-0.0011997225228697062
1761468688123737900,4.88573779296875,0.001737683080136776,0.00020515103824436665,0.000008287373930215836
1761468688133720800,4.895720947265625,0.000539570115506649,0.001926411408931017,-0.00031021214090287685
1761468688143704000,4.9057041015625,-0.0005480647087097168,0.00192960724234581,0.00016303150914609432
1761468688153685800,4.915685791015625,0.0021939242724329233,0.0020037544891238213,-0.0011423726100474596
1761468688163669000,4.9256689453125,0.0009797890670597553,-0.0004780450835824013,0.0004552577156573534
1761468688173652000,4.93565185546875,0.0001993994228541851,-0.0014265256468206644,0.00018173339776694775
1761468688183634700,4.945634765625,-0.0023638932034373283,-0.0009282482787966728,-0.00006514182314276695
1761468688193618000,4.955617919921875,0.00010750396177172661,-0.004875584505498409,0.00026091584004461765
1761468688203600000,4.965599853515625,-0.0018142331391572952,0.0009924245532602072,-0.0022672228515148163
1761468688213583400,4.975583251953125,0.00013289041817188263,0.002029845491051674,0.0007205570582300425
1761468688223566600,4.985566650390625,0.00039174966514110565,0.00030145375058054924,0.00037887319922447205
1761468688233549300,4.99554931640625,0.000557121355086565,-0.006469703279435635,-0.0007582996040582657
1761468688243532500,5.005532470703125,-0.001324402168393135,0.001484626205638051,-0.000970819965004921
1761468688253515500,5.015515625,0.0013665431179106236,-0.0015996310394257307,0.00009491434320807457
1761468688263497500,5.02549755859375,0.0005532135255634785,0.005048950202763081,-0.0012092357501387596
1761468688273480400,5.03548046875,0.00038950005546212196,0.0015923394821584225,0.0006336320657283068
1761468688283463400,5.04546337890625,-0.0009106551297008991,-0.0025773716624826193,-0.0014255241258069873
1761468688293446700,5.05544677734375,0.0012961532920598984,-0.0010202729608863592,0.0001866344828158617
1761468688303429400,5.065429443359375,0.00047217123210430145,-0.00016513210721313953,-0.00047329673543572426
1761468688313411600,5.07541162109375,0.0005891039036214352,-0.0009688043501228094,-0.0008249420206993818
1761468688323394600,5.08539453125,-0.0023161382414400578,0.0011039339005947113,-0.0008742103818804026
1761468688333377300,5.095377197265625,0.0008361251093447208,0.002787394216284156,0.00109791848808527
1761468688343360500,5.105360595703125,-0.0016126511618494987,0.000856069615110755,-0.0008254162967205048
1761468688353343500,5.115343505859375,0.0010718773119151592,-0.002237343927845359,-0.0008905553258955479
1761468688363325400,5.125325439453125,-0.0008871443569660187,-0.0024498640559613705,-0.0018391732592135668
1761468688373308400,5.135308349609375,-0.0006974483840167522,0.005886629223823547,-0.0012754483614116907
1761468688383291400,5.14529150390625,0.0008668922819197178,-0.0026839561760425568,-0.0004514663014560938
1761468688393274600,5.155274658203125,0.0016921032220125198,0.0000147293321788311,-0.0012865684693679214
1761468688403257300,5.16525732421875,-0.0016243313439190388,0.0015721458476036787,-0.002363018225878477
1761468688413240300,5.175240234375,0.0004801698960363865,-0.0024336802307516336,-0.001201721839606762
1761468688423222500,5.185222412109375,0.000011187046766281128,-0.0013612252660095692,-0.0007029117550700903
1761468688433205200,5.195205322265625,0.001985889859497547,-0.00120441778562963,0.0007771237287670374
1761468688443188500,5.2051884765625,0.0016849525272846222,0.004225234501063824,-0.00025272066704928875
1761468688453171500,5.21517138671875,-0.0014740824699401855,-0.0018610438564792275,0.001326502999290824
1761468688463154400,5.225154541015625,0.00320642301812768,-0.0017486584838479757,-0.0017326701199635863
1761468688473136400,5.235136474609375,-0.00004215585067868233,-0.0008211559616029263,-0.0017435230547562242
1761468688483119400,5.245119384765625,-0.0017692157998681068,-0.000891996081918478,0.0023130038753151894
1761468688493102600,5.2551025390625,0.0008305301889777184,-0.001363622024655342,-0.002243150258436799
1761468688503085300,5.265085205078125,0.0020316157024353743,0.0004204297438263893,-0.002089485991746187
1761468688513068500,5.275068603515625,-0.00035561108961701393,-0.003776127239689231,-0.0024213427677750587
1761468688523051500,5.285051513671875,0.002642309293150902,0.0016641782131046057,-0.002252232050523162
1761468688533033500,5.295033447265625,-0.000027779489755630493,0.0016647588927298784,0.0030513936653733253
1761468688543016400,5.305016357421875,0.001157327089458704,0.0026288230437785387,0.0012692064046859741
1761468688552999400,5.31499951171875,0.0011059422977268696,-0.0011066717561334372,-0.0007591666653752327
1761468688562982700,5.324982666015625,-0.00029860856011509895,0.00047737639397382736,0.0026459512300789356
1761468688572965400,5.33496533203125,0.0008492432534694672,0.0015044875908643007,-0.00025466084480285645
1761468688582947600,5.344947509765625,-0.0007824753411114216,-0.0009357670787721872,0.000042547937482595444
1761468688592930600,5.3549306640625,0.0019593792967498302,-0.001297264127060771,0.0004022775683552027
1761468688602913300,5.364913330078125,-0.0006180279888212681,-0.006272315513342619,0.0009322466794401407
1761468688612896500,5.374896484375,-0.0022417278960347176,0.0020556554663926363,0.0006605277303606272
1761468688622879500,5.38487939453125,-0.0018984470516443253,-0.001026686979457736,0.000571045558899641
1761468688632862500,5.394862548828125,0.0006317463703453541,-0.0007616190705448389,0.00010334793478250504
1761468688642844400,5.404844482421875,-0.00022792210802435875,0.0038259420543909073,-0.0013355580158531666
1761468688652827400,5.414827392578125,0.0001903679221868515,0.0011756906751543283,0.0026238788850605488
1761468688662810600,5.424810546875,0.00216803140938282,0.002096611773595214,-0.001588176586665213
1761468688672793300,5.43479345703125,0.0013162954710423946,0.0023205343168228865,-0.00014500715769827366
1761468688682776600,5.444776611328125,0.0005327933467924595,-0.0013825909700244665,0.0005676548462361097
1761468688692758500,5.454758544921875,0.0013284818269312382,-0.0027539997827261686,0.0003841493744403124
1761468688702741500,5.464741455078125,-0.0008270805701613426,-0.0033862341661006212,-0.0005167978815734386
1761468688712724500,5.474724365234375,-0.0016611376777291298,-0.0028902937192469835,0.00005045323632657528
1761468688722707500,5.48470751953125,-0.0036563784815371037,0.0005371945444494486,-0.0002126670442521572
1761468688732690700,5.494690673828125,-0.0005588899366557598,0.002923207590356469,-0.0009382080752402544
1761468688742672400,5.50467236328125,-0.001092853955924511,0.0016358357388526201,0.0013699536211788654
1761468688752655600,5.514655517578125,0.0011058547534048557,0.00035348045639693737,-0.0014258988667279482
1761468688762638600,5.524638671875,0.00010317470878362656,0.0034954778384417295,0.0006042288150638342
1761468688772621300,5.534621337890625,-0.0007207831367850304,0.005285949446260929,-0.0007550821173936129
1761468688782604500,5.5446044921875,0.00045846449211239815,0.0009716285858303308,-0.0002746477257460356
1761468688792587500,5.55458740234375,-0.00026784418150782585,-0.001125483075156808,0.0004152937326580286
1761468688802569500,5.564569580078125,0.0001095253974199295,0.00007320591248571873,0.0013386118225753307
1761468688812552400,5.574552490234375,-0.0006673182360827923,-0.002296202350407839,-0.0006526079960167408
1761468688822535400,5.584535400390625,0.00010553095489740372,-0.0033926258329302073,-0.001010270556434989
1761468688832518700,5.5945185546875,0.0009473827667534351,-0.0038784381467849016,0.0012319923844188452
1761468688842501400,5.60450146484375,0.00046375254169106483,-0.00012284843251109123,-0.0013054676819592714
1761468688852483600,5.614483642578125,-0.0010574455372989178,-0.00250823306851089,-0.00015410990454256535
1761468688862466600,5.624466552734375,-0.0019988729618489742,0.00023562158457934856,0.001474413089454174
1761468688872449300,5.63444921875,0.0012623090296983719,-0.0010268285404890776,0.0012191582936793566
1761468688882432500,5.6444326171875,-0.0009611640125513077,0.0030869562178850174,0.0007917208131402731
1761468688892415500,5.65441552734375,-0.00025989580899477005,-0.0019160063238814473,0.0010630504693835974
1761468688902397400,5.6643974609375,-0.0013504601083695889,0.0004430217668414116,-0.001796651748009026
1761468688912380400,5.67438037109375,-0.00015115085989236832,-0.0015860004350543022,0.0006114454008638859
1761468688922363400,5.68436328125,0.0017346334643661976,0.004606648348271847,0.004090332891792059
1761468688932346400,5.694346435546875,0.0012939628213644028,0.00319475494325161,0.0011512541677802801
1761468688942329300,5.704329345703125,0.0009141960181295872,-0.003036775626242161,-0.00132308853790164
1761468688952312600,5.7143125,0.003223475767299533,-0.002850139746442437,0.0013092153239995241
1761468688962294500,5.72429443359375,0.0013238429091870785,-0.00025861780159175396,-0.0015299806836992502
1761468688972277500,5.734277587890625,0.0015841932035982609,-0.0006542166229337454,0.00014231959357857704
1761468688982260500,5.744260498046875,0.000003873370587825775,-0.002518429420888424,0.0004906610120087862
1761468688992243500,5.754243408203125,-0.0014108996838331223,-0.0002970779314637184,0.00048046279698610306
1761468689002226400,5.764226318359375,0.00207065069116652,-0.0008089374750852585,0.00255293445661664
1761468689012208400,5.77420849609375,0.0011008619330823421,-0.004070932976901531,0.0015346123836934566
1761468689022191600,5.784191650390625,-0.0027740374207496643,-0.003298616036772728,-0.002705140272155404
1761468689032174300,5.79417431640625,0.0015849177725613117,0.004904238041490316,0.001776949968189001
1761468689042157300,5.8041572265625,0.0011324468068778515,-0.0034684741403907537,-0.000649190042167902
1761468689052140500,5.814140625,0.0003430629149079323,0.00007406272925436497,0.00022086710669100285
1761468689062123500,5.82412353515625,0.0020600028801709414,-0.0016141152009367943,0.0009633565787225962
1761468689072105500,5.83410546875,-0.0007239845581352711,-0.0022265901789069176,-0.0019207685254514217
1761468689082088400,5.84408837890625,0.0035791511181741953,0.005299769341945648,0.0029317771550267935
1761468689092071400,5.854071533203125,-0.00016167480498552322,0.00033499463461339474,0.0029947361908853054
1761468689102054400,5.864054443359375,-0.00047859083861112595,0.0030729903373867273,0.0009150737896561623
1761468689112037400,5.874037353515625,-0.000924964901059866,-0.00020050909370183945,-0.0012436441611498594
1761468689122019600,5.88401953125,-0.0017129946500062943,-0.0005041095428168774,-0.001129394629970193
1761468689132002300,5.894002197265625,0.0008877525106072426,-0.002815266139805317,-0.0012496808776631951
1761468689141985500,5.903985595703125,-0.001610558945685625,0.0037973627913743258,0.000051539624109864235
1761468689151968500,5.913968505859375,-0.0004292689263820648,0.0006747166626155376,0.0014759707264602184
1761468689161951500,5.923951416015625,0.0017121792770922184,0.001402825117111206,-0.0015182213392108679
1761468689171933400,5.933933349609375,-0.000043128617107868195,-0.000592266209423542,-0.0013009377289563417
1761468689181916400,5.94391650390625,0.001562225166708231,0.002118831966072321,0.001201368635520339
1761468689191899600,5.953899658203125,0.002812847960740328,0.0028247383888810873,-0.001960678491741419
1761468689201882400,5.96388232421875,-0.002617870457470417,0.0005671766120940447,-0.001407539937645197
1761468689211865000,5.973864990234375,0.0027084650937467813,-0.007388656958937645,-0.00215846742503345
1761468689221848300,5.983848388671875,-0.0008726874366402626,0.0038464206736534834,-0.0004609685856848955
1761468689231830000,5.993830078125,-0.002417871728539467,0.002847486874088645,0.000171158229932189
1761468689241813200,6.003813232421875,0.0021720859222114086,0.0000668803695589304,0.0007234979420900345
1761468689251796200,6.013796142578125,-0.0006612557917833328,0.0001697742845863104,-0.0012699319049715996
1761468689261779200,6.023779296875,-0.001649022102355957,0.000530898803845048,0.00007176864892244339
1761468689271762200,6.03376220703125,0.0003148377873003483,-0.00008466164581477642,0.0011576320976018906
1761468689281744100,6.043744140625,-0.00033097900450229645,0.00042480090633034706,-0.00043280771933496
1761468689291727400,6.053727294921875,0.0006122761406004429,-0.00039477297104895115,0.00010327761992812157
1761468689301710000,6.0637099609375,0.0012309285812079906,0.0016321588773280382,0.0010401776526123285
1761468689311693300,6.073693359375,-0.000763376709073782,-0.0024160444736480713,-0.0005570452194660902
1761468689321676300,6.08367626953125,0.0016856659203767776,-0.0008365237154066563,0.0004853159189224243
1761468689331659300,6.0936591796875,-0.0007737637497484684,0.00030703749507665634,0.00011527328751981258
1761468689341641200,6.10364111328125,0.000008406583219766617,-0.0009574312716722488,-0.001948410295881331
1761468689351624200,6.113624267578125,0.0019367998465895653,0.00010372791439294815,-0.002035941928625107
1761468689361607400,6.123607421875,-0.00046936608850955963,-0.0009719228837639093,-0.0025563237722963095
1761468689371590100,6.133590087890625,0.001211279071867466,-0.0005947756581008434,0.00153919099830091
1761468689381573000,6.143572998046875,-0.00048408936709165573,0.0021719825454056263,-0.002673930022865534
1761468689391555300,6.153555419921875,-0.0000769682228565216,0.004496792331337929,0.003585458965972066
1761468689401538000,6.1635380859375,0.0004910840652883053,-0.0010966449044644833,-0.0016183576080948114
1761468689411521300,6.173521240234375,0.001858255360275507,-0.0003833877854049206,0.0011874723713845015
1761468689421504300,6.183504150390625,-0.0018075862899422646,-0.0009935179259628057,-0.002424040110781789
1761468689431487200,6.1934873046875,0.0015323883853852749,0.0021211830899119377,-0.00022017955780029297
1761468689441470200,6.20347021484375,0.0006679263897240162,0.0010649734176695347,-0.00014427932910621166
1761468689451452200,6.2134521484375,0.0010310495272278786,-0.001959578599780798,0.0008510125335305929
1761468689461435400,6.223435302734375,0.0011570174247026443,-0.0028464114293456078,-0.00001744413748383522
1761468689471418000,6.233418212890625,-0.0037045381031930447,-0.0062163895927369595,0.0010173607151955366
1761468689481401000,6.243401123046875,-0.000424056313931942,-0.00039392057806253433,0.0007920574862509966
1761468689491384300,6.25338427734375,-0.0008908691816031933,-0.002384092891588807,-0.0011584863532334566
1761468689501366000,6.263365966796875,0.00041887350380420685,0.0018719045910984278,-0.00009375461377203465
1761468689511349200,6.273349365234375,-0.0005499185062944889,0.0009142321068793535,-0.0024681321810930967
1761468689521332200,6.283332275390625,0.0001568845473229885,-0.0015747582074254751,0.0009058264549821615
1761468689531315200,6.293315185546875,-0.00006404845044016838,0.0013580322265625,0.0021374677307903767
1761468689541298200,6.303298095703125,0.0005391575396060944,0.0035705864429473877,0.002311904449015856
1761468689551280400,6.3132802734375,-0.004389437846839428,-0.0002963365986943245,0.00273365736939013
1761468689561263400,6.323263427734375,-0.000011201482266187668,0.002561501692980528,0.0030963800381869078
1761468689571246000,6.33324609375,0.00023771077394485474,0.004422995261847973,-0.0008194525726139545
1761468689581229300,6.343229248046875,-0.0010842825286090374,-0.0016426208894699812,-0.00010252953507006168
1761468689591212300,6.35321240234375,0.0021813453640788794,-0.003959942143410444,-0.0003474003169685602
1761468689601195000,6.363195068359375,-0.0008506635203957558,-0.0007071574218571186,-0.000006249407306313515
1761468689611177200,6.37317724609375,0.0009782137349247932,-0.0018252345034852624,0.0008883012924343348
1761468689621160200,6.38316015625,0.0024583986960351467,-0.00018019997514784336,-0.00006031664088368416
1761468689631143200,6.39314306640625,-0.0007687238976359367,-0.0011859936639666557,-0.00020119291730225086
1761468689641126100,6.403126220703125,0.0009103994816541672,-0.0002970306668430567,0.0008638054132461548
1761468689651109000,6.413109130859375,0.001071748323738575,-0.00011821743100881577,-0.00009360932745039463
1761468689661091300,6.42309130859375,-0.0022556050680577755,0.0037731933407485485,-0.0013607413275167346
1761468689671074000,6.433073974609375,0.00308236968703568,-0.0031086872331798077,0.0038879690691828728
1761468689681057300,6.443057373046875,0.00042666541412472725,-0.00263251387514174,-0.0011960056144744158
1761468689691040300,6.453040283203125,-0.000019793398678302765,0.0011442769318819046,-0.0008632293902337551
1761468689701023000,6.46302294921875,0.0024886378087103367,0.00013094395399093628,0.001374891260638833
1761468689711005200,6.473005126953125,0.0007297340780496597,-0.0010009512770920992,0.0006782065611332655
1761468689720988200,6.48298828125,0.0007225433364510536,0.005112068727612495,0.0016880773473531008
1761468689730971100,6.49297119140625,0.0010526170954108238,0.0007664191070944071,0.0005680166650563478
1761468689740954000,6.5029541015625,-0.0012129340320825577,0.004285253584384918,0.0010995834600180387
1761468689750937300,6.512937255859375,0.0019088913686573505,0.0017749522812664509,0.0007555086631327868
1761468689760920300,6.52292041015625,0.0016473690047860146,0.0004114140756428242,0.00255207740701735
1761468689770902300,6.53290234375,-0.0017420449294149876,0.0009269698057323694,0.0014863649848848581
1761468689780885200,6.54288525390625,0.002147501800209284,0.00022975425235927105,-0.0005648015066981316
1761468689790868200,6.5528681640625,0.0012356801889836788,-0.0022839000448584557,-0.002104466315358877
1761468689800851200,6.562851318359375,0.002151274820789695,-0.00041782320477068424,0.0005941148847341537
1761468689810834200,6.572834228515625,0.000643567182123661,-0.00018377462401986122,-0.000957841519266367
1761468689820816400,6.58281640625,-0.0004206323064863682,-0.0013723433949053288,-0.00041615450754761696
1761468689830799000,6.592799072265625,0.001772510353475809,0.0032528580632060766,0.002304632682353258
1761468689840782000,6.602781982421875,0.00010430626571178436,-0.0024084895849227905,-0.001107941847294569
1761468689850765300,6.612765380859375,0.0006098798476159573,0.00200672703795135,0.0003963382914662361
1761468689860748300,6.622748291015625,0.000455416738986969,0.0021769029553979635,0.0009593304712325335
1761468689870731000,6.63273095703125,0.001939128153026104,0.0011826788540929556,0.00014477642253041267
1761468689880713200,6.642713134765625,0.00025068409740924835,-0.0015646382234990597,-0.0009266131091862917
1761468689890696200,6.6526962890625,0.0017990521155297756,-0.004016818944364786,-0.00037971511483192444
1761468689900679200,6.66267919921875,-0.00012135319411754608,-0.005047728773206472,-0.0008921073749661446
1761468689910662100,6.672662109375,-0.0014567365869879723,0.0002892897464334965,0.0011991530191153288
1761468689920645000,6.68264501953125,-0.001287093386054039,-0.001039627706632018,-0.0028571076691150665
1761468689930627000,6.692626953125,-0.0010965210385620594,0.0008991695940494537,-0.00015499349683523178
1761468689940610000,6.702610107421875,0.0004513082094490528,0.0018563098274171352,-0.00023595360107719898
1761468689950593300,6.71259326171875,0.0007288320921361446,-0.002966906875371933,-0.0001547299325466156
1761468689960576300,6.722576171875,0.00019433582201600075,0.0034425228368490934,0.0010926946997642517
1761468689970559200,6.732559326171875,-0.0001003611832857132,-0.0011563505977392197,0.002723465906456113
1761468689980541200,6.742541259765625,0.0008820788934826851,0.0017329126130789518,-0.0012896513799205422
1761468689990524400,6.7525244140625,0.0006452025845646858,-0.005734652746468782,-0.0006188531406223774
1761468690000507100,6.762507080078125,-0.0007827845402061939,-0.0022009043022990227,-0.00033948756754398346
1761468690010490000,6.772489990234375,0.001145778689533472,0.0032880117651075125,0.0003886462654918432
1761468690020473300,6.782473388671875,0.0021500566508620977,0.0006669287104159594,-0.0006606392562389374
1761468690030456300,6.792456298828125,-0.0013129301369190216,-0.00007998617365956306,0.0017704842612147331
1761468690040438300,6.802438232421875,-0.0013944227248430252,0.0007128370925784111,-0.00011530006304383278
1761468690050421200,6.812421142578125,-0.0003125029616057873,-0.001377688953652978,0.0009910601656883955
1761468690060404200,6.822404296875,0.0009548952803015709,-0.0030874384101480246,0.0007199503015726805
1761468690070387200,6.83238720703125,0.00040905270725488663,0.0006617042236030102,0.00036576041020452976
1761468690080370200,6.8423701171875,0.003975291736423969,0.0015810276381671429,-0.0014049753081053495
1761468690090352400,6.852352294921875,-0.0006846850737929344,0.00033488008193671703,0.000634380616247654
1761468690100335000,6.862335205078125,0.0015321304090321064,0.0009695112239569426,0.0005243921186774969
1761468690110318000,6.872318115234375,-0.0015139644965529442,-0.0017494101775810122,-0.0010153839830309153
1761468690120301300,6.88230126953125,-0.0014473856426775455,-0.005312453489750624,-0.0016428247326985002
1761468690130284300,6.8922841796875,-0.0008158967830240726,-0.0002878012601286173,-0.0021285228431224823
1761468690140267000,6.90226708984375,-0.000025470741093158722,-0.00447855144739151,-0.0021524913609027863
1761468690150249200,6.912249267578125,-0.000020973384380340576,0.002857793588191271,0.00336028472520411
1761468690160232200,6.922232177734375,0.0015204641968011856,0.0007656142115592957,-0.0024371505714952946
1761468690170215200,6.932215087890625,-0.00045084673911333084,0.0002601589076220989,0.002518512075766921
1761468690180198100,6.9421982421875,0.001385136041790247,0.0031177308410406113,-0.0012852807994931936
1761468690190181400,6.952181396484375,-0.002989578526467085,0.0010644749272614717,-0.0017355694435536861
1761468690200163000,6.9621630859375,0.0007995674386620522,0.004336434416472912,0.0010426400694996119
1761468690210146300,6.972146240234375,0.0020537807140499353,-0.0015291806776076555,-0.0006551560945808887
1761468690220129500,6.982129638671875,-0.001722315326333046,-0.0005568605847656727,-0.0007821887265890837
1761468690230112500,6.992112548828125,0.002139114076271653,0.00019004126079380512,0.0025852983817458153
1761468690240095500,7.002095458984375,0.0034749554470181465,0.0010712812654674053,0.00015969108790159225
1761468690250077400,7.012077392578125,-0.0003219926729798317,0.00010273559018969536,-0.0022788099013268948
1761468690260060700,7.022060791015625,0.0009544608183205128,-0.0010474836453795433,-0.0014510995242744684
1761468690270043400,7.03204345703125,0.0005020243115723133,-0.0019424905767664313,-0.0003254236653447151
1761468690280026400,7.0420263671875,-0.0019877650775015354,-0.00008653360418975353,-0.00047642504796385765
1761468690290009600,7.052009521484375,0.000058096833527088165,0.002048823982477188,0.0008048999588936567
1761468690299992600,7.06199267578125,-0.0010697515681385994,-0.001533393980935216,0.00019636773504316807
1761468690309974500,7.071974609375,0.00096491863951087,-0.0007305147591978312,-0.000508469995111227
1761468690319957500,7.08195751953125,0.002908760216087103,0.001476180274039507,0.0012833047658205032
1761468690329940500,7.0919404296875,-0.00040580565109848976,0.0012613129802048206,0.0011137237306684256
1761468690339923500,7.10192333984375,-0.0010782540775835514,-0.0003821239806711674,0.0012972152326256037
1761468690349906400,7.111906494140625,0.0010093813762068748,-0.002445660997182131,-0.0013871481642127037
1761468690359888600,7.121888671875,0.00005730148404836655,0.0011341599747538567,-0.0019797016866505146
1761468690369871400,7.131871337890625,0.0006944830529391766,-0.002565512666478753,-0.0010667478200048208
1761468690379854300,7.141854248046875,0.00012243632227182388,0.0018987443763762712,-0.0006768610328435898
1761468690389837600,7.151837646484375,0.0015958203002810478,-0.006091654300689697,-0.0020974643994122744
1761468690399820500,7.161820556640625,0.00008074799552559853,0.00005944864824414253,0.0015838232357054949
1761468690409802500,7.171802490234375,-0.0016631418839097023,-0.0015320880338549614,-0.0008321334607899189
1761468690419785500,7.181785400390625,-0.0002537970431149006,0.0007086957339197397,0.0004616302903741598
1761468690429768400,7.1917685546875,-0.0005660564638674259,0.0015532812103629112,-0.00008995411917567253
1761468690439751400,7.20175146484375,-0.0011183959431946278,-0.002798323752358556,-0.00006252364255487919
1761468690449734400,7.211734375,-0.0019805184565484524,0.0017238971777260303,-0.0012596556916832924
1761468690459717600,7.221717529296875,-0.002013008575886488,0.0012266850098967552,-0.0014828286366537213
1761468690469699300,7.23169921875,0.000796144362539053,-0.001296798698604107,0.00019731419160962105
1761468690479682600,7.2416826171875,0.001782845240086317,0.005430878140032291,0.0011414045002311468
1761468690489665500,7.25166552734375,0.000043478794395923615,-0.002581365406513214,-0.0005973777733743191
1761468690499648500,7.2616484375,-0.0008864970877766609,0.002100737765431404,0.0033164038322865963
1761468690509631500,7.271631591796875,-0.0027137608267366886,-0.0013699717819690704,0.0007067362312227488
1761468690519613400,7.281613525390625,-0.0004277038387954235,-0.0011220313608646393,-0.00011724582873284817
1761468690529596700,7.2915966796875,0.001265252474695444,-0.00038908328860998154,0.0022147255949676037
1761468690539579400,7.301579345703125,-0.000248221680521965,-0.004148667678236961,0.000561967957764864
1761468690549562400,7.311562255859375,-0.00016035232692956924,-0.000917163910344243,0.00017057405784726143
1761468690559545600,7.321545654296875,0.00008172867819666862,-0.0004138264339417219,-0.0008070722687989473
1761468690569527300,7.33152734375,-0.0011356021277606487,0.0014409259893000126,-0.0003906420897692442
1761468690579510500,7.341510498046875,-0.00017766328528523445,0.0012483792379498482,0.000019484665244817734
1761468690589493500,7.351493408203125,0.0003728959709405899,-0.002198520116508007,-0.0022069525439292192
1761468690599476500,7.3614765625,0.0019215242937207222,0.001776247750967741,-0.0020255912095308304
1761468690609459500,7.37145947265625,0.0011092363856732845,0.00020810915157198906,-0.0023049796000123024
1761468690619442400,7.3814423828125,0.0006162854842841625,0.0002613724209368229,0.00001649768091738224
1761468690629424600,7.391424560546875,-0.00016258703544735909,0.0034649777226150036,0.0003580288030207157
1761468690639407400,7.401407470703125,0.0006872275844216347,-0.002775341272354126,-0.002089682500809431
1761468690649390300,7.411390380859375,-0.002589824143797159,0.001895366469398141,0.001323091797530651
1761468690659373600,7.42137353515625,-0.0009328057058155537,-0.0021843300200998783,-0.0021366209257394075
1761468690669356300,7.431356201171875,-0.00003108149394392967,0.005584818311035633,0.0036876248195767403
1761468690679338500,7.44133837890625,-0.0015900959260761738,-0.003934651147574186,-0.0007457390893250704
1761468690689321500,7.451321533203125,0.00039538368582725525,0.0002938492689281702,0.0023289562668651342
1761468690699304400,7.461304443359375,0.00037407828494906425,-0.0007940521463751793,0.00033291708678007126
1761468690709287400,7.471287353515625,0.00037649692967534065,-0.0029632067307829857,-0.002004799898713827
1761468690719270400,7.4812705078125,-0.0005452227778732777,0.0038201306015253067,0.001267958665266633
1761468690729252600,7.491252685546875,-0.0010816245339810848,-0.001318764640018344,-0.002006988739594817
1761468690739235300,7.5012353515625,0.0006334511563181877,0.0030709237325936556,-0.0004013688303530216
1761468690749218600,7.511218505859375,0.0005774130113422871,0.0006367894820868969,-0.00009569083340466022
1761468690759201500,7.521201416015625,-0.0011672237887978554,0.0009555700235068798,-0.002661912702023983
1761468690769184300,7.531184326171875,-0.0007915562018752098,-0.0000941974576562643,0.0008465128485113382
1761468690779167500,7.54116748046875,-0.0020136809907853603,0.00004774914123117924,-0.00006162491627037525
1761468690789149400,7.5511494140625,-0.00020984094589948654,0.0012184889055788517,0.0016841476317495108
1761468690799132400,7.56113232421875,-0.0007592514157295227,0.0009335307404398918,0.0015294176992028952
1761468690809115400,7.571115478515625,-0.000024996232241392136,-0.0016274249646812677,-0.0013713195221498609
1761468690819098400,7.581098388671875,0.0006711538881063461,-0.00003219139762222767,0.00042871106415987015
1761468690829081600,7.59108154296875,-0.0010123271495103836,0.0020717575680464506,0.0013981247320771217
1761468690839063300,7.601063232421875,-0.0006842254661023617,0.0001284489408135414,-0.00007966323755681515
1761468690849046500,7.611046630859375,-0.0009226584807038307,0.0010794717818498611,-0.0013526065740734339
1761468690859029500,7.621029541015625,0.0019442345947027206,-0.0015165775548666716,0.0012706073466688395
1761468690869012500,7.631012451171875,-0.001717306673526764,-0.000724398996680975,-0.0017288251547142863
1761468690878995500,7.640995361328125,0.0020265651401132345,0.0007525901310145855,-0.00347719038836658
1761468690888978400,7.650978515625,-0.0012290673330426216,-0.004081586375832558,-0.0013704661978408694
1761468690898960400,7.66096044921875,-0.0006349161267280579,-0.002884495537728071,-0.0013986957492306828
1761468690908943400,7.670943359375,-0.0012797112576663494,-0.0003717446234077215,-0.0007047164253890514
1761468690918926600,7.680926513671875,-0.0005175145342946053,-0.0032423657830804586,0.00035575428046286106
1761468690928909600,7.69090966796875,0.0008339216001331806,0.0050333645194768906,-0.0006330208852887154
1761468690938892300,7.700892333984375,-0.0009546573273837566,0.0027901832945644855,-0.002490575658157468
1761468690948874500,7.71087451171875,-0.001029240433126688,0.0016623192932456732,-0.0007926260586827993
1761468690958857500,7.720857421875,0.002829946344718337,-0.0004471705760806799,0.0014628050848841667
1761468690968840400,7.73084033203125,-0.001984051428735256,0.00034996122121810913,0.0007181726396083832
1761468690978823400,7.740823486328125,-0.0017704661004245281,-0.0008993276860564947,-0.00048024975694715977
1761468690988806400,7.750806396484375,-0.0002367766574025154,0.00018985290080308914,-0.0001827320083975792
1761468690998788400,7.760788330078125,-0.0005936399102210999,0.0010772182140499353,0.0018756254576146603
1761468691008771300,7.770771240234375,0.0008099386468529701,-0.0016924580559134483,-0.00022994005121290684
1761468691018754600,7.780754638671875,-0.00041884370148181915,-0.0009307940490543842,-0.00021342840045690536
1761468691028737500,7.790737548828125,0.001255866140127182,0.002734072972089052,0.0009186656679958105
1761468691038720300,7.80072021484375,0.0004270905628800392,-0.002017006278038025,-0.0003442054148763418
1761468691048703500,7.810703369140625,-0.00028551043942570686,-0.00046864175237715244,0.0003813258372247219
1761468691058685400,7.820685546875,-0.00035342108458280563,0.0016155480407178402,0.002781632822006941
1761468691068668400,7.83066845703125,0.0004710676148533821,0.0009363675490021706,-0.0020266659557819366
1761468691078651400,7.8406513671875,0.0008492362685501575,-0.00041971378959715366,0.0000719048548489809
1761468691088634400,7.85063427734375,0.0004515070468187332,0.003462529508396983,0.0009672946762293577
1761468691098617600,7.86061767578125,-0.0019908780232071877,0.0008630177471786737,-0.0022700438275933266
1761468691108599600,7.870599609375,-0.0008275778964161873,-0.003593022469431162,-0.0016378727741539478
1761468691118582500,7.88058251953125,-0.0007615317590534687,0.0015434161759912968,0.0018474061507731676
1761468691128565500,7.8905654296875,-0.0002760365605354309,-0.001186249777674675,0.0006853942759335041
1761468691138548500,7.900548583984375,-0.002614558208733797,-0.0010903759393841028,-0.0001710783690214157
1761468691148531500,7.910531494140625,-0.0011122082360088825,0.0031919425819069147,0.0018299140501767397
1761468691158513700,7.920513671875,0.00162552110850811,0.0007607426960021257,-0.0005549467168748379
1761468691168496400,7.930496337890625,0.00009611248970031738,0.0013103538658469915,-0.0006202540826052427
1761468691178479400,7.940479248046875,-0.0014445260167121887,-0.001502743223682046,0.00026018708012998104
1761468691188462600,7.950462646484375,-0.000519078690558672,-0.0019107914995402098,-0.000508646247908473
1761468691198445600,7.960445556640625,-0.0018117772415280342,-0.000641262624412775,0.0015957837458699942
1761468691208428300,7.97042822265625,0.0034435398411005735,0.0018501824233680964,-0.0001486253459006548
1761468691218410000,7.980409912109375,-0.0014161965809762478,0.0010312602389603853,-0.00027832132764160633
1761468691228393000,7.99039306640625,-0.0005255136638879776,-0.002739034593105316,0.000028260517865419388
1761468691238376200,8.000376220703124,-0.00018276507034897804,0.001994201447814703,-0.0008625669870525599
1761468691248358000,8.01035791015625,-0.0011374647729098797,-0.0012026571203023195,-0.0012508706422522664
1761468691258341000,8.020341064453126,0.002031963085755706,0.0031625302508473396,-0.001654339605011046
1761468691268324000,8.030323974609376,-0.0014973115175962448,0.004406226333230734,-0.0014699856983497739
1761468691278306000,8.04030615234375,0.0010095220059156418,-0.002172846579924226,-0.0005879467353224754
1761468691288289000,8.0502890625,0.0030916547402739525,-0.0011784222442656755,0.0017303659114986658
1761468691298272300,8.060272216796875,0.0009920187294483185,0.0011422564275562763,0.0007415341679006815
1761468691308255200,8.070255126953125,0.00034298887476325035,-0.00130267976783216,-0.0020180754363536835
1761468691318238000,8.080238037109375,0.00027667637914419174,0.0016289278864860535,-0.0006268399301916361
1761468691328220200,8.09022021484375,0.00017569726333022118,0.0009660373907536268,-0.00031543243676424026
1761468691338203100,8.100203125,0.0008058007806539536,-0.0005703403148800135,0.0017136300448328257
1761468691348186000,8.11018603515625,-0.00045933201909065247,0.0007027187384665012,-0.0001642031129449606
1761468691358169000,8.120169189453126,0.0006789029575884342,0.00045131612569093704,-0.00017592101357877254
1761468691368152000,8.130152099609376,-0.0007061795331537724,0.001933879917487502,-0.0013103875098749995
1761468691378135000,8.140135009765626,0.0005095531232655048,-0.0012728320434689522,0.0016609013546258211
1761468691388117000,8.150116943359375,0.0007975194603204727,0.0018274553585797548,-0.0002737592440098524
1761468691398100200,8.160100341796875,0.0010806135833263397,-0.002132399007678032,0.0010128137655556202
1761468691408083200,8.170083251953125,0.0007091020233929157,-0.0010750377550721169,0.0004182807169854641
1761468691418066000,8.18006591796875,0.001163969747722149,-0.0010156494099646807,0.000292845768854022
1761468691428049200,8.190049072265625,-0.003069900441914797,-0.0012519010342657566,-0.0012728917645290494
1761468691438031000,8.200031005859374,0.0019759912975132465,-0.0026071835309267044,-0.0007964521646499634
1761468691448014000,8.21001416015625,0.00021887477487325668,0.0005605439655482769,0.0003530534449964762
1761468691457997000,8.2199970703125,0.00024018017575144768,-0.0009886168409138918,-0.0030464716255664825
1761468691467980000,8.22997998046875,0.0005606659688055515,-0.002386420965194702,0.0006249141879379749
1761468691477963000,8.239962890625,0.0006136628799140453,0.002570520620793104,0.00024674530141055584
1761468691487945000,8.249945068359375,0.00007776590064167976,0.001997721614316106,0.00046392553485929966
1761468691497928200,8.25992822265625,0.0035438700579106808,-0.002125650644302368,0.00002823234535753727
1761468691507911000,8.269910888671875,-0.0011072601191699505,0.002623508218675852,-0.00016115233302116394
1761468691517894100,8.27989404296875,0.0019079707562923431,-0.0035789937246590853,0.0006324697751551867
1761468691527877000,8.289877197265625,-0.000646218191832304,0.002737297909334302,0.0022110387217253447
1761468691537860000,8.299860107421875,0.0007777740247547626,0.0012147685047239065,-0.0007847512606531382
1761468691547842000,8.309842041015624,0.00017499784007668495,-0.0011704862117767334,-0.0021320832893252373
1761468691557825000,8.319824951171874,-0.0009150342084467411,-0.003855751361697912,0.00038726720958948135
1761468691567808300,8.329808349609374,-0.0016709482297301292,0.0034383325837552547,0.0013329789508134127
1761468691577791000,8.339791015625,0.0003895391710102558,-0.0009846454486250877,0.0006464160978794098
1761468691587774000,8.34977392578125,-0.0010574846528470516,0.0019611092284321785,0.0009234882891178131
1761468691597756200,8.359756103515625,0.00048155616968870163,0.0009765387512743473,-0.0009865309111773968
1761468691607739000,8.36973876953125,-0.0001776185818016529,-0.002804596908390522,-0.0018584071658551693
1761468691617722000,8.37972216796875,0.0005520875565707684,0.0031797923147678375,0.002625557128340006
1761468691627705000,8.389705078125,-0.0011575003154575825,0.0011700419709086418,0.000368939945474267
1761468691637688000,8.39968798828125,0.0005269492976367474,0.0010712388902902603,0.0005662802141159773
1761468691647670000,8.409669921875,-0.0006849938072264194,0.001091280486434698,-0.0011726412922143936
1761468691657653000,8.419653076171874,0.0015102499164640903,0.003229798749089241,0.00038584042340517044
1761468691667636200,8.42963623046875,0.00037162983790040016,-0.0008693584240972996,0.0022401674650609493
1761468691677619000,8.439618896484374,0.002368201734498143,-0.0025322362780570984,0.0005029872991144657
1761468691687602000,8.449601806640626,-0.00006994418799877167,0.0014146235771477222,0.0006176426541060209
1761468691697585200,8.459585205078126,-0.0009740875102579594,0.0020977244712412357,-0.0004398985765874386
1761468691707567000,8.469567138671875,-0.000521121546626091,0.001895237946882844,0.0010553612373769283
1761468691717550000,8.479550048828125,-0.004135297145694494,0.0008832367602735758,0.00030434969812631607
1761468691727533000,8.489532958984375,0.0014916765503585339,0.0015356664080172777,0.0020369943231344223
1761468691737516300,8.499516357421875,0.0009302818216383457,0.003359665395691991,0.0003397618420422077
1761468691747499000,8.5094990234375,0.0008337153121829033,-0.00030066678300499916,-0.0006038902793079615
1761468691757481200,8.519481201171875,0.0026358761824667454,0.002044779248535633,-0.0024044534657150507
1761468691767464200,8.529464111328124,0.0007988191209733486,-0.0006670306902378798,0.0004157829098403454
1761468691777447000,8.539447021484374,0.001036107074469328,-0.003671875223517418,0.001062931027263403
1761468691787430100,8.54943017578125,0.0014922339469194412,-0.002497960813343525,-0.0005498158279806376
1761468691797413000,8.5594130859375,0.0008823699317872524,-0.00010963785462081432,0.0025740722194314003
1761468691807396000,8.56939599609375,-0.0002966001629829407,-0.0034854006953537464,0.0013092653825879097
1761468691817379000,8.579379150390626,0.002684009727090597,-0.0028646178543567657,-0.001033517299219966
1761468691827362000,8.589362060546875,-0.0008253608830273151,0.0004678945988416672,0.001689480384811759
1761468691837345000,8.599344970703125,0.0013669533655047417,-0.0010975117329508066,0.0012447324115782976
1761468691847328300,8.609328369140625,0.0006896988488733768,-0.0008794465102255344,0.0021396370138972998
1761468691857310000,8.61931005859375,-0.0025894511491060257,-0.0006275114137679338,0.0006754312198609114
1761468691867293200,8.629293212890625,-0.0009480789303779602,0.003826598869636655,0.00032515963539481163
1761468691877276200,8.639276123046875,-0.002292442135512829,-0.0025572646409273148,-0.00017524836584925652
1761468691887259000,8.6492587890625,-0.001399270724505186,0.0036414898931980133,-0.00034222775138914585
1761468691897242000,8.6592421875,-0.00002507958561182022,-0.00013806833885610104,-0.00004635052755475044
1761468691907225000,8.66922509765625,0.00208768411539495,0.002262614667415619,0.0015356619842350483
1761468691917207000,8.67920703125,0.0003939135931432247,0.002526534255594015,-0.0011520001571625471
1761468691927190000,8.68918994140625,0.0007601813413202763,0.000004188157618045807,0.0007908998522907495
1761468691937173200,8.69917333984375,-0.00011493312194943428,-0.0007177949883043766,0.0014604185707867146
1761468691947156200,8.70915625,-6.132759153842926e-7,0.00040202843956649303,-0.0021956125274300575
1761468691957139000,8.719138916015625,-0.0007100794464349747,-0.0008675004355609417,0.00018738419748842716
1761468691967121200,8.72912109375,-0.0031443298794329166,-0.0023973998613655567,0.000011867377907037735
1761468691977104100,8.739104248046875,0.0021713401656597853,0.001005321042612195,-0.0013356921263039112
1761468691987087000,8.749087158203125,-0.0005248161032795906,-0.005013080779463053,0.001250286353752017
1761468691997070000,8.759070068359375,-0.0002510431222617626,0.0022373751271516085,0.003466835478320718
1761468692007053000,8.769052978515624,0.0013572396710515022,-0.001702649868093431,-0.001225618994794786
1761468692017036300,8.779036376953124,-0.0019203126430511475,0.0027480246499180794,0.0015344810672104359
1761468692027018000,8.78901806640625,0.0017008432187139988,0.0005716378800570965,-0.0007887312676757574
1761468692037001200,8.799001220703126,0.0018648942932486534,-0.003043603152036667,-0.0014574510278180242
1761468692046984200,8.808984130859375,-0.000023021362721920013,0.004355531185865402,0.0007189838215708733
1761468692056967000,8.818966796875,0.0020848705898970366,-0.0024528400972485542,-0.00006851297803223133
1761468692066950100,8.8289501953125,-0.0013356921263039112,0.0023558177053928375,0.00004481547512114048
1761468692076933000,8.83893310546875,-0.0020552785135805607,-0.001114813843742013,-0.0007378875743597746
1761468692086915000,8.8489150390625,-0.0005981358699500561,0.0015531526878476143,0.0016652881167829037
1761468692096898000,8.85889794921875,-0.0012668557465076447,0.002412554807960987,-0.0019092068541795015
1761468692106881000,8.868881103515625,-0.0005055731162428856,-0.0008262090850621462,0.0005604273173958063
1761468692116864000,8.878864013671874,-0.0028166640549898148,0.0016358832363039255,0.0002003679983317852
1761468692126847000,8.888846923828124,0.00011911150068044662,0.0018916318658739328,-0.0024851493071764708
1761468692136829200,8.8988291015625,0.0005377605557441711,0.0001592456828802824,0.00001129787415266037
1761468692146812200,8.908812255859376,-0.0003313962370157242,-0.002662479178979993,-0.0007484729867428541
1761468692156795100,8.918795166015625,-0.00012207170948386192,0.0017770100384950638,0.00039961584843695164
1761468692166778000,8.928778076171875,0.0010648863390088081,0.0014317634049803019,-0.0004945658147335052
1761468692176761000,8.938760986328125,-0.0005473913624882698,-0.002706256229430437,0.0012692457530647516
1761468692186743000,8.948742919921875,-0.001800620462745428,-0.0030634545255452394,-0.0014328324468806386
1761468692196726000,8.95872607421875,-0.0005942084826529026,-0.002794475294649601,-0.00008553918451070786
1761468692206709200,8.968709228515625,0.00017857365310192108,0.002473777625709772,0.00022776424884796143
1761468692216695000,8.978695068359375,0.0015924456529319286,-0.0024818326346576214,0.00026504858396947384
1761468692226678000,8.988677978515625,0.0015775375068187714,0.002565014874562621,0.0013461117632687092
1761468692236661200,8.9986611328125,0.0001780460588634014,-0.0014899142552167177,-0.0006264913827180862
1761468692246643000,9.008642822265625,0.00028982385993003845,0.0025630260352045298,0.0003803335130214691
1761468692256626200,9.018626220703124,0.0005071377381682396,0.0004191815387457609,-0.0004918517079204321
1761468692266609200,9.028609130859374,-0.0015834053047001362,-0.0007019573822617531,0.001051959116011858
1761468692276592000,9.038592041015624,0.0023194570094347,0.0012488081119954586,0.00042931176722049713
1761468692286575000,9.0485751953125,0.0005403500981628895,-0.001991875469684601,-0.0003086489159613848
1761468692296557300,9.058557373046876,-0.00033769430592656136,-0.0013841420877724886,-0.0000766876619309187
1761468692306540000,9.0685400390625,0.00027624936774373055,-0.004263889044523239,-0.0009092118125408888
1761468692316523000,9.07852294921875,-0.000933891162276268,0.0002744037192314863,0.000035411445423960686
1761468692326506200,9.08850634765625,0.0013656378723680973,-0.0019818851724267006,0.0012841362040489912
1761468692336489200,9.0984892578125,-0.0020879493094980717,-0.0025022670160979033,-0.0010605109855532646
1761468692346472000,9.108471923828125,0.000503521878272295,0.0028427441138774157,0.002417157869786024
1761468692356454100,9.1184541015625,0.0016484148800373077,-0.0011378827039152384,-0.0002563893795013428
1761468692366437000,9.12843701171875,-0.001542576588690281,0.000015759607776999474,-0.0011739814653992653
1761468692376420000,9.138420166015624,-0.00024188868701457977,-0.0016772118397057056,0.0020199473947286606
1761468692386403000,9.148403076171874,0.0007391595281660557,0.0004332279786467552,-0.0006816629320383072
1761468692396386000,9.158385986328126,-0.000007590744644403458,-0.0007683900184929371,0.00039265607483685017
1761468692406368000,9.168367919921875,-0.0001668664626777172,0.0020166116300970316,0.0009424707386642694
1761468692416351000,9.17835107421875,0.0006145047955214977,0.0012568116653710604,0.002592565258964896
1761468692426334200,9.188334228515625,0.0008553215302526951,0.0005601712036877871,-0.0010406889487057924
1761468692436317000,9.19831689453125,0.0013128523714840412,0.0001828011590987444,0.001238444121554494
1761468692446300000,9.2082998046875,-0.0011127153411507607,0.000019485363736748695,-0.0020580030977725983
1761468692456283100,9.218283203125,0.0014942530542612076,-0.0005312561988830566,-0.0026039511431008577
1761468692466265000,9.22826513671875,0.0002543446607887745,-0.0006237204652279615,-0.00023247464559972286
1761468692476248000,9.238248046875,0.0019161570817232132,-0.0006721899844706059,-0.00011795875616371632
1761468692486231000,9.24823095703125,-0.0004508141428232193,-0.0003091534599661827,0.0013766696210950613
1761468692496214300,9.25821435546875,-0.00031978683546185493,-0.0022812243551015854,-0.0005456001963466406
1761468692506197000,9.268197021484376,-0.0027037616819143295,0.0031532286666333675,-0.0011185233015567064
1761468692516180000,9.278179931640626,0.0005934983491897583,0.00035744206979870796,-0.0008474134374409914
1761468692526162200,9.288162109375,-0.0018675499595701694,-0.001760096289217472,0.0012349970638751984
1761468692536145000,9.298144775390625,-0.0012323861010372639,-0.001510558184236288,-0.003453231882303953
1761468692546128100,9.308128173828125,0.0003896155394613743,0.0019721663556993008,0.004303161986172199
1761468692556111000,9.318111083984375,-0.0013464991934597492,0.0029231812804937363,0.002132951747626066
1761468692566094000,9.328093994140625,0.0009300690144300461,-0.0009167126845568419,-0.00030290265567600727
1761468692576076000,9.338075927734375,0.0002797250635921955,0.002134204376488924,-0.0003934502601623535
1761468692586059000,9.34805908203125,-0.0007112938910722733,-0.0008349616546183825,0.00047931401059031487
1761468692596042200,9.358042236328124,0.0005558379925787449,0.003215440083295107,0.00014402205124497414
1761468692606025000,9.36802490234375,-0.0016067354008555412,-0.0019318800186738372,0.00019160984084010124
1761468692616008000,9.378008056640626,0.0016961167566478252,-0.0024594522546976805,0.002473139902576804
1761468692625991200,9.3879912109375,0.00015234807506203651,0.0011087283492088318,0.0012590480037033558
1761468692635972900,9.397972900390625,-0.0002194289118051529,-0.0004795808345079422,-0.0008866605348885059
1761468692645956000,9.4079560546875,-0.0004944624379277229,-0.0008009576704353094,-0.0009224279783666134
1761468692655939000,9.41793896484375,-0.00010883668437600136,-0.003680633846670389,-0.0009898061398416758
1761468692665922000,9.427922119140625,0.0002619801089167595,-0.00017623510211706161,0.0011623562313616276
1761468692675905000,9.437905029296875,0.0016012839041650295,-0.002019142732024193,0.0010766023769974709
1761468692685887000,9.447886962890625,-0.0012800521217286587,-0.0027341945096850395,0.0022665788419544697
1761468692695870200,9.4578701171875,-0.0015594176948070526,-0.0024915807880461216,-0.0014594498788937926
1761468692705853000,9.46785302734375,-0.0007356726564466953,0.001670842757448554,0.002239941619336605
1761468692715836200,9.477836181640624,-0.0019625909626483917,0.0015528646763414145,-0.0007944642566144466
1761468692725819100,9.487819091796876,0.0005940292030572891,0.002398508368059993,0.0008160355500876904
1761468692735801000,9.497801025390626,0.0009346473962068558,0.004578571766614914,0.00027647940441966057
1761468692745784000,9.5077841796875,0.00003944477066397667,-0.0006260916125029325,0.002711875829845667
1761468692755767000,9.51776708984375,-0.0000915825366973877,0.007115984335541725,0.000409306725487113
1761468692765750300,9.527750244140625,-0.0010483521036803722,0.005453068763017654,0.0012244132813066244
1761468692775733000,9.53773291015625,-0.0003889533691108227,0.0005528528708964586,0.001041187671944499
1761468692785716000,9.547716064453125,0.00011946260929107666,0.0020777026657015085,0.0005722399801015854
1761468692795698200,9.5576982421875,-0.00031250203028321266,0.003876135451719165,0.002986395265907049
1761468692805681000,9.567680908203124,0.0029516061767935753,0.0015393246430903673,0.002104469807818532
1761468692815664000,9.5776640625,-0.002029303926974535,0.0007076195906847715,0.002339094178751111
1761468692825647000,9.587647216796874,0.0010681799612939358,0.0016757266130298376,0.002534126630052924
1761468692835630000,9.597630126953124,0.0018295776098966599,0.0016964992973953485,0.002077927114441991
1761468692845612000,9.607612060546876,0.0008652731776237488,0.0006058928556740284,0.0017838578205555677
1761468692855595000,9.617594970703125,0.001375801395624876,0.0028139199130237103,0.0028882708866149187
1761468692865578200,9.627578125,0.0002099042758345604,0.003853071015328169,-0.00042157573625445366
1761468692875561000,9.63756103515625,0.0007507922127842903,0.005515149794518948,0.0035697040148079395
1761468692885544000,9.6475439453125,-0.001930775586515665,0.039633121341466904,0.014641367830336094
1761468692895527200,9.657527099609375,-0.0008628480136394501,0.02548135258257389,0.007338447496294975
1761468692905509000,9.667509033203125,-0.001297602429986,-0.009215747006237507,-0.003445083973929286
1761468692915492000,9.6774921875,0.0022388091310858727,0.018037443980574608,0.001770983450114727
1761468692925475000,9.68747509765625,-0.000300487969070673,-0.00957755371928215,-0.0033465183805674314
1761468692935458300,9.697458251953124,-0.0011662817560136318,0.00022980268113315105,-0.0007368868682533503
1761468692945441000,9.70744091796875,0.0004466916434466839,-0.012919513508677483,-0.007712610065937042
1761468692955423200,9.71742333984375,0.0009785247966647148,-0.006558021064847708,-0.002733830828219652
1761468692965406200,9.72740625,-0.001124960370361805,-0.015005957335233688,-0.00483065377920866
1761468692975389000,9.737388916015625,-0.00043147336691617966,-0.01116914115846157,-0.004840241279453039
1761468692985372200,9.7473720703125,0.0002784482203423977,-0.007491962052881718,-0.004079720005393028
1761468692995355100,9.757355224609375,0.0002651321701705456,0.00020057871006429195,0.0009797534439712763
1761468693005338000,9.767338134765625,4.284083843231201e-8,-0.0003533258568495512,-0.0018680718494579196
