time,seconds_elapsed,z,y,x
1761468581746099000,0.118098876953125,-0.0030953241512179375,0.0003239687066525221,0.0004614673089236021
1761468581756082200,0.128082275390625,-0.000424893107265234,-0.0016973373712971807,0.0029861079528927803
1761468581766065200,0.138065185546875,0.0004829787649214268,-0.003501096274703741,0.0035973037593066692
1761468581776048000,0.148048095703125,-0.0019552167505025864,-0.0024444973096251488,0.0013366397470235825
1761468581786032000,0.1580322265625,0.0006879703141748905,-0.001040478702634573,0.0027092332020401955
1761468581796015000,0.16801513671875,-0.0012007462792098522,0.0013245665468275547,-0.0012987725203856826
1761468581805998000,0.177998046875,-0.0016577448695898056,-0.0004988997243344784,0.000044525833800435066
1761468581815981000,0.18798095703125,0.0018153167329728603,-0.0019236421212553978,0.0014732100535184145
1761468581825964300,0.19796435546875,0.0017215735279023647,0.0007003704085946083,0.0014633566606789827
1761468581835948300,0.2079482421875,-0.00023812660947442055,0.00028957868926227093,0.0008382850792258978
1761468581845931000,0.217930908203125,0.0003405781462788582,0.0013913284055888653,0.002177322516217828
1761468581855914200,0.227914306640625,-0.0008231098763644695,-0.0005598859861493111,0.0009364185389131308
1761468581865897200,0.237897216796875,0.0007252516224980354,0.001796212512999773,-0.0011088892351835966
1761468581875880000,0.2478798828125,-0.0020451946184039116,0.0010988297872245312,0.001726054586470127
1761468581885864000,0.257864013671875,-0.0011138874106109142,0.0000021401792764663696,0.004595610313117504
1761468581895847200,0.26784716796875,0.002579461084678769,0.0019125172402709723,0.0006443469319492579
1761468581905830100,0.277830078125,-0.0008429670706391335,0.0032126724254339933,-0.00004115072079002857
1761468581915813000,0.287813232421875,0.000952873844653368,0.0028492952696979046,0.000059156911447644234
1761468581925796000,0.297796142578125,0.0022362510208040476,-0.0014205509796738625,-0.0013174309860914946
1761468581935780000,0.307780029296875,-0.002688840962946415,0.001005452824756503,-0.0016068833647295833
1761468581945763000,0.31776318359375,0.0009754025377333164,0.0036023014690726995,-0.0012532155960798264
1761468581955746000,0.32774609375,-0.0020121741108596325,0.0010068437550216913,-0.0012470469810068607
1761468581965729000,0.33772900390625,-0.00018977327272295952,0.003588778665289283,0.0016171829774975777
1761468581975713000,0.347713134765625,-0.0015460415743291378,0.00021848035976290703,-0.0002968141343444586
1761468581985696000,0.357696044921875,-0.0009335149079561234,0.0018933422397822142,0.0005894857458770275
1761468581995679200,0.36767919921875,-0.0017764447256922722,0.0023696820717304945,0.0012850952334702015
1761468582005662200,0.377662109375,-0.00015191640704870224,-0.0009238491766154766,-0.00010880338959395885
1761468582015645000,0.38764501953125,-0.002851939294487238,0.0009124255739152431,0.0005022112745791674
1761468582025629000,0.39762890625,-0.00033711642026901245,-0.0013904098886996508,-0.0015015511307865381
1761468582035612200,0.407612060546875,-0.0007355283014476299,-0.0011316589079797268,0.00025831745006144047
1761468582045595100,0.41759521484375,-0.0007469798438251019,-0.0012610885314643383,-0.00013423245400190353
1761468582055578000,0.427578125,0.0016247178427875042,-0.0008569040801376104,0.0009343652054667473
1761468582065561000,0.43756103515625,0.0015722536481916904,-0.006603472866117954,0.0021724686957895756
1761468582075545000,0.447545166015625,0.0019385861232876778,0.0011244569905102253,0.0011260875035077333
1761468582085528000,0.457528076171875,-0.0009410898201167583,-0.004443946294486523,-0.0022409469820559025
1761468582095511300,0.46751123046875,-0.0026624752208590508,0.0020289055537432432,0.0017340520862489939
1761468582105493500,0.477493408203125,0.0005319858901202679,-0.0009594273287802935,0.0014443004038184881
1761468582115476700,0.487476806640625,-0.0015757889486849308,0.0011867403518408537,-0.0025865831412374973
1761468582125460700,0.497460693359375,-0.0004170476458966732,-0.002092143753543496,0.0005564794410020113
1761468582135443500,0.507443359375,0.0009809923358261585,-0.001737178536131978,-0.001019870862364769
1761468582145426400,0.517426513671875,-0.001375372987240553,-0.0005203802138566971,-0.0018449181225150824
1761468582155409700,0.52740966796875,-0.002386119682341814,0.00023826328106224537,-0.0005184663459658623
1761468582165393700,0.5373935546875,0.001682924572378397,-0.0018312791362404823,-0.0009067552164196968
1761468582175376400,0.54737646484375,-0.0023315218277275562,-0.005086353048682213,-0.0020852559246122837
1761468582185359400,0.557359375,0.0017732083797454834,-0.006408878602087498,-0.0018338534282520413
1761468582195342600,0.567342529296875,-0.0009902073070406914,-0.0028615400660783052,0.00020233937539160252
1761468582205325600,0.57732568359375,-0.0001249462366104126,-0.00617930619046092,-0.0008376252371817827
1761468582215309600,0.5873095703125,0.0008466346189379692,-0.005385617725551128,-0.004673392977565527
1761468582225292500,0.59729248046875,-0.001727310474961996,-0.007202159613370895,-0.00025467597879469395
1761468582235275500,0.607275634765625,-0.0006921119056642056,-0.0059951539151370525,-0.0004903220105916262
1761468582245258500,0.617258544921875,-0.0015509813092648983,-0.0029282576870173216,-0.0017092509660869837
1761468582255241700,0.62724169921875,-0.002069240901619196,-0.004109716974198818,-0.0020712357945740223
1761468582265225500,0.6372255859375,0.002251205500215292,-0.0030708180274814367,-0.003269391832873225
1761468582275208400,0.64720849609375,-0.00037173135206103325,-0.0021674688905477524,-0.0033283757511526346
1761468582285191400,0.65719140625,-0.001010623760521412,-0.0011296351440250874,-0.002558189444243908
1761468582295174700,0.667174560546875,-0.0001697898842394352,0.00013930979184806347,-0.0011050065513700247
1761468582305158700,0.67715869140625,-0.0017338646575808525,-0.002090821275487542,-0.000051992712542414665
1761468582315141400,0.687141357421875,0.0007405467331409454,0.004090494476258755,0.00042220461182296276
1761468582325124600,0.69712451171875,0.0006507979705929756,0.0057373931631445885,-0.0016795621486380696
1761468582335107600,0.707107666015625,-0.0002961014397442341,-0.0018182607600465417,-0.0022113954182714224
1761468582345090600,0.717090576171875,-0.0005744015797972679,-0.0000011860392987728119,-0.002201808150857687
1761468582355074600,0.727074462890625,-0.0012968494556844234,-0.010525998659431934,-0.006032499019056559
1761468582365057500,0.7370576171875,0.001537286676466465,-0.0043709008023142815,-0.005539281293749809
1761468582375040500,0.74704052734375,0.0006613666191697121,-0.0015611923299729824,0.002292997669428587
1761468582385023500,0.7570234375,-0.0006172172725200653,-0.002710612490773201,-0.0017203858587890863
1761468582395007500,0.767007568359375,0.0015025734901428223,-0.003305862657725811,0.0005386106204241514
1761468582404990500,0.776990478515625,0.0004796534776687622,-0.0007572176400572062,0.0005455347709357738
1761468582414973400,0.786973388671875,0.0015135696157813072,-0.00023500178940594196,0.00043386220932006836
1761468582424956700,0.796956787109375,-0.00032188091427087784,-0.001427565235644579,-0.0004897220060229301
1761468582434939600,0.806939697265625,-0.00022919569164514542,-0.0030928184278309345,0.001377704320475459
1761468582444923600,0.816923583984375,-0.00042493827641010284,-0.0036169285885989666,0.00036969780921936035
1761468582454906400,0.82690625,-0.0005825324915349483,-0.0015496104024350643,0.00029279221780598164
1761468582464889600,0.8368896484375,-0.001805456355214119,0.0003923666663467884,0.0002238163724541664
1761468582474872600,0.84687255859375,0.00007724203169345856,0.0026575494557619095,0.000245911767706275
1761468582484855300,0.856855224609375,-0.001065786462277174,0.0018886947073042393,-0.0007743453606963158
1761468582494839600,0.866839599609375,0.0019167806021869183,-0.001017907401546836,-0.004559049382805824
1761468582504822500,0.876822509765625,0.0003266073763370514,0.0025150419678539038,-0.0026045553386211395
1761468582514805500,0.886805419921875,-0.0005572056397795677,0.0014564446173608303,-0.002595027908682823
1761468582524788700,0.896788818359375,0.002459357026964426,0.00018691574223339558,-0.0025990228168666363
1761468582534772700,0.906772705078125,0.00021893903613090515,-0.00229169731028378,-0.0017107984749600291
1761468582544755500,0.91675537109375,0.00042560044676065445,0.0020130362827330828,-0.0004236928652971983
1761468582554738400,0.926738525390625,0.0016029835678637028,0.0012865997850894928,-0.002188380341976881
1761468582564721700,0.9367216796875,-0.00003805616870522499,-0.0028319789562374353,-0.00008421693928539753
1761468582574704600,0.94670458984375,-0.0000065569765865802765,-0.0029868558049201965,0.0030366298742592335
1761468582584688400,0.9566884765625,0.00013858499005436897,-0.0038979232776910067,0.0017436649650335312
1761468582594671400,0.96667138671875,-0.0025297831743955612,-0.0038674897514283657,-0.0007656426168978214
1761468582604654600,0.976654541015625,0.0014479141682386398,-0.002163066528737545,0.00041280617006123066
1761468582614637600,0.986637451171875,-0.0020961822010576725,0.003016307484358549,-0.0005031493492424488
1761468582624621600,0.99662158203125,0.00010252324864268303,-0.0024703368544578552,0.0008100555278360844
1761468582634604500,1.0066044921875,0.003100115805864334,-0.00000773230567574501,-0.0003650772850960493
1761468582644587500,1.01658740234375,-0.00023682508617639542,0.002163276541978121,0.0015486704651266336
1761468582654570500,1.026570556640625,0.0005790842697024345,0.001878170995041728,0.0015364454593509436
1761468582664553700,1.0365537109375,-0.0014763432554900646,0.002915205666795373,0.0007803740445524454
1761468582674537500,1.046537353515625,-0.0007657888345420361,0.0015989430248737335,0.0012003886513411999
1761468582684520400,1.0565205078125,0.0015261275693774223,0.00025591091252863407,-0.0017764928052201867
1761468582694503400,1.06650341796875,0.00018438417464494705,-0.001676754909567535,-0.0001764053013175726
1761468582704486700,1.076486572265625,-0.0011242935433983803,0.0007840059697628021,0.00040549528785049915
1761468582714470700,1.086470703125,0.0022260311525315046,0.0010751362424343824,0.0015651392750442028
1761468582724453400,1.096453369140625,-0.0009428644552826881,-0.0018311712192371488,0.0011430280283093452
1761468582734436600,1.1064365234375,-0.000041536521166563034,-0.0014487686567008495,-0.001452978583984077
1761468582744419600,1.116419677734375,-0.00001650303602218628,0.0022564874961972237,0.000885276822373271
1761468582754402600,1.126402587890625,-0.0008419724181294441,-0.001114139799028635,-0.0010093904566019773
1761468582764386300,1.13638623046875,0.0011956123635172844,0.0006922825705260038,-0.0016962195513769984
1761468582774369500,1.14636962890625,-0.0009726658463478088,-0.002125763799995184,0.0017045850399881601
1761468582784352500,1.1563525390625,0.00008327746763825417,0.0020364904776215553,-0.00026721926406025887
1761468582794335500,1.16633544921875,-0.0010499968193471432,-0.0010102479718625546,0.0016011258121579885
1761468582804319700,1.17631982421875,-0.0015826290473341942,0.0006726037245243788,0.0035108786541968584
1761468582814302500,1.186302490234375,0.0004999162629246712,0.0006201490759849548,-0.0003811251372098923
1761468582824285400,1.196285400390625,-0.001089458353817463,0.0031030140817165375,-0.0016977919731289148
1761468582834268700,1.2062685546875,0.0004993979819118977,-0.0019227577140554786,-0.0014731755945831537
1761468582844251600,1.216251708984375,-0.000912343617528677,0.0016749065835028887,-0.0014718440361320972
1761468582854235400,1.2262353515625,0.0006317328661680222,0.0042738220654428005,0.0003223444800823927
1761468582864218400,1.23621826171875,0.0040437751449644566,-0.0026059220544993877,-0.0006603619549423456
1761468582874201600,1.24620166015625,-0.0010655815713107586,0.0030793535988777876,0.0001920133363455534
1761468582884184600,1.2561845703125,-0.0016064699739217758,0.000599950784817338,-0.000916394405066967
1761468582894168600,1.26616845703125,0.0011847717687487602,8.719507604837418e-7,0.0024268433917313814
1761468582904151600,1.276151611328125,-0.0007838369347155094,-0.0038274219259619713,0.00013519334606826305
1761468582914134500,1.286134521484375,-0.0006444887258112431,0.0011132743675261736,0.0005948548205196857
1761468582924117500,1.296117431640625,-0.00008602393791079521,0.0011252586264163256,0.00017913547344505787
1761468582934100700,1.306100830078125,0.001057780347764492,-0.0011000372469425201,0.0018223316874355078
1761468582944084700,1.316084716796875,-0.0007880567573010921,-0.0010028318502008915,-0.0024155566934496164
1761468582954067500,1.3260673828125,0.0011277152225375175,0.003060772083699703,0.0027859145775437355
1761468582964050400,1.336050537109375,0.0005527390167117119,-0.0017845830880105495,0.00008919765241444111
1761468582974033700,1.34603369140625,0.002670438727363944,-0.0018857211107388139,-0.0019919066689908504
1761468582984017700,1.356017578125,0.0006355172954499722,-0.0008406967390328646,0.002325343433767557
1761468582994000400,1.36600048828125,0.0014642197638750076,0.0002004064153879881,-0.0005650483071804047
1761468583003983600,1.375983642578125,-0.001797353383153677,-0.00006484449841082096,0.00039262440986931324
1761468583013966600,1.385966552734375,0.000009108800441026688,0.003295755013823509,-0.0012957833241671324
1761468583023950600,1.39595068359375,0.000030147843062877655,0.0002626811619848013,-0.0014100329717621207
1761468583033933600,1.40593359375,-0.000018588732928037643,0.0007354842964559793,-0.0005139352288097143
1761468583043916500,1.41591650390625,-0.000703553669154644,0.0009687768761068583,0.0012067332863807678
1761468583053899500,1.4258994140625,-0.003100405912846327,-0.0024153052363544703,-0.0012323688715696335
1761468583063882500,1.435882568359375,0.001466649118810892,0.0002827432472258806,0.0013508971314877272
1761468583073866500,1.445866455078125,-0.0003032335080206394,-0.001372886123135686,0.004513462074100971
1761468583083849500,1.455849365234375,-0.0002899174578487873,-0.0029867617413401604,0.001307282131165266
1761468583093832400,1.46583251953125,-0.001654560212045908,0.0011363213416188955,0.0026688100770115852
1761468583103816400,1.47581640625,-0.0006625326350331306,-0.0000170939601957798,-0.0016950455028563738
1761468583113800400,1.485800537109375,-0.0008162222802639008,0.0005447643343359232,-0.0014548280742019415
1761468583123783700,1.49578369140625,0.0007398626767098904,0.00174451875500381,0.003380939830094576
1761468583133766400,1.505766357421875,-0.001113062258809805,-0.0007528502028435469,-0.0006104374770075083
1761468583143749400,1.515749267578125,-0.000015307217836380005,0.002348401118069887,-0.002690100111067295
1761468583153733400,1.5257333984375,-0.0008075488731265068,0.00423874007537961,-0.0011278698220849037
1761468583163716600,1.535716552734375,-0.0003268481232225895,0.001101270318031311,-0.0017073737690225244
1761468583173699600,1.545699462890625,0.00018191104754805565,0.0011229917872697115,-0.0018329477170482278
1761468583183682600,1.5556826171875,0.0007779267616569996,-0.0022621522657573223,0.0015615173615515232
1761468583193665500,1.56566552734375,0.0007358365692198277,-0.004328332841396332,-0.0012346555013209581
1761468583203649500,1.5756494140625,0.00041705649346113205,0.0004746783524751663,0.002033842261880636
1761468583213632500,1.585632568359375,0.000706150196492672,-0.000627102330327034,-0.0009666327387094498
1761468583223615700,1.59561572265625,0.0005716606974601746,-0.001132570207118988,-0.0004795405548065901
1761468583233598500,1.605598388671875,0.00043857190757989883,-0.0024520899169147015,0.0026046838611364365
1761468583243582500,1.61558251953125,0.000893173273652792,-0.00029706000350415707,0.00018813181668519974
1761468583253565400,1.6255654296875,0.0003281109966337681,-0.0006678248755633831,-0.0025036539882421494
1761468583263548700,1.635548583984375,0.0008759233169257641,0.0014312786515802145,-0.0010524974204599857
1761468583273531400,1.645531494140625,-0.00037690484896302223,0.00022427854128181934,-0.0007082822266966105
1761468583283515400,1.655515380859375,0.0021485709585249424,0.0018344256095588207,-0.0021493188105523586
1761468583293498600,1.66549853515625,-0.0000036726705729961395,0.001441272208467126,-0.0014928528107702732
1761468583303481600,1.675481689453125,-0.000007933937013149261,0.0007701560389250517,-0.00009149732068181038
1761468583313464600,1.685464599609375,0.0018642498180270195,0.0020203024614602327,-0.000043036649003624916
1761468583323448300,1.6954482421875,-0.0010234154760837555,0.0015678314957767725,0.001690414734184742
1761468583333431600,1.705431640625,0.0010025608353316784,-0.0021346595603972673,-0.00008389516733586788
1761468583343414500,1.71541455078125,0.0018025743775069714,0.000589221715927124,0.0013350369408726692
1761468583353397500,1.7253974609375,-0.001443671528249979,-0.0030565992929041386,0.0033107760827988386
1761468583363380500,1.73538037109375,0.0019502609502524137,0.0004734206013381481,0.002181063173338771
1761468583373364500,1.745364501953125,-0.0028293542563915253,-0.0005034767091274261,-0.0011069336906075478
1761468583383347500,1.755347412109375,-0.0005403673276305199,-0.0011620763689279556,0.0006779169198125601
1761468583393330700,1.76533056640625,0.00123660359531641,0.0006367908790707588,0.00008229026570916176
1761468583403313700,1.775313720703125,-0.0002118898555636406,-0.0012692336458712816,-0.0017470350721850991
1761468583413297400,1.78529736328125,0.0004200791008770466,0.0009968043304979801,0.0010453632567077875
1761468583423280400,1.7952802734375,0.0007590996101498604,-0.00023677200078964233,-0.0008958149701356888
1761468583433263600,1.805263671875,0.0006548897363245487,0.0011043178383260965,-0.0015148718375712633
1761468583443246600,1.81524658203125,0.0002471599727869034,-0.00010502361692488194,-0.00034467875957489014
1761468583453230600,1.825230712890625,-0.0010973280295729637,0.0012386755552142859,-0.0009161944035440683
1761468583463213600,1.835213623046875,0.0015256195329129696,-0.0005365877877920866,0.0010657301172614098
1761468583473196500,1.845196533203125,0.00044853659346699715,0.0022785516921430826,0.0009687186684459448
1761468583483179500,1.855179443359375,-0.002717962022870779,-0.004156976938247681,-0.00018336507491767406
1761468583493163500,1.86516357421875,0.0006552562117576599,-0.002122919075191021,0.0016745678149163723
1761468583503146500,1.875146484375,-0.0018579689785838127,0.0006688723806291819,0.000926219392567873
1761468583513129500,1.88512939453125,-0.00043820682913064957,-0.00017569377087056637,0.0016084699891507626
1761468583523112400,1.895112548828125,-0.0005476628430187702,-0.0018718611681833863,-0.00001952052116394043
1761468583533096400,1.905096435546875,-0.0006998949684202671,0.0011614991817623377,0.0015785638242959976
1761468583543079700,1.91507958984375,0.0013810992240905762,-0.003573601134121418,-0.003179439576342702
1761468583553062400,1.9250625,0.0007018549367785454,-0.00021028448827564716,0.00002841767854988575
1761468583563045400,1.93504541015625,0.0002864017151296139,0.0036707399412989616,0.0005165750626474619
1761468583573028600,1.945028564453125,0.0018426529131829739,-0.001283546444028616,-0.0017061521066352725
1761468583583012600,1.9550126953125,-0.0030666179955005646,-0.0018947419011965394,-0.0010523460805416107
1761468583592995600,1.96499560546875,0.002118790987879038,0.0009259278886020184,0.00031683710403740406
1761468583602978600,1.974978515625,0.0018785737920552492,-0.0011302989441901445,-0.001590785221196711
1761468583612961500,1.98496142578125,0.000735847745090723,0.001939237117767334,0.0011306500528007746
1761468583622945500,1.994945556640625,-0.0004111761227250099,0.0010595950298011303,-0.0001987998839467764
1761468583632928500,2.004928466796875,0.00028616655617952347,-0.0006081208121031523,-0.0022279019467532635
1761468583642911500,2.014911376953125,-0.0010294350795447826,-0.0019740560092031956,0.0015394059009850025
1761468583652894500,2.02489453125,0.0030757244676351547,-0.0004850984551012516,0.0011195586994290352
1761468583662878500,2.03487841796875,-0.0013967882841825485,-0.0025200198870152235,0.000011151190847158432
1761468583672861700,2.04486181640625,0.002318941056728363,-0.0002802717499434948,0.0025068873073905706
1761468583682844700,2.0548447265625,-0.0002411557361483574,-0.0005969216581434011,-0.0017640241421759129
1761468583692827400,2.064827392578125,-0.00038152746856212616,-0.0032078493386507034,-0.003933098632842302
1761468583702811400,2.074811279296875,0.00023552682250738144,0.0017765227239578962,0.0026829922571778297
1761468583712794600,2.084794677734375,-0.00033543910831213,0.0005468123126775026,0.000028009293600916862
1761468583722777600,2.094777587890625,-0.001942124217748642,0.0029545763973146677,0.0030027604661881924
1761468583732760300,2.10476025390625,-0.0024281349033117294,-0.001843896578066051,0.0033627536613494158
1761468583742744300,2.114744384765625,-0.00045606400817632675,-0.0005695740692317486,0.00012328475713729858
1761468583752727600,2.1247275390625,-0.00031714653596282005,-0.0038858973421156406,0.0010415427386760712
1761468583762710500,2.13471044921875,0.0016320212744176388,-0.000021650688722729683,0.0017512748017907143
1761468583772693800,2.14469384765625,-0.0018329313024878502,-0.0021577179431915283,-0.0008980692364275455
1761468583782677500,2.154677490234375,0.0023564870934933424,0.0025403646286576986,0.0006596136372536421
1761468583792660500,2.164660400390625,-0.00013479311019182205,-0.0026217023842036724,0.0008383265230804682
1761468583802643500,2.1746435546875,0.00004816614091396332,0.00042042648419737816,-0.0011758224572986364
1761468583812626700,2.184626708984375,0.001967948628589511,0.0019239492248743773,-0.0007408363744616508
1761468583822609400,2.194609375,-0.0011093341745436192,-0.0006398761179298162,-0.00043750228360295296
1761468583832593400,2.204593505859375,0.0010078586637973785,-0.0008962084539234638,-0.00012548360973596573
1761468583842576400,2.214576416015625,-0.0002614036202430725,-0.0014461511746048927,0.002181879011914134
1761468583852559600,2.2245595703125,-0.00032981671392917633,-0.002714538713917136,-0.00018511991947889328
1761468583862542600,2.23454248046875,0.00023397477343678474,-0.0007139721419662237,0.0002172838430851698
1761468583872526600,2.244526611328125,-0.0020949644967913628,-0.0006282490212470293,-0.0009059766307473183
1761468583882509600,2.254509521484375,-0.0009420821443200111,-0.002480743918567896,-0.003460746956989169
1761468583892492500,2.264492431640625,-0.0009201266802847385,0.0014830261934548616,0.00022501102648675442
1761468583902475500,2.2744755859375,-0.002207498997449875,-0.0010765381157398224,-0.0014522478450089693
1761468583912459500,2.28445947265625,0.0014465725980699062,0.0001680869609117508,0.0003449919167906046
1761468583922442500,2.2944423828125,-0.0009489408694207668,0.002132168272510171,0.0022582069505006075
1761468583932425500,2.304425537109375,0.0003115776926279068,0.000480094226077199,0.0002546005416661501
1761468583942408400,2.314408447265625,0.002743310062214732,0.00040525966323912144,-0.000024498673155903816
1761468583952392700,2.324392822265625,0.0009315349161624908,0.0008681658655405045,-0.0002936373930424452
1761468583962375700,2.334375732421875,-0.0017649154178798199,-0.0015502506867051125,-0.0012004435993731022
1761468583972358400,2.3443583984375,0.0014828285202383995,-0.0025542331859469414,-0.000534875551238656
1761468583982341600,2.354341552734375,0.0007419371977448463,0.0003478133585304022,-0.0015090599190443754
1761468583992325600,2.36432568359375,0.0011915285140275955,0.0010933480225503445,0.0022234302014112473
1761468584002308600,2.37430859375,-0.001318500842899084,0.000012104632332921028,-0.0014051266480237246
1761468584012291300,2.384291259765625,0.001710190437734127,0.0010657522361725569,0.0004909979179501534
1761468584022274600,2.394274658203125,0.0013173739425837994,0.0017403310630470514,0.00024891667999327183
1761468584032258600,2.404258544921875,-0.001866485457867384,-0.0012711898889392614,0.0002588750794529915
1761468584042241500,2.414241455078125,0.001322117168456316,-0.0005777026526629925,0.00004049576818943024
1761468584052224500,2.424224609375,-0.003147372044622898,-0.001685671042650938,-0.000001943204551935196
1761468584062207500,2.43420751953125,-0.00039739208295941353,0.0019010740797966719,-0.0004932964220643044
1761468584072191500,2.44419140625,0.001731391530483961,0.0008753049187362194,0.00003283098340034485
1761468584082174500,2.454174560546875,-0.00021218368783593178,0.000692079309374094,0.0005167273338884115
1761468584092157700,2.46415771484375,-0.0010898131877183914,-0.0001237131655216217,-0.0011092897038906813
1761468584102139600,2.4741396484375,0.0017299419268965721,0.0005556591786444187,-0.0007697367109358311
1761468584112123600,2.48412353515625,-0.0014351299032568932,0.00007702410221099854,0.000228754710406065
1761468584122107000,2.49410693359375,0.0004493226297199726,-0.0003770447801798582,-0.0002415594644844532
1761468584132089900,2.50408984375,-0.0013475418090820312,-0.001267345156520605,0.00038175261579453945
1761468584142072600,2.514072509765625,-0.0007882779464125633,0.0008567923214286566,-0.0006118728779256344
1761468584152056600,2.524056640625,0.0012597152963280678,-0.0029537866357713938,-0.002536358777433634
1761468584162039800,2.534039794921875,-0.0018420680426061153,0.003989074379205704,-0.00023698550648987293
1761468584172022800,2.544022705078125,0.0002705901861190796,0.0003965552896261215,0.0007440247572958469
1761468584182005800,2.554005859375,0.0019316037651151419,0.0006863074377179146,0.0013299202546477318
1761468584191989800,2.56398974609375,-0.0003744661808013916,-0.00460671866312623,0.001429850235581398
1761468584201972700,2.57397265625,-0.000024260487407445908,0.0012157503515481949,0.0010293107479810715
1761468584211955700,2.583955810546875,-0.0015772082842886448,0.002634798176586628,0.0009088732767850161
1761468584221939000,2.59393896484375,-0.0005942354910075665,-0.00018335902132093906,0.0026290088426321745
1761468584231922700,2.603922607421875,0.0018385117873549461,0.00229773111641407,-0.00017837155610322952
1761468584241905700,2.61390576171875,-0.002792725805193186,-0.0036874571815133095,0.0011662584729492664
1761468584251888600,2.623888671875,-0.0005898308008909225,-0.002031023846939206,0.0007938400376588106
1761468584261871900,2.633871826171875,-0.00007663946598768234,0.0010324101895093918,0.002016497077420354
1761468584271855900,2.64385595703125,-0.002105245366692543,-0.0020157680846750736,0.0011949976906180382
1761468584281838600,2.653838623046875,-0.0007901769131422043,0.0006316804792732,0.00020696502178907394
1761468584291821800,2.66382177734375,-0.0027024471201002598,0.00086455256678164,-0.0024031857028603554
1761468584301804800,2.6738046875,-0.0007508830167353153,-0.0014244341291487217,-0.0010779965668916702
1761468584311787800,2.683787841796875,-0.00011697877198457718,-0.00007042242214083672,0.00007193814963102341
1761468584321771500,2.693771484375,-0.001557216513901949,-0.002217196626588702,-0.001559514319524169
1761468584331754800,2.703754638671875,-0.00035012466832995415,-0.0028493895661085844,0.002563141519203782
1761468584341737700,2.71373779296875,0.00021526403725147247,-0.0005801101215183735,-0.00033570919185876846
1761468584351721700,2.7237216796875,-0.0020240312442183495,0.003304696176201105,-0.0009818454273045063
1761468584361704700,2.73370458984375,0.003336911555379629,-0.0017257488798350096,-0.0034511282574385405
1761468584371687700,2.743687744140625,-0.00219420762732625,0.0030671304557472467,-0.0000604724045842886
1761468584381670700,2.753670654296875,-0.0012738192453980446,0.0014388735871762037,-0.002358247758820653
1761468584391654000,2.76365380859375,0.001980555010959506,-0.005573599599301815,-0.0011748343240469694
1761468584401638000,2.773637939453125,-0.00041282782331109047,0.0024284005630761385,0.0025685050059109926
1761468584411620900,2.783620849609375,-0.0005938196554780006,-0.00223391130566597,-0.0008396569173783064
1761468584421603600,2.793603515625,0.00014866935089230537,0.0006502920296043158,0.0006381310522556305
1761468584431586800,2.8035869140625,-0.0006130016408860683,-0.00039055501110851765,-0.0013184756971895695
1761468584441570800,2.81357080078125,0.0009358925744891167,0.002871018135920167,-0.0005730569828301668
1761468584451553800,2.8235537109375,-0.0030244803056120872,0.0013635603245347738,0.001286190003156662
1761468584461536800,2.833536865234375,0.0006903628818690777,0.00030095898546278477,-0.0006805546581745148
1761468584471519700,2.843519775390625,0.0010159001685678959,-0.0007512248121201992,-0.00001360173337161541
1761468584481503700,2.853503662109375,-0.0023335572332143784,-0.0016998426290228963,0.00008227210491895676
1761468584491486700,2.86348681640625,0.0021064591128379107,0.0007691166829317808,0.0007983548566699028
1761468584501470000,2.873469970703125,-0.0014677694998681545,0.000338483601808548,-0.00355910905636847
1761468584511452700,2.88345263671875,0.00044122710824012756,0.0026869738940149546,0.0023034391924738884
1761468584521436700,2.893436767578125,-0.0017388365231454372,-0.0009594261646270752,0.000058128032833337784
1761468584531419600,2.903419677734375,-0.0032244836911559105,0.003332897089421749,0.0008021907415241003
1761468584541403000,2.91340283203125,-0.0009498782455921173,-0.00881298165768385,-0.0018537800060585141
1761468584551387000,2.923386962890625,0.000038893893361091614,0.002217537723481655,0.00021135504357516766
1761468584561369600,2.93336962890625,-0.00018747476860880852,-0.0018770721508190036,-0.00045070680789649487
1761468584571352800,2.943352783203125,-0.00019592652097344398,0.001844055950641632,-0.0015322259860113263
1761468584581335800,2.953335693359375,0.0021985217463225126,0.003543952014297247,-0.001843549543991685
1761468584591319800,2.96331982421875,0.0010501374490559101,0.00005522416904568672,-0.0007035101298242807
1761468584601302500,2.973302490234375,-0.0005911686457693577,-0.001847870764322579,0.0006256736814975739
1761468584611285800,2.98328564453125,-0.0019421540200710297,-0.0015567075461149216,-0.00042428215965628624
1761468584621268700,2.993268798828125,0.0016938596963882446,-0.0011023723054677248,0.0012859997805207968
1761468584631251700,3.003251708984375,-0.001338522881269455,0.004172259941697121,0.00042223534546792507
1761468584641235700,3.013235595703125,-0.0023020547814667225,-0.003084853757172823,-0.0005018815863877535
1761468584651218700,3.02321875,0.002857658313587308,-0.0005548365879803896,-0.000786100747063756
1761468584661201700,3.03320166015625,-0.0004036487080156803,0.0003953792620450258,-0.000039084115996956825
1761468584671185000,3.043184814453125,0.00023146206513047218,-0.002633023075759411,0.002112268004566431
1761468584681169000,3.0531689453125,0.0008280100300908089,-0.0005957046523690224,-0.00150803301949054
1761468584691151600,3.063151611328125,0.001063941977918148,-0.0035414546728134155,0.0019182434771209955
1761468584701134600,3.073134521484375,-0.0007611219771206379,-0.0005483280401676893,0.002885503461584449
1761468584711118600,3.08311865234375,0.0008551366627216339,-0.0021573686972260475,0.0011766399256885052
1761468584721101800,3.093101806640625,0.00012543052434921265,-0.001890519866719842,-0.0002329710405319929
1761468584731084800,3.103084716796875,0.0005499641411006451,-0.0009246559347957373,-0.0012787168379873037
1761468584741067500,3.113067626953125,0.0006082872860133648,0.0033893988002091646,-0.0016510267741978168
1761468584751051800,3.1230517578125,-0.0008232663385570049,0.0010841379407793283,-0.0010756640695035458
1761468584761034800,3.13303466796875,-0.0002773185260593891,0.0005355265457183123,-0.0008580838330090046
1761468584771017700,3.143017822265625,-0.003376986365765333,-0.002954826457425952,-0.0013318003620952368
1761468584781001000,3.1530009765625,-0.0008640275336802006,0.0021994556300342083,-0.0021472603548318148
1761468584790983700,3.162983642578125,0.0008102590218186378,0.0004787363577634096,-0.0010004851501435041
1761468584800967700,3.1729677734375,-0.0011583496816456318,-0.0010738866403698921,0.0002661142498254776
1761468584810950700,3.18295068359375,0.0010454654693603516,-0.0003941175527870655,-0.0009170174598693848
1761468584820934000,3.192933837890625,0.0001559699885547161,-0.0015177051536738873,-0.0044600870460271835
1761468584830918000,3.20291796875,0.0003166995011270046,-0.0015797002706676722,0.0005570692010223866
1761468584840900600,3.212900634765625,-0.0009568240493535995,-0.004509710241109133,0.0035398094914853573
1761468584850883800,3.2228837890625,-0.0028546759858727455,-0.0037919916212558746,0.00044969841837882996
1761468584860866800,3.23286669921875,0.00039837509393692017,0.0006480305455625057,0.0007809959352016449
1761468584870850800,3.242850830078125,-0.00018576811999082565,-0.0009163857903331518,-0.0017767874523997307
1761468584880833500,3.25283349609375,0.0001212945207953453,0.0008879059460014105,-0.0005064597353339195
1761468584890816800,3.262816650390625,0.0011456138454377651,0.0008448418229818344,-0.0009928904473781586
1761468584900799700,3.2727998046875,0.0011972789652645588,0.0047652809880673885,-0.0018799894023686647
1761468584910783700,3.28278369140625,-0.000676281750202179,0.006075619719922543,0.00011779088526964188
1761468584920766700,3.2927666015625,-0.002831045538187027,0.0009194733574986458,0.0006679999642074108
1761468584930749700,3.302749755859375,-0.0009253625757992268,0.00041593657806515694,0.0006186987739056349
1761468584940732700,3.312732666015625,0.000736982561647892,-0.001842157682403922,-0.000642840750515461
1761468584950716700,3.322716552734375,-0.0020759659819304943,-0.0034583364613354206,0.0004981262609362602
1761468584960700000,3.332699951171875,-0.0015236260369420052,-0.0017512503545731306,0.001649410929530859
1761468584970682600,3.3426826171875,0.0015268521383404732,-0.002803785726428032,-0.0004891348071396351
1761468584980665600,3.35266552734375,-0.000866797287017107,0.0037603736855089664,0.0017465888522565365
1761468584990649600,3.362649658203125,0.002670241054147482,-0.0033018363174051046,0.0009414737578481436
1761468585000632800,3.3726328125,0.0019613076001405716,-0.0014421509113162756,-0.0007973040919750929
1761468585010615800,3.38261572265625,-0.0007629594765603542,-0.0012730620801448822,0.0013554941397160292
1761468585020598500,3.3925986328125,0.00032920297235250473,-0.0026017131749540567,-0.00009832554496824741
1761468585030582800,3.402582763671875,-0.00009936140850186348,-0.0006938821170479059,-0.0012477731797844172
1761468585040565800,3.412565673828125,-0.0009659542702138424,0.0005578037817031145,0.00028700660914182663
1761468585050548700,3.422548828125,0.0001218956895172596,0.0022511868737637997,0.001270829001441598
1761468585060532000,3.432531982421875,0.00011523766443133354,-0.0009022620506584644,0.00028972048312425613
1761468585070515700,3.442515625,0.001042613759636879,-0.004703004844486713,-0.0009556245058774948
1761468585080498700,3.452498779296875,0.0003406046889722347,0.003293136367574334,-0.0007100810762494802
1761468585090481700,3.462481689453125,-0.0010666130110621452,0.001848703483119607,0.0011418033391237259
1761468585100465000,3.47246484375,-0.0006618127226829529,0.0006420251447707415,-0.00023212144151329994
1761468585110449200,3.48244921875,-0.000812026672065258,0.0009317772928625345,0.0022366498596966267
1761468585120432000,3.49243212890625,0.0007757502608001232,0.00013735610991716385,0.002484323922544718
1761468585130415000,3.5024150390625,0.0022265026345849037,-0.0025708992034196854,-0.0012071067467331886
1761468585140398300,3.5123984375,-0.002647348213940859,0.0007995972409844398,0.00036229402758181095
1761468585150382000,3.522382080078125,0.00023067276924848557,-0.005157153122127056,-0.0002581274602562189
1761468585160365000,3.532364990234375,-0.00007665576413273811,-0.0021951855160295963,0.0012723910622298717
1761468585170348300,3.542348388671875,0.00008038850501179695,0.0012509669177234173,-0.002551197074353695
1761468585180331300,3.552331298828125,-0.0010898043401539326,0.0016230102628469467,-0.000004149740561842918
1761468585190315300,3.562315185546875,-0.004050271585583687,-0.002998081035912037,-0.0013665498699992895
1761468585200298000,3.572298095703125,-0.0001063961535692215,0.0025916274171322584,0.001556003000587225
1761468585210281200,3.58228125,0.0008480902761220932,0.0003302323166280985,0.0011974892113357782
1761468585220264200,3.59226416015625,-0.0018134727142751217,0.0008985509630292654,-0.002068345434963703
1761468585230248200,3.602248291015625,0.0004715346731245518,0.0013990146107971668,-0.0018678144551813602
1761468585240231000,3.61223095703125,-0.0019263755530118942,0.0011404217220842838,-0.000182832358404994
1761468585250214100,3.622214111328125,-0.002135678194463253,0.0008330196142196655,-0.002045626752078533
1761468585260197000,3.632197021484375,0.0002095014788210392,-0.0020120355766266584,-0.000866645248606801
1761468585270181000,3.64218115234375,-0.000988059677183628,0.0032352078706026077,0.002642220351845026
1761468585280164400,3.652164306640625,0.0030077470000833273,-0.0022029667161405087,-0.000537593849003315
1761468585290147000,3.66214697265625,0.0011413129977881908,-0.0023926186840981245,-0.000053883297368884087
1761468585300130000,3.672130126953125,-0.0024329153820872307,-0.004250439815223217,0.000585541594773531
1761468585310114000,3.682114013671875,0.00011429749429225922,0.00008738203905522823,0.001384657109156251
1761468585320097300,3.69209716796875,0.00007008900865912437,-0.005230417940765619,-0.0003277554642409086
1761468585330080300,3.702080322265625,0.0019017914310097694,0.0042652552947402,0.00007222965359687805
1761468585340064000,3.71206396484375,0.00041201943531632423,0.001650564605370164,-0.0021824026480317116
1761468585350047200,3.722047119140625,-0.0005801161751151085,0.004033504985272884,0.001289796782657504
1761468585360030200,3.7320302734375,0.0032063662074506283,0.004428185056895018,-0.00019784504547715187
1761468585370013200,3.74201318359375,-0.0008902172558009624,-0.00007805111818015575,-0.002398379147052765
1761468585379997200,3.7519970703125,0.00015001371502876282,0.001688157208263874,-0.0007733181118965149
1761468585389980200,3.761980224609375,0.0017307400703430176,0.002273391466587782,-0.0008014712948352098
1761468585399963100,3.771963134765625,-0.0030432422645390034,0.00026430259458720684,-0.0004701742436736822
1761468585409946000,3.781946044921875,0.0002514696680009365,-0.001802476472221315,-0.0004135298077017069
1761468585419930000,3.79193017578125,-0.00030406611040234566,-0.0003406673204153776,0.0013851691037416458
1761468585429913000,3.8019130859375,-0.0008572018705308437,0.0023097535595297813,0.0004541231319308281
1761468585439896000,3.81189599609375,0.0008120676502585411,-0.0022208159789443016,0.0016104676760733128
1761468585449879300,3.82187939453125,-0.0005225115455687046,-0.002265398856252432,-0.0033481428399682045
1761468585459863300,3.83186328125,0.0005475468933582306,-0.0012406145688146353,0.0016277073882520199
1761468585469846300,3.84184619140625,0.0013377820141613483,0.0016873297281563282,0.0010224219877272844
1761468585479829000,3.8518291015625,-0.0008606575429439545,0.0037627313286066055,-0.0026087979786098003
1761468585489812200,3.861812255859375,0.0003025522455573082,0.0032487697899341583,0.000144843477755785
1761468585499796200,3.871796142578125,0.0009603532962501049,-0.0019209586316719651,-0.0009997831657528877
1761468585509779200,3.881779296875,-0.0027766404673457146,0.0033284418750554323,-0.0013743871822953224
1761468585519762000,3.891761962890625,0.0009925318881869316,-0.0015555291902273893,-0.0006779704708606005
1761468585529745200,3.9017451171875,-0.0006845551542937756,0.0023199524730443954,0.00009979959577322006
1761468585539729200,3.911729248046875,-0.0010304995812475681,-0.0006161823403090239,-0.0021732086315751076
1761468585549712100,3.921712158203125,0.00044019101187586784,-0.0005385540425777435,0.00029519572854042053
1761468585559695400,3.9316953125,-0.001180076040327549,0.00040979753248393536,0.0022174655459821224
1761468585569678000,3.941677978515625,0.0020723079796880484,-0.0018350081518292427,0.0013699757400900126
1761468585579662000,3.951662109375,0.0007428578101098537,-0.0061450679786503315,-0.0009712092578411102
1761468585589645000,3.96164501953125,0.001929071731865406,-0.0010474559385329485,0.0015418604016304016
1761468585599628300,3.971628173828125,0.0011453032493591309,-0.004777745809406042,0.0006462391465902328
1761468585609611000,3.981611083984375,-0.0012890836223959923,0.00039473362267017365,0.0025319410488009453
1761468585619595000,3.991594970703125,-0.0006885407492518425,-0.0006955643184483051,-0.0014236521674320102
1761468585629578200,4.001578125,-0.0017906990833580494,-0.005266111344099045,-0.003707331605255604
1761468585639559200,4.01155908203125,-0.0005507315509021282,0.002300461521372199,0.002246431540697813
1761468585649543200,4.021543212890625,-0.0013365070335566998,0.0020301216281950474,-0.0005000075325369835
1761468585659526100,4.031526123046875,-0.002042777370661497,0.0007185149006545544,-0.001968208234757185
1761468585669509000,4.041509033203125,0.0011252118274569511,0.004070147406309843,0.0007881282363086939
1761468585679492400,4.051492431640625,0.0005875197239220142,0.0005707535892724991,0.00045789615251123905
1761468585689476400,4.061476318359375,-0.0010759755969047546,-0.000499773072078824,-0.0008497172966599464
1761468585699459000,4.071458984375,0.0018843943253159523,0.0001268687192350626,0.0005734758451581001
1761468585709442000,4.081442138671875,-0.0013905824162065983,-0.0012100818566977978,-0.000770999351516366
1761468585719426000,4.091426025390625,-0.00010906904935836792,-0.0020298026502132416,-0.0004631378687918186
1761468585729409300,4.1014091796875,-0.0003971923142671585,-0.0049547236412763596,-0.00010880478657782078
1761468585739392000,4.11139208984375,-0.0014171828515827656,-0.007165946066379547,-0.0009458363056182861
1761468585749375200,4.121375244140625,-0.00257988553494215,-0.0030797498766332865,0.00014946726150810719
1761468585759359200,4.131359130859375,-0.0009023603051900864,0.0020289921667426825,0.0014525516889989376
1761468585769342200,4.14134228515625,-0.00017195940017700195,-0.0030220230109989643,0.00035085692070424557
1761468585779325200,4.1513251953125,0.00022405246272683144,-0.0009700574446469545,0.000053382012993097305
1761468585789308200,4.16130810546875,0.0014014574699103832,-0.007926522754132748,-0.00192347913980484
1761468585799292200,4.171292236328125,-0.0026611946523189545,0.006574123166501522,0.0024294573813676834
1761468585809275100,4.181275146484375,-0.0012710136361420155,-0.001525969710201025,0.0015476532280445099
1761468585819258000,4.191258056640625,-0.001619621179997921,0.004446168430149555,-0.0008627737406641245
1761468585829241000,4.201240966796875,0.0006818650290369987,-0.00004846113733947277,-0.000015130965039134026
1761468585839225000,4.21122509765625,-0.0003133579157292843,0.0018809991888701916,0.002614207798615098
1761468585849208000,4.2212080078125,-0.002387254498898983,0.001029665581882,-0.0005540961865335703
1761468585859191300,4.23119140625,0.0009353049099445343,0.00034816283732652664,-0.0021954025141894817
1761468585869174300,4.24117431640625,-0.0014985785819590092,0.0013224766589701176,0.0009903584141284227
1761468585879158300,4.251158203125,0.0011006668210029602,0.003880443051457405,0.00004333839751780033
1761468585889141000,4.26114111328125,0.00039927056059241295,-0.001195261487737298,-0.0010771858505904675
1761468585899124200,4.271124267578125,-0.004949422553181648,-0.0036355159245431423,0.0000245638657361269
1761468585909107200,4.281107177734375,0.00023789284750819206,0.0014344658702611923,0.003006958868354559
1761468585919091200,4.29109130859375,0.0020541686099022627,-0.003957369830459356,0.00030038831755518913
1761468585929074200,4.30107421875,0.0010691238567233086,0.0027634992729872465,0.0002456195652484894
1761468585939057200,4.31105712890625,0.0016038864850997925,0.0020553648937493563,0.003106919815763831
1761468585949040000,4.3210400390625,0.002449135994538665,-0.013649164699018002,-0.0011992871295660734
1761468585959024000,4.331024169921875,0.0005002347752451897,0.0003686503041535616,0.004577908664941788
1761468585969007400,4.34100732421875,0.00026265252381563187,-0.003949567675590515,-0.0007873328868299723
1761468585978990000,4.350989990234375,-0.0010084742680191994,0.0007242800202220678,0.0018491968512535095
1761468585988974000,4.36097412109375,0.001152164302766323,0.0021671922877430916,0.0019451160915195942
1761468585998957000,4.37095703125,0.00007065478712320328,0.00031656166538596153,-0.0010986104607582092
1761468586008940300,4.380940185546875,0.00009322399273514748,0.0009593875147402287,0.0008137780241668224
1761468586018923000,4.390923095703125,0.0009976336732506752,0.004121092613786459,-0.0016613639891147614
1761468586028907000,4.400906982421875,-0.0005992474034428596,0.003082293551415205,-0.0019596745260059834
1761468586038890200,4.41089013671875,0.00046468572691082954,-0.0010064574889838696,-0.0009564617648720741
1761468586048873200,4.420873291015625,0.0002811490558087826,-0.0021388987079262733,-0.0000951176043599844
1761468586058856200,4.430856201171875,-0.001989461947232485,0.00044330209493637085,-0.0014855540357530117
1761468586068840200,4.440840087890625,0.00294876960106194,0.002138628391548991,0.0002749750856310129
1761468586078823200,4.4508232421875,0.0004382077604532242,-0.002520838286727667,0.0006992164999246597
1761468586088806100,4.46080615234375,0.0005817948840558529,-0.0026064706034958363,-0.001229495625011623
1761468586098789000,4.4707890625,0.0009003086015582085,-0.0001941791269928217,-0.00005291099660098553
1761468586108773000,4.480773193359375,-0.0023567834869027138,-0.00026525696739554405,0.00016694655641913414
1761468586118755800,4.490755859375,0.0004299483262002468,-0.0003576686140149832,-0.0007547736167907715
1761468586128738800,4.50073876953125,-0.00017650611698627472,-0.004021461587399244,-0.0003609149716794491
1761468586138722000,4.51072216796875,0.00012256670743227005,-0.0016925270901992917,-0.0001854125875979662
1761468586148706000,4.5207060546875,0.0015248525887727737,0.0010513956658542156,-0.0027930971700698137
1761468586158689000,4.53068896484375,0.0018793195486068726,0.0006900043226778507,0.00020775268785655499
1761468586168671700,4.540671630859375,0.0009713098406791687,-0.00012238835915923119,-0.001841660006903112
1761468586178655000,4.550655029296875,0.001637898851186037,0.0046859486028552055,0.000508579658344388
1761468586188639000,4.560638916015625,-0.0015899809077382088,-0.002698680851608515,0.00004836707375943661
1761468586198622000,4.5706220703125,0.0022479004692286253,0.0018830213230103254,0.0010931254364550114
1761468586208605000,4.58060498046875,-0.0016202195547521114,-0.002457995433360338,0.0002529758494347334
1761468586218588000,4.590587890625,0.00036197155714035034,-0.001327217323705554,0.0005443256814032793
1761468586228573000,4.600572998046875,0.0013282331638038158,0.001932196319103241,-0.00040896679274737835
1761468586238556000,4.610555908203125,-0.0007061553187668324,-0.001220986247062683,-0.0024566713254898787
1761468586248539000,4.620538818359375,0.00048569682985544205,0.0012072341050952673,-0.00013197935186326504
1761468586258521900,4.63052197265625,-0.00024134619161486626,-0.0029733963310718536,0.00043394253589212894
1761468586268505900,4.640505859375,-0.002678836230188608,-0.00408530980348587,-0.0024221190251410007
1761468586278488800,4.65048876953125,0.0012948662042617798,-0.003818460740149021,0.0007840609177947044
1761468586288472000,4.66047216796875,0.0010977019555866718,-0.0017623326275497675,0.0012786462903022766
1761468586298455000,4.670455078125,-0.0013726460747420788,-0.0009436770342290401,0.0009476151317358017
1761468586308439000,4.68043896484375,0.0016830000095069408,0.0028807208873331547,0.002462118398398161
1761468586318421800,4.690421875,-0.0011303629726171494,0.0005414001643657684,-0.00029558478854596615
1761468586328405000,4.700405029296875,0.0012077195569872856,0.0008621478918939829,0.0018066787160933018
1761468586338389000,4.710388916015625,0.0012862826697528362,0.00030315062031149864,-0.0005685947835445404
1761468586348372000,4.7203720703125,0.00048285583034157753,-0.00039185467176139355,-0.0004050636198371649
1761468586358354700,4.730354736328125,0.0009731436148285866,-0.0006866664625704288,0.0014402407687157393
1761468586368338000,4.740337890625,-0.000036529265344142914,-0.0019151197047904134,-0.0035439433995634317
1761468586378322000,4.750322021484375,0.0009533679112792015,-0.005567378830164671,-0.001872809836640954
1761468586388305000,4.760304931640625,-0.0010273568332195282,0.005497995764017105,0.00412193825468421
1761468586398288100,4.7702880859375,-0.0010918057523667812,-0.005793008022010326,0.0004025676753371954
1761468586408270800,4.780270751953125,0.0014432142488658428,0.0010929915588349104,-0.0002647100482136011
1761468586418254800,4.7902548828125,0.0016544032841920853,-0.0051441313698887825,-0.0014652630779892206
1761468586428237800,4.80023779296875,-0.000512201339006424,0.003937714733183384,0.003268849803134799
1761468586438221000,4.810220947265625,-0.000012592412531375885,0.0003554972354322672,0.0010839926544576883
1761468586448203800,4.820203857421875,-0.0009085065685212612,-0.0007545500993728638,0.00004207715392112732
1761468586458187800,4.830187744140625,0.00195572292432189,-0.0014642826281487942,-0.0007510122377425432
1761468586468171000,4.8401708984375,-0.00047610700130462646,0.0023308948148041964,-0.0007497495971620083
1761468586478154000,4.850154052734375,0.0014450973831117153,-0.005441008135676384,0.0010191218461841345
1761468586488137000,4.860136962890625,0.0010586217977106571,-0.002239926252514124,-0.00005870102904736996
1761468586498120700,4.87012060546875,-0.0022373059764504433,0.0021692034788429737,-0.002983118174597621
1761468586508104000,4.88010400390625,-0.0013004285283386707,0.006999976933002472,0.002277079503983259
1761468586518087000,4.8900869140625,0.0039574503898620605,0.000890152296051383,-0.004329157993197441
1761468586528070000,4.90006982421875,0.0005480288527905941,0.007423584349453449,0.00022701476700603962
1761468586538054000,4.910053955078125,0.002000250853598118,-0.002795763313770294,-0.0006992325652390718
1761468586548036900,4.920036865234375,0.00217131688259542,0.004163149744272232,0.0009120630566030741
1761468586558019800,4.930019775390625,-0.0029424852691590786,0.00029224506579339504,0.0016502912621945143
1761468586568002800,4.9400029296875,-0.0005319593474268913,-0.006018439307808876,0.0013002085033804178
1761468586577987000,4.949987060546875,-0.0012635295279324055,-0.0010247461032122374,0.0004759603179991245
1761468586587970000,4.959969970703125,-0.0013310210779309273,-0.002391459885984659,0.000818614149466157
1761468586597952800,4.969952880859375,0.0008399877697229385,-0.0023927916772663593,-0.0011105795856565237
1761468586607936000,4.97993603515625,0.0010546958073973656,-0.0042146313935518265,-0.003629890503361821
1761468586617920000,4.989919921875,0.0012911846861243248,0.00034310249611735344,0.00027536903508007526
1761468586627903000,4.999903076171875,0.0012550707906484604,-0.0055555240251123905,0.00032363482750952244
1761468586637885700,5.0098857421875,-0.0007404359057545662,0.0032925622072070837,0.00032390118576586246
1761468586647870000,5.019869873046875,0.0006383997388184071,0.000766329001635313,0.000047447625547647476
1761468586657853000,5.02985302734375,-0.0012681572698056698,0.003717644140124321,-0.001233532908372581
1761468586667836000,5.0398359375,0.00011623324826359749,0.0010400027967989445,-0.0004811196122318506
1761468586677819100,5.049819091796875,0.0017210543155670166,0.001421633642166853,0.00046243821270763874
1761468586687803000,5.059802978515625,0.000314903911203146,-0.0005815757904201746,0.0007746934425085783
1761468586697785900,5.069785888671875,-0.000253947451710701,-0.0006721231620758772,0.0005312806461006403
1761468586707768800,5.079768798828125,0.00039825402200222015,0.00026484206318855286,0.00013806112110614777
1761468586717752000,5.089751953125,-0.0012712818570435047,0.0017013510223478079,-0.00035009649582207203
1761468586727736000,5.099736083984375,0.002282320288941264,0.00016148388385772705,-0.0011956768576055765
1761468586737718800,5.10971875,-0.000491628423333168,-0.0014649084769189358,0.00012711528688669205
1761468586747701800,5.11970166015625,-0.0009457827545702457,-0.0009956459980458021,0.0015590800903737545
1761468586757685000,5.12968505859375,0.00016315747052431107,0.0025322434958070517,0.0010094032622873783
1761468586767669000,5.1396689453125,0.0006040958687663078,-0.0014367857947945595,0.001247714040800929
1761468586777651700,5.149651611328125,0.001028869766741991,-0.0015001690480858088,-0.0016242391429841518
1761468586787635000,5.159635009765625,-0.0006879838183522224,0.0014144922606647015,0.0004096166230738163
1761468586797618000,5.169617919921875,-0.00019849464297294617,-0.003247370943427086,0.0013435871805995703
1761468586807602000,5.179601806640625,-0.0015535186976194382,0.0007078985217958689,-0.00005201506428420544
1761468586817585000,5.1895849609375,0.0010627703741192818,0.0017814186867326498,0.001338687725365162
1761468586827567900,5.19956787109375,0.0005499147810041904,-0.001111688558012247,-0.00084120430983603
1761468586837550800,5.20955078125,0.00021009519696235657,0.00469400268048048,-0.0002185571938753128
1761468586847534800,5.219534912109375,-0.0009681079536676407,-0.0020194021053612232,0.00010447506792843342
1761468586857518000,5.22951806640625,0.0001304461620748043,0.004861406981945038,-0.0003490613307803869
1761468586867501000,5.2395009765625,-0.00013930676504969597,-0.000921020982787013,-0.002515199827030301
1761468586877483800,5.24948388671875,0.0002116980031132698,-0.0007082344964146614,-0.0000557703897356987
1761468586887467800,5.2594677734375,0.0019789226353168488,-0.0021652919240295887,-0.00017614290118217468
1761468586897451000,5.269450927734375,-0.00207360927015543,-0.0008347765542566776,0.0020212309900671244
1761468586907434000,5.27943408203125,-0.002067056018859148,-0.0025909016840159893,0.0011346729006618261
1761468586917416700,5.289416748046875,-0.0006752880290150642,0.0008259336464107037,0.0009045756887644529
1761468586927400700,5.299400634765625,0.0014636609703302383,0.0015049031935632229,-0.0014452107716351748
1761468586937384000,5.309384033203125,-0.0008322503417730331,0.002590673975646496,-0.0010230997577309608
1761468586947367000,5.319366943359375,-0.0005426080897450447,0.002088775858283043,-0.0019828141666948795
1761468586957350000,5.329349853515625,-0.0006462051533162594,0.0018576132133603096,-0.003513865638524294
1761468586967334000,5.339333984375,-0.0010909298434853554,0.0007139586377888918,-0.001268936786800623
1761468586977316900,5.34931689453125,0.000936534721404314,0.00445729773491621,0.0027076953556388617
1761468586987299800,5.3592998046875,0.00005822163075208664,-0.0025273016653954983,-0.0015240533975884318
1761468586997283000,5.369282958984375,-0.000028064940124750137,0.001996077597141266,0.001638184068724513
1761468587007267000,5.37926708984375,-0.002578229643404484,-0.0017491196049377322,0.0013523218221962452
1761468587017249800,5.389249755859375,0.0018399548716843128,-0.004142235964536667,-0.0014442637329921126
1761468587027232800,5.399232666015625,-0.0008157966658473015,0.0014954181388020515,0.00290099554695189
1761468587037216000,5.409216064453125,0.000631098635494709,-0.001127262832596898,-0.003504173131659627
1761468587047200000,5.419199951171875,0.0026831666473299265,-0.0009401061106473207,0.001205820357427001
1761468587057182700,5.4291826171875,-0.002986170817166567,0.0022884442005306482,-0.00023388443514704704
1761468587067166000,5.439166015625,-0.0009390697814524174,0.0020598256960511208,-0.001075125765055418
1761468587077150000,5.44914990234375,-0.0016109850257635117,0.000029165297746658325,-0.0011970986379310489
1761468587087133000,5.4591328125,0.002147602615877986,0.001084229676052928,0.0011143963783979416
1761468587097116000,5.469115966796875,0.002161184558644891,-0.0031989323906600475,0.0014709937386214733
1761468587107099000,5.479098876953125,-0.00024964334443211555,0.004597675055265427,0.0024711338337510824
1761468587117083000,5.489082763671875,0.0016427990049123764,-0.0019329283386468887,-0.0020293421112000942
1761468587127065900,5.49906591796875,0.0017810831777751446,0.005144501104950905,-0.0012278100475668907
1761468587137048800,5.509048828125,-0.0007515833713114262,0.0017199423164129257,-0.00007972121238708496
1761468587147031800,5.51903173828125,0.0026169412303715944,0.0032498857472091913,0.0036130347289144993
1761468587157015800,5.529015869140625,-0.0009341179393231869,0.0011332056019455194,0.003138459287583828
1761468587166998800,5.538998779296875,-0.000548727810382843,-0.0020449315197765827,0.002472096821293235
1761468587176982000,5.54898193359375,-0.0003561815246939659,0.001661922549828887,-0.001007056562229991
1761468587186964700,5.55896484375,0.00024128425866365433,-0.0023579043336212635,-0.0025146910920739174
1761468587196948700,5.56894873046875,0.00016591697931289673,-0.002593860263004899,-0.0014744603540748358
1761468587206931700,5.578931640625,-0.0009102514013648033,0.001387869706377387,0.0015256903134286404
1761468587216915000,5.5889150390625,-0.0009805592708289623,0.001088796416297555,-0.000992062035948038
1761468587226898000,5.59889794921875,0.0012057744897902012,0.0010128698777407408,-0.0022289834450930357
1761468587236882000,5.6088818359375,-0.0028483555652201176,0.00034388364292681217,0.00012604985386133194
1761468587246865000,5.618864990234375,0.0008638547733426094,-0.0012895374093204737,-0.003918913658708334
1761468587256848000,5.628847900390625,-0.0007252534851431847,0.0032080088276416063,-0.0007217889651656151
1761468587266830800,5.638830810546875,-0.001319614239037037,-0.0008658971637487411,0.00027456600219011307
1761468587276814800,5.64881494140625,0.002910550916567445,-0.0013849472161382437,-0.00024208729155361652
1761468587286797800,5.6587978515625,-0.00020299479365348816,-0.0008059723768383265,-0.0021743234246969223
1761468587296780800,5.66878076171875,-0.00019473908469080925,-0.0021830929908901453,0.00026193633675575256
1761468587306763800,5.678763671875,0.0007303915917873383,0.005692285019904375,0.00029198406264185905
1761468587316747800,5.688747802734375,0.0019477223977446556,0.0012285606935620308,-0.0009450542274862528
1761468587326731000,5.69873095703125,-0.0016172872856259346,-0.0003629722632467747,0.0008162166923284531
1761468587336713700,5.708713623046875,-0.00009875278919935226,-0.004569435492157936,0.00015442096628248692
1761468587346697000,5.718697021484375,-0.0018457453697919846,0.000030070310458540916,0.0013730237260460854
1761468587356681000,5.728680908203125,0.001196916215121746,-0.0012328005395829678,-0.0009154302533715963
1761468587366664000,5.738663818359375,-0.002198194619268179,-0.001865634461864829,0.000788829755038023
1761468587376646700,5.748646728515625,-0.00031347526237368584,-0.0001721302978694439,0.0012114732526242733
1761468587386630000,5.7586298828125,0.00038327276706695557,0.0019132976885885,-0.0022201016545295715
1761468587396614000,5.76861376953125,-0.0005490998737514019,-0.00008939928375184536,-0.002015837235376239
1761468587406596900,5.778596923828125,0.001596913207322359,0.003309928812086582,0.0007525552064180374
1761468587416579800,5.788579833984375,0.00025547901168465614,-0.0006099781021475792,-0.0008048615418374538
1761468587426562800,5.798562744140625,-0.0003385930322110653,0.001634544925764203,0.002047477988526225
1761468587436546800,5.808546875,-0.0008251527324318886,0.0018017913680523634,0.0006842056754976511
1761468587446529800,5.81852978515625,0.0009208079427480698,-0.004985168110579252,-0.0019518694607540965
1761468587456513000,5.828512939453125,0.0006022937595844269,0.0014072174672037363,0.0014391334261745214
1761468587466495700,5.838495849609375,-0.002493814565241337,-0.0033765521366149187,0.00009941332973539829
1761468587476479700,5.848479736328125,0.0009326082654297352,-0.002252964535728097,-0.00018341443501412868
1761468587486462700,5.858462646484375,-0.00015817442908883095,-0.0021526822820305824,0.001244531711563468
1761468587496446000,5.868446044921875,-0.0021392996422946453,0.0009696078486740589,-0.0009206179529428482
1761468587506429000,5.878428955078125,-0.000581077765673399,-0.003187001682817936,-0.0005851038731634617
1761468587516413000,5.888412841796875,0.00014916108921170235,-0.005092759616672993,-0.0028719601687043905
1761468587526396000,5.89839599609375,0.0007318849675357342,-0.0018386567244306207,0.0011822760570794344
1761468587536379000,5.90837890625,0.002073319163173437,-0.00014222320169210434,0.0004989088047295809
1761468587546361900,5.91836181640625,0.00006396742537617683,-0.00041313283145427704,0.0008404077962040901
1761468587556345900,5.928345947265625,0.00025331834331154823,-0.0009044860489666462,-0.001156430458649993
1761468587566328800,5.938328857421875,-0.0001477501355111599,0.004264030605554581,0.0020597127731889486
1761468587576311800,5.948311767578125,0.0002890084870159626,0.0021785099525004625,-0.00040424359031021595
1761468587586294800,5.958294677734375,-0.000006861519068479538,0.006544999312609434,0.002466808771714568
1761468587596278800,5.96827880859375,0.0004466744139790535,0.0004588770680129528,0.0010374898556619883
1761468587606262000,5.978261962890625,0.0006787790916860104,0.0009454037062823772,-0.0000030673108994960785
1761468587616244700,5.98824462890625,-0.0004890169948339462,-0.000012535369023680687,0.000509058590978384
1761468587626228000,5.99822802734375,-0.0016969488933682442,0.00031966064125299454,-0.000016158446669578552
1761468587636212000,6.0082119140625,-0.00031689880415797234,-0.002487577497959137,-0.0032292623072862625
1761468587646195000,6.01819482421875,0.0006766598671674728,0.0010535621549934149,-0.0020871316082775593
1761468587656177700,6.028177734375,-0.00013906648382544518,-0.0028780626598745584,-0.00250578043051064
1761468587666161000,6.038160888671875,0.001010233536362648,-0.0020952385384589434,0.0005652043037116528
1761468587676145000,6.048144775390625,0.0016123740933835506,-0.0002800279762595892,-0.0012201789068058133
1761468587686127900,6.0581279296875,-0.0014122743159532547,0.0021920448634773493,0.0007992465980350971
1761468587696110800,6.06811083984375,-0.00014833826571702957,-0.000561397522687912,0.000014413148164749146
1761468587706093800,6.07809375,0.0008477363735437393,0.0008501599077135324,-0.0010669133625924587
1761468587716077800,6.088077880859375,0.00018221279606223106,0.0017298019956797361,-0.0022690643090754747
1761468587726060800,6.098060791015625,0.0030658936593681574,0.0032440938521176577,-0.001006720820441842
1761468587736044000,6.1080439453125,-0.00033176736906170845,0.009638343937695026,0.0013690851628780365
1761468587746026800,6.11802685546875,0.00034892046824097633,0.0023137701209634542,-0.003954682964831591
1761468587756009700,6.128009765625,-0.0003885086625814438,0.0017324017826467752,-0.0004382450133562088
1761468587765993700,6.13799365234375,-0.0001350976526737213,-0.002019006758928299,-0.0008113188669085503
1761468587775977000,6.14797705078125,0.0023128800094127655,0.004773917607963085,-0.0001966613344848156
1761468587785960000,6.1579599609375,-0.0008630449883639812,-0.0004059034399688244,0.00037224823608994484
1761468587795942700,6.167942626953125,-0.0007639750838279724,0.00013391929678618908,0.000175973167642951
1761468587805927000,6.177927001953125,-0.0017567952163517475,0.0004626868758350611,0.000597663689404726
1761468587815910000,6.187909912109375,-0.0008068457245826721,0.00012366636656224728,0.00021416856907308102
1761468587825892900,6.197892822265625,0.0010585240088403225,0.0032393517903983593,-0.0001732143573462963
1761468587835875800,6.207875732421875,-0.0018714857287704945,-0.00024326425045728683,-0.00016336049884557724
1761468587845859800,6.21785986328125,-0.00040808552876114845,-0.00037153344601392746,0.00004206225275993347
1761468587855842800,6.2278427734375,0.002127243671566248,0.0025262520648539066,0.00045112380757927895
1761468587865825800,6.23782568359375,-0.002000079955905676,-0.005864052101969719,-0.0013278318801894784
1761468587875809000,6.24780908203125,0.0005040909163653851,0.0006649533752351999,0.0032488105352967978
1761468587885793000,6.25779296875,0.0006307708099484444,0.00019586412236094475,0.0006272213067859411
1761468587895775700,6.267775634765625,0.0001798979938030243,0.0028092244174331427,0.0008381437510251999
1761468587905759000,6.277759033203125,0.0031056746374815702,-0.002761454088613391,-0.0007823612540960312
1761468587915742000,6.287741943359375,-0.00023153237998485565,0.006667733658105135,-0.0001405396033078432
1761468587925726000,6.297725830078125,-0.000729984138160944,-0.000680155586451292,-0.0012715131742879748
1761468587935708700,6.307708740234375,0.0002207644283771515,0.0021963247563689947,-0.0004653744399547577
1761468587945692000,6.31769189453125,-0.0012961272150278091,0.0006439147982746363,-0.0022230236791074276
1761468587955675000,6.3276748046875,0.0011393334716558456,0.0008772073779255152,-0.0021876036189496517
1761468587965659000,6.337658935546875,-0.0012842575088143349,-0.0017620500875636935,-0.00302601489238441
1761468587975641900,6.347641845703125,-0.0008315201848745346,0.00005529099144041538,-0.0021226706448942423
1761468587985624800,6.357624755859375,0.0025835426058620214,-0.0003254625480622053,0.00003767106682062149
1761468587995607800,6.36760791015625,0.0004897653125226498,0.000008231494575738907,0.0005980001296848059
1761468588005591800,6.377591796875,0.0011297976598143578,-0.001285969978198409,-0.0022500455379486084
1761468588015575000,6.387574951171875,-0.0006561181508004665,0.00025600031949579716,0.0034832076635211706
1761468588025557800,6.397557861328125,-0.000051341019570827484,-0.0023207131307572126,-0.001241515390574932
1761468588035540700,6.407540771484375,0.0008482751436531544,0.002659131772816181,0.001511127920821309
1761468588045524700,6.417524658203125,-0.0010059154592454433,0.0017501518595963717,-0.0008569969795644283
1761468588055508000,6.427508056640625,-0.0011385409161448479,0.002245499985292554,-0.00000904640182852745
1761468588065491000,6.437490966796875,0.00009867921471595764,-0.0009170968551188707,-0.0010703851003199816
1761468588075473700,6.4474736328125,-0.0005713719874620438,0.002128494204953313,0.0006380327977240086
1761468588085457000,6.457456787109375,0.0007141525857150555,-0.00041342643089592457,-0.000055220676586031914
1761468588095441000,6.46744091796875,-0.0008842763490974903,-0.002634502714499831,-0.0010858639143407345
1761468588105424000,6.477423828125,0.0008674236014485359,0.004329795949161053,0.0010213395580649376
1761468588115406800,6.48740673828125,-0.0008641639724373817,0.0044957110658288,0.0003291838802397251
1761468588125389800,6.497389892578125,-0.002044780645519495,-0.0017668437212705612,-0.0021056332625448704
1761468588135373800,6.507373779296875,0.00006098020821809769,0.0006294685881584883,-0.0008424960542470217
1761468588145356800,6.517356689453125,0.0021187150850892067,0.0019384121987968683,-0.0007580737583339214
1761468588155340000,6.527340087890625,0.0010619726963341236,0.0016635742504149675,0.001629450125619769
1761468588165322800,6.53732275390625,0.002396101364865899,-0.0023832167498767376,0.0009559877216815948
1761468588175306800,6.547306640625,-0.001481461338698864,-0.0008055600337684155,-0.00006746524013578892
1761468588185290000,6.5572900390625,0.0003147735260426998,0.00448113027960062,0.0034077204763889313
1761468588195273000,6.56727294921875,0.001895359717309475,-0.0018025980098173022,0.00014534802176058292
1761468588205255700,6.577255615234375,-0.0009333598427474499,-0.0011514020152390003,-0.0005662215407937765
1761468588215239700,6.58723974609375,-0.000012438744306564331,-0.0020712579134851694,-0.0019982033409178257
1761468588225223000,6.597222900390625,-0.0010501053184270859,0.0017274899873882532,0.0032960560638457537
1761468588235206000,6.607205810546875,-0.002143333200365305,0.0008435866329818964,-0.0024659589398652315
1761468588245188900,6.61718896484375,-0.0016532903537154198,-0.0016973225865513086,0.0005002098623663187
1761468588255172900,6.6271728515625,-0.0008463524281978607,0.0038156870286911726,0.0006283079273998737
1761468588265155800,6.63715576171875,0.0007613026537001133,0.000009528826922178268,-0.0018560531316325068
1761468588275138800,6.647138916015625,-0.0008602961897850037,-0.007278744131326675,0.0028835744597017765
1761468588285121800,6.657121826171875,-0.0021282611414790154,0.00503914337605238,0.0013902380596846342
1761468588295106000,6.66710595703125,-0.0010342346504330635,0.007726273499429226,-0.0026391244027763605
1761468588305088800,6.6770888671875,0.0018726163543760777,-0.00006751762703061104,-0.0023864172399044037
1761468588315071700,6.68707177734375,0.001798846758902073,0.0019122764933854342,-0.00025748624466359615
1761468588325055000,6.697054931640625,0.0010030991397798061,-0.00758786778897047,-0.0023908934090286493
1761468588335039000,6.7070390625,0.00022492371499538422,0.002376349875703454,0.0014525807928293943
1761468588345022000,6.71702197265625,0.00034179724752902985,-0.003615424269810319,-0.0019052260322496295
1761468588355004700,6.727004638671875,0.0009806896559894085,0.0005367102567106485,0.00048735784366726875
1761468588364988000,6.73698779296875,-0.0011485181748867035,-0.002527256729081273,-0.0008343688677996397
1761468588374971000,6.746970947265625,-0.00023958133533596992,0.004346895031630993,0.0026469151489436626
1761468588384955000,6.756954833984375,-0.000034227967262268066,-0.0020758756436407566,0.00041956687346100807
1761468588394937900,6.766937744140625,-0.0017210743390023708,-0.0031744297593832016,-0.0010345189366489649
1761468588404920800,6.7769208984375,-0.002432818990200758,0.002010627882555127,-0.001945268944837153
1761468588414903800,6.78690380859375,0.001083885319530964,0.004438898526132107,-0.0022123840171843767
1761468588424887800,6.7968876953125,0.0021393795032054186,-0.006195055320858955,-0.0021556320134550333
1761468588434871000,6.80687109375,-0.003076687455177307,0.0056413644924759865,0.0017182021401822567
1761468588444853800,6.816853759765625,-0.0009166328236460686,0.0035325803328305483,0.002525071380659938
1761468588454836700,6.826836669921875,0.0027255064342170954,-0.0036632807459682226,0.0005452772602438927
1761468588464820700,6.83682080078125,-0.0000037509016692638397,0.006253726780414581,0.0022987956181168556
1761468588474804000,6.846803955078125,-0.002029617317020893,-0.008173948153853416,-0.0013047276297584176
1761468588484786700,6.85678662109375,0.0003665653057396412,-0.010328961536288261,0.004211935214698315
1761468588494770000,6.86677001953125,-0.0021112398244440556,-0.0014403949026018381,0.001067807199433446
1761468588504754000,6.87675390625,0.000011809170246124268,0.0022457411978393793,0.00012210081331431866
1761468588514737000,6.88673681640625,0.001053637359291315,-0.0059874216094613075,-0.003687018295750022
1761468588524719900,6.896719970703125,0.0003099455498158932,0.006129627116024494,0.002120081800967455
1761468588534702800,6.906702880859375,-0.00020244671031832695,0.005137067288160324,0.0015264633111655712
1761468588544685800,6.916685791015625,0.00022259214892983437,0.003392591141164303,-0.003410247154533863
1761468588554669800,6.926669921875,-0.0019532106816768646,-0.0017318634781986475,-0.0003619929775595665
1761468588564652800,6.93665283203125,0.0019851154647767544,0.0005214933771640062,0.0006409354973584414
1761468588574635800,6.9466357421875,0.0017552846111357212,0.0030765298288315535,-0.0010738738346844912
1761468588584618800,6.95661865234375,0.00003757001832127571,-0.0005266645457595587,-0.000976169016212225
1761468588594602800,6.966602783203125,-0.0016202479600906372,0.0023439570795744658,-0.002788183744996786
1761468588604586000,6.9765859375,0.001162250991910696,0.005837812088429928,0.0003852213267236948
1761468588614569000,6.98656884765625,-0.0018750843591988087,0.0035392383579164743,-0.00007630465552210808
1761468588624551700,6.9965517578125,-0.00008572638034820557,-0.005830214358866215,-0.000641549238935113
1761468588634535700,7.00653564453125,-0.000994396861642599,-0.00019549811258912086,-0.0013901636702939868
1761468588644519000,7.016518798828125,-0.0007898951880633831,0.0021814785432070494,-0.0015387582825496793
1761468588654502000,7.026501953125,-0.0007534096948802471,0.00007678219117224216,0.00012118997983634472
1761468588664484900,7.03648486328125,-0.0005855141207575798,-0.004485620651394129,-0.0003589070402085781
1761468588674468900,7.04646875,0.004049717914313078,-0.002811823971569538,0.0013937193434685469
1761468588684451800,7.056451904296875,0.00018325448036193848,0.002173046814277768,0.0011138219852000475
1761468588694434800,7.066434814453125,0.0018631764687597752,-0.001859245472587645,0.000017931219190359116
1761468588704418000,7.07641796875,-0.0007401816546916962,0.0001272771041840315,-0.0002416467759758234
1761468588714400800,7.08640087890625,-0.0004067537374794483,0.000488135265186429,-0.0011788130505010486
1761468588724384800,7.096384765625,-0.000573981087654829,0.001373716862872243,-0.00022209296002984047
1761468588734367700,7.10636767578125,-0.000006195157766342163,0.0023127475287765265,0.0002631349489092827
1761468588744351000,7.11635107421875,0.00028800033032894135,0.0030880505219101906,-0.00020693079568445683
1761468588754334000,7.126333984375,-0.0007679429836571217,0.0009958711452782154,0.0004210425540804863
1761468588764317700,7.136317626953125,-0.0008823052048683167,-0.0008351330179721117,0.0004937166813760996
1761468588774301000,7.146301025390625,-0.0025651571340858936,-0.004103098064661026,0.0009730856399983168
1761468588784284000,7.156283935546875,-0.001974761951714754,-0.0035173394717276096,0.0009468430653214455
1761468588794267000,7.166266845703125,-0.0004572928883135319,-0.000918627018108964,-0.00017354893498122692
1761468588804251000,7.1762509765625,0.0021798042580485344,0.000386309577152133,0.0018105364870280027
1761468588814233900,7.18623388671875,0.003630960825830698,-0.0001817427109926939,0.000047257402911782265
1761468588824216800,7.196216796875,0.0025325266178697348,0.0021258185151964426,0.001342355040833354
1761468588834199800,7.20619970703125,-0.0031051193363964558,-0.0004047174006700516,-0.0010291899088770151
1761468588844183800,7.216183837890625,0.000004225876182317734,-0.002268434502184391,0.0018734587356448174
1761468588854166800,7.226166748046875,-0.0011933976784348488,0.00034199608489871025,-0.00011432496830821037
1761468588864149800,7.236149658203125,-0.0021263794042170048,0.0027549932710826397,-0.0021145185455679893
1761468588874133000,7.246133056640625,0.002599133411422372,0.0025760289281606674,-0.0022375567350536585
1761468588884116000,7.256115966796875,0.00006025796756148338,0.0016258710529655218,-0.0027863222640007734
1761468588894100000,7.266099853515625,0.00006158975884318352,-0.00043914420530200005,-0.0010909539414569736
1761468588904082700,7.276082763671875,0.0026391034480184317,0.0024484882596880198,-0.0021210398990660906
1761468588914066000,7.28606591796875,-0.001567359548062086,0.0006910681258887053,0.0015525247436016798
1761468588924049000,7.296048828125,-0.0019210632890462875,-0.0058014411479234695,0.0005472202319651842
1761468588934033000,7.306032958984375,0.0001870952546596527,-0.003266378305852413,-0.0003609175328165293
1761468588944016000,7.316015869140625,0.0011035720817744732,0.0007546697743237019,0.00048253010027110577
1761468588953998800,7.325998779296875,0.0026023988611996174,0.0000017941929399967194,-0.00004371069371700287
1761468588963981800,7.33598193359375,-0.0009545660577714443,-0.002796607557684183,0.0003652579616755247
1761468588973965800,7.3459658203125,-0.00017479248344898224,-0.0024365480057895184,-0.0007127895951271057
1761468588983949000,7.355948974609375,0.0030211491975933313,0.000008571427315473557,-0.0015370086766779423
1761468588993931800,7.365931884765625,-0.001985593233257532,0.002281313296407461,-0.0018331521423533559
1761468589003914800,7.375914794921875,-0.00014872942119836807,0.0017720561008900404,0.0028506501112133265
1761468589013898000,7.38589794921875,0.00000413600355386734,0.0006050590891391039,-0.0010404945351183414
1761468589023882000,7.395882080078125,-0.001741860993206501,0.0022310451604425907,-0.0015668757259845734
1761468589033865000,7.405864990234375,0.0018089315854012966,0.0025759246200323105,0.00024354108609259129
1761468589043847700,7.41584765625,-0.002079241443425417,0.00012698606587946415,-0.0016828445950523019
1761468589053831000,7.425830810546875,-0.0009825518354773521,-0.00043733767233788967,-0.00007589324377477169
1761468589063815000,7.43581494140625,0.0013177613727748394,0.00028939289040863514,0.0008399398066103458
1761468589073798000,7.4457978515625,-0.0016292929649353027,-0.003271519672125578,-0.0010527689009904861
1761468589083780900,7.45578076171875,0.0009602466598153114,-0.002985425526276231,0.000726665835827589
1761468589093763800,7.465763916015625,-0.0008674808777868748,0.00037282053381204605,0.002355987671762705
1761468589103747800,7.475747802734375,-0.00013653049245476723,-0.004192420747131109,-0.0008434350602328777
1761468589113734400,7.485734375,0.0019844111520797014,-0.004775653127580881,0.002736120019108057
1761468589123717600,7.495717529296875,-0.0016468893736600876,-0.0015837900573387742,-0.00022090040147304535
1761468589133700400,7.505700439453125,0.001088975928723812,0.0022202692925930023,0.0014366507530212402
1761468589143683300,7.515683349609375,0.0003138156607747078,0.0029819803312420845,0.0009678017813712358
1761468589153667300,7.525667236328125,-0.0017594555392861366,-0.0006564301438629627,0.000695094233378768
1761468589163650600,7.535650634765625,0.0014490550383925438,0.0007096396293491125,-0.0012612291611731052
1761468589173633500,7.545633544921875,0.0007696826942265034,0.0004891299176961184,0.00199741474352777
1761468589183616500,7.555616455078125,-0.0007882225327193737,0.0020109752658754587,0.00014052190817892551
1761468589193600500,7.5656005859375,0.000940701924264431,0.0008021665271371603,-0.00025335955433547497
1761468589203583500,7.57558349609375,-0.0002396339550614357,0.0009155650623142719,0.00102576008066535
1761468589213566500,7.58556640625,0.001726311631500721,-0.0005012364126741886,-0.00017852126620709896
1761468589223549700,7.5955498046875,0.0017658695578575134,0.0012357744853943586,-0.000507257878780365
1761468589233532400,7.605532470703125,0.001116857398301363,-0.0014098095707595348,0.002724221907556057
1761468589243516400,7.615516357421875,0.00027980050072073936,-0.001919988077133894,-0.0011939452961087227
1761468589253499400,7.62549951171875,-0.004112816881388426,0.001350107602775097,-0.0015505425399169326
1761468589263482600,7.635482666015625,0.0021288285497576,-0.0006772945635020733,0.0010292003862559795
1761468589273465300,7.64546533203125,-0.0011830786243081093,-0.0013958155177533627,0.000419070478528738
1761468589283449300,7.655449462890625,-0.0006587808020412922,-0.00028848019428551197,0.0016236407682299614
1761468589293432600,7.6654326171875,0.0010733394883573055,0.0002460163086652756,0.00146518275141716
1761468589303415600,7.67541552734375,-0.001685266848653555,-0.001581673976033926,0.001031740801408887
1761468589313398500,7.6853984375,0.0003035818226635456,-0.0012498442083597183,-0.001286008395254612
1761468589323382300,7.69538232421875,0.0006045871414244175,0.0034951879642903805,0.0008939718827605247
1761468589333365500,7.705365478515625,0.001037617214024067,0.001233631744980812,0.0012361877597868443
1761468589343348500,7.715348388671875,0.0023979952093213797,0.001874024048447609,-0.002422499470412731
1761468589353331500,7.72533154296875,0.0005257930606603622,0.001101441215723753,0.002453482011333108
1761468589363314400,7.735314453125,-0.0019397865980863571,0.003805181011557579,-0.0008252272382378578
1761468589373298400,7.74529833984375,-0.0005416269414126873,-0.00040820613503456116,-0.001897415961138904
1761468589383281400,7.755281494140625,0.00018121534958481789,0.0013188670855015516,0.00264047016389668
1761468589393264600,7.7652646484375,0.00105180311948061,-0.003049782244488597,-0.0002828817814588547
1761468589403247600,7.77524755859375,-0.0006928867660462856,0.001053458545356989,0.001191471004858613
1761468589413231400,7.7852314453125,-0.001428718212991953,0.00013280403800308704,-0.0009212149307131767
1761468589423214300,7.79521435546875,0.001116815023124218,0.0018608036916702986,-0.000877016456797719
1761468589433197600,7.805197509765625,0.0011567622423171997,-0.000014594290405511856,0.0010694877710193396
1761468589443180500,7.8151806640625,-0.0007583159022033215,0.002400950761511922,-0.00007883948273956776
1761468589453163300,7.825163330078125,-0.0008866800926625729,-0.0028460093308240175,-0.0029401397332549095
1761468589463147500,7.8351474609375,-0.0006680763326585293,-0.0012821226846426725,-0.0019495849264785647
1761468589473130500,7.845130615234375,0.0015775011852383614,0.00014213589020073414,0.0015950826928019524
1761468589483113500,7.855113525390625,0.0014740736223757267,0.001264538150280714,-0.00038072792813181877
1761468589493096700,7.8650966796875,-0.00005537969991564751,0.0041410187259316444,0.000621685991063714
1761468589503080400,7.87508056640625,-0.0010228035971522331,0.0014859987422823906,0.00036949897184967995
1761468589513063400,7.8850634765625,-0.0027759624645113945,0.002372032031416893,-0.0017879277002066374
1761468589523046400,7.89504638671875,-0.0019239294342696667,-0.0020673321560025215,0.001470370450988412
1761468589533029600,7.905029541015625,-0.0005545318126678467,-0.00041457428596913815,0.0007449255790561438
1761468589543012400,7.915012451171875,0.0004715118557214737,-0.0022718561813235283,0.0008428520523011684
1761468589552996400,7.924996337890625,0.0015884414315223694,-0.00165799749083817,-0.001074357656762004
1761468589562979600,7.9349794921875,0.000546933151781559,0.002597771119326353,0.0015215124003589153
1761468589572962600,7.944962646484375,-0.0018123611807823181,-0.00015300791710615158,-0.0006636111065745354
1761468589582945500,7.954945556640625,0.0010115639306604862,-0.0017677416326478124,0.0035807618405669928
1761468589592929500,7.964929443359375,0.0006706793792545795,-0.0022348600905388594,0.00004408392123878002
1761468589602912500,7.97491259765625,0.0007310644723474979,0.00003984919749200344,-0.0014009466394782066
1761468589612895500,7.9848955078125,0.00030256202444434166,-0.0001942426897585392,0.0015929790679365396
1761468589622878500,7.99487841796875,-0.0026124101132154465,0.0023039840161800385,0.00011971662752330303
1761468589632861400,8.004861328125,0.0004694000817835331,-0.0006763595156371593,-0.000558856874704361
1761468589642844400,8.014844482421875,-0.0009403186850249767,-0.00020588468760252,-0.0008844335097819567
1761468589652827400,8.024827392578125,-0.000617010984569788,0.0008484607096761465,0.0009017486590892076
1761468589662810600,8.034810546875,0.0014267107471823692,0.0023311194963753223,-0.0004715558607131243
1761468589672793300,8.04479345703125,-0.0009775911457836628,-0.0010098160710185766,0.0013551064766943455
1761468589682777300,8.05477734375,-0.0016420804895460606,0.0015035744290798903,-0.0006252436432987452
1761468589692760600,8.064760498046875,0.0014602355659008026,-0.0006362756248563528,-0.0005472132470458746
1761468589702743600,8.07474365234375,-0.0006301049143075943,0.0007119204383343458,0.0013003356289118528
1761468589712726500,8.0847265625,-0.0013749911449849606,-0.0038556670770049095,0.00016076886095106602
1761468589722710300,8.094710205078124,0.000049042049795389175,-0.00038991007022559643,0.00023956503719091415
1761468589732693500,8.104693603515624,-0.0006756042130291462,0.000283336965367198,0.0012012324295938015
1761468589742676500,8.114676513671874,-0.00020475080236792564,0.000793772516772151,-0.0015518926084041595
1761468589752659500,8.124659423828126,-0.0010375212877988815,0.00014183088205754757,-0.0012019532732665539
1761468589762642400,8.134642333984376,-0.00009217765182256699,0.0007646533194929361,0.001108831726014614
1761468589772626400,8.14462646484375,0.0009736195206642151,-0.0008920994587242603,-0.0003093017730861902
1761468589782609400,8.154609375,0.0004857052117586136,0.00010273582302033901,-0.00010541104711592197
1761468589792592600,8.164592529296876,0.0003698575310409069,0.0009019505232572556,0.001677575521171093
1761468589802575600,8.17457568359375,-0.001983197405934334,-0.00151178112719208,-0.0022048538085073233
1761468589812559600,8.1845595703125,-0.0013235323131084442,-0.0007397306617349386,0.0009224964305758476
1761468589822542300,8.194542236328125,0.00034365803003311157,-0.00022417306900024414,0.0008178101852536201
1761468589832525600,8.204525634765625,-0.0028342921286821365,-0.0004801028408110142,-0.0022051441483199596
1761468589842508500,8.214508544921875,0.0010325904004275799,-0.0006319587118923664,-0.0007994018960744143
1761468589852491300,8.2244912109375,0.0020765496883541346,0.0026165652088820934,-0.00197598640806973
1761468589862475500,8.2344755859375,-0.0007961229421198368,0.002283290261402726,-0.0015636140014976263
1761468589872458500,8.24445849609375,0.002286219736561179,0.0004081584047526121,-0.00008342904038727283
1761468589882441500,8.25444140625,-0.00038762763142585754,0.0006370244082063437,-0.0009623959194868803
1761468589892424700,8.2644248046875,0.0003961403854191303,0.0011973532382398844,0.0003015403635799885
1761468589902408700,8.27440869140625,0.0029504429548978806,-0.0035712746903300285,0.0006654907483607531
1761468589912391400,8.284391357421875,-0.0021548368968069553,0.0011478466913104057,0.0008039751555770636
1761468589922374400,8.29437451171875,0.0008735745213925838,-0.00040124356746673584,0.0002557770349085331
1761468589932357600,8.304357666015624,-0.0006958260200917721,-0.0019157833885401487,0.0012909476645290852
1761468589942340400,8.31434033203125,-0.0006574592553079128,-0.00026045460253953934,0.000021591084077954292
1761468589952324400,8.324324462890624,0.0003516124561429024,-0.0012125347275286913,0.0008349202107638121
1761468589962307300,8.334307373046874,0.00011179177090525627,0.001996781211346388,0.0006283768452703953
1761468589972290600,8.34429052734375,-0.000004055444151163101,-0.0028072951827198267,0.0006824389565736055
1761468589982273500,8.3542734375,0.0011325431987643242,-0.0002217642031610012,-0.00006704241968691349
1761468589992257500,8.364257568359376,-0.0013521863147616386,0.0005750537384301424,0.0028635000344365835
1761468590002240500,8.374240478515626,0.002870956202968955,0.002057509496808052,0.001235889969393611
1761468590012223500,8.384223388671876,0.0007572053000330925,-0.00007701432332396507,0.00010378006845712662
1761468590022206500,8.39420654296875,0.0010328819043934345,0.0016132611781358719,-0.0018726792186498642
1761468590032189400,8.404189453125,0.0017266352660953999,0.0016401587054133415,-0.003556329756975174
1761468590042173400,8.41417333984375,-0.0008891182951629162,0.0008154904935508966,0.00031582568772137165
1761468590052156400,8.424156494140625,-0.00012079626321792603,0.002271174220368266,0.0012966678477823734
1761468590062139400,8.434139404296875,0.0005238363519310951,0.0003060051240026951,-0.00028012553229928017
1761468590072122600,8.44412255859375,0.0006420807912945747,0.0011073502246290445,0.0013864808715879917
1761468590082106600,8.454106689453125,0.0005839033983647823,0.00011645304039120674,-0.0009874694515019655
1761468590092089300,8.46408935546875,-0.0009993459098041058,-0.0024843900464475155,-0.000995459035038948
1761468590102072600,8.474072509765625,-0.0003386298194527626,-0.0023698252625763416,-0.0009650108404457569
1761468590112052000,8.484052001953126,0.0004009297117590904,-0.0014007010031491518,-0.0006238599307835102
1761468590122035000,8.494034912109376,-0.0006631710566580296,-0.0020361230708658695,0.0024459317792207003
1761468590132019000,8.50401904296875,0.00027985451743006706,-0.002442255150526762,-0.0007005929946899414
1761468590142002200,8.514002197265626,-0.000496936496347189,-0.0016449806280434132,-0.0009982744231820107
1761468590151985000,8.52398486328125,-0.002092436421662569,-0.0018399240216240287,0.00030747358687222004
1761468590161967900,8.5339677734375,0.0006639384664595127,0.001166120870038867,-0.0005029509775340557
1761468590171952000,8.5439521484375,-0.0017225202172994614,0.001703812973573804,0.00015777931548655033
1761468590181935000,8.55393505859375,0.0015290756709873676,0.000013598240911960602,0.00048549077473580837
1761468590191917800,8.563917724609375,0.0003564860671758652,-0.000080144964158535,0.0005118560511618853
1761468590201901000,8.573901123046875,-0.0003698691725730896,0.0011520832777023315,-0.0017533715581521392
1761468590211884000,8.583884033203125,0.0001443871296942234,0.0012226570397615433,-0.00034722243435680866
1761468590221868000,8.593867919921875,-0.002081945538520813,0.000280116917565465,0.002203935058787465
1761468590231852000,8.60385205078125,-0.0020049801096320152,0.0006753301713615656,-0.0013178291264921427
1761468590241834800,8.613834716796875,0.0003321017138659954,0.0007793947588652372,-0.00021145562641322613
1761468590251818000,8.62381787109375,-0.0001557893119752407,0.0012041691225022078,0.0002676472067832947
1761468590261801000,8.633801025390625,0.00017072586342692375,0.002491873688995838,-0.00016632280312478542
1761468590271785000,8.643784912109375,0.0005001588724553585,0.00009582797065377235,0.0035141657572239637
1761468590281768200,8.653768310546875,-0.0010981010273098946,0.026464592665433884,0.01159622985869646
1761468590291751000,8.6637509765625,0.002074256306514144,0.02403232641518116,0.011030307970941067
1761468590301734000,8.67373388671875,-0.00009557884186506271,0.010494181886315346,0.007809240370988846
1761468590311717000,8.683717041015624,0.0007270714268088341,0.018805908039212227,0.006360480561852455
1761468590321701000,8.693701171875,0.0011262078769505024,0.009083963930606842,0.003231343114748597
1761468590331683800,8.703683837890624,0.0009685484692454338,-0.00022591394372284412,-0.00211415346711874
1761468590341666800,8.713666748046874,0.0018167016096413136,-0.015903636813163757,-0.006819795351475477
1761468590351650000,8.723650146484376,0.0005266661755740643,-0.00984681025147438,-0.005390742793679237
1761468590361633000,8.733633056640626,0.0021572925616055727,-0.02085305005311966,-0.011559639126062393
1761468590371617000,8.743616943359376,0.002469681203365326,-0.018462330102920532,-0.007909776642918587
1761468590381600000,8.75360009765625,-0.0017490503378212452,-0.011847343295812607,-0.007886898703873158
1761468590391583000,8.7635830078125,-0.0005929721519351006,0.0033150978852063417,-0.0006316488143056631
1761468590401566000,8.77356591796875,-0.0009293104521930218,-0.00382156646810472,-0.0019420012831687927
