time,seconds_elapsed,z,y,x
1761468630462538500,0.11953857421875,-0.0010992907918989658,-0.0006385836750268936,-0.0008837275672703981
1761468630472521500,0.129521484375,0.003638738999143243,0.000009097158908843994,-0.0008262034971266985
1761468630482504700,0.139504638671875,-0.0008891499601304531,0.0025488589890301228,0.00045854062773287296
1761468630492487700,0.14948779296875,-0.000012703705579042435,0.0003863722085952759,0.0012143459171056747
1761468630502470400,0.159470458984375,0.00318142119795084,-0.0037888356018811464,-0.00027152406983077526
1761468630512453600,0.16945361328125,0.00023010605946183205,0.0030408408492803574,0.0006816212553530931
1761468630522436600,0.1794365234375,0.0013396842405200005,0.0006413180381059647,0.0010789020452648401
1761468630532420600,0.189420654296875,-0.002203384879976511,-0.002038354752585292,0.0005345521494746208
1761468630542403600,0.199403564453125,0.00006496533751487732,-0.006322596222162247,0.0007480746135115623
1761468630552386600,0.209386474609375,-0.0004085446707904339,-0.0012905534822493792,-0.0015536956489086151
1761468630562369500,0.21936962890625,-0.0010208822786808014,0.0029363930225372314,-0.0014158256817609072
1761468630572352800,0.229352783203125,0.0017035314813256264,0.0023054899647831917,-0.0015274120960384607
1761468630582335500,0.23933544921875,0.001037572044879198,0.0015925304032862186,0.001187244663015008
1761468630592318500,0.249318359375,-0.0006226426921784878,0.001248183660209179,-0.001684442046098411
1761468630602301700,0.2593017578125,0.0016228477470576763,0.0011314384173601866,-0.0037151898723095655
1761468630612284700,0.26928466796875,-0.0006767916493117809,-0.0026798113249242306,-0.0007380419410765171
1761468630622267400,0.279267333984375,-0.0012427419424057007,0.0018181316554546356,-0.000829664058983326
1761468630632251400,0.28925146484375,-0.00023446930572390556,0.003219753038138151,-0.001314359251409769
1761468630642234600,0.299234619140625,-0.0005960892885923386,0.0015556819271296263,-0.0005189073272049427
1761468630652217600,0.309217529296875,0.001678782980889082,-0.0007519472856074572,-0.00006510457023978233
1761468630662200600,0.31920068359375,0.000011431053280830383,-0.000018935417756438255,-0.0015458950074389577
1761468630672183600,0.32918359375,-0.000153418630361557,0.0010492587462067604,0.0019359216094017029
1761468630682166500,0.33916650390625,0.0005112653598189354,-0.003980499226599932,-0.001068540383130312
1761468630692149800,0.349149658203125,0.001919278409332037,-0.0010238578543066978,0.0008643819019198418
1761468630702132500,0.359132568359375,-0.0008183000609278679,-0.002342471620067954,-0.0009802344720810652
1761468630712115500,0.369115478515625,-0.0010369457304477692,-0.001536332769319415,-0.001503012957982719
1761468630722098700,0.3790986328125,0.0007443148642778397,0.004101276397705078,-0.0003172953147441149
1761468630732082700,0.389082763671875,-0.000700716394931078,0.0021190857514739037,0.0007732692174613476
1761468630742065700,0.399065673828125,-0.0010549412108957767,-0.0007540795486420393,-0.0020062392577528954
1761468630752048400,0.40904833984375,0.0007192566990852356,0.0018033541273325682,-0.0010943729430437088
1761468630762031600,0.419031494140625,-0.0019610957242548466,-0.0011313508730381727,-0.00020661065354943275
1761468630772014600,0.4290146484375,-0.0014401813969016075,0.0009698832873255014,-0.0014231426175683737
1761468630781997600,0.43899755859375,0.0001735864207148552,0.0017640639562159777,0.0001684448216110468
1761468630791980500,0.44898046875,0.0009709368459880352,-0.0009579528123140335,-0.0020654145628213882
1761468630801963500,0.458963623046875,-0.0020788852125406265,0.00019949139095842838,0.000025516143068671227
1761468630811946800,0.46894677734375,-0.00023943977430462837,-0.003119073808193207,-0.00029672635719180107
1761468630821929500,0.478929443359375,-0.0007495325990021229,-0.0006384120788425207,-0.000755061861127615
1761468630831913500,0.48891357421875,0.0004677986726164818,0.0026356782764196396,0.0012937081046402454
1761468630841896400,0.498896484375,-0.001137665007263422,0.0004227142781019211,-0.0005326976533979177
1761468630851879700,0.508879638671875,-0.001159503124654293,-0.007546262349933386,-0.0026504434645175934
1761468630861862700,0.518862548828125,-0.0005510244518518448,0.0014818278141319752,0.0016376529820263386
1761468630871845400,0.528845458984375,-0.0016221478581428528,-0.0026474036276340485,-0.0011418883223086596
1761468630881828600,0.53882861328125,0.00153780123218894,0.0009409235790371895,-0.000178908696398139
1761468630891811600,0.5488115234375,0.0015473882667720318,-0.007787320297211409,-0.004288432653993368
1761468630901794600,0.558794677734375,0.0014626090414822102,0.008498679846525192,0.0015996901784092188
1761468630911777500,0.568777587890625,0.00013395817950367928,-0.0048765139654278755,-0.0010134032927453518
1761468630921761500,0.578761474609375,0.0004712007939815521,0.0033510029315948486,0.00004015793092548847
1761468630931744500,0.58874462890625,0.0008568265475332737,-0.003386261872947216,-0.002317538484930992
1761468630941727700,0.598727783203125,0.0019400527235120535,0.0035673491656780243,0.001998777501285076
1761468630951710500,0.60871044921875,-0.0016600084491074085,-0.0001597448717802763,-0.0003434726968407631
1761468630961693400,0.618693359375,0.000584606546908617,-0.0006040695589035749,-0.0007761630695313215
1761468630971676700,0.6286767578125,0.0016029994003474712,0.0010875705629587173,-0.0011154499370604753
1761468630981659600,0.63865966796875,-0.0000550244003534317,-0.0005037148948758841,0.0005960175767540932
1761468630991642400,0.648642333984375,0.0028081401251256466,-0.001798277604393661,-0.0002623191103339195
1761468631001625600,0.65862548828125,-0.00014388607814908028,0.0007409967947751284,0.0004298519343137741
1761468631011608600,0.668608642578125,-0.0010757260024547577,-0.002233754377812147,-0.0014918851666152477
1761468631021592600,0.678592529296875,0.001445638481527567,-0.0017384272068738937,-0.0022056326270103455
1761468631031575600,0.688575439453125,-0.0008116569370031357,0.004314938094466925,-0.00034408317878842354
1761468631041558500,0.69855859375,0.0017971149645745754,-0.0012702660169452429,0.0002868564333766699
1761468631051541500,0.70854150390625,-0.0018756501376628876,-0.0016886487137526274,-0.0014761562924832106
1761468631061524700,0.718524658203125,-0.002155765425413847,-0.0030874426010996103,-0.0005528214387595654
1761468631071507500,0.728507568359375,-0.0008582728914916515,-0.0014717027079313993,-0.00004122825339436531
1761468631081490400,0.738490478515625,-0.0000999881885945797,0.004147966392338276,0.0010938087943941355
1761468631091473700,0.7484736328125,-0.0006720353849232197,-0.0014473344199359417,0.000337737612426281
1761468631101456600,0.75845654296875,0.0011386922560632229,0.0015756313223391771,0.0002188761718571186
1761468631111440600,0.768440673828125,-0.001583591103553772,0.0010400696191936731,0.001926761120557785
1761468631121423400,0.77842333984375,0.001234404742717743,-0.001153610646724701,0.0012268100399523973
1761468631131406600,0.788406494140625,-0.00020743068307638168,0.0024714842438697815,0.0006547633092850447
1761468631141389600,0.7983896484375,-0.00004721060395240784,-0.000629388727247715,-0.001343744806945324
1761468631151373000,0.808373046875,0.0001740977168083191,-0.00039076944813132286,-0.000030540162697434425
1761468631161356300,0.818356201171875,-0.0006426358595490456,-0.0006588087417185307,0.002469004364684224
1761468631171339300,0.82833935546875,-0.0017065685242414474,-0.000576783437281847,0.0009744383860379457
1761468631181322000,0.838322021484375,-0.0021445401944220066,-0.0004845401272177696,0.001529888017103076
1761468631191305200,0.84830517578125,-0.0003136172890663147,-0.005410322919487953,0.0003351937048137188
1761468631201288200,0.8582880859375,-0.00017662299796938896,0.0007572642061859369,0.002662641927599907
1761468631211272200,0.868272216796875,0.0012146122753620148,-0.00330911623314023,0.0002998854033648968
1761468631221255200,0.878255126953125,0.000765643548220396,0.004294404294341803,-0.000045360298827290535
1761468631231238100,0.888238037109375,0.002857024082913995,0.003079736605286598,0.0019123295787721872
1761468631241221000,0.89822119140625,0.00023423833772540092,-0.0029403024818748236,-0.00041578267700970173
1761468631251204400,0.908204345703125,-0.0015985490754246712,0.0001995644997805357,0.00021512038074433804
1761468631261187000,0.91818701171875,-0.00031141284853219986,-0.0013025789521634579,-0.0007519270293414593
1761468631271170000,0.928170166015625,-0.0035380981862545013,0.0009880056604743004,-0.00004086294211447239
1761468631281153300,0.9381533203125,-0.00034356536343693733,-0.0017337929457426071,-0.0021988265216350555
1761468631291136300,0.94813623046875,-0.0001049465499818325,-0.0016126190312206745,-0.0010794999543577433
1761468631301119000,0.958118896484375,0.00028731441125273705,0.0009814337827265263,0.0013178361114114523
1761468631311103200,0.968103271484375,0.002054055454209447,-0.001923542469739914,0.0003455162514001131
1761468631321086200,0.978086181640625,-0.0011989958584308624,0.0027412506751716137,-0.0005148104391992092
1761468631331069200,0.988069091796875,0.0016758865676820278,-0.0032484650146216154,-0.0020362744107842445
1761468631341052400,0.998052490234375,0.0007590344175696373,0.0008707302622497082,0.0021665289532393217
1761468631351035100,1.00803515625,0.00038299616426229477,-0.005726185627281666,0.00031643081456422806
1761468631361018000,1.01801806640625,0.0016759890131652355,-0.0027950387448072433,0.0008081546984612942
1761468631371001300,1.02800146484375,0.0028248766902834177,0.001203963765874505,0.0007612826302647591
1761468631380984000,1.037984130859375,-0.0011733551509678364,-0.006373600102961063,-0.001037931302562356
1761468631390967000,1.047967041015625,0.0008146944455802441,0.007061248179525137,0.0008771480061113834
1761468631400951000,1.057950927734375,-0.00014555174857378006,-0.002861662767827511,-0.003497710917145014
1761468631410934300,1.067934326171875,0.00046857306733727455,0.004070811439305544,0.0017881311941891909
1761468631420917200,1.077917236328125,-0.002027283888310194,-0.0035733836703002453,0.0006868245545774698
1761468631430900200,1.087900146484375,0.001914460677653551,0.004724759608507156,0.0015073444228619337
1761468631440883200,1.09788330078125,-0.0007762042805552483,-0.0015366827137768269,-0.00176860427018255
1761468631450866200,1.1078662109375,0.0029474273324012756,0.001000510761514306,0.00043622683733701706
1761468631460849400,1.117849365234375,-0.001946368720382452,-0.0018189058173447847,-0.00043149804696440697
1761468631470832000,1.12783203125,0.0003173183649778366,-0.00019251322373747826,0.0014138063415884972
1761468631480815000,1.137815185546875,-0.0014585801400244236,-0.0003436710685491562,0.0025852732360363007
1761468631490798300,1.14779833984375,-0.0017922739498317242,0.0031871479004621506,0.000668330118060112
1761468631500782300,1.1577822265625,0.0017220876179635525,-0.00595520157366991,0.00008883723057806492
1761468631510765000,1.16776513671875,-0.00024199346080422401,-0.0059349616058170795,-0.0014536656672134995
1761468631520748000,1.177748046875,-0.0005290620028972626,0.0037761020939797163,0.0002951470669358969
1761468631530731300,1.187731201171875,0.0013905446976423264,-0.006191576831042767,-0.0024039666168391705
1761468631540714200,1.19771435546875,-0.0013759513385593891,0.000386084895581007,-0.0003539556637406349
1761468631550697200,1.207697265625,0.0016560577787458897,0.0014726547524333,0.001038345042616129
1761468631560680200,1.21768017578125,-0.0011701774783432484,-0.0028262436389923096,-0.0020853658206760883
1761468631570663200,1.2276630859375,-0.0008095856755971909,0.0018966065254062414,0.00018817465752363205
1761468631580646400,1.237646484375,0.0002719387412071228,0.0041695525869727135,-0.0000033443793654441833
1761468631590629000,1.247629150390625,-0.0021938816644251347,-0.0017754214350134134,-0.003219644073396921
1761468631600613000,1.257613037109375,0.002514030085876584,0.001538893673568964,0.0011197845451533794
1761468631610596000,1.26759619140625,-0.0006258366629481316,-0.0037927546072751284,-0.00250344630330801
1761468631620579300,1.277579345703125,-0.0009399312548339367,0.0019245469011366367,0.0004503114614635706
1761468631630562000,1.28756201171875,0.000438520684838295,-0.002337842481210828,-0.00009989761747419834
1761468631640545000,1.297544921875,-0.00150768319144845,-0.004664224572479725,-0.0022693867795169353
1761468631650528300,1.3075283203125,0.0010827737860381603,0.0014312185812741518,0.0020566522143781185
1761468631660511200,1.31751123046875,0.0017788000404834747,-0.001955704763531685,0.0001266184262931347
1761468631670494000,1.327493896484375,-0.0011312360875308514,0.0005918750539422035,0.0035349319223314524
1761468631680477200,1.337477294921875,0.00040873605757951736,-0.004230080638080835,-0.0013046832755208015
1761468631690460200,1.347460205078125,0.0009741252288222313,0.002405717968940735,0.0000034614931792020798
1761468631700444200,1.357444091796875,0.0015131966210901737,0.005033016204833984,0.0010182990226894617
1761468631710427400,1.367427490234375,0.0009478074498474598,0.002362398197874427,0.0023536079097539186
1761468631720410000,1.37741015625,-0.001197917852550745,-0.00043467595241963863,-0.0020105913281440735
1761468631730393000,1.38739306640625,-0.0008106944151222706,0.0030617883894592524,-0.002679577562958002
1761468631740376300,1.397376220703125,0.0008429596200585365,0.002070643473416567,-0.0013770010555163026
1761468631750359300,1.407359375,-0.003073485102504492,-0.002474573440849781,-0.0003293135669082403
1761468631760342000,1.417342041015625,-0.0003049764782190323,0.0014025252312421799,0.00018361909314990044
1761468631770325200,1.4273251953125,-0.0020514773204922676,-0.0012158947065472603,0.0028206813149154186
1761468631780308200,1.43730810546875,-0.0021070148795843124,0.002402752637863159,-0.0011914698407053947
1761468631790291000,1.447291015625,0.002530879806727171,-0.00614945637062192,-0.002101738238707185
1761468631800275200,1.457275146484375,-0.0012975716963410378,-0.0007580826058983803,0.0011145228054374456
1761468631810258200,1.467258056640625,0.0013221800327301025,-0.003973050508648157,-0.0012330538593232632
1761468631820241200,1.4772412109375,-0.0000788932666182518,-0.0014358432963490486,0.0014667916111648083
1761468631830224400,1.487224365234375,-0.001076247077435255,-0.0009657954797148705,-0.00239585735835135
1761468631840207000,1.49720703125,-0.0010954402387142181,0.0010042893700301647,-0.002877612831071019
1761468631850190000,1.507190185546875,-0.000022186432033777237,0.0021262788213789463,-0.0009188579861074686
1761468631860173300,1.51717333984375,-0.00040044030174613,0.0012582102790474892,-0.0014357877662405372
1761468631870156300,1.52715625,0.0007143588736653328,-0.00133837154135108,-0.00024748523719608784
1761468631880139000,1.537138916015625,-0.0006816452369093895,0.0011711951810866594,-0.0005843269173055887
1761468631890122200,1.547122314453125,0.00040812045335769653,-0.0009329682216048241,0.0024804389104247093
1761468631900106200,1.557106201171875,-0.0010923417285084724,-0.002223588991910219,-0.0034852498210966587
1761468631910089200,1.567089111328125,-0.0001144292764365673,0.00019136536866426468,0.0010016439482569695
1761468631920072200,1.577072265625,-0.0010135378688573837,-0.0026651741936802864,0.0013796689454466105
1761468631930055200,1.58705517578125,-0.0005821054801344872,0.000039265723899006844,0.000909620663151145
1761468631940038100,1.5970380859375,-0.0018404927104711533,-0.0016153978649526834,0.0006846787873655558
1761468631950021400,1.607021484375,-0.00022928044199943542,0.0008408357389271259,-0.001417354098521173
1761468631960004000,1.617004150390625,-0.0010788915678858757,-0.0008128962945193052,0.0014539118856191635
1761468631969987000,1.626987060546875,-0.0004322761669754982,-0.004883271642029285,0.001348717138171196
1761468631979970300,1.63697021484375,-0.0015109959058463573,-0.0005363826639950275,-0.0012430478818714619
1761468631989953300,1.646953369140625,0.0011958410032093525,-0.002558520995080471,-0.0026630451902747154
1761468631999937300,1.656937255859375,0.00032596243545413017,-0.00144600635394454,-0.0010822652839124203
1761468632009920000,1.666919921875,-0.0015172110870480537,0.0001713312231004238,-0.000745375407859683
1761468632019903200,1.6769033203125,-0.001715940423309803,0.003353248117491603,-0.0004469610285013914
1761468632029886200,1.68688623046875,-0.0005878256633877754,0.0024863893631845713,-0.0014464453561231494
1761468632039869200,1.696869140625,-0.00010165851563215256,-0.0001165259163826704,0.00019746599718928337
1761468632049852200,1.70685205078125,0.0009185983799397945,0.0015743151307106018,0.002371670678257942
1761468632059835100,1.716835205078125,0.0014040214009582996,-0.004251784645020962,0.00009857071563601494
1761468632069818400,1.726818359375,-0.002968622837215662,-0.00020537781529128551,-0.00010063382796943188
1761468632079801000,1.736801025390625,-0.0006836019456386566,-0.0015847471076995134,-0.00011229747906327248
1761468632089784000,1.7467841796875,-0.0012420667335391045,0.001611312385648489,0.0005689391400665045
1761468632099768000,1.75676806640625,0.00042115431278944016,-0.0032218690030276775,-0.001012538792565465
1761468632109751300,1.766751220703125,0.0011029234156012535,0.00258435495197773,0.0021523619070649147
1761468632119734300,1.776734375,-0.0028643147088587284,-0.00043240725062787533,0.00031855725683271885
1761468632129717000,1.786717041015625,-0.0007058228366076946,-0.0034721391275525093,-0.002596805104985833
1761468632139700200,1.7967001953125,-0.0017573540098965168,0.003512745490297675,-0.00021987571381032467
1761468632149682700,1.8066826171875,-0.004020774737000465,0.0008019136730581522,-0.0010579724330455065
1761468632159666000,1.816666015625,0.0006485520862042904,-0.0010415134020149708,-0.0016060317866504192
1761468632169648600,1.826648681640625,0.0005739834159612656,0.0010613184422254562,0.0019122702069580555
1761468632179631600,1.836631591796875,0.0018683471716940403,-0.006689854431897402,-0.0013334691757336259
1761468632189615600,1.84661572265625,0.00037537887692451477,0.0013022918719798326,0.0003014453686773777
1761468632199598800,1.856598876953125,0.00041783880442380905,-0.0011351387947797775,-0.0003181551583111286
1761468632209581800,1.866581787109375,0.002090836875140667,-0.001800130121409893,-0.0007756862323731184
1761468632219564800,1.876564697265625,0.0017403820529580116,-0.0012683169916272163,-0.0018474496901035309
1761468632229547800,1.8865478515625,0.0017252019606530666,0.0008044210262596607,0.0025792564265429974
1761468632239530800,1.89653076171875,0.00017556175589561462,0.0011809919960796833,0.00007748324424028397
1761468632249514000,1.906513916015625,-0.0008284500800073147,-0.0028933780267834663,-0.004323123954236507
1761468632259496700,1.91649658203125,-0.0003009815700352192,0.0011852874886244535,0.002066148677840829
1761468632269479700,1.926479736328125,0.0014175563119351864,-0.004509882070124149,-0.0013216584920883179
1761468632279463000,1.936462890625,0.0008082943968474865,-0.00004823552444577217,-0.00043240049853920937
1761468632289446000,1.94644580078125,0.0000476958230137825,-0.0031460244208574295,-0.0009485210757702589
1761468632299429600,1.9564296875,0.0007919878698885441,0.004047174006700516,0.0004155500791966915
1761468632309412600,1.96641259765625,-0.0014373445883393288,-0.0010794114787131548,-0.002694489434361458
1761468632319395800,1.976395751953125,0.0038824339862912893,-0.0006340085528790951,-0.0026774988509714603
1761468632329378800,1.98637890625,-0.0011959481053054333,0.006830299273133278,-0.00046867295168340206
1761468632339361800,1.99636181640625,-0.0011039208620786667,-0.00286479783244431,-0.0015547005459666252
1761468632349344800,2.0063447265625,0.001391993835568428,-0.0014432023745030165,-0.00015334505587816238
1761468632359327700,2.01632763671875,0.0014559696428477764,0.00026899646036326885,0.0013579661026597023
1761468632369311000,2.02631103515625,0.0008250665850937366,-0.0018282430246472359,0.0018258835189044476
1761468632379293700,2.036293701171875,0.000677106436342001,0.003020339645445347,0.00178949860855937
1761468632389276700,2.046276611328125,0.0007932204753160477,-0.0056035080924630165,-0.0020300070755183697
1761468632399260700,2.0562607421875,-0.0004921490326523781,0.005481170956045389,0.0015266931150108576
1761468632409244000,2.066243896484375,-0.0027174861170351505,-0.002431879285722971,-0.0010584373958408833
1761468632419226600,2.0762265625,0.0022057797759771347,-0.0017973186913877726,0.0013940189965069294
1761468632429209600,2.086209716796875,-0.0012315623462200165,-0.0005333824083209038,-0.0006438316777348518
1761468632439192800,2.09619287109375,-0.001742212101817131,0.0007573203183710575,0.002763184951618314
1761468632449175800,2.10617578125,0.0009228130802512169,-0.00023364205844700336,-0.0005559124983847141
1761468632459158800,2.11615869140625,0.00034792814403772354,0.003658602712675929,0.00039817625656723976
1761468632469141800,2.126141845703125,-0.0012334571219980717,-0.001771582756191492,-0.0019448728999122977
1761468632479124700,2.136124755859375,0.0002090134657919407,0.0030834078788757324,-0.001858929404988885
1761468632489108000,2.14610791015625,0.0008646836504340172,0.0020524985156953335,0.002557656727731228
1761468632499092000,2.156092041015625,-0.0009643277153372765,0.0002711997367441654,-0.0016074407612904906
1761468632509074700,2.16607470703125,0.00018056528642773628,0.0005305917002260685,0.00011482555419206619
1761468632519057700,2.1760576171875,-0.0017375042662024498,-0.004157735034823418,-0.0004980985540896654
1761468632529041000,2.186041015625,0.002189859515056014,-0.0013595516793429852,0.00021030218340456486
1761468632539024000,2.19602392578125,-0.0011224574409425259,0.0016605169512331486,-0.0012500297743827105
1761468632549006600,2.206006591796875,-0.001576792448759079,-0.003641304327175021,0.0010954162571579218
1761468632558989800,2.21598974609375,-0.001233026385307312,-0.0013211320620030165,0.0008246984798461199
1761468632568972800,2.225972900390625,0.0002961610443890095,-0.000641759717836976,-0.0015007738256826997
1761468632578955800,2.235955810546875,0.0015444997698068619,-0.0026873601600527763,0.002200937829911709
1761468632588938800,2.245938720703125,-0.000024102162569761276,0.00023252959363162518,-0.0016601132228970528
1761468632598922800,2.2559228515625,-0.001975859049707651,-0.000036395154893398285,-0.00020794966258108616
1761468632608905700,2.26590576171875,0.001122728455811739,0.0017934627830982208,0.0003877994604408741
1761468632618889000,2.275888916015625,0.000001939479261636734,-0.0009451638907194138,0.0012742350809276104
1761468632628871700,2.28587158203125,0.0015034293755888939,-0.0011206662748008966,-0.0009252696763724089
1761468632638854700,2.295854736328125,-0.00002641649916768074,0.0024029621854424477,0.0019837012514472008
1761468632648838000,2.305837890625,0.001088915392756462,0.0002599162980914116,-0.000898904399946332
1761468632658820900,2.31582080078125,0.0007570353336632252,0.001939414069056511,-0.0014657158171758056
1761468632668803600,2.325803466796875,0.0009605009108781815,0.0013143699616193771,0.00018384610302746296
1761468632678786800,2.335786865234375,0.00195414200425148,-0.0011046731378883123,-0.0010032372083514929
1761468632688769800,2.345769775390625,0.0001019136980175972,-0.0005861555691808462,0.000882813474163413
1761468632698752800,2.355752685546875,-0.0025816396810114384,-0.0005432337056845427,0.001089929835870862
1761468632708736800,2.36573681640625,-0.0002947831526398659,-0.0004675998352468014,-0.00037161284126341343
1761468632718719700,2.3757197265625,-0.00048780394718050957,0.000542057678103447,-0.0005604890175163746
1761468632728702700,2.38570263671875,0.0012134234420955181,-0.00042253918945789337,0.0007215568330138922
1761468632738686000,2.39568603515625,-0.00002776132896542549,-0.0019288081675767899,0.0003610274288803339
1761468632748668700,2.405668701171875,0.000932841096073389,-0.0031434758566319942,-0.0012669628486037254
1761468632758651600,2.415651611328125,0.0016857613809406757,0.0026827924884855747,0.0019218763336539268
1761468632768635000,2.425634765625,0.00008040806278586388,-0.0014240683522075415,0.0008225236088037491
1761468632778617900,2.435617919921875,-0.0023924154229462147,0.0006225549150258303,-0.0023358240723609924
1761468632788600600,2.4456005859375,-0.0004991739988327026,-0.007075312081724405,-0.003991511184722185
1761468632798583800,2.455583740234375,0.0006722710095345974,0.003379503497853875,0.0014274038840085268
1761468632808567800,2.46556787109375,-0.0012582545168697834,0.0008859855588525534,-0.002211273182183504
1761468632818550800,2.47555078125,0.0023696243297308683,0.0004363302141427994,-0.0013027917593717575
1761468632828533800,2.48553369140625,0.0008913036435842514,-0.0023802288342267275,-0.0005770802963525057
1761468632838516700,2.495516845703125,-0.0008293590508401394,-0.0010861365590244532,0.0010415222495794296
1761468632848499700,2.505499755859375,0.00017065787687897682,-0.005513375625014305,-0.0016274979570880532
1761468632858483000,2.51548291015625,-0.001908652950078249,0.0005954746156930923,0.0015134771820157766
1761468632868465700,2.525465576171875,0.0010168296284973621,0.00124288909137249,0.002973155817016959
1761468632878448600,2.53544873046875,0.0006384411826729774,-0.001284800935536623,0.0008312277495861053
1761468632888431900,2.545431884765625,-0.00044093839824199677,0.0004907285328954458,0.0021388400346040726
1761468632898414800,2.555414794921875,-0.001123068854212761,-0.0030380147509276867,0.0009764095302671194
1761468632908397600,2.5653974609375,-0.0017531723715364933,-0.0017517078667879105,0.0008091630879789591
1761468632918381600,2.575381591796875,-0.00006800377741456032,0.0020420383661985397,-0.0014847025740891695
1761468632928364800,2.58536474609375,0.0002459827810525894,-0.001753498800098896,-0.001182700041681528
1761468632938347800,2.59534765625,0.0005314163863658905,0.004952321760356426,0.00021018018014729023
1761468632948330800,2.605330810546875,0.0013119890354573727,-0.0031729822512716055,-0.00443117693066597
1761468632958313700,2.615313720703125,0.00008881231769919395,0.0004957336932420731,0.0004053981974720955
1761468632968296700,2.625296630859375,0.00019853422418236732,0.0009386171586811543,-0.000048404326662421227
1761468632978280000,2.635280029296875,0.0005412204191088676,0.004403962753713131,-0.00035986537113785744
1761468632988262700,2.6452626953125,-0.0017930404283106327,-0.0033516944386065006,0.0004015325102955103
1761468632998245600,2.65524560546875,0.0010629077441990376,-0.00029074703343212605,0.0014688146766275167
1761468633008228900,2.665228759765625,0.0004048408009111881,-0.0005296324379742146,-0.0001908671110868454
1761468633018212900,2.675212890625,0.0014502760022878647,0.000680962111800909,0.0010472042486071587
1761468633028195800,2.68519580078125,0.00020791124552488327,-0.0010429020039737225,0.0002655666321516037
1761468633038178600,2.695178466796875,0.0006335759535431862,-0.002443962264806032,0.0021783749107271433
1761468633048161800,2.705161865234375,0.0005092066712677479,-0.0014814960304647684,0.0009714302141219378
1761468633058144800,2.715144775390625,-0.0011680345050990582,-0.0011142988223582506,-0.0020669116638600826
1761468633068127700,2.725127685546875,-0.0028341086581349373,0.0020348893012851477,-0.00015023467130959034
1761468633078110700,2.73511083984375,-0.0007900963537395,0.0003391047939658165,-0.00018315063789486885
1761468633088093700,2.74509375,-0.0002468116581439972,-0.0018793083727359772,-0.0030622940976172686
1761468633098077000,2.755076904296875,0.00010925577953457832,0.004225797951221466,-0.0020363344810903072
1761468633108060000,2.765059814453125,0.0016094143502414227,-0.0030576814897358418,-0.0015665526734665036
1761468633118043600,2.775043701171875,-0.0012443782761693,0.005071775056421757,-0.0010993178002536297
1761468633128026600,2.785026611328125,0.00004033045843243599,-0.004728124942630529,-0.0016101120272651315
1761468633138009900,2.795009765625,0.0009435638785362244,-0.002355096163228154,0.0012472658418118954
1761468633147992800,2.804992919921875,-0.0005059945397078991,-0.005174051970243454,-0.0010316011030226946
1761468633157976000,2.81497607421875,0.0009242282249033451,0.003745203372091055,0.0006360567640513182
1761468633167959300,2.824959228515625,0.0006350087933242321,-0.004631503485143185,-0.0017389502609148622
1761468633177942300,2.8349423828125,-0.0019894996657967567,0.0037994536105543375,0.00015610596165060997
1761468633187925200,2.84492529296875,0.0011626179330050945,0.0029986409936100245,0.0013603875413537025
1761468633197908200,2.854908203125,0.0010002669878304005,-0.0056531550362706184,-0.0008861925452947617
1761468633207891200,2.86489111328125,0.00013447320088744164,0.0020708113443106413,0.0007212916389107704
1761468633217874200,2.874874267578125,-0.00034458423033356667,0.0007662586867809296,-0.0008289436809718609
1761468633227858400,2.8848583984375,-0.002131831366568804,0.0028507146053016186,-0.0006670234724879265
1761468633237841400,2.89484130859375,-0.00025013647973537445,0.0011333255097270012,-0.0002810636069625616
1761468633247824100,2.90482421875,-0.001746566966176033,0.0021474570967257023,0.0001130842138081789
1761468633257807400,2.914807373046875,0.0014874828048050404,0.0015914696268737316,-0.00204005790874362
1761468633267790300,2.924790283203125,-0.001600718591362238,0.00014510704204440117,-0.0032848191913217306
1761468633277773300,2.934773193359375,-0.0001420644111931324,-0.0016224058344960213,-0.000477188965305686
1761468633287756300,2.94475634765625,-0.0015032063238322735,0.00005218992009758949,-0.0015075660776346922
1761468633297739300,2.9547392578125,-0.00030911760404706,-0.0013620033860206604,-0.000490979291498661
1761468633307722200,2.96472216796875,0.0003955550491809845,-0.002629135502502322,-0.0004108182620257139
1761468633317705200,2.974705322265625,0.0013798014260828495,0.0004273590166121721,-0.00003111432306468487
1761468633327688200,2.984688232421875,0.0014860616065561771,0.00000764499418437481,0.0013310927897691727
1761468633337672200,2.994672119140625,0.001998339779675007,-0.0017188529018312693,0.000139943091198802
1761468633347655400,3.004655517578125,-0.0002578902058303356,0.0019283464644104242,0.000979371601715684
1761468633357638400,3.014638427734375,-0.0014034071937203407,0.002583120483905077,-0.0004394249990582466
1761468633367621000,3.02462109375,-0.0017818426713347435,-0.0026470613665878773,-0.00007483828812837601
1761468633377604400,3.034604248046875,-0.0006114649586379528,0.000803906936198473,-0.002819306682795286
1761468633387587300,3.04458740234375,-0.000561131164431572,-0.0006826694589108229,-0.002607052680104971
1761468633397570300,3.0545703125,0.0015224255621433258,0.001949333120137453,-0.0007622633129358292
1761468633407553300,3.06455322265625,-0.0011141039431095123,0.00277438061311841,-0.001625127624720335
1761468633417536300,3.074536376953125,-0.00014517316594719887,-0.000897448044270277,-0.0015460220165550709
1761468633427519200,3.084519287109375,-0.0011318745091557503,-0.0007112929597496986,0.0016178134828805923
1761468633437503200,3.094503173828125,-0.0008391793817281723,-0.001662480877712369,0.00036091357469558716
1761468633447486200,3.104486328125,-0.0019984529353678226,0.0033828779123723507,0.000541742192581296
1761468633457469200,3.11446923828125,0.0006560096517205238,-0.011893190443515778,-0.001969532575458288
1761468633467452200,3.1244521484375,-0.0020329845137894154,0.0076283118687570095,0.003193005220964551
1761468633477435400,3.134435302734375,0.0025032374542206526,-0.004301219712942839,-0.00001810351386666298
1761468633487418000,3.144418212890625,-0.001722666434943676,0.0028363182209432125,0.00031212856993079185
1761468633497401300,3.1544013671875,0.0009996569715440273,-0.0018572367262095213,-0.003593663452193141
1761468633507384300,3.16438427734375,0.003069465747103095,0.0036211516708135605,-0.0018964309711009264
1761468633517367300,3.1743671875,-0.003764473833143711,0.00008636899292469025,0.0023213429376482964
1761468633527350300,3.184350341796875,0.00013173045590519905,-0.0006097815930843353,-0.0027626315131783485
1761468633537333200,3.194333251953125,-0.002047591842710972,-0.001412493409588933,-0.00047645182348787785
1761468633547316200,3.204316162109375,-0.0019341413863003254,-0.0021821469999849796,-0.0000162576325237751
1761468633557300200,3.21430029296875,0.0002686763182282448,-0.0011187796480953693,0.000310385599732399
1761468633567283200,3.224283203125,-0.0016328208148479462,0.002720433287322521,0.0007359588053077459
1761468633577266200,3.23426611328125,-0.002248079050332308,-0.0006616588216274977,0.0015110364183783531
1761468633587249200,3.244249267578125,0.0017602448351681232,-0.001114662503823638,0.00021674041636288166
1761468633597232400,3.254232421875,0.0018283259123563766,-0.0025578199420124292,0.00026520551182329655
1761468633607215000,3.264215087890625,-0.0001954101026058197,-0.0007737684063613415,-0.0012916785199195147
1761468633617198300,3.2741982421875,0.003156353486701846,0.0038335826247930527,0.00003737024962902069
1761468633627181300,3.284181396484375,-0.0023886137641966343,0.0015770862810313702,0.0036254471633583307
1761468633637164300,3.294164306640625,0.0003159092739224434,0.00038114283233880997,-0.00017916038632392883
1761468633647147300,3.304147216796875,0.00013028690591454506,-0.001882011303678155,-0.0016428338130936027
1761468633657131300,3.31413134765625,0.0008873352780938148,-0.00026662671007215977,-0.00002263975329697132
1761468633667114200,3.3241142578125,0.0012287525460124016,-0.00011908775195479393,-0.00014541158452630043
1761468633677097200,3.33409716796875,0.000397740863263607,-0.0030248304829001427,0.002587821101769805
1761468633687080400,3.34408056640625,0.0020030944142490625,-0.00304640200920403,-0.0024141282774508
1761468633697063200,3.354063232421875,0.0012102453038096428,0.0013714758679270744,0.0023168050684034824
1761468633707046100,3.364046142578125,-0.00033785030245780945,-0.0019755850080400705,0.0003410056233406067
1761468633717029400,3.374029296875,0.0020154211670160294,0.0000041727907955646515,0.0011712638661265373
1761468633727012000,3.38401220703125,0.0005946247838437557,-0.0028384854085743427,-0.000879902858287096
1761468633736995300,3.393995361328125,0.0003392132930457592,-0.001487708417698741,-0.000024125445634126663
1761468633746978300,3.403978271484375,-0.0005468204617500305,-0.004634233191609383,-0.00010881386697292328
1761468633756961300,3.413961181640625,0.000735945999622345,0.0015411386266350746,0.002371798502281308
1761468633766945300,3.4239453125,0.00014898553490638733,0.0000023641623556613922,0.001077768625691533
1761468633776928300,3.43392822265625,-0.0010809614323079586,0.0013972287997603416,-0.0002830841112881899
1761468633786911200,3.4439111328125,-0.0009374171495437622,-0.004201534669846296,-0.00041570933535695076
1761468633796894200,3.453894287109375,0.0026977539528161287,-0.004475375171750784,-0.0002543875016272068
1761468633806877400,3.46387744140625,0.0021310332231223583,0.005154615268111229,0.002256440930068493
1761468633816860200,3.473860107421875,0.0009752782061696053,-0.0010611030738800764,-0.0016014063730835915
1761468633826843100,3.483843017578125,-0.00002447236329317093,-0.00010662619024515152,-0.001334557542577386
1761468633836826400,3.493826416015625,-0.0037398338317871094,-0.0024512787349522114,0.0009076760616153479
1761468633846809000,3.50380908203125,0.00004664808511734009,-0.0004278088454157114,-0.0007288367487490177
1761468633856792300,3.513792236328125,0.0016481326892971992,0.0011903541162610054,-0.000013220123946666718
1761468633866775300,3.523775390625,-0.0015407362952828407,-0.0023836083710193634,-0.0011261552572250366
1761468633876759300,3.53375927734375,0.00036932947114109993,-0.003317561000585556,-0.0030470783822238445
1761468633886742300,3.5437421875,-0.00029939040541648865,0.003280420321971178,-0.0007224052678793669
1761468633896725200,3.553725341796875,0.0006341221742331982,-0.0005213981494307518,0.0004312489181756973
1761468633906708200,3.563708251953125,0.00030708592385053635,0.0026522912085056305,0.00018277601338922977
1761468633916691200,3.573691162109375,-0.0002124505117535591,-0.004605897702276707,-0.000970012042671442
1761468633926674400,3.58367431640625,0.001343900803476572,-0.00021248101256787777,-0.0013399249874055386
1761468633936657200,3.5936572265625,-0.001793909352272749,-0.003422472160309553,0.0004631965421140194
1761468633946640100,3.60364013671875,-0.00029534846544265747,0.0017858720384538174,0.0010450971312820911
1761468633956623400,3.613623291015625,0.0016341921873390675,-0.005671313963830471,-0.001504493528045714
1761468633966606300,3.6236064453125,-0.0005860850214958191,0.0012965807691216469,-0.0005311081185936928
1761468633976589300,3.63358935546875,0.0025417974684387445,-0.0031684753485023975,-0.0025145024992525578
1761468633986573300,3.6435732421875,0.0013132812455296516,-0.00014578737318515778,0.00036011356860399246
1761468633996556300,3.653556396484375,-0.0030475719831883907,-0.002761194482445717,0.00018528522923588753
1761468634006539300,3.663539306640625,0.00026034051552414894,0.00016641849651932716,0.0021277947816997766
1761468634016522200,3.673522216796875,-0.0011825324036180973,0.0018251021392643452,-0.0002063722349703312
1761468634026505200,3.683505126953125,0.00019352277740836143,-0.004186983685940504,0.00020268931984901428
1761468634036488200,3.69348828125,0.0018722247332334518,0.004252556711435318,-0.0000958605669438839
1761468634046471400,3.703471435546875,-0.0014905487187206745,-0.001814922783523798,0.000042091356590390205
1761468634056454100,3.7134541015625,-0.000511842779815197,-0.0016467215027660131,-0.0013894769363105297
1761468634066437000,3.72343701171875,0.0002508866600692272,-0.005630810279399157,-0.0001705479808151722
1761468634076420400,3.73342041015625,-0.0021984162740409374,-0.0033850951585918665,-0.002068340079858899
1761468634086403300,3.7434033203125,-0.0011470001190900803,-0.0025246278382837772,-0.0009916240815073252
1761468634096387000,3.753386962890625,0.0019639921374619007,0.0032634753733873367,0.0022857056464999914
1761468634106370300,3.763370361328125,0.0009296205826103687,-0.0010361981112509966,0.0012848896440118551
1761468634116353300,3.773353271484375,-0.0003891647793352604,-0.0002541916910558939,-0.00047260592691600323
1761468634126336300,3.783336181640625,0.00027023348957300186,-0.0013745836913585663,-0.0006813977379351854
1761468634136319200,3.7933193359375,0.0004073469899594784,0.00224501546472311,-0.00022486969828605652
1761468634146302200,3.80330224609375,0.0013157511129975319,-0.00404537096619606,0.0014393397141247988
1761468634156285000,3.813284912109375,-0.001617426984012127,0.0008847401477396488,-0.000027791829779744148
1761468634166268000,3.823267822265625,0.0008507911115884781,0.00022001517936587334,-0.001188131282106042
1761468634176251000,3.8332509765625,0.00037301983684301376,-0.00009450409561395645,-0.0008597550913691521
1761468634186234000,3.843234130859375,-0.0019985251128673553,0.0015699714422225952,0.002022317610681057
1761468634196216800,3.853216796875,0.0008803433738648891,0.00016477052122354507,-0.0012902745511382818
1761468634206200800,3.863200927734375,0.0007802085019648075,-0.0020240815356373787,0.0011292074341326952
1761468634216183800,3.873183837890625,0.00012294063344597816,-0.0008136746473610401,0.0006766037549823523
1761468634226167000,3.8831669921875,-0.0021122507750988007,0.0006257640197873116,0.0011487824376672506
1761468634236150000,3.89314990234375,-0.001490908209234476,-0.003559061326086521,0.00020256824791431427
1761468634246132700,3.9031328125,-0.0005888952873647213,-0.0005582114681601524,-0.0018983995541930199
1761468634256116000,3.913115966796875,0.0016123736277222633,0.0017127832397818565,0.0005438278894871473
1761468634266099000,3.923098876953125,0.0017934688366949558,-0.0022787624038755894,0.002175280125811696
1761468634276082000,3.93308203125,-0.0012498456053435802,-0.002681266749277711,-0.0007933138404041529
1761468634286065000,3.94306494140625,-0.0002982979640364647,-0.005221123341470957,-0.0014319397741928697
1761468634296047900,3.9530478515625,-0.00014296220615506172,0.0037716557271778584,0.00222350494004786
1761468634306031000,3.963031005859375,-0.00037039630115032196,-0.0003951259423047304,-0.0014218298019841313
1761468634316015000,3.97301513671875,-0.0001688748598098755,-0.00008506281301379204,-0.0007383306510746479
1761468634325997800,3.982997802734375,0.0029089401941746473,-0.0007521847728639841,-0.0007575054187327623
1761468634335980800,3.992980712890625,-0.00004411255940794945,0.00031675444915890694,0.0004429561085999012
1761468634345964000,4.002964111328125,-0.0013932697474956512,0.0012169028632342815,0.0006584057118743658
1761468634355945000,4.012945068359375,0.00012988317757844925,0.0015573115088045597,-0.000051226234063506126
1761468634365928000,4.022927978515625,-0.0014048968441784382,0.002459057606756687,0.0010683666914701462
1761468634375911000,4.032910888671875,-0.0011491971090435982,-0.0018175533041357994,0.0005085889715701342
1761468634385894000,4.042893798828125,-0.0029428363777697086,0.0008083237335085869,0.00011124555021524429
1761468634395876900,4.052876953125,0.0005574026145040989,-0.0014220576267689466,-0.00021129660308361053
1761468634405860900,4.06286083984375,0.001569403801113367,-0.0005991407670080662,-0.00017507746815681458
1761468634415843800,4.07284375,-0.0019223401322960854,-0.002776091918349266,-0.0002473169006407261
1761468634425827000,4.0828271484375,0.00307321734726429,-0.0007502252701669931,-0.0007173649501055479
1761468634435809800,4.092809814453125,-0.001451211515814066,-0.0029382784850895405,0.0005321097560226917
1761468634445793000,4.10279296875,0.0008470965549349785,0.0011065304279327393,-0.0019132046727463603
1761468634455776000,4.11277587890625,0.0025211151223629713,-0.0010916257742792368,0.00041291816160082817
1761468634465759000,4.122759033203125,0.002641223603859544,-0.0023952433839440346,0.0007205132860690355
1761468634475742000,4.132741943359375,-0.0007330682128667831,0.002917097881436348,0.0023562356363981962
1761468634485725000,4.142724853515625,0.0011492539197206497,-0.0025519696064293385,-0.00023448746651411057
1761468634495708000,4.1527080078125,0.0006914539262652397,0.0007049776613712311,0.0008207750506699085
1761468634505691000,4.16269091796875,0.002460059244185686,0.00014544790610671043,0.0012524733319878578
1761468634515673900,4.172673828125,0.00017309794202446938,-0.001960929250344634,-0.003380695590749383
1761468634525657900,4.182657958984375,0.0005054604262113571,0.001056165900081396,-0.00014388957060873508
1761468634535640800,4.192640869140625,0.00040953606367111206,-0.004393827170133591,-0.0011717344168573618
1761468634545624000,4.2026240234375,-0.001705546397715807,0.0011588633060455322,0.002567876363173127
1761468634555606800,4.212606689453125,-0.0011259177699685097,0.0014914274215698242,-0.0015254062600433826
1761468634565590000,4.222590087890625,0.0014168685302138329,-0.0013554918114095926,0.00007994729094207287
1761468634575573000,4.232572998046875,-0.0005426793359220028,-0.0010384456254541874,-0.0019885217770934105
1761468634585556000,4.242555908203125,-0.0011323033832013607,-0.005072069354355335,-0.00145109579898417
1761468634595539000,4.2525390625,-0.003652399405837059,-0.0026773647405207157,-0.000429320614784956
1761468634605522000,4.26252197265625,-0.0002025407738983631,0.005543014500290155,0.0035387894604355097
1761468634615505000,4.2725048828125,0.0012416820973157883,-0.0024388686288148165,-0.0014132702490314841
1761468634625488100,4.282488037109375,-0.0007711350917816162,0.003923955373466015,0.0001302978489547968
1761468634635472000,4.292471923828125,-0.0015063229948282242,-0.001681099645793438,-0.001824064995162189
1761468634645454800,4.302454833984375,-0.0002764752134680748,0.0016827387735247612,0.0022500387858599424
1761468634655437800,4.312437744140625,-0.0009948867373168468,0.00121307373046875,-0.00032264692708849907
1761468634665421000,4.322421142578125,0.0008184597827494144,-0.0008700508624315262,0.002141043310984969
1761468634675403800,4.33240380859375,-0.0006540976464748383,-0.003378630382940173,-0.00006492482498288155
1761468634685387000,4.342386962890625,-0.00006820214912295341,-0.000005204230546951294,0.0010456133168190718
1761468634695370000,4.352369873046875,0.001503686886280775,0.0017902986146509647,0.0008695956785231829
1761468634705353000,4.36235302734375,-0.0035062520764768124,-0.001843850826844573,-0.0012303066905587912
1761468634715336000,4.3723359375,0.0007149958983063698,-0.002377098426222801,-0.0013433097628876567
1761468634725319000,4.38231884765625,-0.001263999380171299,0.0033050221391022205,-0.001445841509848833
1761468634735302000,4.392302001953125,0.0007744478061795235,0.002563414629548788,-0.0004164620768278837
1761468634745286000,4.402285888671875,0.00021651526913046837,-0.00044063106179237366,-0.0003962218761444092
1761468634755269000,4.41226904296875,0.00028542615473270416,-0.0007051178254187107,0.0015200618654489517
1761468634765251800,4.422251953125,-0.0005521378479897976,0.0027399472892284393,0.002524340059608221
1761468634775234800,4.43223486328125,0.0016690278425812721,-0.005973915569484234,0.0004406827501952648
1761468634785218000,4.442218017578125,-0.0015834905207157135,0.003973523620516062,0.0011208541691303253
1761468634795200800,4.45220068359375,0.0007725819014012814,-0.004243772476911545,-0.002200585324317217
1761468634805184000,4.46218408203125,0.00015872344374656677,0.0025318418629467487,-0.001067410223186016
1761468634815167000,4.4721669921875,0.0005651870742440224,-0.0010951808653771877,-0.0006346504669636488
1761468634825150000,4.48214990234375,0.00025652674958109856,-0.0010757397394627333,0.0003448601346462965
1761468634835133000,4.4921328125,0.0006169527769088745,-0.006089645437896252,-0.003480361308902502
1761468634845116000,4.502115966796875,0.00128141138702631,-0.000024029985070228577,0.0007716414984315634
1761468634855099000,4.512098876953125,0.0033551689703017473,0.0014086333103477955,-0.00033056875690817833
1761468634865083000,4.522082763671875,-0.0015362589620053768,0.0012230109423398972,-0.0008874356281012297
1761468634875066000,4.532066162109375,0.0004240921698510647,0.0009470582008361816,-0.00004899618215858936
1761468634885048800,4.542048828125,0.0005226288922131062,-0.00005375780165195465,-0.00016564247198402882
1761468634895031800,4.55203173828125,-0.004990819841623306,-0.0013089501298964024,0.0012866214383393526
1761468634905015000,4.56201513671875,-0.0003736973740160465,0.002529730089008808,0.002304747933521867
1761468634914997800,4.571997802734375,0.0005427785217761993,-0.0066852574236691,-0.0024995270650833845
1761468634924981000,4.58198095703125,0.0009944504126906395,-0.004317174665629864,-0.0032968774903565645
1761468634934964000,4.5919638671875,0.00102700712159276,0.0033247945830225945,0.0009776896331459284
1761468634944947000,4.601947021484375,0.00018544821068644524,-0.003227380570024252,-0.000556291313841939
1761468634954930000,4.611929931640625,0.0016306471079587936,-0.0026690498925745487,0.0004009862896054983
1761468634964913000,4.621912841796875,0.0019472967833280563,0.00032301153987646103,0.0015104592312127352
1761468634974897000,4.63189697265625,0.0004487098194658756,-0.005043307319283485,-0.0008468283340334892
1761468634984879900,4.6418798828125,0.0020830915309488773,0.002585051581263542,0.0016296450048685074
1761468634994863000,4.651863037109375,-0.0011321068741381168,0.0015524323098361492,-0.00002948986366391182
1761468635004845800,4.661845703125,0.0011579454876482487,-0.0025725378654897213,-0.0015477580018341541
1761468635014828800,4.671828857421875,-0.0007292637601494789,0.0002209101803600788,0.0014891000464558601
1761468635024812000,4.68181201171875,-0.00231650797650218,0.00023848703131079674,-0.00011172587983310223
1761468635034795000,4.691794921875,-0.0020590126514434814,-0.0006481918971985579,-0.0016773113748058677
1761468635044778000,4.701778076171875,-0.00026564067229628563,0.0003129430115222931,-0.0020046138670295477
1761468635054761000,4.711760986328125,-0.00022683106362819672,-0.00271680299192667,-0.0009877653792500496
1761468635064744000,4.721743896484375,0.001206215936690569,0.0024233642034232616,-0.0012495541013777256
1761468635074727000,4.731726806640625,0.00017717434093356133,-0.0025425637140870094,-0.00046268152073025703
1761468635084710000,4.7417099609375,0.00045334454625844955,0.002677498385310173,0.0011493298225104809
1761468635094694000,4.75169384765625,0.0008072867058217525,-0.00513611501082778,-0.002382071688771248
1761468635104676900,4.7616767578125,0.000674394890666008,-0.001227926230058074,0.00019826507195830345
1761468635114660000,4.77166015625,-0.00003732554614543915,-0.0013717238325625658,-0.0008018105290830135
1761468635124642800,4.781642822265625,0.001881481846794486,-0.00023881508968770504,0.0019343211315572262
1761468635134625800,4.791625732421875,0.0009123054333031178,-0.003428099909797311,-0.000011087395250797272
1761468635144609000,4.801609130859375,0.001455856952816248,0.0037770820781588554,0.002449407009407878
1761468635154592800,4.8115927734375,0.00018296577036380768,-0.0034156120382249355,-0.001660308800637722
1761468635164575500,4.821575439453125,0.002574750455096364,0.005520625039935112,0.0019317627884447575
1761468635174558700,4.831558837890625,0.0003543291240930557,-0.003735162317752838,0.00031208409927785397
1761468635184541700,4.841541748046875,0.00032103946432471275,0.00024999165907502174,-0.002505274023860693
1761468635194524700,4.851524658203125,-0.00038362573832273483,-0.003915541339665651,-0.0036218827590346336
1761468635204507600,4.861507568359375,0.0010547474958002567,0.0030294503085315228,0.0017430554144084454
1761468635214491600,4.87149169921875,-0.0017880178056657314,-0.0007293254602700472,-0.0018608788959681988
1761468635224474600,4.881474609375,0.000017872080206871033,0.001248071901500225,-0.000614785822108388
1761468635234457900,4.891457763671875,-0.0013810833916068077,-0.00004776613786816597,-0.0016641527181491256
1761468635244440800,4.90144091796875,0.0008818046189844608,0.0008878023363649845,-0.002022081520408392
1761468635254423600,4.911423583984375,-0.0013317214325070381,0.003890284337103367,0.00017937296070158482
1761468635264406800,4.92140673828125,-0.0018089599907398224,0.0015576216392219067,0.0014659459702670574
1761468635274389800,4.9313896484375,0.000684050377458334,-0.0016194747295230627,-0.0006154847797006369
1761468635284372500,4.94137255859375,-0.001493882853537798,0.0013259812258183956,0.0009539159946143627
1761468635294355700,4.951355712890625,-0.0017590080387890339,-0.004322421737015247,-0.0009490856900811195
1761468635304338700,4.961338623046875,-0.000667111948132515,-0.0004299457650631666,-0.0002489406615495682
1761468635314321700,4.97132177734375,-0.000590120442211628,0.0007199570536613464,0.0033628083765506744
1761468635324305700,4.9813056640625,0.0012075132690370083,-0.0025559975765645504,0.0007297410629689693
1761468635334288600,4.99128857421875,0.0014500860124826431,-0.0018638400360941887,0.00009493599645793438
1761468635344271600,5.001271728515625,-0.00018189940601587296,0.004500848241150379,0.0009924215264618397
1761468635354254800,5.0112548828125,-0.00022633327171206474,-0.004249840509146452,-0.0016404185444116592
1761468635364237800,5.02123779296875,0.0013246918097138405,0.0025526718236505985,0.0011764070950448513
1761468635374220500,5.031220458984375,0.0027948927599936724,-0.006666036322712898,-0.001891851075924933
1761468635384203800,5.041203857421875,-0.0008126255124807358,0.005036958493292332,0.0015071413945406675
1761468635394186800,5.051186767578125,-0.0016016052104532719,-0.0019817661959677935,-0.0014259963063523173
1761468635404169700,5.061169677734375,0.0019039136823266745,-0.0018861587159335613,0.0008811000734567642
1761468635414152700,5.071152587890625,0.0017996085807681084,0.0014346828684210777,-0.0014289329992607236
1761468635424135700,5.0811357421875,0.000564168207347393,0.00003891997039318085,-0.0016039026668295264
1761468635434118700,5.09111865234375,-0.001023721881210804,-0.0007300418801605701,-0.0027024780865758657
1761468635444101600,5.1011015625,-0.0008703237399458885,0.00027290452271699905,-0.000635332427918911
1761468635454085600,5.111085693359375,0.00043275579810142517,0.0012180684134364128,0.0032068893779069185
1761468635464068600,5.121068603515625,-0.0004122653044760227,0.0007866364903748035,-0.0005801257211714983
1761468635474051800,5.1310517578125,-0.0016308180056512356,-0.004403238650411367,-0.0005856668576598167
1761468635484034800,5.141034912109375,0.003035839181393385,-0.0006013098172843456,0.00011367932893335819
1761468635494017500,5.151017578125,-0.002764284610748291,-0.0023759850300848484,-0.00008976575918495655
1761468635504000800,5.161000732421875,-0.0018926318734884262,-0.0032332567498087883,-0.0015395907685160637
1761468635513983700,5.170983642578125,0.00010497821494936943,-0.002255343832075596,0.0014623245224356651
1761468635523966700,5.180966796875,-0.00030914368107914925,-0.0020729172974824905,0.00048068328760564327
1761468635533949700,5.19094970703125,0.0001818351447582245,0.0015638838522136211,-0.0006989107932895422
1761468635543932700,5.2009326171875,-0.000042669475078582764,0.001081052701920271,0.0012060485314577818
1761468635553915600,5.21091552734375,-0.0017430894076824188,-0.0008568300399929285,-0.0020895611960440874
1761468635563898600,5.220898681640625,-0.0021058120764791965,-0.004370604641735554,-0.0036704137455672026
1761468635573882600,5.230882568359375,-0.0021497998386621475,-0.0033983453176915646,-0.00007720198482275009
1761468635583865600,5.240865478515625,-0.00034976936876773834,0.0011367513798177242,-0.00032114749774336815
1761468635593848800,5.250848876953125,-0.00052599236369133,-0.0019420464523136616,-0.00042920373380184174
1761468635603831800,5.260831787109375,-0.000006942544132471085,0.002122469712048769,0.002193743595853448
1761468635613814500,5.270814453125,0.0004765349440276623,-0.0021323058754205704,-0.0005121431313455105
1761468635623797800,5.2807978515625,0.0017860112711787224,-0.004342463333159685,-0.0016575687332078815
1761468635633780700,5.29078076171875,-0.0027958410792052746,0.0008770166896283627,-0.00020314007997512817
1761468635643763700,5.300763671875,-0.0006709047593176365,-0.0018631094135344028,0.0025087567046284676
1761468635653746700,5.31074658203125,-0.0009553409181535244,-0.0005864894483238459,-0.0007364533375948668
1761468635663729700,5.320729736328125,0.0004577324725687504,0.000668658409267664,-0.0011601622682064772
1761468635673712600,5.330712646484375,0.0017364919185638428,0.0001832977868616581,-0.0013503989903256297
1761468635683695900,5.34069580078125,-0.00041028251871466637,-0.00111366156488657,0.0013774768449366093
1761468635693679600,5.3506796875,0.0021415497176349163,-0.00019880430772900581,0.0019021232146769762
1761468635703662600,5.36066259765625,0.0005095647647976875,-0.0031221560202538967,-0.0017647832864895463
1761468635713645800,5.370645751953125,-0.0011813603341579437,0.0016831555403769016,-0.0015834564110264182
1761468635723628800,5.38062890625,0.0010130847804248333,0.003190771210938692,-0.0004886309616267681
1761468635733611500,5.390611572265625,-0.0002078474499285221,0.0014160550199449062,-0.0003597671166062355
1761468635743594800,5.4005947265625,-0.00040971487760543823,-0.0001432257704436779,-0.0008585772011429071
1761468635753577700,5.41057763671875,0.001244263257831335,0.0005742297507822514,0.0011553054209798574
1761468635763560700,5.420560791015625,-0.0015999926254153252,-0.0029294248670339584,-0.0007200927939265966
1761468635773543700,5.430543701171875,-0.0012784958817064762,-0.00348655809648335,-0.0015848211478441954
1761468635783526700,5.440526611328125,0.0009255362674593925,-0.00004655309021472931,0.0011465169955044985
1761468635793509600,5.450509521484375,-0.00005280831828713417,-0.0001607825979590416,0.00012872065417468548
1761468635803493600,5.46049365234375,0.0005690399557352066,-0.004027426242828369,-0.002371721202507615
1761468635813476600,5.4704765625,-0.0014543309807777405,0.004609136842191219,0.0006731620524078608
1761468635823459600,5.48045947265625,-0.0007571154274046421,-0.004634695127606392,-0.000694371061399579
1761468635833442600,5.490442626953125,0.0006768098101019859,0.0015112957917153835,0.0012853241059929132
1761468635843425800,5.50042578125,-0.00048059970140457153,-0.0033236732706427574,-0.0015333654591813684
1761468635853408500,5.510408447265625,0.000987216830253601,-0.004274867009371519,0.00029112515039741993
1761468635863391700,5.520391845703125,-0.0000016149133443832397,0.0027383011765778065,0.004501583054661751
1761468635873374700,5.530374755859375,-0.0019341940060257912,-0.0009656301699578762,-0.0020283013582229614
1761468635883357700,5.540357666015625,-0.0015560248866677284,0.0001515657640993595,-0.000655441777780652
1761468635893340700,5.550340576171875,-0.002275381237268448,-0.003893795423209667,0.00019777147099375725
1761468635903323600,5.56032373046875,0.000940385740250349,0.0011925757862627506,0.0011072410270571709
1761468635913306600,5.570306640625,0.00021136272698640823,-0.0007039234042167664,-0.0003636267501860857
1761468635923289900,5.580289794921875,-0.0016605732962489128,-0.0015324328560382128,0.00431075319647789
1761468635933273900,5.59027392578125,0.001166369765996933,-0.0011791330762207508,0.0023619085550308228
1761468635943256600,5.600256591796875,0.0007056430913507938,-0.0003120077308267355,0.00045508542098104954
1761468635953239600,5.610239501953125,0.0007754722610116005,-0.0026644167955964804,-0.0005393873434513807
1761468635963222800,5.620222900390625,0.0025725732557475567,0.0006349734030663967,-0.0005250063259154558
1761468635973205500,5.63020556640625,0.0010213027708232403,0.0007316023111343384,-0.0005169573705643415
1761468635983188700,5.640188720703125,0.0009928070940077305,-0.0014647066127508879,0.00019916659221053123
1761468635993171700,5.650171630859375,-0.0008027688600122929,-0.0009033943060785532,-0.0009101075120270252
1761468636003154700,5.66015478515625,-0.0009172847494482994,-0.00053028529509902,-0.00022727297618985176
1761468636013137700,5.6701376953125,-0.0007841219194233418,0.0012101978063583374,-0.0013913961593061686
1761468636023120600,5.68012060546875,-0.00042139971628785133,-0.0015331245958805084,0.0021016057580709457
1761468636033103600,5.690103515625,-0.0011067837476730347,-0.003727408591657877,-0.0035120942629873753
1761468636043086800,5.7000869140625,0.0014013811014592648,-0.0007433365099132061,0.0009063563775271177
1761468636053070800,5.71007080078125,0.0006003775633871555,0.0016877790912985802,-0.0006664956454187632
1761468636063053600,5.720053466796875,0.00015190104022622108,-0.004419381730258465,-0.00037141749635338783
1761468636073036500,5.73003662109375,-0.0010121623054146767,0.003104688134044409,0.0034480325412005186
1761468636083019800,5.740019775390625,-0.0017637060955166817,-0.006055520847439766,-0.0017147716134786606
1761468636093002800,5.750002685546875,0.0002470239996910095,0.0077267843298614025,0.001964238937944174
1761468636102985700,5.75998583984375,-0.004062503110617399,-0.005509126465767622,-0.00035191234201192856
1761468636112968700,5.76996875,-0.0009950515814125538,-0.0006385112646967173,0.001517686527222395
1761468636122951700,5.77995166015625,0.001178354024887085,-0.00124224997125566,-0.0033391201868653297
1761468636132934700,5.7899345703125,-0.002023587003350258,-0.001656331354752183,0.00002652290277183056
1761468636142917600,5.799917724609375,-0.000005177222192287445,-0.0021636635065078735,0.0013288087211549282
1761468636152900600,5.809900634765625,-0.00010413723066449165,-0.003272771369665861,-0.001485925866290927
1761468636162883600,5.819883544921875,-0.00045034801587462425,0.0019552800804376602,0.0021399680990725756
1761468636172866300,5.8298662109375,0.00041235843673348427,-0.0016619449015706778,-0.0010601109825074673
1761468636182850300,5.839850341796875,0.002624379936605692,-0.0020696748979389668,-0.0010563824325799942
1761468636192833500,5.84983349609375,0.0012766020372509956,0.0010758056305348873,-0.0010275563690811396
1761468636202816500,5.85981640625,0.0010462384670972824,0.000017997808754444122,0.00009949342347681522
1761468636212799500,5.869799560546875,0.00067179836332798,0.0005429070442914963,0.0005213380791246891
1761468636222782500,5.879782470703125,0.0024382728151977062,-0.0027881748974323273,0.0011447840370237827
1761468636232765400,5.889765380859375,-0.0012313700281083584,-0.0019624109845608473,-0.00021482701413333416
1761468636242748400,5.89974853515625,0.00046932464465498924,-0.0033262157812714577,0.0002538892440497875
1761468636252731400,5.9097314453125,0.002065648790448904,0.0012904354371130466,0.0021580529864877462
1761468636262714400,5.91971435546875,-0.00021002255380153656,-0.0014430331066250801,0.000223532784730196
1761468636272697300,5.929697265625,0.0013037184253335,-0.001606551231816411,0.0020786907989531755
1761468636282680600,5.9396806640625,0.001813713926821947,-0.0004595275968313217,0.0011471167672425508
1761468636292663300,5.949663330078125,-0.0004231254570186138,0.0019806046038866043,0.002106912899762392
1761468636302647300,5.959647216796875,0.0033345946576446295,-0.0006918774452060461,0.0008949083276093006
1761468636312630500,5.969630615234375,-0.0007584402337670326,0.002348161768168211,0.0009134903084486723
1761468636322613500,5.979613525390625,0.00092680798843503,-0.005456498358398676,-0.003594975220039487
1761468636332596500,5.989596435546875,0.000045332591980695724,0.0009222091175615788,0.0011461987160146236
1761468636342579500,5.999579345703125,-0.0010191327892243862,0.0036157299764454365,-0.0033106012269854546
1761468636352562400,6.0095625,0.0029076198115944862,-0.001003979705274105,0.0009411235805600882
1761468636362545400,6.01954541015625,0.0017558024264872074,-0.0022599264048039913,0.0023973400238901377
1761468636372528400,6.0295283203125,-0.0014969822950661182,-0.002232762286439538,0.0009693528991192579
1761468636382511400,6.039511474609375,0.00047721900045871735,-0.0006955857388675213,-0.0015169742982834578
1761468636392494300,6.049494384765625,-0.0009008678607642651,-0.0034086687956005335,-0.0003869233187288046
1761468636402477600,6.0594775390625,0.00041366880759596825,-0.00258308881893754,-0.0021043960005044937
1761468636412460300,6.069460205078125,0.0012583760544657707,-0.0017524680588394403,0.0007930595893412828
1761468636422443300,6.079443359375,0.0006588981486856937,-0.0035586238373070955,0.0017600532155483961
1761468636432427500,6.089427490234375,0.0008981921710073948,0.003168845549225807,-0.0009873390663415194
1761468636442410500,6.099410400390625,-0.0006072930991649628,-0.004425424616783857,-0.0021479446440935135
1761468636452393500,6.1093935546875,-0.000122185330837965,0.004345061257481575,0.000800043111667037
1761468636462376400,6.11937646484375,0.002789981197565794,-0.003330701030790806,-0.0030349085573107004
1761468636472359400,6.129359375,-0.0009569437243044376,0.0034787962213158607,-0.001651044120080769
1761468636482342400,6.13934228515625,0.0003751693293452263,-0.0014105010777711868,0.00012128963135182858
1761468636492325600,6.14932568359375,0.00044792424887418747,0.002699944656342268,-0.0008893082849681377
1761468636502308400,6.159308349609375,-0.0017217532731592655,-0.0021629873663187027,-0.0008144734892994165
1761468636512291300,6.169291259765625,0.0022410759702324867,-0.0011252337135374546,-0.00035409792326390743
1761468636522274600,6.179274658203125,0.005106370896100998,-0.00037235813215374947,0.0001574952621012926
1761468636532257300,6.18925732421875,0.002178564202040434,-0.005292733199894428,-0.00023483764380216599
1761468636542240300,6.199240234375,0.002819320885464549,-0.0019560586661100388,-0.00010993541218340397
1761468636552223500,6.209223388671875,-0.0014273785054683685,-0.0014204576145857573,-0.0009321132674813271
1761468636562207500,6.21920751953125,0.000536702573299408,-0.0014244525227695704,0.0015073420945554972
1761468636572190500,6.2291904296875,-0.00024883123114705086,-0.0028160763904452324,-0.0016811895184218884
1761468636582173400,6.23917333984375,0.0001346636563539505,0.001566154882311821,-0.001549363019876182
1761468636592156400,6.249156494140625,0.0005868175067007542,-0.00032401341013610363,-0.001333387685008347
1761468636602139400,6.259139404296875,-0.0003029443323612213,-0.00035597127862274647,0.0002709005493670702
1761468636612122600,6.26912255859375,0.0006612907163798809,0.004052318166941404,-0.0015236622421070933
1761468636622105300,6.279105224609375,0.0026599932461977005,0.00023494334891438484,0.0005381570663303137
1761468636632088300,6.28908837890625,-0.0007864763028919697,-0.0020266955252736807,-0.000680022407323122
1761468636642071600,6.299071533203125,0.0008297963067889214,0.0004367283545434475,-0.0001548470463603735
1761468636652054500,6.309054443359375,0.0028732717037200928,-0.0005855567287653685,-0.00029293354600667953
1761468636662037200,6.319037353515625,-0.000922798179090023,0.0019353916868567467,-0.0005627118516713381
1761468636672020500,6.3290205078125,-0.0014008856378495693,0.0014443560503423214,-0.0010480477940291166
1761468636682003500,6.33900341796875,-0.0013223220594227314,-0.004477182403206825,0.0010955305770039558
1761468636691987500,6.348987548828125,-0.00000100722536444664,-0.0007062146905809641,-0.0003800534177571535
1761468636701970400,6.358970458984375,0.0019950319547206163,-0.004935048054903746,-0.0004735302645713091
1761468636711953400,6.368953369140625,-0.0005224738270044327,0.003763775806874037,0.0020350508857518435
1761468636721936400,6.378936279296875,0.00032015005126595497,-0.0018403136637061834,0.00007043709047138691
1761468636731919600,6.388919677734375,0.0004222691059112549,0.000058887992054224014,0.0003278292715549469
1761468636741902300,6.39890234375,0.0006068265065550804,0.0018163076601922512,-0.0009614070877432823
1761468636751885300,6.40888525390625,0.0015437966212630272,-0.0012148430105298758,-0.000835200073197484
1761468636761868500,6.41886865234375,0.002957935445010662,-0.00009445101022720337,-0.0016642421251162887
1761468636771851500,6.4288515625,0.0013091722503304482,-0.002402159385383129,-0.0003386358730494976
1761468636781834200,6.438834228515625,0.0014170301146805286,0.0011670091189444065,-0.0019069715635851026
1761468636791817500,6.4488173828125,-0.0021423804573714733,0.0005251453258097172,0.0006687103305011988
1761468636801800400,6.458800537109375,0.00038123130798339844,-0.0018466657493263483,-0.0014309260295704007
1761468636811783400,6.468783447265625,-0.000739674549549818,0.007441559340804815,0.0006324239075183868
1761468636821766400,6.478766357421875,-0.000428883358836174,-0.004860912915319204,-0.004465931560844183
1761468636831750400,6.48875048828125,0.003738408675417304,-0.001946840202435851,0.0013167962897568941
1761468636841733400,6.4987333984375,-0.0020020348019897938,-0.0033247596584260464,-0.0015213342849165201
1761468636851716600,6.508716552734375,-0.0002449876628816128,-0.00043756398372352123,0.00037510646507143974
1761468636861699300,6.51869921875,0.0009023020975291729,0.003384605050086975,0.0004928181879222393
1761468636871682300,6.528682373046875,-0.002684278879314661,-0.0011086619924753904,0.0000035802368074655533
1761468636881665500,6.53866552734375,0.000995943322777748,-0.0027398481033742428,-0.00015301373787224293
1761468636891648500,6.5486484375,-0.0006095529533922672,-0.003475475125014782,-0.0000874251127243042
1761468636901631200,6.55863134765625,-0.0013520424254238605,0.002670567948371172,-0.0020424516405910254
1761468636911614500,6.568614501953125,-0.0016234461218118668,-0.001926475204527378,0.0015430152416229248
1761468636921597400,6.578597412109375,-0.0015693837776780128,-0.0025912001729011536,-0.0023926040157675743
1761468636931580400,6.588580322265625,-0.0005828486755490303,0.003262937068939209,-0.0012820516712963581
1761468636941563400,6.5985634765625,0.001741824671626091,0.00025889137759804726,-0.00014887657016515732
1761468636951546400,6.60854638671875,-0.0007208753377199173,-0.0022760890424251556,-0.0011832593008875847
1761468636961530400,6.6185302734375,0.0011960677802562714,0.0011348878033459187,-0.001589125138707459
1761468636971513600,6.628513671875,-0.0010355128906667233,0.0010150452144443989,0.0028296702075749636
1761468636981496300,6.638496337890625,-0.0001388266682624817,-0.0022680996917188168,0.000048531219363212585
1761468636991479300,6.648479248046875,0.0005449061281979084,-0.0025840718299150467,-0.002492052735760808
1761468637001462500,6.658462646484375,0.0012676878832280636,-0.00011345744132995605,0.0008147943299263716
1761468637011445500,6.668445556640625,-0.001193850301206112,-0.00366589124314487,-0.003300262615084648
1761468637021428200,6.67842822265625,-0.00017412612214684486,-0.0016637267544865608,-0.0008589427452534437
1761468637031411500,6.688411376953125,-0.001944670919328928,-0.0033472939394414425,0.00020098453387618065
1761468637041394400,6.69839453125,0.0015699025243520737,0.00480650644749403,0.0004854099825024605
1761468637051377400,6.70837744140625,0.0013914708979427814,-0.007889848202466965,-0.002012901473790407
1761468637061360400,6.7183603515625,0.0009773490019142628,0.0028022113256156445,0.0013765038456767797
1761468637071343400,6.72834326171875,-0.0009260601364076138,-0.0023180036805570126,-0.0016545038670301437
1761468637081326600,6.73832666015625,-0.002721297089010477,-0.00038428232073783875,0.0015711169689893723
1761468637091309600,6.7483095703125,0.0009116586297750473,0.001478681806474924,-0.00027350825257599354
1761468637101293300,6.758293212890625,-0.0005954243242740631,-0.0009162987116724253,0.0006647233385592699
1761468637111276300,6.7682763671875,-0.00011434918269515038,-0.001022539334371686,0.0019763933960348368
1761468637121259500,6.778259521484375,0.0020188428461551666,0.00020411238074302673,0.0015958279836922884
1761468637131242500,6.788242431640625,-0.0016843751072883606,-0.003042506519705057,0.0006337554659694433
1761468637141225200,6.79822509765625,-0.00006890157237648964,-0.0011444718111306429,-0.0007798504084348679
1761468637151208400,6.80820849609375,0.000630541704595089,0.0005403072573244572,-0.0010100184008479118
1761468637161190700,6.818190673828125,-0.0018355455249547958,0.0007309895008802414,-0.00009548896923661232
1761468637171173600,6.828173583984375,0.000016009900718927383,0.0010090232826769352,-0.0005883472040295601
1761468637181156600,6.838156494140625,0.002038680948317051,-0.0032472405582666397,-0.001991833094507456
1761468637191139600,6.8481396484375,-0.001272515393793583,-0.004516645334661007,-0.001592040411196649
1761468637201122800,6.858122802734375,0.000899558886885643,0.0009630750864744186,0.0009161247871816158
1761468637211105500,6.86810546875,-0.0018135495483875275,-0.004985930863767862,-0.0010291403159499168
1761468637221088800,6.8780888671875,0.0018762601539492607,0.004520222544670105,0.000639596488326788
1761468637231071700,6.88807177734375,0.0004486474208533764,0.001052390318363905,-0.0000429211650043726
1761468637241055700,6.8980556640625,-0.0002831891179084778,-0.0013178230728954077,0.0011246083304286003
1761468637251038700,6.908038818359375,0.00016472255811095238,0.0050186156295239925,-0.002335209399461746
1761468637261021700,6.918021728515625,-0.00047416985034942627,0.000005481299012899399,-0.0019306752365082502
1761468637271004700,6.928004638671875,-0.001212079543620348,-0.0015214532613754272,-0.0031381752341985703
1761468637280987600,6.937987548828125,0.0030023728031665087,0.002349983900785446,0.0011583021841943264
1761468637290970600,6.947970703125,0.00040055764839053154,-0.00038934219628572464,0.0012286088895052671
1761468637300953600,6.95795361328125,-0.0010119830258190632,0.001543313730508089,0.0014885335694998503
1761468637310936600,6.9679365234375,0.0018026959151029587,-0.003911514300853014,-0.0007616567891091108
1761468637320919800,6.977919921875,-0.0016522225923836231,-0.0025290674529969692,0.0014375813771039248
1761468637330902500,6.987902587890625,0.0005814125761389732,-0.00210052402690053,-0.00029653427191078663
1761468637340885800,6.9978857421875,-0.00034190528094768524,0.0009365449659526348,0.0002078686375170946
1761468637350868700,7.00786865234375,0.001049206592142582,0.0006223111413419247,0.0003803730942308903
1761468637360851700,7.017851806640625,0.00006277207285165787,-0.00007144222036004066,-0.001604214427061379
1761468637370835700,7.027835693359375,-0.002013026736676693,-0.002026899950578809,-0.0028466740623116493
1761468637380818700,7.037818603515625,0.0006328239105641842,0.002686895430088043,-0.001173676224425435
1761468637390801700,7.0478017578125,0.00005339505150914192,-0.002380196936428547,-0.001917604124173522
1761468637400784600,7.05778466796875,-0.0023871255107223988,0.0018683439120650291,0.0005623314063996077
1761468637410768000,7.067767822265625,0.000042644795030355453,-0.003273545764386654,-0.00022400123998522758
1761468637420750600,7.07775048828125,-0.0007195519283413887,-0.0011267715599387884,-0.000927608460187912
1761468637430733600,7.087733642578125,-0.0007691201753914356,-0.004181825090199709,0.0004905317910015583
1761468637440716800,7.097716796875,0.000654872041195631,-0.0005908189341425896,0.0006937310099601746
1761468637450699500,7.107699462890625,-0.000981885939836502,-0.001906668534502387,-0.0014617816777899861
1761468637460682800,7.117682861328125,0.0004431717097759247,-0.00048374151811003685,0.0003747341688722372
1761468637470665700,7.127665771484375,0.0006769783794879913,-0.002274614991620183,0.0021828196477144957
1761468637480648700,7.137648681640625,-0.0009986828081309795,-0.0035278985742479563,-0.0028537504840642214
1761468637490631700,7.147631591796875,0.0013750577345490456,0.002277894876897335,0.0033598020672798157
1761468637500614700,7.15761474609375,0.0000975392758846283,0.0006911838427186012,0.0004569566808640957
1761468637510598700,7.1675986328125,-0.00036059506237506866,0.0003722715191543102,-0.00026890309527516365
1761468637520581600,7.17758154296875,0.0020429077558219433,-0.002711934968829155,-0.0040617771446704865
1761468637530564900,7.18756494140625,-0.0026625050231814384,0.0006318599916994572,0.0011659725569188595
1761468637540547600,7.197547607421875,0.0005229022353887558,0.003364263568073511,-0.0008537687826901674
1761468637550530600,7.207530517578125,0.0004187510348856449,-0.0016391032841056585,0.0005559623241424561
1761468637560513800,7.217513671875,-0.000977011863142252,-0.002095568925142288,0.0011775440070778131
1761468637570496800,7.227496826171875,-0.0018490534275770187,-0.0005866980645805597,-0.0005267581436783075
1761468637580479700,7.237479736328125,-0.0007126829586923122,-0.0047990200109779835,-0.002390438225120306
1761468637590462700,7.247462646484375,-0.0008098781108856201,0.00321834534406662,0.002787744626402855
1761468637600445700,7.25744580078125,0.0007139826193451881,-0.0030448767356574535,-0.0010424135252833366
1761468637610428700,7.2674287109375,-0.00031220586970448494,-0.0028423811309039593,0.002215422224253416
1761468637620411600,7.27741162109375,0.00024892203509807587,-0.00020585162565112114,0.0019088922999799252
1761468637630394600,7.28739453125,-0.0022114883176982403,0.0013906080275774002,0.0017803965602070093
1761468637640377900,7.2973779296875,-0.0025494438596069813,-0.0028352958615869284,0.0015351192560046911
1761468637650361900,7.30736181640625,-0.000013914424926042557,-0.0003367532044649124,-0.0010880816262215376
1761468637660344600,7.317344482421875,-0.0006410889327526093,0.0013202656991779804,0.00015055458061397076
1761468637670327600,7.32732763671875,-0.0020977724343538284,-0.0010858189780265093,-0.002076047006994486
1761468637680310800,7.337310791015625,0.0016365121118724346,0.0011938470415771008,-0.0014656506245955825
1761468637690293800,7.347293701171875,-0.00007912050932645798,0.0007921606302261353,-0.002166129183024168
1761468637700276700,7.35727685546875,0.0008367407135665417,0.0022534369491040707,-0.00044732517562806606
1761468637710259700,7.367259765625,0.0002670949324965477,0.0049391090869903564,0.0012745270505547523
1761468637720242700,7.37724267578125,0.00020957039669156075,-0.00810079276561737,0.00015280372463166714
1761468637730225700,7.3872255859375,-0.00014999043196439743,0.002723485231399536,0.003768725087866187
1761468637740208600,7.397208740234375,0.0016561653465032578,-0.0005527357570827007,0.0010578932706266642
1761468637750191600,7.407191650390625,-0.0006973333656787872,0.0009325277060270309,0.00014270725660026073
1761468637760174800,7.4171748046875,0.0005074804648756981,-0.002510673366487026,0.002493479521945119
1761468637770157600,7.427157470703125,-0.000676971860229969,0.001249412540346384,-0.0014733917778357863
1761468637780140500,7.437140625,0.0015859161503612995,0.001779381651431322,0.0013122744858264923
1761468637790123800,7.447123779296875,0.00026048021391034126,0.0005504493601620197,-0.0007199770770967007
1761468637800107800,7.457107666015625,-0.0008505908772349358,-0.000438914867118001,-0.0008930827025324106
1761468637810090800,7.4670908203125,0.001491605769842863,-0.004742953460663557,-0.00035679922439157963
1761468637820073700,7.47707373046875,0.0007640300318598747,0.0000523347407579422,0.00024667312391102314
1761468637830056700,7.487056640625,-0.0004338938742876053,-0.00508492486551404,-0.0035177692770957947
1761468637840039700,7.497039794921875,-0.00025333184748888016,0.00511231878772378,0.002189118415117264
1761468637850023000,7.50702294921875,-0.0035502566024661064,-0.0024974793195724487,0.001429251627996564
1761468637860005600,7.517005615234375,0.00024235108867287636,0.004315951839089394,0.0023789347615092993
1761468637869988600,7.526988525390625,0.0007313769310712814,0.0006087291985750198,-0.0018431057687848806
1761468637879971800,7.536971923828125,-0.002256156876683235,-0.0019396499264985323,-0.0012396334204822779
1761468637889954600,7.54695458984375,0.0027029705233871937,-0.0009425836615264416,-0.0013456912711262703
1761468637899937500,7.5569375,0.0005295649170875549,0.00009205425158143044,-0.0014676640275865793
1761468637909920800,7.566920654296875,-0.0009234286844730377,-0.0013026217930018902,-0.0005994096864014864
1761468637919903700,7.57690380859375,0.0006337217055261135,-0.0019164802506566048,0.0008315069135278463
1761468637929886500,7.586886474609375,-0.0006662216037511826,0.0009475043043494225,0.003054022556170821
1761468637939869700,7.59686962890625,-0.00020869029685854912,-0.006951431278139353,-0.0021868119947612286
1761468637949853700,7.606853759765625,0.000015486963093280792,0.004230812657624483,0.0024699068162590265
1761468637959836700,7.616836669921875,0.00041735824197530746,-0.006120362319052219,-0.0017767698736861348
1761468637969820000,7.62681982421875,0.002653484931215644,0.002133084461092949,0.0026641993317753077
1761468637979802600,7.636802734375,-0.000029383692890405655,0.001604979857802391,0.000433801906183362
1761468637989785600,7.64678564453125,0.0010155201889574528,0.0008856374770402908,-0.000720334006473422
1761468637999768800,7.656768798828125,-0.0007759882137179375,-0.000731167383491993,-0.0005419021472334862
1761468638009751800,7.666751708984375,-0.0002458244562149048,-0.003089951118454337,-0.0022429274395108223
1761468638019734500,7.676734619140625,0.000583217479288578,0.0020233183167874813,0.0012245082762092352
1761468638029717800,7.6867177734375,-0.0020389663986861706,0.000029715709388256073,0.0017120733391493559
1761468638039700700,7.69670068359375,-0.0002764863893389702,-0.00043846783228218555,-0.0018336594803258777
1761468638049683500,7.706683349609375,0.0007499982602894306,-0.0023779748007655144,0.0016256347298622131
1761468638059666700,7.716666748046875,-0.0010630819015204906,0.0006199455820024014,0.00006422353908419609
1761468638069649700,7.726649658203125,-0.0006617056205868721,-0.0073338826186954975,-0.0009917065035551786
1761468638079632600,7.736632568359375,-0.0004161624237895012,0.0019022263586521149,0.0024949037469923496
1761468638089617000,7.746616943359375,-0.0005423775874078274,0.0006492487154901028,0.002965690102428198
1761468638099599600,7.756599609375,0.001987359020859003,0.0002441820688545704,-0.0014255959540605545
1761468638109582600,7.76658251953125,-0.00006722193211317062,-0.0003858956042677164,0.0008851333986967802
1761468638119565800,7.77656591796875,-0.002069386187940836,-0.0009986890945583582,-0.0011391350999474525
1761468638129548800,7.786548828125,-0.0009353994391858578,-0.0006413802038878202,-0.0015040177386254072
1761468638139531500,7.796531494140625,0.0009740870445966721,0.00020657014101743698,-0.00239244825206697
1761468638149514800,7.8065146484375,0.001635110005736351,-0.0005014769267290831,-0.0019437617156654596
1761468638159497500,7.81649755859375,-0.001999571919441223,-0.0018005669116973877,-0.003983210306614637
1761468638169480400,7.82648046875,-0.00012594275176525116,-0.0023031928576529026,-0.0000558365136384964
1761468638179463700,7.836463623046875,-0.00042847776785492897,0.001275563146919012,-0.0012659768108278513
1761468638189446400,7.8464462890625,0.0008957893587648869,0.00004214514046907425,0.00028549693524837494
1761468638199429600,7.8564296875,0.000812165904790163,-0.0018665425013750792,0.0002157222479581833
1761468638209412600,7.86641259765625,0.001435043290257454,-0.0033001983538269997,0.0008514521177858114
1761468638219395300,7.876395263671875,-0.0003503398038446903,0.001292422879487276,0.0037044964265078306
1761468638229379300,7.88637939453125,-0.00007910607382655144,-0.000639243284240365,0.00019164173863828182
1761468638239362600,7.896362548828125,0.0002817525528371334,-0.002489873906597495,-0.0009319458622485399
1761468638249345500,7.906345458984375,-0.0009447061456739902,-0.0008449051529169083,-0.000421029282733798
1761468638259328500,7.91632861328125,0.0007171067409217358,-0.0008563566952943802,-0.0007536581251770258
1761468638269311500,7.9263115234375,-0.0014082742854952812,-0.004381598439067602,-0.0012313526822254062
1761468638279294500,7.93629443359375,0.0024818049278110266,0.0005894582718610764,0.0014930609613656998
1761468638289277400,7.94627734375,-0.0027374527417123318,0.003863177727907896,0.0008428518194705248
1761468638299260700,7.9562607421875,-0.00045645562931895256,0.0035590450279414654,-0.0015971362590789795
1761468638309243400,7.966243408203125,0.0005755433812737465,0.0013054623268544674,0.0013891779817640781
1761468638319226600,7.9762265625,-0.00018239207565784454,0.0036514406092464924,0.002963106147944927
1761468638329209600,7.986209716796875,0.0006575929000973701,-0.0032608818728476763,-0.004696920979768038
1761468638339192600,7.996192626953125,-0.0004119323566555977,0.0012316047213971615,-0.00031761894933879375
1761468638349175600,8.006175537109375,-0.0019733132794499397,-0.0014786568935960531,0.0001044797245413065
1761468638359158500,8.016158447265624,-0.0014609210193157196,-0.0007588046137243509,-0.000587675953283906
1761468638369141500,8.0261416015625,0.0016917134635150433,-0.0038349900860339403,0.0003667399287223816
1761468638379125500,8.03612548828125,0.0010179337114095688,0.00014350609853863716,0.0009776689112186432
1761468638389108500,8.0461083984375,0.0019174390472471714,-0.0036928816698491573,0.00013864180073142052
1761468638399091500,8.056091552734374,-0.0012426679022610188,0.000728764571249485,0.003418591106310487
1761468638409074400,8.066074462890626,-0.0014456799253821373,0.0021294155158102512,0.002537292893975973
1761468638419057700,8.0760576171875,0.0019024461507797241,-0.0022893014829605818,-0.0011256185825914145
1761468638429040400,8.086040283203126,-0.0019418750889599323,0.004473181441426277,-0.0007786760106682777
1761468638439023600,8.096023681640625,0.00022540520876646042,-0.0007247759494930506,-0.0014913378981873393
1761468638449006600,8.106006591796875,0.0012109903618693352,0.0027159112505614758,-0.00033952738158404827
1761468638458989600,8.115989501953125,0.0006927396170794964,0.00013956939801573753,-0.001912656589411199
1761468638468972500,8.12597265625,0.0019922046922147274,-0.0045607248321175575,-0.0005041779950261116
1761468638478955500,8.13595556640625,0.001357839908450842,0.004637300502508879,0.0012705526314675808
1761468638488938500,8.1459384765625,-0.0010143951512873173,0.00015091663226485252,0.0014819432981312275
1761468638498921700,8.155921630859375,-0.00007403315976262093,0.0005077803507447243,-0.0014720349572598934
1761468638508904400,8.165904541015625,-0.0005620578303933144,-0.00024684169329702854,-0.0015346126165241003
1761468638518887400,8.175887451171874,0.0006235814653337002,-0.005287673324346542,0.002230830956250429
1761468638528870700,8.18587060546875,0.0024799902457743883,-0.0009314147755503654,-0.0012467957567423582
1761468638538854700,8.195854736328124,-0.00023456988856196404,-0.0013636460062116385,-0.00005290075205266476
1761468638548837400,8.20583740234375,0.0000599883496761322,-0.0041721779853105545,0.0008264624048024416
1761468638558820600,8.215820556640624,0.0004986110143363476,0.004702806007117033,0.002842475427314639
1761468638568803600,8.225803466796876,-0.0017252308316528797,-0.004784140735864639,-0.0006354076322168112
1761468638578786600,8.23578662109375,0.003768870374187827,0.004350235220044851,-0.0004519158974289894
1761468638588769500,8.24576953125,0.00043119490146636963,0.0006654052995145321,0.0004684051964432001
1761468638598752500,8.25575244140625,-0.001279087271541357,-0.00005444744601845741,0.0018236879259347916
1761468638608735500,8.265735595703125,0.0018720859661698341,-0.00016889255493879318,0.00019743968732655048
1761468638618718700,8.27571875,-0.001531700138002634,0.003512128721922636,0.0014880076050758362
1761468638628701400,8.285701416015625,0.00027011753991246223,-0.003176632570102811,-0.000571427633985877
1761468638638684400,8.295684326171875,-0.0012343022972345352,0.00045085931196808815,0.0007614847272634506
1761468638648667600,8.305667724609375,-0.0031536095775663853,-0.001230175606906414,-0.0009894059039652348
1761468638658650400,8.315650390625,-0.0008555678650736809,-0.0030733493622392416,0.0002628124784678221
1761468638668633300,8.32563330078125,-0.0011245068162679672,-0.0010601133108139038,0.0011549652554094791
1761468638678616600,8.335616455078124,-0.000890681054443121,-0.0010262911673635244,-0.001234422903507948
1761468638688599600,8.345599609375,0.0020568789914250374,-0.000953067559748888,0.0017860622610896826
1761468638698583600,8.35558349609375,0.001329303253442049,-0.0020215276163071394,-0.0017343703657388687
1761468638708566500,8.36556640625,0.00043454673141241074,0.001269334927201271,-0.0011191344819962978
1761468638718549500,8.375549560546874,-0.0003287149593234062,-0.0044082580134272575,-0.0031524577643722296
1761468638728532500,8.385532470703126,-0.0007105492986738682,-0.0009035435505211353,-0.000025326618924736977
1761468638738515700,8.395515625,-0.0003683334216475487,0.0026608314365148544,0.00039545283652842045
1761468638748498400,8.40549853515625,-0.0014543430879712105,0.0012802821584045887,0.0018822341226041317
1761468638758481400,8.4154814453125,-0.0013539423234760761,0.0026432881131768227,0.00041243573650717735
1761468638768464600,8.425464599609375,0.002516635227948427,-0.0014896576758474112,-0.0012051502708345652
1761468638778447600,8.435447509765625,-0.002936719451099634,0.0008568535558879375,0.0012153969146311283
1761468638788430300,8.445430419921875,-0.0004629548639059067,-0.0007808527443557978,-0.0004980782978236675
1761468638798413600,8.45541357421875,0.0007679583504796028,-0.00047964928671717644,0.001350688049569726
1761468638808396500,8.465396484375,-0.003025734331458807,-0.003033378627151251,0.00007190206088125706
1761468638818379500,8.475379638671875,0.0003740563988685608,-0.004873090423643589,-0.0015286578563973308
1761468638828362500,8.485362548828125,-0.0018191863782703876,0.001251937821507454,0.002077625133097172
1761468638838346500,8.495346435546875,-0.0009571211412549019,-0.004542035050690174,-0.0018681143410503864
1761468638848329500,8.50532958984375,0.0008118161931633949,0.0056379311718046665,0.0023688634391874075
1761468638858312700,8.515312744140624,0.0011473745107650757,0.0011925832368433475,0.0005123738665133715
1761468638868295400,8.52529541015625,0.00019692443311214447,0.0003693769685924053,0.0012018245179206133
1761468638878278400,8.5352783203125,0.000317299272865057,0.00019174395129084587,-0.00023255404084920883
1761468638888261600,8.54526171875,0.0011516273953020573,-0.005194718949496746,-0.00003763544373214245
1761468638898244600,8.55524462890625,0.0018267384730279446,-0.002869246993213892,-0.000833920668810606
1761468638908227300,8.565227294921876,-0.0012296992354094982,-0.0011745486408472061,0.0009909227956086397
1761468638918210600,8.57521044921875,0.0008001620881259441,0.0004406585358083248,0.0032130645122379065
1761468638928193500,8.585193603515625,0.0005195126868784428,0.0013354094699025154,0.0003212864976376295
1761468638938176500,8.595176513671875,-0.0018464396707713604,-0.001489139162003994,-0.0009812654461711645
1761468638948160500,8.605160400390625,0.001254454255104065,0.0016122637316584587,0.00006758095696568489
1761468638958143500,8.6151435546875,0.0016941418871283531,-0.0029121804982423782,0.0006673247553408146
1761468638968126500,8.62512646484375,-0.000054245349019765854,0.0008554267697036266,0.00011140131391584873
1761468638978109700,8.635109619140625,0.001027796883136034,-0.0018348984885960817,0.00009089498780667782
1761468638988092400,8.645092529296875,-0.000627168919891119,-0.001222267048433423,-0.00026533682830631733
1761468638998075400,8.655075439453125,0.001759023405611515,-0.0014624842442572117,-0.0025745639577507973
1761468639008058600,8.66505859375,-0.001660892739892006,0.003009699285030365,0.0006950474344193935
1761468639018042600,8.675042724609375,-0.0014430461451411247,0.00047064153477549553,-0.0012397392420098186
1761468639028025600,8.685025634765625,0.0002545444294810295,-0.0025383587926626205,0.0012854933738708496
1761468639038008600,8.695008544921874,-0.001217118464410305,-0.00015190010890364647,0.0016740486025810242
1761468639047991600,8.704991455078124,-0.002414718735963106,-0.002040240913629532,-0.0008030151948332787
1761468639057974500,8.714974609375,0.0018764324486255646,-0.00016883760690689087,0.003968037664890289
1761468639067957500,8.72495751953125,-0.0007975604385137558,-0.0018191984854638577,-0.00011500273831188679
1761468639077940500,8.7349404296875,0.0016165953129529953,-0.0007840278558433056,0.0012325567658990622
1761468639087923500,8.74492333984375,-0.0009791841730475426,-0.0023731321562081575,-0.002097134478390217
1761468639097906700,8.75490673828125,-0.0008012847974896431,-0.003142253030091524,-0.0009181529749184847
1761468639107889400,8.764889404296875,0.0006195162422955036,-0.0009947046637535095,-0.0005023062694817781
1761468639117872400,8.774872314453125,-0.00033309636637568474,-0.0002676616422832012,0.00023991684429347515
1761468639127855600,8.784855712890625,-0.00016496889293193817,0.0029312963597476482,0.0000511284451931715
1761468639137838600,8.794838623046875,-0.0009391498751938343,0.00034803012385964394,-0.001839715987443924
1761468639147821300,8.8048212890625,-0.0036912099458277225,-0.0036276450846344233,-0.0018697150517255068
1761468639157805000,8.81480517578125,0.000720050185918808,-0.0012015053071081638,0.00044004456140100956
1761468639167787800,8.824787841796875,0.00041055725887417793,-0.0020370399579405785,-0.0006479057483375072
1761468639177771800,8.834771728515625,0.0017599808052182198,-0.0019182630348950624,0.00036116596311330795
1761468639187754800,8.844754638671875,0.0015526008792221546,-0.00024081976152956486,0.00027812039479613304
1761468639197738000,8.854738037109374,-0.0007728710770606995,0.002872948069125414,0.0020022508688271046
1761468639207721000,8.864720947265624,-0.0018686158582568169,-0.00024171429686248302,-0.0023408643901348114
1761468639217704000,8.874703857421874,-0.0009458307176828384,-0.0011032470501959324,-0.0012718715006485581
1761468639227687000,8.88468701171875,-0.002104845829308033,-0.0033948819618672132,-0.0014380008215084672
1761468639237670000,8.894669921875,0.0014693825505673885,0.0026302537880837917,0.00012633996084332466
1761468639247653000,8.904653076171876,0.0018300283700227737,-0.0012332429178059101,-0.0014129469636827707
1761468639257635800,8.9146357421875,-0.001984949689358473,-0.002330997958779335,-0.0020992434583604336
1761468639267618800,8.924618896484375,0.00334627041593194,0.002536219544708729,0.0022955602034926414
1761468639277602000,8.93460205078125,-0.00007455982267856598,-0.0017410835716873407,0.0004827463999390602
1761468639287584800,8.944584716796875,-0.0016240645200014114,-0.004495142959058285,-0.0006099287420511246
1761468639297567700,8.954567626953125,-0.0003926190547645092,0.00429089181125164,0.0010478890035301447
1761468639307551000,8.964551025390625,-0.00162117974832654,-0.004158263560384512,-0.0016638608649373055
1761468639317534000,8.974533935546875,0.001583934761583805,0.00021997326985001564,-0.0013791689416393638
1761468639327516700,8.9845166015625,0.00038443319499492645,-0.000842557055875659,-0.0005355970934033394
1761468639337501000,8.9945009765625,-0.0019783233292400837,0.0023484425619244576,0.0031885674688965082
1761468639347484000,9.00448388671875,0.0026899497024714947,-0.003237815573811531,0.00023396569304168224
1761468639357467000,9.014466796875,-0.0030510262586176395,0.002600898500531912,0.000047544483095407486
1761468639367450000,9.0244501953125,0.0016408381052315235,0.0012763915583491325,0.00014857505448162556
1761468639377432800,9.034432861328124,0.00027463631704449654,-0.0010115299373865128,0.00008199596777558327
1761468639387415800,9.044415771484376,-0.00006739655509591103,0.0014854413457214832,0.0011889992747455835
1761468639397399000,9.05439892578125,-0.0023585143499076366,0.0011184578761458397,-0.0021495395340025425
1761468639407381800,9.0643818359375,0.0017468850128352642,-0.003960425034165382,-0.0026660982985049486
1761468639417364700,9.07436474609375,-0.0002978900447487831,-0.0006554422434419394,0.0010817681904882193
1761468639427348000,9.084347900390625,-0.0016979845240712166,0.0010343915782868862,0.001640218310058117
1761468639437331000,9.0943310546875,-0.0006369808688759804,-0.0024050811771303415,-0.0009592929854989052
1761468639447313700,9.104313720703125,0.0003651808947324753,0.00010998500511050224,0.001613653963431716
1761468639457297000,9.114296875,0.001473854761570692,0.0016349107027053833,0.00018859654664993286
1761468639467280000,9.12427978515625,-0.001722543966025114,-0.0031167820561677217,-0.0017827731790021062
1761468639477262800,9.134262939453125,0.0005744323134422302,-0.004066731780767441,0.0016103601083159447
1761468639487245800,9.144245849609375,-0.0019254758954048157,0.0011692186817526817,0.0018581529147922993
1761468639497229800,9.154229736328125,-0.0015395833179354668,0.0008427151478827,0.0024302001111209393
1761468639507212800,9.164212890625,-0.0015667248517274857,0.004027738701552153,0.004192923195660114
1761468639517196000,9.174196044921874,-0.0018772492185235023,-0.0016565120313316584,-0.0007296637631952763
1761468639527179000,9.184178955078124,0.0003335890360176563,0.0017704246565699577,0.0010671778582036495
1761468639537161700,9.19416162109375,-0.0015647122636437416,-0.00005570473149418831,-0.0017768117832019925
1761468639547145000,9.20414501953125,-0.0016730306670069695,0.0024685198441147804,-0.0024918033741414547
1761468639557128000,9.2141279296875,-0.00098353810608387,-0.006171041168272495,-0.004076117649674416
1761468639567110700,9.224110595703126,-0.0014383834786713123,0.00559805566444993,0.0028627514839172363
1761468639577094000,9.234093994140625,0.0005248989909887314,-0.009467978961765766,-0.0025285519659519196
1761468639587076900,9.244076904296875,-0.0006993073038756847,0.004104047082364559,0.0020678620785474777
1761468639597059800,9.254059814453125,0.000971826259046793,-0.007761933375149965,-0.0009537604637444019
1761468639607042800,9.264042724609375,-0.0018695741891860962,0.0007306290790438652,0.0011481472756713629
1761468639617025800,9.27402587890625,0.001282010693103075,0.0011937525123357773,-0.0004319061990827322
1761468639627009000,9.284009033203125,0.0008962149731814861,-0.001307615777477622,0.0021572893019765615
1761468639636992000,9.293991943359375,0.0005550640635192394,-0.002078334568068385,-0.0010092093143612146
1761468639646974700,9.303974609375,-0.0002119014970958233,-0.0013489292468875647,0.00006889947690069675
1761468639656958000,9.3139580078125,0.0008427100256085396,0.0037936349399387836,0.0014239158481359482
1761468639666942000,9.32394189453125,0.000011537689715623856,-0.002343886299058795,0.00020605232566595078
1761468639676925000,9.333925048828124,-0.0008337497711181641,0.0017331470735371113,0.00012642377987504005
1761468639686908000,9.343907958984374,0.0017180666327476501,-0.0009494205005466938,-0.0022105611860752106
1761468639696891000,9.353890869140624,-0.0003421548753976822,0.00257660448551178,-0.0010448954999446869
1761468639706873900,9.363873779296876,-0.001860341988503933,-0.002964543178677559,-0.0013860692270100117
1761468639716856800,9.37385693359375,-0.00016470719128847122,-0.0014252362307161093,0.0004493813030421734
1761468639726839800,9.38383984375,-0.0013666246086359024,0.00021893158555030823,-0.0013644107384607196
1761468639736822800,9.39382275390625,-0.000136510469019413,-0.0003011838998645544,-0.0013926401734352112
1761468639746806000,9.403805908203125,0.004057751037180424,0.002788466401398182,0.0020548284519463778
1761468639756789000,9.4137890625,-0.0023756474256515503,-0.0025660854298621416,-0.00015959003940224648
1761468639766771700,9.423771728515625,0.00044980132952332497,-0.001349949510768056,0.001161583000794053
1761468639776755000,9.4337548828125,-0.0007046787068247795,-0.002813356462866068,-0.001260562101379037
1761468639786738000,9.443738037109375,0.0008244556374847889,-0.0007751791272312403,0.0017042122781276703
1761468639796721000,9.453720947265625,0.00015893159434199333,-0.0011272490955889225,-0.0013296609977260232
1761468639806703900,9.463703857421875,-0.0002372264862060547,-0.0001257047988474369,0.0007476781029254198
1761468639816686800,9.473686767578124,-0.00003669038414955139,-0.003110309597104788,-0.0021748747676610947
1761468639826669800,9.483669921875,0.0015491372905671597,0.002715769223868847,0.0005634943954646587
1761468639836653800,9.49365380859375,0.002264728769659996,-0.000013704411685466766,0.0004455165471881628
1761468639846636800,9.50363671875,0.00030514225363731384,-0.0019422625191509724,-0.000868076691403985
1761468639856619800,9.513619873046874,0.00010487250983715057,0.00017867889255285263,0.0007021231576800346
1761468639866603000,9.52360302734375,-0.0009724250994622707,0.0023461999371647835,-0.0012772028567269444
1761468639876586000,9.5335859375,0.0006196126341819763,-0.0016895541921257973,-0.0016708180774003267
1761468639886568700,9.543568603515626,0.0002471320331096649,-0.0006326872389763594,-0.0007694109808653593
1761468639896552000,9.553552001953125,0.0005898810923099518,0.0032443427480757236,-0.0005483687855303288
1761468639906535000,9.563534912109375,-0.00039366958662867546,-0.00710759311914444,-0.0006992162670940161
1761468639916518000,9.573517822265625,-0.002966016996651888,0.0005175699479877949,0.0010992162860929966
1761468639926500900,9.5835009765625,0.0004780893214046955,-0.0009429196361452341,-0.0009180605411529541
1761468639936483800,9.59348388671875,0.00006822869181632996,0.0025538108311593533,-0.001111139776185155
1761468639946466800,9.603466796875,-0.0009428891353309155,-0.0032352437265217304,-0.0013722657458856702
1761468639956450000,9.613449951171875,0.00011092331260442734,-0.00201418437063694,-0.003576297778636217
1761468639966432800,9.623432861328125,0.00007100449874997139,-0.00047924742102622986,-0.0015362921403720975
1761468639976416000,9.633416015625,0.0033267189282923937,0.004961857106536627,0.0026150434277951717
1761468639986399000,9.64339892578125,-0.0007627271115779877,0.0015355003997683525,0.00031966972164809704
1761468639996382000,9.6533818359375,-0.002752907108515501,0.0018169968388974667,-0.0010598478838801384
1761468640006365700,9.66336572265625,-0.0015719435177743435,0.0006600443739444017,0.0007893636357039213
1761468640016349000,9.673348876953124,0.0032502422109246254,0.0013231716584414244,-0.00038535683415830135
1761468640026332000,9.683331787109376,-0.0006263181567192078,-0.0019138777861371636,-0.002205503173172474
1761468640036315000,9.69331494140625,0.001069050282239914,0.001931460341438651,0.000718114897608757
1761468640046297900,9.7032978515625,-0.00028457166627049446,-0.0018763502594083548,-0.000807927455753088
1761468640056280800,9.71328076171875,-0.0005333106964826584,0.002758082700893283,0.003097864333540201
1761468640066263800,9.723263916015625,0.001710191834717989,-0.003911169245839119,-0.0002552031073719263
1761468640076247000,9.7332470703125,-0.0028691133484244347,0.004746501334011555,0.0017051496542990208
1761468640086229800,9.743229736328125,0.0020588631741702557,0.0006401203572750092,-0.0003971394617110491
1761468640096212700,9.753212646484375,-0.0008149538189172745,0.0014619715511798859,0.0001610592007637024
1761468640106196000,9.763196044921875,-0.0018681413494050503,-0.000643597450107336,-0.00007429113611578941
1761468640116179000,9.773178955078125,-0.0035440679639577866,0.008793046697974205,0.007379364222288132
1761468640126162000,9.783161865234375,-0.0000774133950471878,0.0012668033596128225,0.00040694838389754295
1761468640136145000,9.793144775390624,0.0005361787043511868,0.007399796508252621,0.0031542652286589146
1761468640146128000,9.8031279296875,-0.00014127418398857117,0.00235178554430604,0.0023772045969963074
1761468640156111000,9.813111083984374,-0.0005428786389529705,0.0011656135320663452,0.0010946262627840042
1761468640166097700,9.82309765625,0.0006637647747993469,0.0004954049363732338,0.004864868707954884
1761468640176081700,9.83308154296875,0.0006105015054345131,-0.0016649514436721802,-0.00010858452878892422
1761468640186064600,9.843064697265625,0.0009165368974208832,-0.0008233669213950634,-0.0006225102115422487
1761468640196047600,9.853047607421875,0.0007066801190376282,-0.0004891401622444391,0.0006448882631957531
1761468640206030600,9.863030517578125,-0.001996059902012348,-0.0017795497551560402,-0.004499811679124832
1761468640216013600,9.873013671875,0.0022327739279717207,-0.008074197918176651,-0.005498496815562248
1761468640225996800,9.882996826171874,-0.0027461396530270576,-0.003085158998146653,-0.004456458147615194
1761468640235979500,9.8929794921875,-0.00047872448340058327,-0.0035054057370871305,-0.0031579008791595697
1761468640245962500,9.90296240234375,0.0033154794946312904,0.005481480620801449,0.0009600075427442789
