time,seconds_elapsed,z,y,x
1761469311256819200,0.114819091796875,-0.030401568004488944,1.1643424698144196,4.219723142880201
1761469311266802400,0.124802490234375,-0.5449930123746395,1.650923625230789,4.625114792340994
1761469311276786400,0.134786376953125,-1.290987320521474,1.9118243861705064,5.511773124197125
1761469311286769200,0.14476904296875,-2.3281962793290614,1.828897681158781,6.268472950753569
1761469311296752000,0.154752197265625,-3.4496950481951236,1.6538450656354426,6.804378401309251
1761469311306736000,0.164736083984375,-4.238548254859447,1.4678165903285145,7.154307691267133
1761469311316719400,0.17471923828125,-4.523898397400975,1.1390955080941318,6.835096780177951
1761469311326702000,0.1847021484375,-4.41975617814213,0.7715601265579461,5.794992684450746
1761469311336686000,0.19468603515625,-3.631608197137713,0.3343438905522227,4.594874552378058
1761469311346669300,0.20466943359375,-2.8935668938219545,0.007027706679701804,3.2816490965634584
1761469311356652300,0.21465234375,-2.585840084299445,-0.15284399858564138,2.1758248666912317
1761469311366636300,0.22463623046875,-2.36881879709661,-0.304663622559607,1.345107617765665
1761469311376619300,0.234619384765625,-1.7059125220030544,-0.4736442246928811,0.7621499086558818
1761469311386602200,0.244602294921875,-1.3901315853625535,-0.45584874802231784,0.41445641492605206
1761469311396586200,0.254586181640625,-0.9397580538809299,-0.29916327157765626,0.11429974839687347
1761469311406569200,0.2645693359375,0.15097732793092727,-0.31307693837881084,-0.2451876435011625
1761469311416552200,0.27455224609375,1.0628677161991595,-0.5321881835982203,-0.7036047807067632
1761469311426535200,0.28453515625,1.3678992952883242,-0.6901870807290077,-1.167640926837921
1761469311436519200,0.294519287109375,1.1951385900944471,-0.7096583816573023,-1.3698036676049232
1761469311446502100,0.304502197265625,1.2432976408466696,-0.9689102063462137,-1.5821861890912055
1761469311456485400,0.3144853515625,1.1378291414201258,-0.829519271312654,-2.0176392148166893
1761469311466469400,0.324469482421875,2.1447782787814735,-0.8425248833581804,-2.2228262718409297
1761469311476452000,0.3344521484375,3.0676591398805377,-1.0247253248095511,-2.4711656573712824
1761469311486435000,0.34443505859375,3.1050662027329206,-1.1523100867152214,-3.2305256430476903
1761469311496419000,0.354419189453125,3.1933105956360697,-1.272935823263228,-4.062002770429849
1761469311506402300,0.36440234375,3.372511270749569,-1.0022767616361379,-4.339043934309482
1761469311516385300,0.37438525390625,3.7369834653228517,-0.8391033844769,-4.418839355558156
1761469311526369300,0.384369384765625,3.832572375769913,-0.7096098663404583,-4.502014482372999
1761469311536352300,0.394352294921875,3.608100480300188,-0.219841313059628,-4.1937855685472485
1761469311546335200,0.404335205078125,3.199088886776566,0.18046411917805671,-3.7540170177102086
1761469311556318200,0.414318115234375,2.602642166018486,0.43040889407843347,-3.67495634047687
1761469311566302200,0.42430224609375,1.7234806196585297,0.5023652922645211,-3.7659313273876904
1761469311576285200,0.43428515625,0.25736586481183765,0.1925751204714179,-3.722468033236265
1761469311586268200,0.44426806640625,-1.613985348933935,-0.38610359614491463,-3.2178473632603883
1761469311596252200,0.454252197265625,-3.0311601317837833,-0.7812570524469018,-1.8962024541467426
1761469311606235400,0.4642353515625,-3.161757227247953,-0.7560954309225082,-0.41445758396983146
1761469311616218400,0.47421826171875,-2.840056837430596,-0.5189686365410685,1.0789163492023943
1761469311626202000,0.4842021484375,-2.851235818570852,-0.3971715181261301,2.4081097739994526
1761469311636185000,0.49418505859375,-3.4547710362851616,-0.40377953808903694,3.501360353502631
1761469311646168300,0.504168212890625,-4.795279051300883,-0.5130412923187018,4.456858997350931
1761469311656152300,0.51415234375,-6.039938335889578,-0.524105999429524,5.393664046645164
1761469311666135300,0.52413525390625,-6.2868812986254685,-0.24115005854815244,6.216241243734955
1761469311676118000,0.534117919921875,-5.7159945510596035,0.1528995281651616,6.4858870366662735
1761469311686102300,0.544102294921875,-5.085758373424411,0.6651669135019183,6.075649700739979
1761469311696085200,0.554085205078125,-4.551283247932791,1.0967454358816147,5.349343258881569
1761469311706068200,0.564068115234375,-3.8687037195980545,1.4603437702298163,4.521887057578564
1761469311716051500,0.574051513671875,-3.2600226634278893,1.5431494792103766,3.842473884320259
1761469311726035200,0.58403515625,-2.7765134628027677,1.362780344839394,3.206251618012786
1761469311736018200,0.59401806640625,-2.2223031247496605,1.0446271261096,2.502273327818513
1761469311746001200,0.604001220703125,-1.5113891900733112,0.6564800414383412,1.5772610076487064
1761469311755985200,0.613985107421875,-0.7948696904748678,0.28330343914479017,0.4701519986629486
1761469311765968400,0.623968505859375,-0.1259945701047778,-0.01911474257558584,-0.573397853603959
1761469311775951000,0.633951171875,0.445454779779911,-0.2363020339950919,-1.5636451547503472
1761469311785935000,0.64393505859375,0.9026321460574864,-0.5382753945574164,-2.481836104467511
1761469311795918300,0.65391845703125,1.3218152972444892,-0.7293398182049393,-3.2819314206361767
1761469311805902300,0.66390234375,1.6376795282542704,-0.932383725720644,-3.976345763671398
1761469311815886300,0.67388623046875,1.8427344833314419,-1.1975023966163396,-4.695574229967594
1761469311825869000,0.683869140625,2.1019746175825595,-1.369528065533936,-5.351147677955031
1761469311835852000,0.69385205078125,2.4591852967202663,-1.576329279756546,-5.808439026001095
1761469311845835300,0.703835205078125,2.766673329050839,-1.7882900686994194,-6.119468384200334
1761469311855819300,0.7138193359375,3.0344518668055533,-1.887341102299094,-6.179161513140797
1761469311865802200,0.72380224609375,3.2737112893015143,-1.938662416474521,-6.127451784169674
1761469311875785200,0.73378515625,3.406450365230441,-1.9249243985012172,-6.102827630522847
1761469311885769200,0.743769287109375,3.5234444672778245,-1.9013675818249582,-5.993986732053757
1761469311895752200,0.753752197265625,3.6726673527568576,-1.7722279916927217,-5.571609461000562
1761469311905735200,0.763735107421875,3.9403631806641815,-1.396755387416482,-4.763274724274874
1761469311915719200,0.77371923828125,3.999088925877213,-1.0380211519733071,-3.6398417724758385
1761469311925702100,0.7837021484375,3.2495629364728926,-0.6149751878783106,-2.339936986005306
1761469311935685000,0.79368505859375,1.9117451834544539,-0.07408551916927099,-0.5625350988060236
1761469311945669000,0.803669189453125,0.5368617283672094,0.23283172753602266,1.3197370296657085
1761469311955652400,0.81365234375,-0.8854173918843269,0.38802725768387314,2.8971324773490426
1761469311965635300,0.82363525390625,-2.277334691619873,0.6336889484375715,4.527027343076467
1761469311975618000,0.8336181640625,-3.164217479881644,0.9970540585517883,5.996773732423782
1761469311985602000,0.84360205078125,-3.537456918278336,1.2531716768682002,7.070029571646452
1761469311995585300,0.853585205078125,-3.524640691325068,1.416296830971539,7.496863822108507
1761469312005568300,0.863568359375,-3.3926503879368304,1.3791203620046377,7.175470306283235
1761469312015552300,0.87355224609375,-3.229543646273017,1.0661205805152654,6.35828999980092
1761469312025535200,0.88353515625,-3.387558033233881,0.5928744152292609,5.777943349972367
1761469312035518200,0.893518310546875,-3.798573367795348,0.10487930136173963,5.521245301419496
1761469312045502200,0.903502197265625,-3.8440371881142257,-0.25299510238170625,5.170405326357484
1761469312055485200,0.913485107421875,-3.4209161129564043,-0.40177404348552226,4.707358775785565
1761469312065468200,0.92346826171875,-2.701431333811581,-0.4881842066988349,4.073802513816952
1761469312075452200,0.9334521484375,-1.8236109729275107,-0.5680412950068712,3.407418333479762
1761469312085435100,0.94343505859375,-0.9412062068626285,-0.5556631672099233,2.4285090034276244
1761469312095418000,0.953418212890625,-0.31803543756902214,-0.6865437557905912,1.2961480642855168
1761469312105401300,0.9634013671875,0.1876686437293887,-0.9005430648237466,0.13579787897765636
1761469312115385300,0.97338525390625,0.677801061886549,-1.0560402082666753,-0.8385556874662637
1761469312125368000,0.9833681640625,1.189454114717245,-1.1756576445549727,-1.6007377448260782
1761469312135351300,0.993351318359375,1.643053622508049,-1.322842886726558,-2.2779642216950653
1761469312145335300,1.003335205078125,2.055775468726456,-1.3711381310790776,-2.877189174994826
1761469312155318300,1.013318359375,2.361252453495562,-1.280442253370583,-3.5418788263738152
1761469312165301000,1.023301025390625,2.6891864770054816,-1.1346671702578663,-4.231127164947987
1761469312175285000,1.033284912109375,3.119869804111123,-1.0262246234565973,-4.792572714951634
1761469312185268200,1.043268310546875,3.523227025134861,-0.8898284863248467,-5.232185782966018
1761469312195251200,1.053251220703125,3.7645696836456652,-0.7600733946427702,-5.60618919147253
1761469312205235200,1.063235107421875,3.8259617254585025,-0.613943214482069,-6.024907355496287
1761469312215218200,1.07321826171875,3.8578622998490926,-0.6605547435313462,-6.314204774358868
1761469312225201200,1.083201171875,3.872671454185247,-0.669328124834597,-6.337428413558006
1761469312235184000,1.09318408203125,3.703420510677993,-0.6414861781850457,-5.931677867656946
1761469312245168000,1.103168212890625,3.111702864268422,-0.49262102010250086,-5.237790178844333
1761469312255151400,1.1131513671875,2.3836142151683566,-0.3626303660988808,-4.3342023394972085
1761469312265134000,1.123134033203125,1.5643158936187624,-0.3131871207550168,-3.363793711286783
1761469312275118000,1.1331181640625,0.7341980718910693,-0.3724316291451454,-2.2779770811766387
1761469312285101000,1.14310107421875,0.07481938640177249,-0.4229261371076107,-0.9312158509850501
1761469312295084300,1.153084228515625,-0.5385664864584804,-0.2730105931892991,0.7264736151188611
1761469312305068300,1.163068359375,-1.061311426667869,0.15123071817010642,2.2574743913739916
1761469312315051000,1.173051025390625,-1.598638142198324,0.7251116791158914,3.572581423151493
1761469312325034200,1.1830341796875,-2.0921125642597675,1.2651540833458303,4.757718843713403
1761469312335017200,1.193017333984375,-2.6615005977004764,1.702759610930085,5.554239224004745
1761469312345001200,1.203001220703125,-3.4928269184350964,1.7272829345509408,5.821147116404772
1761469312354984200,1.212984130859375,-4.588002913042903,1.5211635651126503,5.480480744832754
1761469312364967200,1.22296728515625,-5.315213025742769,1.6532050141662358,5.19486113770008
1761469312374951200,1.232951171875,-5.378457125163078,1.8377853364914654,4.771851998484134
1761469312384934100,1.24293408203125,-5.399801526486874,2.2164853783816096,4.441547446450591
1761469312394917400,1.25291748046875,-5.369247982791066,2.6050989115208387,4.358949242740869
1761469312404901400,1.2629013671875,-4.737464575713872,2.6806170938417315,4.292799485006928
1761469312414884000,1.272884033203125,-3.9924399893820284,2.5815643066763876,3.9322430025726556
1761469312424867000,1.2828671875,-3.374334686784446,2.1512208790495992,3.289471753013134
1761469312434851000,1.29285107421875,-2.668801860624552,1.5323974913105367,2.701287833687663
1761469312444834300,1.302834228515625,-1.7514111213743686,0.894318783481419,1.9971505535393952
1761469312454817300,1.3128173828125,-0.8365303191184997,0.3529945227473974,1.283275138708949
1761469312464800000,1.322800048828125,0.004752162963151931,-0.14112550374120472,0.5568529615163803
1761469312474784300,1.3327841796875,0.7332903093963861,-0.5716910496860742,-0.25948037274777885
1761469312484767200,1.342767333984375,1.3037374965012072,-0.8789151703834533,-0.9475362866669893
1761469312494750200,1.352750244140625,1.7368869214594362,-1.1592013075336813,-1.5982815838456153
1761469312504734200,1.362734130859375,2.039693225714564,-1.423864635877311,-2.305412200590968
1761469312514717200,1.37271728515625,2.1234844386011362,-1.662462379594147,-2.9765391915410757
1761469312524700200,1.3827001953125,2.226102517032623,-1.9406483295947312,-3.6362434557229277
1761469312534684200,1.39268408203125,2.4843589009433984,-2.1380793656647206,-4.172598988133669
1761469312544667100,1.402667236328125,2.903085248273611,-2.237522028930485,-4.670819143417478
1761469312554650000,1.412650146484375,3.177595432370901,-2.2675758064106106,-5.178370021626353
1761469312564633000,1.422633056640625,3.1988281900137663,-2.2561197618946434,-5.491921591779589
1761469312574617000,1.4326171875,3.428826447689533,-2.1605077628329394,-5.651906402030587
1761469312584600300,1.442600341796875,3.6857168039441106,-1.9062696746528147,-5.6832560645401475
1761469312594583300,1.452583251953125,3.947560983213782,-1.5698308576479554,-5.665847833621502
1761469312604567300,1.4625673828125,4.073645861950516,-1.0520318494081498,-5.614269037553668
1761469312614550000,1.472550048828125,4.031131831347942,-0.6654182579144835,-5.244835421180725
1761469312624533200,1.482533203125,3.7336815011680122,-0.3655301791936159,-4.580420495089888
1761469312634517200,1.492517333984375,3.364650035855174,0.008049158681929111,-3.550758882921934
1761469312644500200,1.502500244140625,2.816130602920055,0.2468994158551097,-2.41147135938704
1761469312654483200,1.512483154296875,2.148198024097085,0.2788169413805008,-1.3191530922979116
1761469312664467200,1.52246728515625,1.364151340931654,0.2439852819740772,-0.09700900637805461
1761469312674450200,1.5324501953125,0.15981296081542967,0.2992018500223756,1.3738795387417078
1761469312684433200,1.54243310546875,-0.9483487720936536,0.6439993300497532,2.972586070001125
1761469312694416400,1.55241650390625,-1.9619331096857786,1.0154033697128295,4.372667971491813
1761469312704400400,1.562400390625,-2.708253581047058,1.3183558044403791,5.32067538280189
1761469312714383000,1.572383056640625,-2.906397149300575,1.6029343780875205,5.901152965533733
1761469312724366000,1.582365966796875,-2.6499843474298714,1.679370844297111,6.436548128479719
1761469312734350000,1.59235009765625,-2.604357737764716,2.0936489800468085,6.1524418485194445
1761469312744333300,1.602333251953125,-3.5110517264336347,1.8214105402737855,5.791867245906591
1761469312754316000,1.61231591796875,-3.5667560779988765,1.6175710984662175,5.671130742460489
1761469312764300000,1.622300048828125,-3.531611114859581,1.5156775349169969,5.586165809619426
1761469312774283300,1.632283203125,-3.473282844531536,1.526266733470559,5.209303504550457
1761469312784266200,1.642266357421875,-3.254935861682892,1.2786150379434227,4.557535878586769
1761469312794249200,1.652249267578125,-3.152283880981803,0.8938789307594299,3.8043759165942665
1761469312804232400,1.662232421875,-2.7516812193632125,0.42783407515436406,3.1229584177762266
1761469312814215400,1.67221533203125,-1.920111153000593,0.08979746756404637,2.5385943489998577
1761469312824198400,1.682198486328125,-0.9445803594708442,-0.21995587935000657,1.9310785372167825
1761469312834182400,1.692182373046875,-0.02256780563890934,-0.6237357096999884,1.075006482282281
1761469312844165400,1.702165283203125,0.9462509230315684,-0.9218442115277051,0.19998656577169893
1761469312854148400,1.7121484375,1.8167086461931465,-1.0441428497239946,-0.4842378071606159
1761469312864132400,1.72213232421875,2.4606898560643193,-1.086166758722067,-1.1047171454131604
1761469312874115600,1.732115478515625,2.895435025781393,-1.1275620144277811,-1.6740192541360854
1761469312884098600,1.7420986328125,3.2107021676808594,-1.1346934737429022,-2.21325881755054
1761469312894081300,1.752081298828125,3.4115012188792226,-1.1947680032163859,-2.753390945890546
1761469312904065300,1.762065185546875,3.707393213701248,-1.3339391580194233,-3.218357066348195
1761469312914048500,1.772048583984375,3.8535225170791145,-1.4855240964546799,-3.810945358112454
1761469312924031500,1.782031494140625,3.9897634636491537,-1.5763625975042581,-4.42357106025517
1761469312934015500,1.792015380859375,3.9793496216624975,-1.601329573239386,-4.857716510513424
1761469312943998500,1.80199853515625,3.781823893046379,-1.5194740045905113,-5.159734879261255
1761469312953981400,1.8119814453125,3.9960178478687998,-1.350780987226963,-5.272885457623005
1761469312963965400,1.82196533203125,4.497710647699237,-0.9821008195698261,-5.1673482768744226
1761469312973948400,1.831948486328125,4.833085342603922,-0.5740352747246623,-4.936976509711146
1761469312983931600,1.841931640625,4.971966574549675,-0.14725918419063092,-4.602993561425805
1761469312993915400,1.851915283203125,5.047298002126813,0.306482070158422,-4.088700807741284
1761469313003898400,1.8618984375,4.6968151699393985,0.6547428423821926,-3.406082116439938
1761469313013881300,1.87188134765625,3.8560219326794147,0.7134075050577521,-2.763333078712225
1761469313023864600,1.881864501953125,2.5461972252190113,0.7189274375230074,-1.8100673084825276
1761469313033848600,1.8918486328125,0.4087035504877567,0.7823100686311721,-0.34516777464449405
1761469313043831300,1.901831298828125,-1.9772709640711545,1.0533835562780498,1.492329392555356
1761469313053814500,1.911814453125,-4.158270603051782,1.9096920503169297,3.936904564642906
1761469313063798500,1.921798583984375,-5.123226226553321,1.5836258665055036,5.491500151497125
1761469313073781500,1.931781494140625,-5.49768263952434,1.5108201580137013,6.126001000839471
1761469313083764200,1.94176416015625,-5.102928703933954,1.3391092541337013,6.315941388893127
1761469313093748200,1.951748291015625,-6.02794160862565,1.2486597524017096,6.261193315139413
1761469313103731500,1.9617314453125,-6.00720335650146,1.0567407577514647,6.284780526953935
1761469313113714400,1.97171435546875,-6.155306005778908,1.042068673798442,5.991083411827683
1761469313123697400,1.981697509765625,-5.89845422796905,1.4265882156223058,5.195545612832904
1761469313133681400,1.991681396484375,-5.165963544517755,1.8380802277848123,4.268605539470911
1761469313143664400,2.001664306640625,-4.442497879043221,2.149434872415662,3.471753735268116
1761469313153647400,2.0116474609375,-3.841013748639822,2.2931585759565234,2.7902812913924455
1761469313163631400,2.02163134765625,-3.3507039280891417,2.0823098399087785,2.2341285870999097
1761469313173614600,2.031614501953125,-2.758848626774549,1.7097458165556192,1.6380577139168977
1761469313183597300,2.041597412109375,-1.7730372622489927,1.3779825901463627,0.8024778273910284
1761469313193580300,2.051580322265625,-0.7667015806108712,1.0448524592980741,-0.0861170254856348
1761469313203564300,2.061564208984375,-0.028223054921627043,0.7035670790448785,-0.9717033441960811
1761469313213547500,2.071547607421875,0.5671446384280919,0.4198711334511637,-1.8451859681367873
1761469313223530500,2.081530517578125,0.9972481198191642,0.19317104053795336,-2.6406577161580325
1761469313233514500,2.091514404296875,1.1522574797451495,-0.02945756515264511,-3.3592700963824984
1761469313243497500,2.10149755859375,1.2971107718378305,-0.23026041574329137,-3.9814989086508747
1761469313253480400,2.11148046875,1.615572910386324,-0.3381646178841591,-4.444955209067464
1761469313263464400,2.12146435546875,2.0182412723630665,-0.48692982272356744,-4.7851603928685185
1761469313273447400,2.131447509765625,2.5459938116014,-0.5687655176281928,-5.104935952103138
1761469313283430400,2.141430419921875,2.95526960901916,-0.7443249136298894,-5.260847229304909
1761469313293413400,2.151413330078125,3.20355814114511,-0.8927735998660326,-5.309588171598315
1761469313303397400,2.1613974609375,3.4340105723291634,-0.9569985270172356,-5.2006075723975895
1761469313313380400,2.17138037109375,3.5745424940913915,-0.9087459527626633,-5.027717687866091
1761469313323363600,2.181363525390625,3.771315943035483,-0.7952119280412793,-4.818306291145086
1761469313333347300,2.191347412109375,3.780826114180684,-0.6850821588054299,-4.454666455742717
1761469313343330300,2.201330322265625,3.803756323391199,-0.6613511546060442,-3.9913451798826456
1761469313353313500,2.2113134765625,3.90181571560502,-0.6928717897683382,-3.4654280393779278
1761469313363297500,2.221297607421875,3.9512218438088893,-0.6988125779941677,-2.9097072967618702
1761469313373280500,2.231280517578125,3.937434141474962,-0.8153785177573561,-2.2261948714911934
1761469313383263200,2.24126318359375,3.638385728448629,-0.6614014234885573,-1.2465519664674996
1761469313393246500,2.25124658203125,2.9607050780713555,-0.4437088128954172,-0.17604454917013646
1761469313403230500,2.26123046875,2.129255423218012,-0.2578495566755533,0.6202274093180894
1761469313413213400,2.27121337890625,1.2241817292273043,-0.059466334447264665,1.3371335701465605
1761469313423196400,2.281196533203125,0.13950024062693117,0.30943332117944955,2.26743639793992
1761469313433180400,2.291180419921875,-0.9339566741257905,0.7534387789338827,3.437157638183236
1761469313443163400,2.301163330078125,-2.005623782852292,1.3262334059476852,4.816847324508428
1761469313453146400,2.311146484375,-2.9471570297122,1.8659467243537307,5.981832768401503
1761469313463130400,2.32113037109375,-3.5408471452385184,2.4375471731469034,6.720483143526315
1761469313473113600,2.331113525390625,-3.721684773904085,2.7197452813982963,6.97111268582046
1761469313483096300,2.341096435546875,-3.587657411730289,2.8291742088884115,6.631421881282329
1761469313493079300,2.351079345703125,-3.139595664322376,2.6873735823646188,5.89634644203484
1761469313503063600,2.3610634765625,-2.6184388700872656,2.3021324482679364,5.1451703473359345
1761469313513046500,2.371046630859375,-2.159867419102788,1.873730510097742,4.5247447850972415
1761469313523029200,2.381029296875,-1.8401298537909982,1.5551438683867453,4.145804504710435
1761469313533013200,2.39101318359375,-1.5136831462293863,1.3214669221982358,3.789707339772582
1761469313542996500,2.40099658203125,-1.338680799588561,1.0768608779773114,3.135507518225908
1761469313552979500,2.4109794921875,-1.118177515488863,0.810533415813744,2.312538691470027
1761469313562963500,2.42096337890625,-0.6560223607987165,0.6128197634100914,1.368681385576725
1761469313572946400,2.430946533203125,-0.06086041915416717,0.38856998625844713,0.445434321513772
1761469313582929400,2.440929443359375,0.5175841964453458,0.0964715385004878,-0.3950280763566494
1761469313592912400,2.450912353515625,1.0612567738711833,-0.22433277925997971,-1.1420920595616102
1761469313602896400,2.460896484375,1.7159616223305463,-0.5422995355069637,-1.6647148346960543
1761469313612879600,2.470879638671875,2.307860762786865,-0.8777616164341568,-2.104963278004527
1761469313622862300,2.4808623046875,2.693247735095024,-1.1893117836371063,-2.490793317905068
1761469313632846300,2.490846435546875,3.0388451333284374,-1.3892889970585702,-2.885287141254544
1761469313642829300,2.500829345703125,3.301708134251833,-1.4914426728487014,-3.14732830440104
1761469313652812500,2.5108125,3.4797698684632774,-1.470218098512292,-3.2821471092134713
1761469313662796500,2.520796630859375,3.6782109583586453,-1.375665545375645,-3.401135307687521
1761469313672779300,2.530779296875,3.8357898765116927,-1.2445590390846133,-3.504984389218688
1761469313682762500,2.540762451171875,3.9112265180289745,-1.1184192152902483,-3.615289515021443
1761469313692745500,2.550745361328125,3.800201845780015,-1.081397352363169,-3.7411154505610464
1761469313702729500,2.5607294921875,3.6051205877065655,-1.0857239833906291,-3.875506969872117
1761469313712712400,2.57071240234375,3.277003901106119,-1.1075257730931043,-3.9865445016026495
1761469313722695400,2.5806953125,2.9662685574173926,-1.1055313844054937,-4.032958462253212
1761469313732679400,2.590679443359375,2.5675024635761976,-1.1319862606108189,-3.9807571503728627
1761469313742662400,2.600662353515625,1.9934867703348398,-1.108106495590508,-3.7488475061178206
1761469313752645400,2.610645263671875,1.219475158971548,-1.0959785431623459,-3.2937247342824936
1761469313762628400,2.62062841796875,0.008638649007678032,-1.1789511331424116,-2.5736568945527076
1761469313772612400,2.6306123046875,-2.153033773690462,-1.153746841520071,-1.5487649810045956
1761469313782595300,2.64059521484375,-4.594851756024361,-1.174386601705849,-0.17943068447709082
1761469313792578600,2.65057861328125,-5.881057102966309,-0.9402230410441755,1.5942939755141734
1761469313802562600,2.6605625,-5.788641269597411,-0.4535799263074994,3.434302248752117
1761469313812545800,2.6705458984375,-5.365301290991902,0.029316695377230643,4.835580082029104
1761469313822528800,2.68052880859375,-5.567430714011192,0.23180384579300878,5.787333694130182
1761469313832512800,2.6905126953125,-5.741399625951051,0.35604075857549905,6.2035050962805744
1761469313842496000,2.70049609375,-5.53966533972919,0.533050353385508,6.311320158833265
1761469313852478700,2.710478759765625,-4.910670102065802,0.5162573317557573,6.002715397432446
1761469313862461700,2.720461669921875,-4.281642715698481,0.5055962370097636,5.13096763446033
1761469313872445700,2.73044580078125,-3.853983120328188,0.6666331866621971,4.120968169617653
1761469313882429000,2.740428955078125,-3.4970419057816264,0.7042761040970683,3.399610874599218
1761469313892411600,2.75041162109375,-3.185827254143357,0.7343389416664838,2.7293758640527725
1761469313902395600,2.760395751953125,-3.052351096111536,0.6827914175197481,2.045868699479103
1761469313912379000,2.77037890625,-2.97388253955245,0.3296148162037134,1.4860820225983857
1761469313922361900,2.78036181640625,-2.263261742603779,0.11050853942036629,1.137519344818592
1761469313932345900,2.790345947265625,-1.5733084706306457,-0.07817688013613223,0.45183132907450196
1761469313942328600,2.80032861328125,-0.8412503333777189,-0.2528431266903877,-0.38958325495421886
1761469313952311800,2.810311767578125,-0.2738660409748554,-0.3422305521488189,-1.17832949411273
1761469313962294800,2.820294677734375,0.444554031547904,-0.431127856002748,-1.7283260138630867
1761469313972278800,2.83027880859375,1.0540805986315012,-0.44599502413645387,-2.116399448776245
1761469313982262000,2.840261962890625,1.5604145022660494,-0.5818487249545753,-2.455673489207029
1761469313992244700,2.85024462890625,2.169999521538615,-0.8637363059520721,-2.844572269028425
1761469314002228700,2.860228759765625,2.860709749358892,-1.0767921966552734,-3.2812352550655604
1761469314012211700,2.870211669921875,3.513492105323076,-1.2704958827652035,-3.6884359997749327
1761469314022195000,2.88019482421875,4.180550239399075,-1.2753390850126742,-4.07421810888052
1761469314032179000,2.890178955078125,4.744064996892214,-1.2100569038935005,-4.460065684437751
1761469314042161700,2.90016162109375,5.340212442442774,-1.055694171307981,-4.729563593330979
1761469314052144600,2.91014453125,5.740987538018822,-0.9147291188254952,-4.913265963777899
1761469314062127900,2.9201279296875,6.044269643092155,-0.7320150287635624,-5.110569574075937
1761469314072111900,2.93011181640625,6.1838102157294745,-0.5301648610770702,-5.233130370339751
1761469314082094800,2.9400947265625,6.197611362066865,-0.3145163235321641,-5.018742938771844
1761469314092077800,2.950077880859375,5.959493510821462,0.027144027513265608,-4.463450650700927
1761469314102061800,2.960061767578125,5.534393536806106,0.3898347454972565,-3.5073090327739713
1761469314112044800,2.970044921875,5.172586762049794,0.7847545391738414,-2.415676409861445
1761469314122027800,2.98002783203125,4.785806874078512,1.2570976181402802,-1.3981845434367657
1761469314132010800,2.9900107421875,3.870722658205032,1.6011086239650845,-0.21546762802004812
1761469314141994800,2.999994873046875,2.4296821388602257,1.8108898769117892,0.8351432486742735
1761469314151977700,3.009977783203125,0.6895452756941318,1.9778940644055605,1.7550532772690057
1761469314161961000,3.0199609375,-1.0223819765537976,2.0878204200237986,2.5413334185749292
1761469314171945000,3.029945068359375,-2.507766664537787,2.1576152562618254,3.2835072916507717
1761469314181928000,3.039927978515625,-3.852179285776615,2.199549148888886,3.9096296042263505
1761469314191910700,3.04991064453125,-5.4818385891824954,2.137242622579634,4.413850461229682
1761469314201894700,3.059894775390625,-6.418323905003071,1.7849071482628582,4.81736696446836
1761469314211878000,3.0698779296875,-6.793514477467537,1.596360844916105,5.081801160231232
1761469314221860900,3.07986083984375,-6.169317579996585,1.3357570210963488,5.497018038135766
1761469314231843600,3.089843505859375,-4.856721069735288,1.1234709457218646,5.901536996415257
1761469314241827800,3.099827880859375,-4.000914387738704,0.812286689221859,6.032647594359517
1761469314251810800,3.109810791015625,-3.398872915713489,0.48658963098376984,5.94388560732305
1761469314261793800,3.119793701171875,-2.686686769144237,0.20637743585258722,5.65359742385745
1761469314271777800,3.12977783203125,-1.755284163415432,-0.04681231231838465,5.138405090984702
1761469314281760800,3.1397607421875,-0.7226964346677065,-0.2208256479218602,4.462327199628949
1761469314291743700,3.14974365234375,0.19449936653226613,-0.3513289276227355,3.570343288835883
1761469314301726700,3.159726806640625,0.9278606953382491,-0.5386100333392619,2.556617496946454
1761469314311710700,3.169710693359375,1.34981652610898,-0.7602884986981749,1.5864461846232414
1761469314321694000,3.17969384765625,1.5958867976635693,-0.9839058231651783,0.6592547668486833
1761469314331676700,3.1896767578125,1.9845891781300304,-1.251702773359418,-0.2058218477964401
1761469314341660700,3.19966064453125,2.4586960518985985,-1.4687208456918597,-1.095955746808648
1761469314351644000,3.209643798828125,2.7010885117232797,-1.7664853563874958,-2.02159233635664
1761469314361627000,3.219626953125,2.6560113526344296,-2.161349474354088,-2.8801036011368035
1761469314371611000,3.22961083984375,2.377310146588087,-2.4653996411904693,-3.6836002501815557
1761469314381593600,3.239593505859375,2.1541402736276387,-2.716730317491293,-4.301647977373004
1761469314391576800,3.249576904296875,2.0658511647999287,-2.7310598716169596,-4.70147556296587
1761469314401559800,3.259559814453125,2.254801372772455,-2.499986093664169,-4.909693950510024
1761469314411543800,3.269543701171875,2.7544500995546577,-2.1196645880520344,-5.07539012414515
1761469314421526800,3.27952685546875,3.1032389873057604,-1.9751877280563115,-5.284446716079116
1761469314431509800,3.289509765625,3.3698446818888184,-1.7919412846833467,-5.416809359911084
1761469314441493800,3.29949365234375,3.745325177210569,-1.5350149803325532,-5.3503012902587646
1761469314451476700,3.309476806640625,3.8481288413420316,-1.1901426815032958,-5.154869903573394
1761469314461460000,3.3194599609375,3.5403085083171724,-0.841207078757882,-4.779722001206874
1761469314471444000,3.32944384765625,3.0034853583946823,-0.4374690417230129,-4.10609033395946
1761469314481426700,3.3394267578125,2.036786398357153,0.021650106272101403,-3.238271142607927
1761469314491409700,3.34940966796875,0.3532341767221689,0.3028203327804804,-2.3712036464065314
1761469314501393000,3.359392822265625,-1.4646131181120872,0.3690799806296825,-1.4240759405404328
1761469314511377000,3.369376953125,-1.974112207779288,0.5098121011391282,-0.05303484009504318
1761469314521360000,3.37935986328125,-1.9958549607709049,0.9048796327233314,1.6513222691595553
1761469314531342800,3.3893427734375,-2.217225383093953,1.341618314345181,3.1485815193325277
1761469314541326800,3.399326904296875,-3.1481720617488023,1.6050938942089676,4.278773297742009
1761469314551309800,3.409309814453125,-4.570466379569471,1.6810186115041374,5.277008090510964
1761469314561292800,3.419292724609375,-5.562203334751725,1.3127233515113592,5.962072421398759
1761469314571275800,3.42927587890625,-5.940747309297323,1.1825821831211447,6.058031626462936
1761469314581259800,3.439259765625,-5.662686154720187,1.134518701697886,5.55650483084917
1761469314591242800,3.44924267578125,-5.097639949876069,1.031434174798429,4.9330508607000105
1761469314601225700,3.459225830078125,-4.634640453316271,0.9588552607998251,4.446389041262865
1761469314611210000,3.4692099609375,-4.174072567817569,0.9559864273652434,3.9821477279484268
1761469314621192700,3.479192626953125,-4.010616282063722,1.0452022956490516,3.669296999540925
1761469314631175700,3.48917578125,-3.220249748227,1.1788733917310834,3.345939490166306
1761469314641159700,3.49915966796875,-2.4841724384605883,1.0422393541902304,2.9779660094738003
1761469314651143000,3.509142822265625,-2.313239825476706,0.973611515904963,2.293105092203617
1761469314661126000,3.5191259765625,-1.8478358981236815,0.629965251739323,1.451763573411107
1761469314671108600,3.529108642578125,-1.369820911000669,0.20673019481301305,0.5949836624681949
1761469314681092900,3.5390927734375,-0.9929834481120109,-0.13911913235485554,-0.3343547042071819
1761469314691075800,3.549075927734375,-0.6327306247994303,-0.36096623227894303,-1.2715057904601097
1761469314701058800,3.559058837890625,-0.25227321784794327,-0.5699269626230001,-2.0277549506396055
1761469314711042800,3.569042724609375,0.12247457928508519,-0.747663994924724,-2.6602766088634726
1761469314721025800,3.57902587890625,0.4461319483891129,-0.9976169531315564,-3.3109885882943866
1761469314731008800,3.5890087890625,0.9952855875745416,-1.3352820970609782,-4.022107397893071
1761469314740991700,3.59899169921875,1.6034543103083967,-1.6025357341587543,-4.655630926635861
1761469314750975700,3.608975830078125,2.145836847923696,-1.7539555451601743,-5.196908133357763
1761469314760959000,3.618958984375,2.549108436490595,-1.759941049310565,-5.645436329233646
1761469314770941700,3.628941650390625,2.8161396630093454,-1.7349252659976482,-5.897301550802588
1761469314780925700,3.63892578125,3.005544629012048,-1.6462342983707785,-6.028876843649148
1761469314790909000,3.648908935546875,3.336928208453953,-1.5866832082495093,-6.1977364497512575
1761469314800892000,3.658891845703125,3.6360309820160266,-1.599917952875793,-6.326195071882009
1761469314810875100,3.668875244140625,3.6961578261986374,-1.652565254957974,-6.3257958434313535
1761469314820858400,3.6788583984375,3.84398195079565,-1.5653244861394167,-6.076048929190636
1761469314830841000,3.688841064453125,3.7691158026427027,-1.220575813689828,-5.5950651553899045
1761469314840824000,3.698823974609375,3.7379078866913913,-0.6718070821687578,-4.817877836599946
1761469314850808000,3.70880810546875,3.4203684159457683,-0.2066089065209031,-3.576501811465621
1761469314860791300,3.718791259765625,2.4655051473915575,0.3464946393340826,-2.0663082609176633
1761469314870774300,3.728774169921875,1.2876879867151378,0.8931889026686549,-0.27786943139731884
1761469314880758300,3.73875830078125,0.0711240390151739,1.3337220081374048,1.865951692789793
1761469314890741000,3.748740966796875,-1.0205366409480572,1.4035770501300693,3.7487171577364204
1761469314900724200,3.75872412109375,-2.0564847860395905,1.1218827997475862,4.951896430945396
1761469314910707200,3.768707275390625,-3.0870196739107367,0.9708663088500499,5.637317904707789
1761469314920691200,3.778691162109375,-3.9530151569664476,0.9178253312751651,6.374871716767549
1761469314930674200,3.788674072265625,-4.534924526067078,0.880773365470767,6.904568375810981
1761469314940657200,3.7986572265625,-4.66311046873629,0.9707233932480216,6.983947617474198
1761469314950641200,3.80864111328125,-4.706489883996546,1.1063844941034913,6.915392552164197
1761469314960624000,3.8186240234375,-4.67249204506576,1.1647849528849124,6.744705730634927
1761469314970607400,3.828607421875,-4.377502844302356,1.2633844433248043,6.6788797980278725
1761469314980591400,3.83859130859375,-4.030525682148337,1.3893629390776157,6.649234601348638
1761469314990574000,3.848573974609375,-3.5588849062323566,0.8493599900752306,6.360111954531074
1761469315000557300,3.858557373046875,-3.2184549737647172,0.2649380536317825,5.715359760287404
1761469315010540300,3.868540283203125,-2.6366288990333673,0.027342472694814202,4.9671162119090555
1761469315020524300,3.878524169921875,-1.7664295345470309,-0.3580325169146061,3.9933459983110424
1761469315030507000,3.888507080078125,-0.8937199408054352,-0.5911787172272801,2.945564792084694
1761469315040490200,3.898490234375,-0.0012996844217181204,-0.7939508220642805,1.881322864922881
1761469315050474200,3.90847412109375,0.8405044834464788,-0.8210862278796732,0.7475555661141872
1761469315060457200,3.918457275390625,1.4681076822295784,-0.7156950314730406,-0.33517303485274313
1761469315070440200,3.928440185546875,1.9552140305638313,-0.579087151286751,-1.3255425010740756
1761469315080423200,3.938423095703125,2.267297281730175,-0.5417758038938045,-2.384656417697668
1761469315090407200,3.9484072265625,2.3738564990028737,-0.5036576701626181,-3.5363767218261954
1761469315100390100,3.95839013671875,2.3556764069288967,-0.4618607017882168,-4.699606846484541
1761469315110373400,3.968373291015625,2.4131699799984694,-0.5236658544465899,-5.806166404893994
1761469315120357400,3.978357421875,2.454773325496912,-0.666698653113842,-6.819625654801726
1761469315130340000,3.988340087890625,2.622491068087518,-0.7392408883638679,-7.564841379791498
1761469315140321300,3.9983212890625,2.8224013537526127,-1.0348509975045919,-7.982814278405904
1761469315150305300,4.00830517578125,2.9107731724277137,-1.3657804034382104,-8.153440309658647
1761469315160288000,4.0182880859375,2.9217569232568144,-1.4261227900676428,-7.997924753776192
1761469315170271200,4.028271240234375,3.3639202602759,-1.4899395748093724,-7.795517098337411
1761469315180255200,4.038255126953125,3.7758793054282664,-1.539967342042923,-7.746434795260429
1761469315190238200,4.04823828125,3.975561627556383,-1.5686112527251244,-7.490969503372908
1761469315200221200,4.05822119140625,3.613988369295001,-1.3512338455609976,-6.85018504371643
1761469315210204200,4.0682041015625,2.238392674285173,-0.8646395384021103,-5.6991369397610425
1761469315220188200,4.078188232421875,-1.305422088587284,-0.15696663147360085,-4.276449823230505
1761469315230171100,4.088171142578125,-2.8901386729389427,-0.36806583515107627,-2.865602782097459
1761469315240154400,4.098154296875,-2.8995599967569112,0.10806684535667299,-1.0553455040007829
1761469315250138400,4.108138427734375,-1.6912538820534944,0.8787045963726937,1.3848849168807267
1761469315260121000,4.11812109375,-0.688582568141818,1.2821329829365014,4.586037750449776
1761469315270104000,4.12810400390625,-2.4500015810504556,0.6617664574086666,7.849589464786648
1761469315280087300,4.13808740234375,-5.368502132859826,-0.10397738408595322,10.475953282654284
1761469315290071300,4.1480712890625,-7.264390698751807,-0.09409428797513246,12.002484804540872
1761469315300054000,4.158053955078125,-7.572363007467985,-0.13446692263484,12.1813637003541
1761469315310037200,4.168037353515625,-7.518776378709077,0.1861734367355704,11.19488481183052
1761469315320021200,4.178021240234375,-6.973245606195926,1.3922016696348785,9.186162478441
1761469315330004200,4.188004150390625,-5.786842695742846,2.671364989110827,7.2223711736679075
1761469315339987200,4.1979873046875,-4.33733303873837,3.4587998534098268,5.613647106263041
1761469315349971200,4.20797119140625,-3.1750133069232103,3.656387249085307,4.263451809969544
1761469315359954200,4.2179541015625,-2.357596853597462,3.260630858454108,3.0689538558661935
1761469315369937200,4.227937255859375,-1.4880036383107305,2.591540926289558,2.233094567877054
1761469315379920100,4.237920166015625,-0.7514508199870586,1.5995917896613479,1.1898358075112103
1761469315389904400,4.247904296875,-0.30796821706295013,0.7737938769593834,0.03218435976803303
1761469315399887000,4.25788720703125,0.11525777977406979,0.014026479525864123,-0.935251974633336
1761469315409870000,4.2678701171875,0.732922937388718,-0.6537006398528814,-1.8380781819581984
1761469315419854000,4.27785400390625,1.2744208011239766,-1.1066679872199892,-2.6480390585809945
1761469315429837300,4.28783740234375,1.6868547703117132,-1.471034967853129,-3.2764953670620915
1761469315439820300,4.2978203125,2.06548496183604,-1.7098118675291538,-3.976687124454975
1761469315449803000,4.307802978515625,2.467772507801652,-2.0090549263447524,-4.747673835039138
1761469315459787000,4.317787109375,2.8533593865960833,-2.244390745656192,-5.478069592037797
1761469315469770200,4.327770263671875,3.2993270843341946,-2.4157263864830134,-6.141344700443744
1761469315479753200,4.337753173828125,3.68259399574846,-2.6012735080137848,-6.781079358786344
1761469315489737200,4.3477373046875,4.134411880819499,-2.697328574667871,-7.265348730129003
1761469315499720200,4.35772021484375,4.527412250740825,-2.619622526913881,-7.69708595020175
1761469315509703200,4.367703125,4.730345975880325,-2.5029236084207893,-7.985406632986664
1761469315519687200,4.377687255859375,4.675406763468683,-2.260165237893164,-7.993364313992857
1761469315529670100,4.387670166015625,4.440466665476561,-1.9835148268967866,-7.748471854045986
1761469315539653400,4.3976533203125,4.100475708948076,-1.5531819206640123,-7.062696744540333
1761469315549636000,4.407635986328125,3.7275440213263034,-0.9611389878228306,-6.243662334623933
1761469315559620000,4.4176201171875,3.5358477295160293,-0.2709887319728732,-5.39883764989078
1761469315569603300,4.427603271484375,2.986960047790408,0.3211599993303418,-4.140083204454183
1761469315579586300,4.43758642578125,1.6247507808372377,0.9706561732307076,-2.371702243578434
1761469315589570300,4.4475703125,-0.2955576483011246,1.381396490243077,0.2120487594872713
1761469315599553000,4.457552978515625,-2.0871809530764818,1.403297648666799,2.943317305418849
1761469315609536300,4.467536376953125,-3.0591286274224516,1.4084034473732112,5.233178885656595
1761469315619519200,4.477519287109375,-3.5183696482315656,1.6307652188211679,7.154016014844179
1761469315629503200,4.487503173828125,-4.048875870092213,1.6772376316606998,8.222084806817769
1761469315639486000,4.49748583984375,-4.318089701347053,1.5353110406696795,8.6487618208915
1761469315649469200,4.50746923828125,-3.867412510743737,1.3781018326118588,8.729756681057811
1761469315659453200,4.517453125,-3.2440929806292056,1.0265043171808124,8.745321329936385
1761469315669436200,4.527436279296875,-2.9776474450439214,1.0715496198266743,8.955380961433052
1761469315679419400,4.53741943359375,-2.7423300381720064,0.5746661199741065,8.838062741997838
1761469315689403400,4.5474033203125,-2.725159707662463,-0.04895779991447925,8.23342277791202
1761469315699386000,4.55738623046875,-2.58680951385349,-0.2718153920553624,7.649291933369636
1761469315709369000,4.567369140625,-1.8463152644276617,-0.5333141188882291,6.724581226494908
1761469315719352300,4.577352294921875,-0.9577361936420201,-0.5854591705366968,5.540055215829611
1761469315729336300,4.58733642578125,-0.13518208516687155,-0.5798698260970413,4.222098639839888
1761469315739319000,4.597319091796875,0.8459478435441851,-0.5136839741364121,2.984205780646205
1761469315749302300,4.60730224609375,1.5579703239843248,-0.49863443517312406,1.7534458420723675
1761469315759286300,4.617286376953125,1.9676655158579348,-0.496811457529664,0.5907067158013581
1761469315769269200,4.627269287109375,2.085304053288698,-0.6236299112379551,-0.6813099467903375
1761469315779252200,4.637252197265625,2.077149680666625,-0.9677456926114857,-1.9845166974157094
1761469315789235200,4.647235107421875,2.052101748649776,-1.2862994549661875,-3.2041327261626718
1761469315799219200,4.65721923828125,2.117193814024329,-1.5171220346368848,-4.318147861275077
1761469315809203200,4.667203125,2.2090613658607006,-1.5785725286386907,-5.303529017689824
1761469315819186000,4.67718603515625,2.3291452506169676,-1.6334563576012848,-6.144346220347285
1761469315829170000,4.687169921875,2.3793474976345896,-1.620808911343664,-6.864646115267276
1761469315839153200,4.697153076171875,2.4124273449376226,-1.2866980988949537,-7.225378538790345
1761469315849136000,4.70713623046875,2.4604002254679798,-0.8595805014468729,-7.234214756196737
1761469315859120000,4.7171201171875,2.3151909595444797,-0.6290167188428342,-7.325729256811737
1761469315869102800,4.727102783203125,2.094862155228853,-0.29666356371641156,-7.490416545665264
1761469315879086000,4.737086181640625,1.9010829196646808,0.008567337337136268,-7.5421818042159074
1761469315889069000,4.747069091796875,1.7880629819452762,0.3695619189277291,-7.580773108416795
1761469315899053000,4.757052978515625,1.582397786015272,0.636770840100944,-7.447974411255121
1761469315909036000,4.7670361328125,1.2214622411355376,0.8541974932342767,-6.850728649073838
1761469315919019000,4.77701904296875,0.7138184239462018,0.7390959269352256,-5.838987308999895
1761469315929003000,4.7870029296875,-0.05665098476558923,0.6381918128147721,-4.718407993066311
1761469315938986000,4.796986083984375,-0.9634095631033182,0.4339201170697808,-3.1658874589204786
1761469315948969200,4.80696923828125,-1.4703081148833035,0.2304002626053989,-0.8420727556765079
1761469315958952000,4.816951904296875,-1.264005790093541,0.31835064099803567,2.1661492758512497
1761469315968936000,4.82693603515625,-1.2483937949419022,0.40215865888893604,5.336541644975543
1761469315978919000,4.8369189453125,-2.261623327746987,0.16710194877982137,8.419503567928075
1761469315988902100,4.846902099609375,-4.526833574070036,-0.702625998802483,10.534831003558635
1761469315998886100,4.85688623046875,-6.560872427284717,-0.7493655381456017,11.117667132115363
1761469316008869000,4.866869140625,-7.171196282225847,-0.6692115127176046,10.882605161309241
1761469316018852000,4.87685205078125,-6.7126739310801025,-0.16044541350007055,9.23181714515686
1761469316028835000,4.8868349609375,-6.08971154384017,0.9495143087416886,7.022326740229129
1761469316038819000,4.896819091796875,-5.508893184846639,1.8620868340551853,5.456048314365744
1761469316048802000,4.906802001953125,-4.92370961638093,2.672364521542191,4.448258342266082
1761469316058785000,4.916784912109375,-4.24991837465763,3.0112375799566506,3.6838153542369603
1761469316068769000,4.92676904296875,-3.4213395990654822,2.5548744526714087,3.440434467896819
1761469316078752000,4.936751953125,-2.663590263456106,2.012590991516411,3.2465672617882486
1761469316088735000,4.94673486328125,-2.0660899419918657,1.3648285095408559,2.3262018906414506
1761469316098718200,4.95671826171875,-1.4898571572229264,0.899865311692655,1.20330202280581
1761469316108702000,4.966701904296875,-0.7979153417810797,0.5778598014488816,0.11154022055566311
1761469316118685000,4.976684814453125,0.030965631628036498,0.263700620791316,-0.8746791402488946
1761469316128668200,4.986668212890625,0.905214271505177,-0.08811433678269386,-1.8439035271108148
1761469316138652200,4.996652099609375,1.595048301012814,-0.46328737359046934,-2.8733839374929664
1761469316148635100,5.00663525390625,2.3381325669318436,-0.9067926267378031,-3.910723244681954
1761469316158617900,5.016617919921875,2.846606989726424,-1.3399410287827254,-4.944309921339154
1761469316168601000,5.02660107421875,3.0982232049703597,-1.7814019166208803,-5.818951652187109
1761469316178585000,5.036585205078125,3.2507647134780884,-2.196486254186928,-6.559888676944374
1761469316188568000,5.046568115234375,3.402033425571024,-2.3217850971125067,-7.179554945248365
1761469316198551000,5.056551025390625,3.594453647741675,-2.175719360490143,-7.622019311040639
1761469316208535000,5.06653515625,4.042767908605933,-1.7465815092608332,-7.832678661996126
1761469316218518000,5.07651806640625,4.541519978809356,-1.375056911958009,-7.972609110733866
1761469316228501000,5.0865009765625,4.771602992159128,-1.0955815066687762,-8.141756301605701
1761469316238485000,5.096485107421875,4.612797747081518,-1.019555082564801,-8.273356728893518
1761469316248468200,5.10646826171875,4.036186484389007,-1.1224683445505796,-8.164518168511986
1761469316258451000,5.116450927734375,3.346219768412411,-0.9704197341263293,-7.49184161003232
1761469316268434000,5.126433837890625,3.313260917140543,0.02484583357349038,-6.048191784971952
1761469316278418200,5.136418212890625,3.587976560682058,0.4406128927066922,-4.689740116986632
1761469316288401200,5.146401123046875,2.662742122194171,0.9280487652562558,-3.242829244303703
1761469316298384000,5.1563837890625,0.14313333643227816,1.2604131724290548,-0.9281897811621427
1761469316308368000,5.166367919921875,-2.9114395273819564,1.42430507312119,2.3203905740141866
1761469316318351000,5.17635107421875,-4.932560446834564,1.0788377310082315,4.971466223812103
1761469316328334000,5.186333984375,-5.587699595057964,0.5709696035437286,6.727800773063302
1761469316338317000,5.196317138671875,-5.082438289090991,0.8938036735661328,8.063584682166576
1761469316348301000,5.206301025390625,-3.8302699440464374,0.7287740010157228,8.84637581231296
1761469316358284000,5.216283935546875,-3.3869989380463954,0.9149778328895568,8.657742415204643
1761469316368267000,5.22626708984375,-3.678330493085086,0.38280630816519257,7.896745183715224
1761469316378251000,5.2362509765625,-3.9033796039208766,-0.08647913679629564,7.452170693901181
1761469316388234200,5.246234130859375,-4.1451705907210705,-0.1517357450827956,7.590148839527368
1761469316398217000,5.256217041015625,-3.9407863745123146,-0.3442360467523336,7.458776375776529
1761469316408200000,5.266199951171875,-3.500627363052964,-0.4202610095515847,7.050293774563074
1761469316418184000,5.276183837890625,-2.8676994621157643,-0.3973471669539809,6.488698002433776
1761469316428167200,5.286167236328125,-2.1409289098769424,-0.3935509895414114,5.792885483038425
1761469316438150100,5.296150146484375,-1.4252783020675182,-0.473843838918209,4.913835872620344
1761469316448134000,5.3061337890625,-0.8370476209908724,-0.44500484405532476,3.8772769021540876
1761469316458117000,5.3161171875,-0.15815262638777494,-0.33270153017267584,2.812479679197073
1761469316468100000,5.32610009765625,0.5528279437839985,-0.04653247246369719,1.846397097492218
1761469316478083000,5.3360830078125,1.2790797328457235,0.29612098127231,1.0414613555550574
1761469316488067000,5.346067138671875,1.87986068341583,0.3994122827902436,0.19562077177762985
1761469316498050000,5.356050048828125,2.1733657831013202,0.222888717931509,-0.9027233314722776
1761469316508033000,5.366032958984375,2.1365271677866575,0.006004062720388174,-2.1399831534594296
1761469316518017000,5.37601708984375,2.206773547184467,-0.09161240803152322,-3.2947973319500683
1761469316528000000,5.386,2.4356112366482616,-0.08696808935701847,-4.283087653809786
1761469316537983000,5.39598291015625,2.6666493587657807,-0.05328866872563958,-5.07318939923048
1761469316547966000,5.405966064453125,2.994368278220296,-0.0699250384889543,-5.704574162378907
1761469316557950000,5.415949951171875,3.2515380359381436,-0.17396438189521432,-6.23788550478816
1761469316567933200,5.42593310546875,3.4836043320596217,-0.2631650526098907,-6.687760439097881
1761469316577916200,5.435916259765625,3.6009605454176663,-0.4426975900262594,-7.157734158584475
1761469316587900200,5.445900146484375,3.6245921808958053,-0.6358829513505101,-7.558619144275784
1761469316597883000,5.4558828125,3.5038170990049835,-0.7646931633979082,-7.734193153324723
1761469316607866000,5.4658662109375,3.0729011321872473,-0.7975171362437308,-7.632401004323363
1761469316617849000,5.47584912109375,2.3392405281737445,-0.8937314851127565,-7.353716749411821
1761469316627833000,5.4858330078125,1.386964061242342,-1.0078031238421796,-6.949127648505568
1761469316637816000,5.495816162109375,0.49651539719253773,-0.9018104544110596,-6.2395660052210085
1761469316647799000,5.505799072265625,0.07657002946138382,-0.9252247938767075,-5.178690339621901
1761469316657783000,5.515782958984375,-0.3676882340103388,-1.061048684078455,-3.8828812980324026
1761469316667766000,5.52576611328125,-0.8522583418652415,-0.9765710963629186,-2.403422492966056
1761469316677749200,5.535749267578125,-1.046393258999288,-0.8861774164713918,-0.4074760545194149
1761469316687732000,5.54573193359375,-0.8762938819691538,-0.5168339625999331,2.261127653184533
1761469316697716000,5.555716064453125,-0.6363333254665136,-0.12542436900138854,4.700146944710612
1761469316707699000,5.565698974609375,-1.1233122480288147,0.0741194214388728,6.745766053342819
1761469316717682200,5.57568212890625,-2.6537758486673235,0.19365473240166903,8.35349351092577
1761469316727666200,5.585666259765625,-4.170504061681032,-0.056440849146246905,8.947121667131782
1761469316737649000,5.59564892578125,-5.0719431985616685,0.2142570831865072,9.232552473694085
1761469316747632000,5.605632080078125,-5.628529618096351,1.0494371567398308,8.92603211735189
1761469316757616000,5.6156162109375,-6.01412234210968,1.979679778778553,7.8841013907194135
1761469316767599000,5.62559912109375,-6.155642105865478,2.9823528462558984,6.704391255903244
1761469316777582000,5.63558203125,-5.87062806341052,3.657681380549073,5.719836028918624
1761469316787565000,5.64556494140625,-4.970826756864786,3.833530991668999,5.057271699130535
1761469316797549000,5.655549072265625,-4.053834077021479,3.456130634200573,4.545405880331993
1761469316807532000,5.665531982421875,-3.387752094501257,2.8059976237013933,3.9340906762659547
1761469316817515300,5.675515380859375,-2.6516771228224036,2.106490633702278,2.924195256319642
1761469316827499300,5.685499267578125,-1.7890286121070385,1.5121099055632947,1.692241139525175
1761469316837482500,5.695482421875,-0.7587970910966396,0.9446081242606044,0.3933411461830139
1761469316847465200,5.70546533203125,0.30134090787768364,0.3844949919044971,-0.9048340400159358
1761469316857448400,5.715448486328125,1.2389099272817372,-0.12450681576505303,-2.0121797803670165
1761469316867432400,5.725432373046875,1.9487620779454706,-0.675366089824587,-2.9000533332318064
1761469316877415400,5.73541552734375,2.5507012586399913,-1.1976659166149795,-3.8730361958444117
1761469316887398100,5.745398193359375,2.835670585170388,-1.3887446610487997,-4.586415936112403
1761469316897382100,5.755382080078125,3.1127503274947403,-1.4479204881168901,-5.194363125050067
1761469316907365400,5.765365478515625,3.4644343521654606,-1.7398646220959721,-5.817241925659776
1761469316917348400,5.775348388671875,3.4892233409851787,-2.0282772209480404,-6.093047994786501
1761469316927331300,5.785331298828125,3.56451092942059,-2.108097338246554,-5.991354629984498
1761469316937315600,5.795315673828125,3.542442889997363,-2.298437685403228,-5.819741341260075
1761469316947298300,5.80529833984375,3.292354907234013,-2.0998127633735537,-5.75839226180613
1761469316957281300,5.81528125,3.323840178821981,-1.4694222719594836,-5.687816504323482
1761469316967265300,5.825265380859375,3.5301547785714265,-0.8307916293360292,-5.747397989583015
1761469316977248500,5.83524853515625,3.5489936268150806,-0.12758154703527688,-5.757542366978526
1761469316987231200,5.845231201171875,3.4600942771345373,0.4455781138986349,-5.665321179398894
1761469316997214200,5.855214111328125,3.2449174487546086,0.9655822309672832,-5.444741907453537
1761469317007198200,5.8651982421875,3.05634367287904,1.4460644849866628,-5.002818224409222
1761469317017181400,5.875181396484375,2.942405451270938,1.657678944709897,-4.270523940312862
1761469317027164400,5.885164306640625,2.4972341646075247,1.2811344734184442,-3.5361475892454384
1761469317037148200,5.895148193359375,1.782166032861173,1.0284516518563032,-2.6259312716692684
1761469317047131400,5.90513134765625,1.5689827163860202,0.890810775360465,-1.3471522753357887
1761469317057114400,5.9151142578125,-0.025735914281010627,1.1053262172222136,-0.40767713004946704
1761469317067097300,5.925097412109375,-1.352239369341731,0.9005234833404421,0.9452537286877631
1761469317077081300,5.935081298828125,-1.8862150208786128,1.105105560208857,2.894382301858067
1761469317087064300,5.945064208984375,-2.4001684596061703,1.015900213319063,4.641443995851278
1761469317097047300,5.95504736328125,-2.8780259180799126,1.4314900161892175,6.085676004713774
1761469317107031300,5.96503125,-3.2454677761137485,2.1375778458833694,7.363666481018066
1761469317117014500,5.9750146484375,-3.624323593087494,2.6320070844516157,8.230226612219214
1761469317126997200,5.984997314453125,-4.395970813407003,1.4887711155518888,7.991209181785583
1761469317136980200,5.994980224609375,-4.520301541952788,1.235442689562589,7.68401136457324
1761469317146964200,6.004964111328125,-4.0979450214266775,0.6981769104391337,7.697952796164155
1761469317156947500,6.014947509765625,-3.390377182307839,0.12834157162234186,7.5198063062787055
1761469317166930400,6.024930419921875,-2.594202254453301,-0.36249548767283557,6.822525467896461
1761469317176914400,6.03491455078125,-1.935452806778252,-0.782968824800849,5.93355359840095
1761469317186897200,6.044897216796875,-1.3874120972707866,-1.1195391592308879,5.109526202502846
1761469317196880400,6.05488037109375,-0.9356780910909175,-1.269432345186919,4.3355648600220675
1761469317206863400,6.06486328125,-0.26038521263301373,-1.2666855306968092,3.5972540921151634
1761469317216847400,6.074847412109375,0.4261816317722201,-1.1453000618226825,2.7961598280370232
1761469317226830300,6.084830322265625,0.935567324192822,-1.1012962310537695,1.7551725197345018
1761469317236813300,6.094813232421875,1.2867901610925794,-1.007176662506908,0.5603776285111903
1761469317246797300,6.10479736328125,1.7612439486026763,-0.7836956777706742,-0.5300415269583464
1761469317256780300,6.1147802734375,2.2876225691393017,-0.6733750621378422,-1.539532457756996
1761469317266763500,6.124763427734375,2.711633578874171,-0.5539110628455877,-2.5160715515464545
1761469317276746200,6.134746337890625,2.9243726587131618,-0.5873945225134491,-3.4499300259947776
1761469317286730200,6.144730224609375,2.9869901506677268,-0.6348916022256016,-4.406229464831948
1761469317296713500,6.15471337890625,3.0923110583171245,-0.6902304814793169,-5.2562996490031475
1761469317306696400,6.164696533203125,3.1264725633770225,-0.778173699478805,-6.009274902078509
1761469317316680400,6.174680419921875,3.1246956168323754,-0.7981023887857794,-6.657013418656587
1761469317326663200,6.1846630859375,2.984134468975663,-0.6082805125452577,-7.27040893612802
1761469317336646400,6.194646484375,2.700395853284001,-0.5209919590622186,-7.757517330288887
1761469317346629400,6.20462939453125,2.302792958003282,-0.3588645838245749,-8.24269212603867
1761469317356613400,6.21461328125,1.9326602534502744,-0.30556305561736224,-8.52636118362546
1761469317366596400,6.224596435546875,1.724867690102756,-0.20978578299134967,-8.463836630651354
1761469317376579300,6.234579345703125,1.668755049997568,-0.2365355504900217,-8.057638340982795
1761469317386562300,6.244562255859375,1.2995485203787684,-0.2629262754179537,-7.210203181490302
1761469317396546300,6.25454638671875,0.4590858302474022,-0.1905776630438864,-5.849934234949946
1761469317406529500,6.264529541015625,-0.5863432598948478,-0.20542291160672901,-4.334784523299336
1761469317416512300,6.27451220703125,-1.1266419769734144,-0.14330693943351505,-2.465485273647308
1761469317426496300,6.284496337890625,-1.2719260616987942,-0.183710553753376,0.13773790712952613
1761469317436479200,6.294479248046875,-1.3319184658467769,0.0065837623044848435,2.980670007735491
1761469317446462500,6.30446240234375,-1.3571861780941485,0.33042525580376386,5.962783200016617
1761469317456445400,6.314445556640625,-2.3283897560745475,0.31636516626924277,8.879791759702563
1761469317466429200,6.32442919921875,-4.269273063468932,-0.2955240382924676,11.261997277116775
1761469317476412400,6.334412353515625,-5.822537693980336,-0.3459244382306933,12.058248192816972
1761469317486395400,6.3443955078125,-6.324487098920345,-0.13095862225294114,11.72398701211214
1761469317496379400,6.35437939453125,-6.4192334210634225,0.8027201117143035,9.959813439798355
1761469317506362400,6.3643623046875,-6.012028584700823,2.0349384324029085,8.23491564681828
1761469317516345300,6.374345458984375,-5.064265503540635,3.112543699006736,7.090588375550508
1761469317526328300,6.384328369140625,-4.3521772643879055,3.828226455520093,6.208292915078998
1761469317536312300,6.394312255859375,-3.9706875917792317,3.6672909204155206,5.496048316320777
1761469317546295300,6.40429541015625,-3.212680482016504,2.806550873669982,4.804439678356051
1761469317556278500,6.414278564453125,-2.295806167855859,1.9535813147954642,3.3636399820297953
1761469317566262300,6.42426220703125,-1.3897078069925308,1.1681914003275333,1.5766174490481615
1761469317576245200,6.434245361328125,-0.32506197520494456,0.5415151071310043,-0.24741174929141996
1761469317586228500,6.444228515625,0.7017611986666917,0.12183160520642995,-1.8314988035678863
1761469317596211500,6.45421142578125,1.4321128242626786,-0.22655118596181273,-3.151546798878908
1761469317606195500,6.464195556640625,1.9303841252118348,-0.5383250789180397,-4.310160954174399
1761469317616178200,6.47417822265625,2.2244825146153566,-0.7582936716191471,-5.175460271659493
1761469317626161400,6.484161376953125,2.4516946487039326,-1.058792867975682,-5.852305055734515
1761469317636145400,6.4941455078125,2.7545605741918084,-1.1710013431817292,-6.40681759160459
1761469317646128400,6.50412841796875,3.084461221599579,-1.2987164534687996,-6.9025669728606935
1761469317656111400,6.514111328125,3.3840789589464664,-1.408439395469427,-7.3310589274019
1761469317666094300,6.52409423828125,3.652939154458046,-1.4187597139537333,-7.67977884157002
1761469317676078300,6.534078369140625,4.062645159986615,-1.4973812691174446,-8.04470404060781
1761469317686061300,6.544061279296875,4.401629277560114,-1.5470875493116676,-8.334677751296757
1761469317696044500,6.55404443359375,4.563488064989447,-1.68004845129773,-8.381594400772451
1761469317706028500,6.564028564453125,4.47967054861784,-1.7158302510358392,-8.149363853999972
1761469317716011300,6.57401123046875,4.1105952441632745,-1.5002524406395852,-7.660365116047859
1761469317725994200,6.583994140625,3.5548321237102147,-1.229867812039703,-6.705687725454569
1761469317735977500,6.5939775390625,3.1621000493362543,-0.4799449322722852,-5.613530201885104
1761469317745961500,6.60396142578125,2.7227307269498704,0.002697568520903587,-4.481786517858505
1761469317755944200,6.613944091796875,1.7364581746533512,0.43775574970990416,-3.0745243494749066
1761469317765927400,6.623927490234375,0.22217823157459496,0.9411733275063335,-1.0941343766003846
1761469317775911400,6.633911376953125,-1.2041545479819178,1.3537350147269664,1.4537094467818736
1761469317785894400,6.643894287109375,-2.652543968784809,1.6748711947903037,4.495845438349247
1761469317795877400,6.65387744140625,-4.154119913113117,1.7983894379094243,7.39452514514029
1761469317805860400,6.6638603515625,-5.423032764470577,1.8170429927140472,9.670387426120042
1761469317815844000,6.673843994140625,-5.9786219896614545,1.5308734966136515,10.812245092403888
1761469317825827000,6.6838271484375,-5.356107930710912,0.8295635488457977,10.292011258232593
1761469317835810000,6.69381005859375,-4.510850115257501,0.3529484916485846,8.890106232967971
1761469317845793000,6.70379296875,-4.073791407901048,0.004782996492832899,7.981544112339615
1761469317855777000,6.713777099609375,-3.802431212267279,-0.2995354658909142,7.676800118020177
1761469317865760000,6.723760009765625,-3.4997575944811103,-0.7098219016559422,7.664435726487636
1761469317875743200,6.7337431640625,-2.8139105887830254,-1.055270685198903,7.387934076312184
1761469317885727200,6.743727294921875,-2.1046301005274057,-1.2810904881462455,6.812106365212798
1761469317895710000,6.7537099609375,-1.5856807532086967,-1.3898872552126644,5.961740412965416
1761469317905693000,6.76369287109375,-1.024723863504827,-1.4320432661578057,4.83918716661036
1761469317915676200,6.77367626953125,-0.35740444814413785,-1.3456370484672486,3.6239994756996627
1761469317925660200,6.78366015625,0.3199056153550744,-1.211883534798771,2.4148311912089584
1761469317935643000,6.793642822265625,1.0900310329347849,-1.0591783601619302,1.0520979003816842
1761469317945626000,6.803626220703125,1.7828461240798235,-0.9277741860985755,-0.3999941743314266
1761469317955610000,6.813610107421875,2.2963477273866535,-0.868555688932538,-1.6765093173861503
1761469317965593000,6.823593017578125,2.8645623331338164,-0.6961958196245134,-2.8369880975097415
1761469317975576000,6.833576171875,3.3893875867485996,-0.4956603877983987,-3.8296056349188086
1761469317985559000,6.84355908203125,3.698520171415806,-0.29054771118462086,-4.616307216507196
1761469317995543000,6.85354296875,3.9259111692026254,-0.1896964962951839,-5.390788783469796
1761469318005526000,6.863526123046875,4.107814381273091,-0.0630485768482089,-6.1833466898709535
1761469318015509200,6.87350927734375,4.205173224002123,0.11415186435878276,-6.8031888992637395
1761469318025493200,6.8834931640625,4.179356645700335,0.1743139259852469,-7.447711960926651
1761469318035476000,6.89347607421875,4.113367631486058,0.17516235950812697,-8.1196017529428
1761469318045459000,6.903458984375,4.03372769306004,0.17272285740152,-8.696021584716439
1761469318055442200,6.913442138671875,3.9024195267170665,0.17748744145482778,-9.022526744467019
1761469318065426200,6.92342626953125,3.646400108078122,0.32445421857014295,-9.185579710116983
1761469318075409200,6.9334091796875,2.928167959342897,0.40648733574301005,-9.06176628344357
1761469318085392000,6.943391845703125,2.1226839358732104,0.5213936717309058,-8.30796685450375
1761469318095376100,6.953376220703125,1.4209417341679333,0.6702103144966065,-6.944905646896362
1761469318105359000,6.963359130859375,0.6780009683728218,0.8806349799133837,-5.247031469920278
1761469318115342000,6.973342041015625,-0.2630368961855769,0.8750839216575026,-3.304077785992622
1761469318125325000,6.983324951171875,-1.293659462340176,0.6395443964675068,-0.9588134674847125
1761469318135309000,6.99330908203125,-2.0415707100242377,0.453736432043463,1.8305559697598217
1761469318145292000,7.0032919921875,-2.5631580046311018,0.43918271377310153,4.672673831373453
1761469318155275000,7.01327490234375,-3.134944915907085,0.5403178601704538,7.114797518655657
1761469318165258200,7.02325830078125,-3.9892891241356727,0.5006596573904156,9.265916983157396
1761469318175242000,7.033241943359375,-5.229037548068166,-0.17851137767508624,10.345022717452048
1761469318185225000,7.043224853515625,-6.268737739169597,-0.5916700078755617,9.905646965324879
1761469318195208200,7.053208251953125,-6.502969688892364,0.04223170652985572,9.085669721600413
1761469318205192200,7.063192138671875,-6.604683511960506,0.6878928323119878,7.784493015497922
1761469318215175200,7.073175048828125,-6.674573625266552,1.9840213151142,6.443636625435948
1761469318225158000,7.083157958984375,-5.974581774359941,2.6712609442144633,6.068272449970245
1761469318235141000,7.09314111328125,-4.792448504050076,2.969121024239063,5.445702861440181
1761469318245125000,7.103125,-4.559038392104208,2.250452968304604,4.577827555987239
1761469318255108000,7.113108154296875,-4.164750028198958,0.8846667196474969,3.8228660975307225
1761469318265090800,7.1230908203125,-2.7672946758195756,0.5772390392020345,2.314585687127709
1761469318275075000,7.133074951171875,-1.7602648744374512,0.21852745398208498,0.9084387865096331
1761469318285058000,7.14305810546875,-0.7814525750190019,0.14332535187304019,-0.4388333158135414
1761469318295041000,7.153041015625,0.10719283900111913,0.27670667122825976,-1.5078186381101608
1761469318305024300,7.163024169921875,0.8530787183374166,0.49499651706218717,-2.310778111538291
1761469318315008300,7.17300830078125,1.429775028964877,0.6125955992653965,-3.0649785224944353
1761469318324991000,7.182990966796875,1.908112087649107,0.42890345795154566,-3.720271399974823
1761469318334974000,7.192973876953125,2.2493302478849886,0.08201368182003498,-4.3425025503307575
1761469318344958000,7.2029580078125,2.701391878584027,-0.26352467970252036,-4.8470589228987695
1761469318354941200,7.212941162109375,3.179583391317725,-0.5667240749284624,-5.304440287315845
1761469318364924000,7.222923828125,3.5750095270812507,-0.7864081515997647,-5.642013369047642
1761469318374907100,7.2329072265625,4.093571628648043,-0.5315779427453875,-5.655028917965293
1761469318384891100,7.24289111328125,4.717472758042812,-0.5762713632136583,-5.751092167925834
1761469318394874000,7.2528740234375,4.985965873807668,-0.6324152752399445,-5.934091358539462
1761469318404857000,7.262857177734375,5.150884048807621,-0.7487041516274213,-6.1064662792861455
1761469318414840000,7.272840087890625,5.1940252713978285,-0.8263497013658284,-6.066556293702125
1761469318424824000,7.282823974609375,5.059729613676667,-0.8578566002637147,-5.86546205894947
1761469318434807000,7.29280712890625,4.850049336886405,-0.7888727881476283,-5.178854005751013
1761469318444790000,7.3027900390625,4.449294115054607,-0.5327184910826385,-4.144636045452952
1761469318454774000,7.31277392578125,3.909259601870179,-0.31301541744992134,-3.1966075913548466
1761469318464757000,7.322757080078125,3.334340237787366,-0.22874314304813742,-2.4521347936868665
1761469318474740000,7.332739990234375,2.7997043687760828,-0.2416398878917098,-1.8327900124222039
1761469318484723200,7.34272314453125,1.71979667044878,-0.012742869456112384,-0.9341998352319002
1761469318494707200,7.352707275390625,-0.3126660194903612,0.4201926204904914,0.8476812432080507
1761469318504690200,7.362690185546875,-2.804422044947743,1.0469926861971617,3.3884482600718733
1761469318514673000,7.3726728515625,-5.656567379578948,1.772648847453296,5.312060699191689
1761469318524656000,7.38265625,-7.810005057895183,1.1072142229259014,7.943930128738284
1761469318534640000,7.39264013671875,-8.155628759613633,0.49038113222122187,10.163923807501792
1761469318544623000,7.402623046875,-7.196713000798225,0.9133455555126071,10.088474891024827
1761469318554606000,7.412606201171875,-6.055947221404313,0.8224889342844486,8.923859449487924
1761469318564590000,7.422590087890625,-5.376094487684965,0.7500032515272498,8.282553596305847
1761469318574573000,7.432572998046875,-4.029929469820857,-0.02797346407473087,7.83155111927092
1761469318584556000,7.44255615234375,-1.792808130645752,-0.6894266177505254,7.013784537333249
1761469318594539300,7.452539306640625,-2.965915506196022,-0.8981791121713817,6.611009207850694
1761469318604523000,7.46252294921875,-2.3474890088200566,-1.150697390821576,5.757245429858565
1761469318614506000,7.472506103515625,-0.5534878689974546,-1.2785923877201975,4.312044283702969
1761469318624489000,7.482489013671875,0.2872615291208029,-1.3716354130767285,2.947192101025581
1761469318634473000,7.492472900390625,0.8961065436810255,-1.1664745134070515,1.773046030077338
1761469318644456200,7.502456298828125,1.2717670717447995,-0.9529344924487173,0.8088432707697153
1761469318654439000,7.51243896484375,1.637516446647048,-0.7154084696166217,0.019605448701977727
1761469318664422100,7.522422119140625,1.9867863959133625,-0.6112767717517912,-0.7511568054765463
1761469318674406100,7.53240625,2.3048329393982887,-0.43952802007943387,-1.630906673118472
1761469318684389000,7.54238916015625,2.568849786531925,-0.4105864416249096,-2.673346518316865
1761469318694371800,7.552371826171875,2.9531431183844803,-0.5599385064415633,-3.5190491549283265
1761469318704355000,7.56235498046875,3.217705908963084,-0.6436801810979843,-3.838374632307887
1761469318714339000,7.572339111328125,3.456557919701934,-0.9766144971132278,-4.195831395161152
1761469318724322000,7.582322021484375,3.530023553407192,-1.1986315467767417,-4.729477668613195
1761469318734305000,7.592304931640625,3.5201088931143283,-1.1737561948478221,-5.273767501154541
1761469318744289300,7.602289306640625,3.8964930592775344,-1.0539243851564823,-5.625889917242526
1761469318754272000,7.61227197265625,4.597284536129236,-0.7945151779487729,-5.880410037234425
1761469318764255000,7.6222548828125,5.139802682822943,-0.5840383439533412,-6.057396251168846
1761469318774238200,7.63223828125,5.051039526742697,-0.3181166861116886,-5.923405713874101
1761469318784222200,7.64222216796875,4.39777727830708,-0.32670769658535714,-5.497274643245339
1761469318794205000,7.652204833984375,3.45697468380928,-0.35833807573243975,-4.756041265890002
1761469318804188000,7.66218798828125,2.2100328412413597,-0.3836087105892598,-3.789107035791874
1761469318814172000,7.672171875,0.5203589218556881,-0.4686030156552791,-2.557946699723601
1761469318824155000,7.68215478515625,-1.4832850853562354,-0.36099370480775833,-1.0783037702620029
1761469318834137900,7.692137939453125,-2.909321512314677,-0.07083294711410999,0.4433078308790922
1761469318844121000,7.70212109375,-3.9576849023431535,0.11432108344584703,1.8258593363761901
1761469318854105000,7.71210498046875,-4.708520805302262,0.19583762939870356,3.0205946063667533
1761469318864087800,7.722087890625,-5.430863019704819,0.26804624878019095,3.901672507742047
1761469318874070800,7.73207080078125,-5.748538391789793,0.1850108226969838,4.340006057339907
1761469318884054000,7.742053955078125,-5.653452462428808,0.0674473963290453,4.413420253118872
1761469318894038000,7.7520380859375,-4.959889183264971,-0.22757892157435416,4.115906210052967
1761469318904021000,7.76202099609375,-4.476475551968813,-0.3318602570429444,3.562452827847004
1761469318914004000,7.77200390625,-4.009623179373145,0.1827080987125635,2.9851071134001015
1761469318923988000,7.781988037109375,-3.5440684453725813,0.7742565260350703,2.3566245014339686
1761469318933971000,7.791970947265625,-3.687091014906764,1.137999675681442,1.7203864530354738
1761469318943954000,7.801953857421875,-3.946973538714647,1.4495147715710102,1.216052783307433
1761469318953937000,7.81193701171875,-3.867703602644801,1.602508261629939,0.9120137223869562
1761469318963921000,7.8219208984375,-3.326049379304051,1.5452873680219052,0.6897410905271768
1761469318973904000,7.83190380859375,-2.352973577710986,1.595855818003416,0.4678974977344274
1761469318983886800,7.841886962890625,-1.4525789814472199,1.6668234974130987,0.326523279929161
1761469318993870800,7.851870849609375,-0.5858949316054582,1.606982484434545,0.009801263046264648
1761469319003854000,7.86185400390625,0.6949579483926296,1.4781671578206121,-0.5827654014080762
1761469319013836800,7.8718369140625,2.217117246544361,1.297771135442704,-1.4050310483306645
1761469319023820000,7.881820068359375,3.8441070384800433,1.0861701197229325,-2.201931952372193
1761469319033804000,7.891803955078125,5.221567942839861,0.7785426789216697,-2.9818004730701446
1761469319043787000,7.901787109375,5.99922171009779,0.4328824445851147,-3.6152906840652226
1761469319053769700,7.911769775390625,6.275791749334335,0.15884294673949478,-3.976825071620941
1761469319063753000,7.9217529296875,6.299562501022219,0.11110182913839817,-4.069324491620064
1761469319073737000,7.931737060546875,6.130821552863717,0.12795038034766912,-3.943886678615212
1761469319083720000,7.941719970703125,6.061628189650178,-0.061439388085901735,-3.7512738564819097
1761469319093703000,7.951702880859375,5.710469650158286,-0.4165240149803459,-3.4912867032557724
1761469319103687200,7.961687255859375,4.899124041178823,-0.662860390125215,-3.2874943154603242
1761469319113670000,7.971669921875,4.1572383373945945,-0.9615089901790023,-3.1222113988012072
1761469319123652900,7.98165283203125,3.8189007010310885,-1.1624138398393988,-3.0114988612413405
1761469319133636000,7.991635986328125,4.012361079904437,-1.3731509322062134,-3.049879737561941
1761469319143620000,8.0016201171875,4.362804164603352,-1.4409056409187615,-2.904222143349051
1761469319153602800,8.011602783203125,4.528063700386881,-1.4826869733326136,-2.5980402251809833
1761469319163585800,8.021585693359375,4.181909252792597,-1.2759770906552672,-2.175551894968748
1761469319173569000,8.031569091796875,2.883444728258252,-1.0485103972837329,-1.3958289202213288
1761469319183553000,8.041552978515625,0.9896025735020637,-0.7350979433402418,0.019198621466755866
1761469319193536000,8.051535888671875,-0.989788451462984,-0.46082463673874735,1.6449433817774057
1761469319203519000,8.06151904296875,-2.612745042359829,-0.012359423096477985,2.9417735831081866
1761469319213503000,8.0715029296875,-4.124583437505364,0.6323962782785296,4.427174637705088
1761469319223486000,8.08148583984375,-5.0522103240877385,1.2231713831409812,5.367687309345603
1761469319233469000,8.091468994140625,-5.646113790103793,1.714449756462872,6.014616847628354
1761469319243452000,8.101451904296875,-6.072965576222539,2.0050836846262214,6.541922812142968
1761469319253436000,8.111435791015625,-5.893097669371962,2.123109467808902,6.767089411878586
1761469319263419000,8.1214189453125,-5.31056783028543,1.9970580529503523,6.746587306597829
1761469319273401900,8.13140185546875,-4.469053877535462,1.7025335470892489,6.507029193416238
1761469319283385000,8.141385009765624,-3.3704853178799152,0.9693753396399318,6.030545069122314
1761469319293368800,8.151368896484374,-2.433444706264138,0.5020815068870783,5.591947900152206
1761469319303351800,8.161351806640624,-1.4045605082094668,0.15722235980033875,5.184169647815823
1761469319313335000,8.1713349609375,-0.5772597897291183,-0.29820187919959423,4.507691943487525
1761469319323319000,8.181319091796874,-0.1385761115193367,-0.5754346201285719,3.7303666775316
1761469319333302000,8.191302001953124,0.19914660781621932,-0.8387365969911217,2.834631305250525
1761469319343284700,8.20128466796875,0.6597299831449985,-1.0332296799130738,1.7483990800768137
1761469319353268000,8.21126806640625,0.8860375696092844,-1.1360980798438192,0.7050573176026343
1761469319363252000,8.221251953125,0.9067600396424531,-1.1845189964026213,-0.23828560902774332
1761469319373235000,8.23123486328125,0.6298112302213907,-1.0556327965095638,-1.216782266625762
1761469319383218200,8.24121826171875,0.22190146045982836,-0.9602616204664111,-2.169311539274454
1761469319393201000,8.251200927734375,0.12155424956977366,-0.7537742944985628,-2.6466777070999146
1761469319403185000,8.261184814453125,0.6933575274586677,-0.5818614383056759,-2.644138544011116
1761469319413167900,8.27116796875,1.5527777237772942,-0.48340837059915065,-2.6981641487091776
1761469319423151000,8.281151123046875,2.08615862429142,-0.392141707265377,-2.922330631491542
1761469319433135000,8.291135009765625,2.623086403632164,-0.20095804115235805,-3.211208363637328
1761469319443117800,8.301117919921875,3.2013936565876007,-0.05125175607055425,-3.5249463962733745
1761469319453100800,8.311100830078125,3.789707339772582,-0.03210822579190135,-3.8603959099799394
1761469319463084000,8.321083984375,4.001190866592526,-0.1704477520763874,-4.222040772172808
1761469319473068000,8.331068115234375,3.5953403674483297,-0.2861462613552809,-4.387846251401305
1761469319483050800,8.34105078125,3.2446932846099137,-0.42603783938735723,-4.345107764393091
1761469319493034000,8.351033935546875,2.7983190518975256,-0.5382512830294668,-4.022174033388495
1761469319503017000,8.361016845703125,2.1715771461188793,-0.5882781734801829,-3.546804592338204
1761469319513001000,8.3710009765625,1.6839578798264263,-0.5404103607594967,-2.963110385647416
1761469319522984000,8.38098388671875,0.9631073652863502,-0.3695147187851369,-2.282372101265192
1761469319532967000,8.390966796875,0.2980956423461437,-0.2350640166327357,-1.4195646005958318
1761469319542951000,8.400950927734375,-0.49293198574781416,-0.019865268681943417,-0.5578928259581327
1761469319552934000,8.410933837890624,-1.4014181185305117,0.105296357730031,0.33658407069444657
1761469319562917000,8.420917236328124,-2.3588065216481686,0.18860943171083927,1.2406769369542598
1761469319572899800,8.43089990234375,-2.9830168631225824,0.2877040121912956,2.0395061787098645
1761469319582883800,8.4408837890625,-3.234198778602481,0.4723942246317863,2.7007886519938706
1761469319592866800,8.45086669921875,-3.0499037029594183,0.5082134337708354,3.029823622483015
1761469319602850000,8.46085009765625,-2.661035902798176,0.47217006048709154,2.9664924293011423
1761469319612834000,8.470833984375,-2.508940384492278,0.4648968546137213,2.7002742727309466
1761469319622817000,8.480817138671876,-2.9006320099025964,0.43675183336436746,2.4002859485059975
1761469319632799700,8.4907998046875,-3.7142461483359335,0.42106472714990373,2.035035170775652
1761469319642783000,8.500782958984376,-3.7766397684067488,0.1749593842819333,1.3990537274867296
1761469319652767000,8.51076708984375,-4.683727724829316,0.2916130023285746,1.2404548186361788
1761469319662750000,8.52075,-4.758441897290945,0.45513168579414487,1.5336211878865957
1761469319672733000,8.53073291015625,-3.4518098483920094,0.425758437924087,1.456403508171439
1761469319682716000,8.5407158203125,-2.983236058831215,0.30050109605267644,1.075621399310231
1761469319692700000,8.550699951171875,-2.5086440318942067,0.2413407588146627,0.7891057201206684
1761469319702683000,8.560682861328125,-1.751954726731777,0.19247560561969876,0.5173936423093081
1761469319712666000,8.570666015625,-0.9484580776870251,0.14438815879896283,0.13017477839887143
1761469319722650000,8.580650146484375,-0.016664134553074837,0.13100143848136067,-0.338183322584629
