time,seconds_elapsed,z,y,x
1761469350789326800,0.118326904296875,2.558047237488627,0.07919877052977681,-2.8346009101122616
1761469350799310000,0.12831005859375,2.690101838284731,0.20563048994280397,-3.3197108239322897
1761469350809293800,0.1382939453125,2.8938106394499536,0.2017576670974493,-3.6421997337788343
1761469350819276800,0.14827685546875,3.110322808086872,0.21036343674883246,-3.7393975407272575
1761469350829259800,0.158259765625,3.3874434669435023,0.1836742403309792,-3.806117207303643
1761469350839243000,0.168242919921875,3.758692023783922,0.10909290046878159,-3.9153064808189866
1761469350849226000,0.17822607421875,4.192034340965748,0.03858896611332893,-3.9989731905430554
1761469350859209000,0.188208984375,4.743970888867974,-0.025514965006709096,-4.016069286772608
1761469350869192200,0.198192138671875,5.386146510621905,0.020823884581029413,-3.918597923579812
1761469350879176200,0.20817626953125,5.613210468411445,0.17644085501134393,-3.911042393633723
1761469350889159000,0.218158935546875,5.896931548446417,0.3838439806498587,-3.7070389934360977
1761469350899142100,0.22814208984375,5.759480641564727,0.4176823912352323,-3.3909178650557994
1761469350909126100,0.238126220703125,4.929981536257267,0.47675636536404487,-2.8584172545075415
1761469350919109000,0.248109130859375,3.4482723219156264,0.580085953065753,-1.7108640069305896
1761469350929091800,0.258091796875,1.7099422159105537,0.5154921926021576,0.08666413797438144
1761469350939075800,0.268075927734375,-0.021308160966634748,0.28637480941414833,2.1111317375063896
1761469350949059000,0.27805908203125,-1.880509794974327,-0.2110105024807155,3.605584113565087
1761469350959042000,0.2880419921875,-3.4508044707417485,-0.7803776392638683,4.287865535736084
1761469350969025000,0.29802490234375,-4.602178153389692,-1.3530061159305273,4.4592169586539265
1761469350979009000,0.308009033203125,-5.318263645485043,-1.6801359834507106,4.22078755724132
1761469350988992000,0.317991943359375,-6.178669930231571,-1.3308429455697535,3.7725083676904436
1761469350998975000,0.32797509765625,-6.755363902771473,-0.8746027140118181,3.103841044852137
1761469351008959000,0.337958984375,-6.213662917679548,-0.8314446864172815,2.731913273575902
1761469351018942200,0.347942138671875,-6.238302853417396,-0.30910671957358715,2.440755906060338
1761469351028925000,0.357925048828125,-6.332119201233983,0.3540516305848956,2.3718390217006204
1761469351038908000,0.367907958984375,-6.1966884020030495,0.7000733917102218,2.6056840179324148
1761469351048892000,0.377891845703125,-5.943334987702966,1.0175143705174325,2.729238501408696
1761469351058875100,0.387875244140625,-5.7086073634177446,1.426051770658046,2.3071359556436537
1761469351068857900,0.39785791015625,-5.1800189578771585,1.403082398480922,1.686400012281537
1761469351078841900,0.407841796875,-4.010765919667482,0.9704581664405763,1.0702893906325102
1761469351088825000,0.4178251953125,-2.479585110670328,1.002155181083083,0.772289609876275
1761469351098808000,0.42780810546875,-1.838353491768241,0.9203397983141243,-0.1886287209331989
1761469351108791000,0.437791015625,-0.3404723103046417,0.6093722533047199,-1.1976520342200994
1761469351118775000,0.447775146484375,0.814921713900566,0.44053748938292264,-2.124536578002572
1761469351128758000,0.457758056640625,1.862650313156843,0.2882197066284716,-2.8542098659455775
1761469351138741000,0.467740966796875,2.8657763850986955,0.05808087143823504,-3.3829315424770114
1761469351148725000,0.47772509765625,3.5678245840132234,-0.17868264258876443,-3.9592064128220077
1761469351158708000,0.4877080078125,4.052610672706366,-0.3635335985489189,-4.350881087097525
1761469351168691000,0.49769091796875,4.044387618762254,-0.5138002939924597,-4.700035885551571
1761469351178675000,0.507675048828125,3.5296178952157495,-0.6434498794734478,-4.95574901472032
1761469351188658000,0.517657958984375,3.077845602852106,-0.8408474516652524,-5.113011122009158
1761469351198641200,0.52764111328125,2.818478627350926,-0.9345322820566594,-5.278971499538422
1761469351208624000,0.5376240234375,2.9282150133550164,-0.9042541943013668,-5.281681927540898
1761469351218607900,0.54760791015625,3.3384026649206873,-0.8418250645257532,-5.136791810569167
1761469351228590800,0.5575908203125,3.8113124378591774,-0.7517403044529258,-4.972896548876166
1761469351238574000,0.567573974609375,4.077562743133306,-0.6109393564909696,-4.730742573982477
1761469351248558000,0.57755810546875,4.150549068889021,-0.3181481041632592,-4.163771538555622
1761469351258541000,0.587541015625,4.164977991735935,-0.0553498390391469,-3.3651953947782514
1761469351268524000,0.59752392578125,3.949439636567235,0.029165888729691503,-2.471818568322062
1761469351278507000,0.607507080078125,3.1372704362452026,0.34869185711741446,-1.1997311785817146
1761469351288491000,0.617490966796875,1.7876947331547737,0.5727976957537233,0.34510756888985633
1761469351298474000,0.627473876953125,0.4719961652249098,0.6154680859617888,1.6800620414316654
1761469351308457200,0.637457275390625,-0.9736977328836918,0.6675682755552231,2.6395477090895176
1761469351318441000,0.64744091796875,-1.8833318666577339,0.5946515079043805,3.329621392571926
1761469351328424000,0.657423828125,-1.9201427171826362,0.34729426527917384,3.533548220402002
1761469351338407000,0.667406982421875,-1.8649504067927598,0.07736278727427125,3.8236598782569167
1761469351348390100,0.67739013671875,-2.14712542642951,-0.1778238338023424,4.227825785315036
1761469351358374100,0.6873740234375,-2.7613731768161056,-0.3891644450202584,4.73502653491199
1761469351368356900,0.69735693359375,-3.6654736418604847,-0.2903479508288204,5.284184265750646
1761469351378340000,0.707340087890625,-4.375264417725801,0.1663107984021306,5.665909208419919
1761469351388324000,0.717323974609375,-4.445510504862666,0.4183732961088419,5.997922902458906
1761469351398307000,0.72730712890625,-4.236541591212153,0.8547128954105079,6.141855572575331
1761469351408289800,0.737289794921875,-4.088108102545142,1.3083295004665851,6.03943038636744
1761469351418274000,0.747274169921875,-3.4476340240120886,1.3106063593573867,5.836805288785696
1761469351428257000,0.757257080078125,-2.7431986377000808,0.9685650461703539,5.442661594048142
1761469351438240000,0.767239990234375,-2.0194465564996005,0.542158957992494,4.954689276534318
1761469351448223200,0.77722314453125,-1.3293769646704197,0.09849529941305518,4.282969580388069
1761469351458207200,0.787207275390625,-0.5535509973615408,-0.3247574393004179,3.4802626204162834
1761469351468190000,0.79718994140625,0.2873486228823662,-0.5976945288620888,2.5746084961891174
1761469351478173000,0.8071728515625,0.8431640580445527,-0.7258133976444602,1.3979624251186846
1761469351488157000,0.817156982421875,1.1194298536375165,-0.7369935478284955,0.18118132753670216
1761469351498140200,0.82714013671875,1.4125696271419523,-0.7905316612705587,-1.0483937851667404
1761469351508123000,0.837122802734375,1.7598256062373518,-0.8399344284735619,-2.1990140190988776
1761469351518105900,0.84710595703125,1.9282029817804693,-0.9724811967007815,-3.3004420598387716
1761469351528090000,0.857090087890625,1.964091749024391,-0.8927541645132004,-3.9328152495026587
1761469351538073000,0.867072998046875,2.1302064403325316,-1.0679162317603825,-4.532596667641401
1761469351548056000,0.87705615234375,2.2034791818141937,-1.0163768909201025,-5.0107566161930555
1761469351558039800,0.887039794921875,2.1186679782301185,-1.124747103137523,-5.586139506134391
1761469351568023000,0.89702294921875,2.2109967178374528,-1.1089090441450475,-6.053142100855708
1761469351578006000,0.907006103515625,2.6971616936683653,-1.0244503072604536,-6.38800124745369
1761469351587989000,0.916989013671875,3.2326211540222167,-0.8845050993449985,-6.659221157833933
1761469351597973000,0.926972900390625,3.8223479188755154,-0.800129656829685,-6.832922943270206
1761469351607956000,0.9369560546875,4.203749620939791,-0.6706330699533224,-6.942135597661137
1761469351617939000,0.94693896484375,4.519767288945615,-0.5771244729116559,-6.898401085352897
1761469351627923000,0.9569228515625,4.664977431651949,-0.5825140569955111,-6.649675915375352
1761469351637906200,0.96690625,4.502774653090536,-0.5150267670474946,-6.048863400623202
1761469351647889200,0.97688916015625,4.165480096039175,-0.35918665538579225,-5.029672913587093
1761469351657872000,0.986871826171875,3.189260443462431,-0.149891432390362,-3.81927128790915
1761469351667856000,0.99685595703125,1.0756149695694446,-0.06033961015045643,-2.430414544788003
1761469351677839000,1.006839111328125,-0.8773813849449157,0.06040449208021163,-0.7383394094794988
1761469351687822000,1.016822021484375,-1.2504782000005243,0.3163425160460174,1.486184313929081
1761469351697806000,1.02680615234375,-1.3192033611804246,0.5050019243784248,3.810604581850767
1761469351707789000,1.0367890625,-2.0662559462085364,0.5872605208702385,5.597465786790847
1761469351717772000,1.04677197265625,-3.6962875900581476,0.3899218392588198,6.9764511242389675
1761469351727756000,1.056756103515625,-5.849419855687022,-0.2503270522162318,7.963055684968829
1761469351737739000,1.066739013671875,-7.521244814649224,-0.1773579698562622,8.465449911066889
1761469351747722000,1.076721923828125,-8.141727075511216,0.431191276627779,8.3632287229985
1761469351757705000,1.086705078125,-7.790543401578068,1.5101614018440246,7.835628743973374
1761469351767689000,1.09668896484375,-6.691949122959375,2.6381404726400968,7.212035073092579
1761469351777672000,1.106671875,-5.650611101523041,3.5397523357391356,6.6152142583251
1761469351787655200,1.1166552734375,-4.376604726418853,3.427364266182482,6.490289655539393
1761469351797639200,1.12663916015625,-3.5614883667290207,3.2772043921142813,5.972843406260013
1761469351807622000,1.136621826171875,-3.210074098910391,2.4999521913945673,4.812924598106742
1761469351817605000,1.146605224609375,-2.453476855945587,1.706976351842284,3.4527754785537716
1761469351827588000,1.156588134765625,-1.4280027585953474,1.0811049452878534,2.0653888079851863
1761469351837572000,1.166572021484375,-0.4420081464573741,0.6395595940366386,0.6092927583277226
1761469351847556400,1.176556396484375,0.6204232241511345,0.29298092968091366,-0.7237129182338714
1761469351857539300,1.186539306640625,1.4600386498034,-0.019973843622952698,-1.815831278836727
1761469351867523300,1.1965234375,1.8563889146745203,-0.3657327160283923,-2.7882804729640482
1761469351877506600,1.206506591796875,2.0597733061909675,-0.7654521650716662,-3.716804016125202
1761469351887489300,1.2164892578125,2.2398060482144353,-1.1390675971738993,-4.572385657194257
1761469351897472300,1.22647216796875,2.398640227125585,-1.46351684730798,-5.401036036717891
1761469351907456500,1.23645654296875,2.5228110889345405,-1.7170121542967856,-6.04440992834568
1761469351917439500,1.246439453125,2.6265789219230413,-1.8774274649195373,-6.556735765871405
1761469351927422200,1.256422119140625,2.9160724478796123,-2.0025087195716798,-6.97601740899682
1761469351937406200,1.26640625,3.5101278895869847,-2.0317855213299394,-7.377559981814026
1761469351947389400,1.276389404296875,4.309460989211499,-1.8898663829930125,-7.753079640102386
1761469351957372400,1.286372314453125,5.00384873650074,-1.7108743821941315,-7.958423348993063
1761469351967356400,1.2963564453125,5.0277591889202595,-1.484095963347703,-7.969267983612418
1761469351977339400,1.30633935546875,4.788250175577402,-1.3447699102438986,-7.624190809860825
1761469351987322400,1.316322265625,4.747244795972109,-1.0283492143951356,-6.740558547827601
1761469351997305300,1.326305419921875,4.949975692015886,-0.29550343389585615,-5.1074464736193415
1761469352007289300,1.336289306640625,4.732352931788563,-0.09790054839029907,-3.5275808364301917
1761469352017272600,1.3462724609375,3.5690231461480257,-0.030699820298701525,-2.102063464909792
1761469352027255300,1.35625537109375,2.0311977845698594,0.11692761268243193,-0.09256839358210563
1761469352037239300,1.3662392578125,0.5996779577642679,0.5112492943353951,2.2884978906691074
1761469352047222300,1.37622216796875,-1.0154542231172323,0.974746219023317,4.2270793508619064
1761469352057205500,1.38620556640625,-2.9047154798239467,1.2076980658076704,5.553258396273851
1761469352067188500,1.3961884765625,-4.196712269648909,1.176401887051016,6.559550823292136
1761469352077172200,1.406172119140625,-4.352814100986719,0.9031653761513531,7.326054835504293
1761469352087155500,1.416155517578125,-4.175222322374582,0.6104289227508009,7.826959699827432
1761469352097138400,1.426138427734375,-4.222157676550745,0.2764576649032533,7.939449183931946
1761469352107122400,1.436122314453125,-4.203620733863115,0.2772799410715699,7.936354725047946
1761469352117105400,1.44610546875,-3.8550820214807984,0.4182061228483915,7.8220894634425635
1761469352127088400,1.45608837890625,-3.145923990561068,0.5856776355929673,7.57315620367229
1761469352137071400,1.4660712890625,-2.3363342853382227,0.8910532058142125,7.353121121606231
1761469352147055400,1.476055419921875,-1.8084928987726567,0.6629815322868525,6.7640791241467
1761469352157038300,1.486038330078125,-1.797705255037546,0.08235752682164312,5.75162174475789
1761469352167021600,1.496021484375,-1.4926777676016092,-0.09299173356071114,5.012271696931124
1761469352177005300,1.50600537109375,-0.7650374467909336,-0.3816217745557427,4.048963840636611
1761469352186988300,1.51598828125,-0.027884032225608823,-0.45130599002614613,2.860290647163987
1761469352196971500,1.525971435546875,0.7442395734339952,-0.5341458935372531,1.561200099685788
1761469352206954500,1.53595458984375,1.2951970471709966,-0.5276357809908688,0.32617958105802536
1761469352216938500,1.5459384765625,1.628510133370757,-0.4795451192997396,-0.9686012865275144
1761469352226921200,1.555921142578125,1.7520961810290812,-0.5597711870506406,-2.2655910623341797
1761469352236904400,1.565904541015625,1.7567811239749191,-0.5643595377542078,-3.4466888521164654
1761469352246888400,1.575888427734375,1.9451129077881573,-0.6348901409208774,-4.370599933046102
1761469352256871400,1.585871337890625,2.275424474084377,-0.5920742047622799,-4.991200267329812
1761469352266854400,1.5958544921875,2.6255337967842816,-0.4516171018019318,-5.468088880771398
1761469352276837400,1.60583740234375,2.9541707078665493,-0.31405367445647714,-5.798372974538803
1761469352286821400,1.6158212890625,3.2987329178333282,-0.10859466862305998,-5.956227202501893
1761469352296804400,1.625804443359375,3.6487691752970215,0.07176862052902579,-5.8926084245502945
1761469352306787600,1.63578759765625,3.867867853295803,0.1636165908820927,-5.874398814120888
1761469352316771600,1.645771484375,4.0479426808953285,0.2216331649124622,-5.781753263649344
1761469352326754300,1.65575439453125,4.283783234858513,0.2509669575549662,-5.730583632904291
1761469352336737300,1.6657373046875,4.329434394443035,0.4511790026456117,-5.807217375251651
1761469352346721500,1.675721435546875,4.230161534786224,0.714608697541058,-5.657374019786715
1761469352356704500,1.68570458984375,3.8276363806724545,0.8119092342115938,-5.226923332393169
1761469352366687200,1.695687255859375,2.7695401166588067,0.6810040957115591,-4.555875836420059
1761469352376670500,1.70567041015625,1.044554645395279,0.44064211880117654,-3.6933559205204247
1761469352386654500,1.715654541015625,-0.28449440249502655,0.26750205890089274,-2.1598744333654643
1761469352396637400,1.725637451171875,-0.6650266282483935,0.0469612192697823,0.06620762540102004
1761469352406620400,1.735620361328125,-1.171492633830011,-0.192099319653213,2.301646710577607
1761469352416604200,1.745604248046875,-1.938311995601654,-0.4729666176922619,3.9518776773691173
1761469352426587400,1.75558740234375,-2.4720026927173135,-0.820858118212223,4.974221660000086
1761469352436570400,1.7655703125,-3.3139334095746276,-0.9779860777273773,5.756762614777684
1761469352446553300,1.77555322265625,-4.442850345742702,-1.1325887565486132,6.3814598629862065
1761469352456537600,1.78553759765625,-5.767184640070796,-1.1186334425628184,6.4067679072439665
1761469352466520300,1.795520263671875,-6.644093731328844,-0.5251799122713506,6.077654026299714
1761469352476503300,1.80550341796875,-6.39850042963624,0.1932077192865312,5.763619056543708
1761469352486487300,1.8154873046875,-5.719802711170911,0.8794048535965383,5.303249031704664
1761469352496470500,1.825470458984375,-5.012639945721626,1.6226165452875196,4.838083004760742
1761469352506453500,1.83545361328125,-4.101065199273824,1.9221004271216688,4.698763381397724
1761469352516436200,1.845436279296875,-3.3940245988994833,1.7375215661011636,4.46695135229826
1761469352526420500,1.85542041015625,-2.758676192817092,1.3965407217524946,3.954771060723066
1761469352536403500,1.865403564453125,-2.031967015376687,1.1069453428566456,3.1896944509655234
1761469352546386400,1.875386474609375,-1.2340595646411179,0.6446795673988759,2.278093985554576
1761469352556370400,1.885370361328125,-0.36543665569126604,0.0928591932222247,1.158414833331108
1761469352566353400,1.895353515625,0.6459101321071385,-0.2884028081104159,0.006765840873122215
1761469352576336400,1.90533642578125,1.664886684131622,-0.5912680029459297,-1.1009165840864181
1761469352586319400,1.9153193359375,2.726886969846487,-0.6443358685277402,-2.0532360133767127
1761469352596303400,1.925303466796875,3.56154564987421,-0.3342034591682255,-2.8314772251337765
1761469352606286300,1.935286376953125,3.7509927014529705,0.0038519992530345916,-3.52045960624814
1761469352616269300,1.945269287109375,3.2043753027468918,0.2419748189345002,-4.25514283130765
1761469352626253300,1.95525341796875,2.275926286126673,0.4245316726081073,-4.877013916179537
1761469352636236500,1.965236572265625,1.9433111190631984,0.32610900003984566,-5.3164153872698545
1761469352646219500,1.975219482421875,2.174789093902707,0.13929668087884783,-5.528334967419505
1761469352656202200,1.9852021484375,2.37349964838922,-0.1537494229927659,-5.764036405172944
1761469352666186200,1.995186279296875,2.5174516077280042,-0.40064313975945115,-6.19564327686429
1761469352676169500,2.00516943359375,2.4680022249042985,-0.5523924749761819,-6.548612665170431
1761469352686152400,2.01515234375,2.4724188723027707,-0.5772670962527394,-6.823406342384219
1761469352696136400,2.025136474609375,2.7031758393913505,-0.5200869730465114,-6.935961877462267
1761469352706119400,2.035119384765625,2.8137390316084026,-0.4381853732988238,-6.856888340747356
1761469352716102400,2.045102294921875,2.7317589597970247,-0.3122384417280555,-6.442539477849007
1761469352726085400,2.05508544921875,2.6667624637514353,-0.28111367401555176,-5.681963102120161
1761469352736069400,2.0650693359375,2.787220150256157,-0.17663213979974388,-4.642208550482988
1761469352746052600,2.075052490234375,2.8853742350161076,0.017408084788173437,-3.215980984866619
1761469352756035300,2.085035400390625,2.527415367859602,0.07086363451331854,-1.4450275431543589
1761469352766019300,2.095019287109375,1.4397346974432468,0.24902766005545854,0.37719898967742915
1761469352776002300,2.105002197265625,-0.016037527087330816,0.3895994754366576,2.5307278534084556
1761469352785985500,2.114985595703125,-1.7495312989771366,0.2443340954117477,4.763977904108167
1761469352795969500,2.124969482421875,-3.115307610762119,0.1173047754317522,6.344352659863233
1761469352805952300,2.1349521484375,-4.0723745268404485,-0.06195069860890507,7.207943419864773
1761469352815935500,2.144935546875,-4.306439303302764,-0.3206815681636333,7.4227803487658495
1761469352825918500,2.15491845703125,-3.629489889809489,-0.5763682477168739,7.138514494329691
1761469352835902500,2.16490234375,-2.918410243177414,-0.7238480889208614,7.161442365452647
1761469352845884400,2.174884521484375,-2.6355662382379172,-0.48515506813600656,7.526895387756824
1761469352855867400,2.184867431640625,-2.9352219695076345,-0.3126761024929583,7.728798016282916
1761469352865851100,2.19485107421875,-3.793806299524009,-0.1270334116332233,7.506075887089967
1761469352875834000,2.204834228515625,-4.712990059670806,-0.02420139819011092,6.789948309418559
1761469352885817300,2.2148173828125,-5.268410358035564,0.3047697132825851,6.3992673223555085
1761469352895800300,2.22480029296875,-4.929833067697286,0.3832897077679634,5.953048572465777
1761469352905784300,2.234784423828125,-3.6427959461063146,0.40101591859459873,5.311047138234972
1761469352915767300,2.244767333984375,-2.1836001768678424,0.39015842449367044,4.630771210667491
1761469352925750300,2.254750244140625,-0.7636369323432445,0.3790991242103278,3.766017836627364
1761469352935734300,2.264734375,0.6165402452379465,0.4228296909958124,2.6646125922411676
1761469352945717200,2.27471728515625,1.5711796419084072,0.2578692842893302,1.130866901192069
1761469352955700200,2.2847001953125,2.023887753817439,-0.014382891748100519,-0.6412631830841302
1761469352965683200,2.29468310546875,2.2529040147185326,-0.27960619206205006,-2.0096657517194747
1761469352975667200,2.304667236328125,2.580121414391696,-0.5129125513724982,-2.8175463149368762
1761469352985650200,2.314650146484375,3.0597108112245794,-0.6683928898110986,-3.3504823942929503
1761469352995633400,2.32463330078125,3.428391855664551,-0.8283835452809929,-3.8124744673758744
1761469353005617400,2.334617431640625,3.703191670358181,-0.9942527373954653,-4.371963622614741
1761469353015600000,2.34460009765625,3.898414382728934,-1.1110193142972886,-5.046703543365002
1761469353025583400,2.354583251953125,3.856147604885697,-1.1121316594533621,-5.705596491163969
1761469353035566300,2.36456640625,3.6907343398451804,-0.9403887529999018,-6.461061222967505
1761469353045550300,2.37455029296875,3.5578397810935973,-0.761887604457885,-7.06376525055468
1761469353055533000,2.384532958984375,3.398639983740449,-0.5576891200795769,-7.392482241135835
1761469353065516300,2.394516357421875,3.526370291596651,-0.31857042122855783,-7.685479683560133
1761469353075500300,2.404500244140625,4.282566260284185,-0.15343728830367326,-7.7247578009814015
1761469353085483300,2.414483154296875,4.996382638403773,0.039674131001532074,-7.398276606628298
1761469353095466500,2.424466552734375,5.505895172074437,0.3240538210757077,-6.899438611707091
1761469353105449200,2.43444921875,5.489814390367269,0.611056260868907,-5.96695727083087
1761469353115433200,2.44443310546875,4.874076693683862,0.7703058887131512,-4.922041975429654
1761469353125416200,2.454416259765625,3.612897651448846,0.9891273572057485,-3.5132448525637385
1761469353135399400,2.4643994140625,1.4821189641863106,1.1100975232772528,-1.5571481939464806
1761469353145383400,2.474383544921875,-0.7704740848869085,1.089436720303446,0.8403536767989397
1761469353155366100,2.4843662109375,-2.941614593154192,1.0706526709869504,3.2024253377228975
1761469353165349000,2.49434912109375,-4.2597821815460915,0.6618024055048823,5.4238300523281096
1761469353175332400,2.504332275390625,-4.86147323269844,0.3047618222370744,6.763821934515238
1761469353185316400,2.51431640625,-4.654393493795395,-0.11411065556555985,6.9129697089314455
1761469353195299300,2.52429931640625,-4.250005468419194,-0.4350828772388398,6.1726142834544175
1761469353205282300,2.5342822265625,-4.1079286553025245,-0.49483928067386146,5.214753586649894
1761469353215266300,2.544266357421875,-4.678620757079124,-0.3053575961731374,4.71141418865621
1761469353225249300,2.554249267578125,-5.692715966802835,0.2306716268926859,4.399196497455239
1761469353235232300,2.564232177734375,-6.302459976029396,0.8853808592662215,4.216472616651654
1761469353245215200,2.57421533203125,-6.25316023080945,1.5569498948954046,4.401383778366446
1761469353255199200,2.58419921875,-5.913820723927021,2.3046963074065743,4.4735061807692045
1761469353265182200,2.59418212890625,-5.298781530901789,2.6181603454068303,4.317858522939682
1761469353275165400,2.60416552734375,-4.16108799856007,2.3563480225801468,3.7956718011349437
1761469353285149400,2.6141494140625,-2.7935259724020955,1.9470684257701039,2.8251602970719336
1761469353295132200,2.624132080078125,-1.4500228672236204,1.392967393310368,1.6470844854593276
1761469353305115100,2.634115234375,-0.18653437900245187,0.7164093172222376,0.448574957627058
1761469353315098400,2.644098388671875,0.789790779775381,0.16117591973170636,-0.726078478321433
1761469353325082400,2.654082275390625,1.4035124604612588,-0.24461554270163177,-1.7836691309005022
1761469353335065300,2.6640654296875,1.7572250683501363,-0.5067465760886669,-2.5983763252675534
1761469353345048000,2.674048095703125,1.7996403147533535,-0.637097295576334,-3.2618887495607134
1761469353355032300,2.6840322265625,1.5783952723756431,-0.8054490982867777,-3.8253573298245667
1761469353365015300,2.694015380859375,1.4102064051419496,-0.8111253903575241,-4.095750726252794
1761469353374998300,2.703998291015625,1.329564596197009,-0.673660601080954,-4.297154173085093
1761469353384982300,2.713982177734375,1.5995833140939473,-0.6193045953847468,-4.583940485909581
1761469353394965200,2.72396533203125,1.9850667325139044,-0.5212310285151005,-4.782907060983777
1761469353404948200,2.7339482421875,2.329668397708237,-0.38778599627390503,-5.038460615676641
1761469353414931200,2.74393115234375,2.7580449091762302,-0.4301400140091777,-5.308146740618348
1761469353424915200,2.753915283203125,3.140556618309021,-0.4794536416240036,-5.551946729153395
1761469353434898400,2.7638984375,3.48862420604825,-0.5596263717524707,-5.699920783615112
1761469353444881200,2.773881103515625,3.8521541513353585,-0.6603282412990927,-5.748814870643615
1761469353454865200,2.783865234375,4.024078697966039,-0.7541076181061566,-5.794781672048568
1761469353464848400,2.793848388671875,4.0942368145585055,-0.8153994144149124,-5.751659154158831
1761469353474831400,2.803831298828125,4.149652120049297,-0.5687387757517397,-5.531334733757376
1761469353484814000,2.81381396484375,4.239051235945523,-0.2536906834304333,-4.866924483841657
1761469353494798000,2.823798095703125,4.145024752509594,-0.05216448700129986,-3.722244745874405
1761469353504781300,2.83378125,3.3897049821347,0.0060416182518005365,-2.2315385706067086
1761469353514764300,2.843764404296875,1.9312410343021154,0.18152984871342778,-0.14965864654779434
1761469353524748300,2.853748291015625,-0.16481588366925715,0.3779762576602399,2.381937221866846
1761469353534731300,2.863731201171875,-2.3043425255328414,0.35714009811952707,4.350446202811598
1761469353544714200,2.87371435546875,-3.963279945871234,0.47220191693007946,5.665808086133003
1761469353554697200,2.883697265625,-4.751629879188537,0.7399244867138565,6.707092331555486
1761469353564681200,2.89368115234375,-4.855009881903231,0.8309671320334077,7.506177593898773
1761469353574664400,2.90366455078125,-4.6267245656251905,0.9431352752290666,7.986205089887976
1761469353584647200,2.913647216796875,-4.42972549123168,0.8935241259723902,7.9588132250934835
1761469353594631200,2.923631103515625,-4.216446897688508,0.6811625011436641,7.738816136950254
1761469353604614100,2.9336142578125,-3.9496170389607546,0.6746187785886227,7.582731256747246
1761469353614597400,2.943597412109375,-3.435401149904728,0.605975888864696,7.418361363279819
1761469353624580400,2.953580322265625,-2.7973548830404877,0.26230960482433435,7.008556573551893
1761469353634564000,2.963564208984375,-2.5290643041104075,-0.19872472914233802,6.2936863024652
1761469353644547300,2.97354736328125,-2.255412782669067,-0.32656098159104585,5.615833802652359
1761469353654530300,2.9835302734375,-1.5125830760329961,-0.4634560081556439,4.762818797200918
1761469353664514300,2.993514404296875,-0.4897904728516936,-0.43375455124452705,3.7371056303977963
1761469353674497300,3.003497314453125,0.5175874113157392,-0.4332135762356221,2.5866899791270495
1761469353684480300,3.013480224609375,1.2445786205679177,-0.4597152141921222,1.3871972854763268
1761469353694463200,3.023463134765625,1.7598329127609729,-0.5489950876228511,0.3235924871742725
1761469353704447200,3.033447265625,2.220683414593339,-0.6528460688501596,-0.8960387391418219
1761469353714430200,3.04343017578125,2.433137247750163,-0.8178994145371019,-2.1730969030320644
1761469353724413200,3.0534130859375,2.521905664527416,-0.884094911108911,-3.210076144737005
1761469353734397200,3.063397216796875,2.6012206087827683,-0.9142655929669737,-4.0520711590021845
1761469353744380200,3.073380126953125,2.7199615544974804,-0.8824716938212513,-4.7697138174116605
1761469353754363400,3.08336328125,2.8468469359621404,-0.8498176707148551,-5.309992660745978
1761469353764346400,3.093346435546875,3.0044933663934468,-0.7498052447371184,-5.694037570795416
1761469353774330400,3.103330322265625,3.1755443450599907,-0.46403936100155113,-5.796395536985993
1761469353784313000,3.11331298828125,3.3692864634841677,-0.1450016145221889,-5.902358834192157
1761469353794296300,3.12329638671875,3.524842643637955,0.17408567018732427,-6.04552870324254
1761469353804280300,3.1332802734375,3.547457795549929,0.5115032690964639,-6.119843647253513
1761469353814263300,3.14326318359375,3.571286999426782,0.6474551695920526,-6.233488146612048
1761469353824246300,3.153246337890625,3.5746383556813,0.7791564269058406,-6.256879543593525
1761469353834230300,3.163230224609375,3.5038252823114395,0.8763958810389041,-6.099701022934913
1761469353844214300,3.17321435546875,3.319522607883811,0.9191283766977488,-5.699487652894854
1761469353854197000,3.183197021484375,2.8442446445092555,1.0812765024624764,-4.8843525885045525
1761469353864180000,3.193179931640625,1.92127318251729,0.9154054106518625,-3.827978910499811
1761469353874164200,3.203164306640625,0.47070612541437146,0.42827407400682566,-2.671003170061111
1761469353884147200,3.213147216796875,-0.6482184090495109,-0.04816211949214339,-0.9565233107209206
1761469353894130000,3.2231298828125,-1.6701882976710796,-0.6491657729022204,1.1468249333024025
1761469353904114000,3.233114013671875,-2.524177701112628,-1.165556667909771,3.1701433627992865
1761469353914097200,3.24309716796875,-3.242591343894601,-1.4558414903745054,4.835895139327645
1761469353924080000,3.253080078125,-3.761495390766859,-1.5498130287528038,5.931147706303
1761469353934063000,3.26306298828125,-4.540025356337428,-1.716926375709474,6.412447121924162
1761469353944047000,3.273047119140625,-5.647524825945497,-1.6554124610826373,6.309951793089509
1761469353954030000,3.283030029296875,-6.346031991252302,-1.0253589465379713,6.0283759083896875
1761469353964013000,3.293012939453125,-6.351324252441525,-0.024898878934979437,5.792324926546216
1761469353973997000,3.3029970703125,-6.268987330016493,0.9806430219769477,5.834674121975898
1761469353983980300,3.312980224609375,-6.197655785730481,2.1435580893367527,5.728063174515962
1761469353993963000,3.322962890625,-5.92391074078679,2.9302111556082964,5.384483545845747
1761469354003946000,3.332946044921875,-5.374157382142544,3.180415750488639,4.9964101109325885
1761469354013930000,3.342929931640625,-4.458488352118432,2.7573133800312877,4.645791085144877
1761469354023913200,3.352913330078125,-3.5097464890539642,2.163000456431508,3.9259892028748986
1761469354033896200,3.362896240234375,-2.4925161961749196,1.6993252525672315,2.876782932281494
1761469354043880000,3.3728798828125,-1.8729706316411494,1.3255195585899053,1.4209399806022642
1761469354053863200,3.38286328125,-1.3347422910958529,0.844793705072999,-0.06117781454026699
1761469354063846100,3.39284619140625,-0.5602139623820781,0.5279189818464219,-1.2502829696893691
1761469354073829000,3.4028291015625,0.2580401108115911,0.2785761183619499,-2.2167454906225204
1761469354083813000,3.412813232421875,0.8778262061029672,0.1188514203518629,-2.9417040250033137
1761469354093796000,3.422796142578125,1.3447557355880737,0.09351225030347704,-3.666316522425413
1761469354103779000,3.432779052734375,2.0353800386905667,-0.062204673369973894,-4.3964433993548155
1761469354113763000,3.44276318359375,2.6426363227546212,-0.08589329973235726,-4.9904924113214015
1761469354123746000,3.45274609375,3.3083599933564662,-0.09212956377342343,-5.520089117121696
1761469354133729300,3.462729248046875,4.0096979981750245,-0.11790610232576727,-5.988222761699557
1761469354143713000,3.472713134765625,4.500263254791498,-0.006033581075817346,-6.306923969700932
1761469354153696000,3.482696044921875,4.932783734196424,0.07246887775287032,-6.419936016374826
1761469354163679200,3.49267919921875,5.288135633724927,-0.011502221745252608,-6.549293633171915
1761469354173662200,3.502662109375,5.646458073496818,-0.1987361273191869,-6.6302896623820065
1761469354183646200,3.512646240234375,5.796089832037687,-0.46849181036576626,-6.438057363998889
1761469354193629000,3.52262890625,5.705947204297781,-0.7651558124735951,-6.028639527761936
1761469354203612200,3.532612060546875,5.184655385506153,-0.9934585182778537,-5.554131087455153
1761469354213596200,3.54259619140625,4.5330978951618075,-0.9965978392168879,-4.7091591032058
1761469354223579100,3.5525791015625,4.060843371261656,-0.48947073937803504,-3.555454931783676
1761469354233562000,3.56256201171875,3.602991174462437,-0.24560353082567452,-2.3560054927527903
1761469354243545000,3.572545166015625,2.827047133731842,0.127398591683805,-1.0247767627358435
1761469354253529000,3.582529052734375,1.9399185540154575,0.25854776807278396,0.39992227813899517
1761469354263512000,3.592511962890625,0.6261173441395164,0.35228315960764883,1.8659230512171983
1761469354273495300,3.602495361328125,-1.1174001013755797,0.3552528230682015,3.139933517974615
1761469354283479300,3.612479248046875,-2.7118802471116186,0.5325514639526605,4.314849988773465
1761469354293462000,3.6224619140625,-3.9348780272513624,0.8722694487586617,5.591161133688688
1761469354303445000,3.632445068359375,-4.811867198008299,0.9125494366988539,6.676507808199524
1761469354313428200,3.64242822265625,-5.194221670752763,0.9762332427106797,7.262220368975401
1761469354323412200,3.652412109375,-5.459453738895058,0.6495975884482265,7.147811899507046
1761469354333395000,3.66239501953125,-5.357979569801688,0.4069720505200326,6.909601693803071
1761469354343378200,3.672378173828125,-4.790921732874215,-0.028670360297709703,6.7179597625285385
1761469354353362200,3.682362060546875,-4.180602261847257,-0.32574966520816084,6.593649492248892
1761469354363345200,3.69234521484375,-3.7069255961894987,-0.8196934583470225,6.304911460834742
1761469354373328100,3.702328125,-3.498473399889469,-1.2000292116802185,5.876300263828039
1761469354383311000,3.71231103515625,-3.256117180421948,-1.4520562727473676,5.342562804961204
1761469354393295000,3.722295166015625,-2.6484751119107006,-1.5458625375613568,4.6877509889960285
1761469354403278000,3.732278076171875,-1.7760291375413535,-1.5053744598284362,3.8405122288584708
1761469354413261000,3.742260986328125,-0.9046031538695096,-1.501577990154922,2.9101538714855906
1761469354423245300,3.752245361328125,-0.0791670602172613,-1.313846510322392,1.8847797273784874
1761469354433228000,3.76222802734375,0.662082683750987,-1.2837234669983386,0.7688508675992488
1761469354443211000,3.7722109375,1.3165204057067632,-1.1959577244576065,-0.34449498994946476
1761469354453195000,3.782195068359375,1.9110393732726574,-1.1284666351173072,-1.3244722414940595
1761469354463178200,3.79217822265625,2.3204919885620474,-1.1245082528803496,-2.1971546549677847
1761469354473161200,3.8021611328125,2.587047122001648,-1.0884032856024801,-3.0103222186774015
1761469354483144000,3.81214404296875,2.668598154745996,-1.0988244341127573,-3.819163151359558
1761469354493128000,3.8221279296875,2.7595564827829597,-0.9715046798188238,-4.629085449537635
1761469354503111200,3.832111083984375,3.088463442978263,-0.766721600485593,-5.262165326166152
1761469354513094100,3.84209423828125,3.4692107727870343,-0.538286354342848,-5.79770661958456
1761469354523078100,3.852078125,3.8634465297222134,-0.240277586562559,-6.1759659319698805
1761469354533061000,3.86206103515625,4.285686438131332,-0.04921279758885502,-6.287203954708576
1761469354543044000,3.872044189453125,4.600005777786672,0.15897621773034334,-6.398396969261765
1761469354553027000,3.882027099609375,4.785153670866787,0.39069866885021326,-6.474681752040982
1761469354563011000,3.892010986328125,4.934130472630262,0.5187081589739769,-6.527685612475872
1761469354572994000,3.901994140625,4.985356217476725,0.7053373035877942,-6.451587292179465
1761469354582977000,3.91197705078125,4.783305704912543,0.9634269526295364,-6.074525665146112
1761469354592961000,3.9219609375,4.248666328769922,1.1713470148142426,-5.49031591014862
1761469354602944300,3.9319443359375,3.2382594521701336,1.5476999821215867,-4.5941275334030385
1761469354612927200,3.94192724609375,1.7171721671640872,1.8947341351598501,-3.409633671441674
1761469354622910000,3.951909912109375,0.1320534317523241,1.9006448205083608,-2.1740175250083205
1761469354632894000,3.96189404296875,-1.0336436675414442,1.5363894835561513,-0.7288795072168112
1761469354642877200,3.971877197265625,-2.0000486130684614,1.0783234978757799,1.1576882726222275
1761469354652860200,3.981860107421875,-2.6244372337192297,0.7847638915240764,3.175331579092145
1761469354662844200,3.99184423828125,-3.1951448253259063,0.37084435995370146,5.232174677050113
1761469354672825000,4.0018251953125,-3.9290444987922903,0.0972822703614831,6.920818668866157
1761469354682808000,4.01180810546875,-4.63660999982357,-0.4939807641483843,7.961946262422203
1761469354692792000,4.0217919921875,-5.235497099471092,-0.6796595492348074,8.481276425752043
1761469354702775000,4.031775146484375,-5.39227230002582,-0.6397489791288972,8.152551836386323
1761469354712758000,4.041758056640625,-5.384749503305554,-0.24078882402032611,7.542151409077644
1761469354722742000,4.051741943359375,-5.221719918531179,0.5964053658343851,7.05408673710525
1761469354732725200,4.061725341796875,-4.800115677677095,1.194661327971518,6.708509212616086
1761469354742708200,4.071708251953125,-4.50512706143558,1.6212725833326578,6.569172638118267
1761469354752691000,4.08169091796875,-4.087738100188971,1.898564068711549,6.360884107947349
1761469354762675000,4.091675048828125,-3.4017116462707517,1.8132699039161204,5.68030481351912
1761469354772658200,4.101658203125,-2.499139705967903,1.5724891170717774,4.465842514273524
1761469354782641200,4.11164111328125,-1.6260884591817855,1.1573442814901471,3.012036621379852
1761469354792625200,4.121625244140625,-0.8056471050769091,0.7162658170983195,1.3704337822020054
1761469354802608000,4.131608154296875,-0.01865560063123703,0.2986643821448087,-0.29384266107678414
1761469354812591000,4.141591064453125,0.6783358994156122,-0.043902708481997246,-1.7034037540525198
1761469354822574000,4.151573974609375,1.205366554120183,-0.2169060633253306,-2.8821184480905533
1761469354832558000,4.16155810546875,1.529543563184142,-0.3610397359065711,-3.8223423659175633
1761469354842541300,4.171541259765625,1.8129948863670229,-0.4044374905411154,-4.549169032257795
1761469354852527400,4.18152734375,2.144611690042913,-0.3548498682904988,-5.158460037019848
1761469354862511400,4.191511474609375,2.362134789288044,-0.24553762598261236,-5.630385475096106
1761469354872494300,4.201494384765625,2.4351649541854856,-0.206713535939157,-6.06800181633532
1761469354882477300,4.211477294921875,2.6695240374192593,-0.2109576763149351,-6.410458578455448
1761469354892460300,4.221460205078125,3.1012542432293295,-0.24812808086723087,-6.5944368432343
1761469354902444300,4.2314443359375,3.6406346764191984,-0.2599246093839407,-6.698629039114714
1761469354912427500,4.241427490234375,3.9225408159866926,-0.23550262724570928,-6.765797618502378
1761469354922410200,4.25141015625,4.084049182543159,-0.24947818030193447,-6.710246411672234
1761469354932394200,4.261394287109375,4.187802402484417,-0.30696320473887023,-6.461598398584127
1761469354942377200,4.271377197265625,4.311635118380189,-0.39955585597939786,-6.113038058891892
1761469354952360400,4.2813603515625,4.557985668180883,-0.5441446519169956,-5.674894478908181
1761469354962344400,4.291344482421875,4.666425876894593,-0.62558141063191,-5.0583150707036255
1761469354972327400,4.301327392578125,4.535691711047291,-0.7469481017403304,-4.123837587574124
1761469354982310400,4.311310302734375,4.213364421503246,-0.5511071113407612,-2.9882910041332242
1761469354992293400,4.32129345703125,4.050556078264117,-0.43118148588612676,-1.7497049019783735
1761469355002277400,4.33127734375,3.407047162079811,-0.5330850593727082,-0.2084188785523176
1761469355012260400,4.34126025390625,1.959834091579914,-0.4550105436325073,1.6464631386905908
1761469355022243300,4.351243408203125,-0.07268237437307834,-0.33774873055964705,3.329571123689413
1761469355032227300,4.361227294921875,-2.3145859793886543,0.061104091716930264,4.603335506731272
1761469355042210300,4.371210205078125,-3.7687601210728285,0.5699357304513454,5.83549245262146
1761469355052193300,4.381193359375,-4.246224780836701,0.9656585110738873,7.09892248865366
1761469355062176500,4.391176513671875,-4.273621321806312,1.2354779070064426,7.8185735642760985
1761469355072160300,4.40116015625,-4.501329130457341,1.4197298741601407,8.308093695753813
1761469355082143200,4.411143310546875,-4.352525931695103,1.44004142530486,8.595134275600314
1761469355092126500,4.42112646484375,-3.7970202931344508,1.4578940389901398,8.641117443618178
1761469355102110500,4.4311103515625,-3.1875770204201337,1.5027221917539835,8.367184182626008
1761469355112093400,4.441093505859375,-2.568954123689234,1.5080051005929707,7.910551006227731
1761469355122076200,4.451076171875,-2.3301634877488016,0.7046273286875337,6.824044640287757
1761469355132059400,4.461059326171875,-2.4593226593643425,0.16958207515776155,6.0064411399573086
1761469355142043400,4.47104345703125,-2.221244555607438,-0.02735701267682016,5.351431755593419
1761469355152026400,4.4810263671875,-1.6236416505515574,-0.12697035633437334,4.527956732881069
1761469355162009300,4.49100927734375,-0.8880471558660268,-0.14172704983092843,3.565253272220492
1761469355171993300,4.500993408203125,0.144845693308115,-0.0368463602297008,2.5439620135128496
1761469355181976300,4.510976318359375,1.2282476634919643,0.0363745049342513,1.5772849730461835
1761469355191959300,4.520959228515625,1.9378800339251756,-0.0519710102558136,0.29256840335726736
1761469355201943300,4.530943359375,2.2326515002846716,-0.08081365838050841,-1.357051153537631
1761469355211926500,4.540926513671875,2.4891268459975717,-0.2279348223399371,-2.8333050250828267
1761469355221909200,4.5509091796875,2.7364073701247573,-0.41833785946927965,-4.016303680050373
1761469355231892200,4.560892333984375,2.8187153587162492,-0.5101600377939641,-4.797897709366679
1761469355241876500,4.57087646484375,2.8393232624590397,-0.6370105671409517,-5.345148729801178
1761469355251859500,4.580859375,2.8550878178238865,-0.7659797691423446,-5.7530614221721885
1761469355261842200,4.59084228515625,2.8616607664734124,-0.7424153536815196,-5.899812072318792
1761469355271826200,4.600826171875,3.0452555848926304,-0.6280212049994617,-5.83207884478569
1761469355281809400,4.610809326171875,3.3419834460169073,-0.5107525237943977,-5.824105381688475
1761469355291792400,4.62079248046875,3.532515077961981,-0.36926512793824073,-5.862281675347686
1761469355301775400,4.630775390625,3.6785783303663133,-0.30435967117697,-5.978504500761628
1761469355311759400,4.64075927734375,3.845688754713535,-0.19622151414975522,-6.109812082582712
1761469355321742300,4.650742431640625,4.041153459146619,0.04484912248663604,-6.298696239581703
1761469355331725300,4.660725341796875,4.196798486627638,0.3158963066484779,-6.264132875722646
1761469355341709300,4.670709228515625,4.184260784354806,0.7116985822480172,-6.0743351110100745
1761469355351692500,4.680692626953125,3.8705765277326103,1.0751455984920262,-5.554029965168238
1761469355361675300,4.69067529296875,3.083487408131361,1.4801874116018414,-4.579059728130698
1761469355371658200,4.700658203125,1.5040610391423106,1.7127663334205745,-3.1689269727468488
1761469355381642200,4.710642333984375,-0.387837288069725,1.2552259790495037,-1.2224626503497362
1761469355391625500,4.72062548828125,-1.4491937229231,0.460533398707211,1.104066572549939
1761469355401608400,4.7306083984375,-2.7398656938850876,-0.27281477835625406,3.770281339290738
1761469355411592200,4.74059228515625,-3.9469615560159084,-1.2131843882642686,6.198492821076512
1761469355421575400,4.750575439453125,-4.967490305918455,-1.962392105499655,8.064524008843302
1761469355431558400,4.760558349609375,-5.930279106774925,-2.400741875579953,9.05003376007378
1761469355441541400,4.770541259765625,-6.150106099048257,-2.538499071931839,8.744630425062775
1761469355451525400,4.780525390625,-6.093990244072676,-2.242091674933582,7.6452973107755176
1761469355461508400,4.79050830078125,-6.085651454794407,-1.305682346958667,6.367229093059897
1761469355471491300,4.8004912109375,-5.667103386640548,-0.361431657833606,5.317279310622811
1761469355481475300,4.810475341796875,-5.155577759581804,0.39178485665172336,4.532876069104671
1761469355491458300,4.820458251953125,-4.621956036049127,0.948477805300802,4.497420724841952
1761469355501441300,4.830441162109375,-4.096862486886978,1.0574283746894448,4.853158993339538
1761469355511425300,4.84042529296875,-3.549556229133904,0.7325754391252994,4.898679220020771
1761469355521408300,4.850408203125,-3.0122113934248684,0.32492453949563205,4.283402126586437
1761469355531391500,4.8603916015625,-2.253733451279998,-0.009730608962848782,3.215281896686554
1761469355541374500,4.87037451171875,-1.3075003561660647,-0.1529879371009767,1.9699059882611034
1761469355551358500,4.8803583984375,-0.48379269374161954,-0.10083901299498975,0.644374593102932
1761469355561341200,4.890341064453125,0.31653467761725185,0.011498422352969646,-0.6355494816124438
1761469355571324400,4.900324462890625,1.0202128158211707,0.13049487719871103,-1.8853502207428217
1761469355581308400,4.910308349609375,1.520063787177205,0.2489505762312561,-2.949659952443838
1761469355591291400,4.92029150390625,1.831521892182529,0.36740693285092707,-3.947482657280564
1761469355601274400,4.9302744140625,2.0215961357489225,0.40364604790247977,-4.824773441332578
1761469355611257300,4.94025732421875,2.2318483672082423,0.39785109788812695,-5.500449181628227
1761469355621241300,4.950241455078125,2.4529709522500633,0.465796433801949,-6.0235892586350435
1761469355631224300,4.960224365234375,2.5711910889610645,0.4467698079012334,-6.289276084807515
1761469355641207600,4.97020751953125,2.7023560474410653,0.3045560705319047,-6.4756117263674735
1761469355651191600,4.980191650390625,2.8550170906752346,0.22647534424662588,-6.650624594402313
1761469355661174300,4.99017431640625,3.0961253559082746,0.2586618959717452,-6.652457070526481
1761469355671157200,5.0001572265625,3.3843764805883167,0.35991270463801917,-6.523251429420709
1761469355681141500,5.0101416015625,3.7120416240289806,0.6585645195621996,-6.251422447231412
1761469355691124500,5.02012451171875,3.9620381291165945,0.9034361559167504,-5.762511387562752
1761469355701107200,5.030107177734375,4.080061574211716,1.056758220342919,-5.134021761333942
1761469355711090400,5.04009033203125,3.880068578699231,1.0790860066808758,-4.486270385274291
1761469355721074400,5.050074462890625,3.4695217384323476,1.2023472793642431,-3.717484984126687
1761469355731057400,5.060057373046875,2.927954316592216,1.1822091120250522,-2.957344077205658
1761469355741040400,5.070040283203125,2.340360764375329,1.0887104518555104,-2.3047347397208213
1761469355751024000,5.080024169921875,1.960496062619984,0.9788645410623401,-1.7542466370612382
1761469355761007400,5.09000732421875,2.013696030148864,0.8416384559124708,-0.9944318933546542
1761469355770990300,5.099990234375,2.1069728642612695,0.8150057389222085,0.20939736819565294
1761469355780973300,5.109973388671875,1.894616646260023,0.7789304361302405,1.8432389257222412
1761469355790957600,5.11995751953125,0.9099731564700603,0.7356043584924191,3.88730671325922
1761469355800940300,5.129940185546875,-0.7798100685089826,0.7655049181722104,5.966081657040119
1761469355810923300,5.13992333984375,-2.882698878327012,0.48759062471985815,7.332028064695
1761469355820907300,5.1499072265625,-5.0908957363128655,-0.4432300164025277,6.791620042023062
1761469355830890500,5.159890380859375,-6.030205461904406,-0.6618483635384589,6.019960546743869
1761469355840873200,5.169873291015625,-5.143371188959479,-0.6371865812949836,5.77241844907105
1761469355850853600,5.179853515625,-3.9707942670240994,-0.47107115933448074,5.712191067123412
1761469355860837600,5.189837646484375,-3.253961755953729,-0.18325141180902718,5.590443340808153
1761469355870820600,5.199820556640625,-2.889197884957492,-0.15698073306418955,5.439608636218309
1761469355880803600,5.209803466796875,-2.7045003659933804,-0.2516568395152688,5.258447182425856
1761469355890787600,5.21978759765625,-2.585227797619998,-0.35812699026502665,5.03973078174293
1761469355900770600,5.2297705078125,-2.2508058733955023,-0.5213442796312272,4.76341091787517
1761469355910753500,5.23975341796875,-1.9123370118677614,-0.6101688835751264,4.388059017369151
1761469355920736500,5.249736572265625,-1.4587301975533364,-0.5831558620303869,3.840978092804551
1761469355930720500,5.259720458984375,-0.6393839452087878,-0.5806230556171387,3.162489048653841
1761469355940703700,5.269703857421875,0.4548632441163063,-0.6175470841929316,2.3307079698890445
1761469355950686700,5.279686767578125,1.4091045813798904,-0.623310031633824,1.3474082959234714
1761469355960670700,5.289670654296875,2.0319994563415644,-0.6364207114890218,0.22199323039650914
1761469355970653400,5.2996533203125,2.457339084331691,-0.6753720081087201,-0.9939730436712503
1761469355980636700,5.30963671875,2.603536776770651,-0.7129090540163219,-2.276698147282004
1761469355990619600,5.31961962890625,2.749275619526207,-0.8356509790007024,-3.5416473557054995
1761469356000603600,5.329603759765625,2.8872034962698816,-0.7631319054305553,-4.493326149004697
1761469356010586600,5.339586669921875,2.947421233606338,-0.7161955283410847,-5.184701562735438
1761469356020569600,5.349569580078125,3.1791350630283355,-0.6353741250455379,-6.24899960399866
1761469356030553600,5.3595537109375,3.3781311564579606,-0.41728447795882817,-6.720209002760052
1761469356040536600,5.36953662109375,3.648792556172609,-0.3405963750757277,-6.881359934180974
1761469356050519800,5.379519775390625,3.715365800015628,-0.3149915398284793,-7.072731816342473
1761469356060502500,5.38950244140625,3.7765257866382598,-0.3056738225154578,-7.314733231022953
1761469356070486500,5.399486572265625,3.524490469199419,-0.1385289113767445,-7.3421432159960265
1761469356080469500,5.409469482421875,2.9541759685635567,0.19035612924769518,-6.8784788257867095
1761469356090452700,5.41945263671875,1.9728122310966252,0.3631660804107785,-6.00751958284378
1761469356100436700,5.429436767578125,0.5457254183024167,0.27902313147708774,-4.92926666598618
1761469356110419500,5.43941943359375,-0.9854004456371068,0.08970014466941356,-3.580948854002356
1761469356120402700,5.449402587890625,-1.5944257852002977,-0.06235036545097827,-1.7280553802281617
1761469356130386700,5.45938671875,-2.3439961982682345,-0.4516150559753179,0.8186234910279512
1761469356140369700,5.46936962890625,-2.6083669734060764,-0.4350993899822235,3.545014201790094
1761469356150352600,5.4793525390625,-3.1423964009568093,-0.7994571643956006,5.982832885354757
1761469356160335600,5.489335693359375,-4.7806472993582485,-1.7877865030914544,7.756618920144438
1761469356170319600,5.499319580078125,-6.4971694781810045,-2.243158865773678,8.698083777943253
1761469356180302600,5.509302490234375,-6.822652893668413,-2.1131195503227413,9.08588248756826
1761469356190285600,5.51928564453125,-6.159729082918167,-1.3296677643105388,8.386952712935209
1761469356200269800,5.529269775390625,-5.535255122071504,0.10576368298083544,6.817956260284781
1761469356210252500,5.53925244140625,-4.6825464060902595,1.3332890235476196,5.377523643705248
1761469356220235500,5.549235595703125,-3.78027374099493,2.2828598847821353,4.459425632968545
1761469356230218800,5.55921875,-3.113577425968647,2.6191502332270145,3.810727331447601
1761469356240202800,5.56920263671875,-2.9631045404285192,2.4863562122404574,3.199758748862147
1761469356250185500,5.579185546875,-2.882491957578063,1.5429859592117368,2.716519305089116
1761469356260168400,5.58916845703125,-2.4287182622641326,1.0262482965931297,2.188586733108759
1761469356270152400,5.59915234375,-1.7391192105561495,0.6641071753159165,1.1294330689966678
1761469356280135700,5.6091357421875,-1.0240981328219174,0.5041271873705089,0.21187691005170345
1761469356290118700,5.61911865234375,-0.31811113315373657,0.4730361757971346,-0.5631412480056286
1761469356300101600,5.6291015625,0.45246319723725315,0.5428003977011889,-1.3022931429117917
1761469356310085600,5.639085693359375,1.1318693562328814,0.6158646840639412,-2.0054905118614434
1761469356320068600,5.649068603515625,1.7759949430108068,0.655245165881142,-2.680956993320584
1761469356330051600,5.659051513671875,2.304149633309245,0.49739225309230384,-3.4334359873116016
1761469356340035600,5.66903564453125,2.8262866707533596,0.29374847998730835,-3.995325773951411
1761469356350018600,5.6790185546875,3.1290006205499172,-0.037399902459234,-4.371971805921197
1761469356360001500,5.68900146484375,3.2066859177768228,-0.24199746915772555,-4.687443530482054
1761469356369985500,5.698985595703125,3.3497885668098926,-0.3593558744728565,-4.788096446320414
1761469356379968800,5.70896875,3.636684769749641,-0.3927491716392338,-4.834466567829251
1761469356389951700,5.71895166015625,4.098838170874118,-0.3062715692128986,-4.95847230220437
1761469356399934500,5.7289345703125,4.615383671921491,-0.16384031663537024,-5.003799636662006
1761469356409918500,5.73891845703125,5.085985752439498,0.06413980615101754,-4.835509939402342
1761469356419901700,5.748901611328125,5.280384873467684,0.2644961550831795,-4.4586821211248635
1761469356429884700,5.758884765625,5.279704489988088,0.377505644473806,-4.01789416411221
1761469356439867400,5.768867431640625,5.051840321731567,0.33406448908895253,-3.5165596762001514
1761469356449851400,5.778851318359375,4.690494150224327,0.3633030777286738,-2.7342373326092955
1761469356459834600,5.788834716796875,4.261536331737041,0.2052450708217919,-1.901326957553625
1761469356469817600,5.798817626953125,3.7618689002543686,0.2615171392723918,-0.3796358614355326
1761469356479801600,5.808801513671875,2.491606972375512,0.14156988650783894,1.2385872711986303
1761469356489784800,5.818784912109375,0.3196212454557419,0.09975728217288851,2.2523253380477426
1761469356499767600,5.828767578125,-2.0577903156802058,0.09459989940971135,2.83290696567595
1761469356509751600,5.83875146484375,-3.308537103489041,-0.0575675150886178,2.988791939392686
1761469356519734500,5.848734619140625,-3.2807270132824775,0.014869213960319757,3.3026386931002136
1761469356529717800,5.8587177734375,-2.9999469551354645,0.14215104739665985,3.7256577691882846
1761469356539700500,5.868700439453125,-3.1110756722807884,0.24714812991917132,4.042133117833734
1761469356549684500,5.8786845703125,-3.8153029688000677,0.10706892036050557,4.231815731734037
1761469356559667700,5.888667724609375,-4.352859693694114,-0.3288378404818475,4.352954386240244
1761469356569650700,5.898650634765625,-4.4770977755203845,-0.5039588450662792,4.70764811412096
1761469356579634700,5.908634765625,-4.1196550411924715,-0.3938875280193984,5.002752173435688
1761469356589617400,5.918617431640625,-3.491803420606255,-0.148140204808861,5.131218394351006
1761469356599600600,5.9286005859375,-2.9281463320329784,-0.007997209298983217,5.053299872890115
1761469356609583600,5.93858349609375,-2.6058973684221503,-0.42986740761287506,4.491851984798908
1761469356619567600,5.948567626953125,-2.203163539993763,-0.615904796878621,3.9747821676164863
1761469356629550600,5.958550537109375,-1.4419675710618496,-0.7970241650950163,3.538279925099015
1761469356639533600,5.968533447265625,-0.7043348485469818,-0.9109384943708777,2.819054965934157
1761469356649517600,5.978517578125,-0.1550841787278652,-0.8897205689709633,1.8675866005152464
1761469356659500500,5.98850048828125,0.4559487012654543,-0.8438474371988326,0.8780126685857772
1761469356669483800,5.99848388671875,0.9262725493639707,-0.8418520986631512,-0.059469841578602786
1761469356679466500,6.008466552734375,1.2638052990853785,-0.8371873947877436,-0.8535381525427103
1761469356689450500,6.018450439453125,1.4504209266304968,-0.6791079067014157,-1.5563655191361903
1761469356699433500,6.02843359375,1.5683704297065735,-0.5377756283417344,-2.238314348351955
1761469356709416700,6.038416748046875,1.7811445808589457,-0.2888552280530333,-2.668605461269617
1761469356719400700,6.048400634765625,1.9872025754988192,0.20108225205391644,-3.0524954730182885
1761469356729383700,6.0583837890625,2.430291210669279,0.5804496718116104,-3.5172605179458856
1761469356739366700,6.06836669921875,3.030726124280691,0.6570048690300434,-3.8818507859408853
1761469356749349600,6.078349609375,3.6639281659841534,0.5985962269421666,-4.164973900082707
1761469356759333600,6.088333740234375,4.205669483086466,0.5079173734337091,-4.191716361057758
1761469356769316600,6.098316650390625,4.697541146126389,0.5415961364779621,-4.17490901864171
1761469356779299600,6.108299560546875,5.072820565918088,0.49184243694543833,-4.202876637497544
1761469356789283600,6.11828369140625,5.453893766680359,0.5123181656759231,-4.283032124230266
1761469356799266600,6.1282666015625,5.666227772849798,0.5211164622247219,-4.4977468880563976
1761469356809249500,6.13824951171875,5.566122554022074,0.43146673256829376,-4.652247129416465
1761469356819232800,6.148232666015625,5.309091327992081,0.35023784445039924,-4.554674059414864
1761469356829216800,6.158216796875,4.727252978301048,0.4969416597805917,-4.191315379041433
1761469356839199500,6.168199462890625,3.9342140103846788,0.583034281477332,-3.4090041413664816
1761469356849181700,6.178181640625,2.869940519040823,0.5540391462046653,-2.0955027912199498
1761469356859165700,6.188165771484375,1.260844695714116,0.48649881089515984,-0.5612047269850969
1761469356869148400,6.1981484375,-0.49895723738670344,0.30418935611136255,0.8472399291813373
1761469356879131600,6.208131591796875,-2.255696860307455,-0.2723141353577375,1.9630740964144466
1761469356889114600,6.218114501953125,-4.111753182026743,-0.6348651526100934,2.9794653081208464
1761469356899098600,6.2280986328125,-5.515529846382141,-0.9871600757207721,3.8396693482935427
1761469356909081600,6.23808154296875,-6.423934146100282,-1.0605394924473017,4.497976605159044
1761469356919064600,6.248064697265625,-6.552244299671053,-0.8329343404531478,4.855966451975703
1761469356929048600,6.258048583984375,-6.014001346078515,-0.5939922402780503,4.758192890965939
1761469356939031600,6.268031494140625,-5.142751011234521,0.04014138318710029,4.428346019572019
1761469356949014800,6.278014892578125,-4.208274697148799,0.675842621295154,4.059135690560937
1761469356958997500,6.28799755859375,-3.7177339904516935,1.226521278090775,3.5901211714953183
1761469356968981500,6.2979814453125,-3.8925498746097085,1.6808651745080947,3.1623201218277215
1761469356978964500,6.307964599609375,-4.168609041714668,1.8024714465260505,2.6767858451157807
1761469356988947700,6.31794775390625,-3.9833214479029175,1.6092434151038526,2.1644167529702187
1761469356998931700,6.327931640625,-3.6315129200696945,1.2956585272029042,1.8921803590238093
1761469357008914700,6.337914794921875,-3.2221833466380834,0.9524343609068542,1.6783897243052721
1761469357018897400,6.3478974609375,-2.6173803009450434,0.720638698420301,1.318482645690441
1761469357028880600,6.357880615234375,-1.623616516110301,0.7002957292240113,0.7482511471629142
1761469357038864600,6.36786474609375,-0.41666240053772924,0.7762760491639376,0.10380524238944053
1761469357048847600,6.37784765625,0.5945043545186519,0.7957887780811638,-0.5926683712631464
1761469357058830600,6.38783056640625,1.2409738740742207,0.7835275546621531,-1.3718068241208792
1761469357068814600,6.397814697265625,1.696015981888771,0.6608824411157518,-2.126966435497999
1761469357078797600,6.407797607421875,2.12601366481781,0.5634953952055424,-2.6886604073047637
1761469357088780500,6.417780517578125,2.374891395008564,0.50976212451756,-3.149225077933073
1761469357098764500,6.4277646484375,2.3200725941061973,0.530639931242913,-3.3690520702064037
1761469357108747800,6.437747802734375,2.0554425835102794,0.5790626013673842,-3.445786934840679
1761469357118730500,6.44773046875,2.054514947271347,0.6453219569556414,-3.4969963130742308
1761469357128713700,6.457713623046875,2.3712346260666846,0.7119630053378642,-3.563986028763652
1761469357138697700,6.46769775390625,2.7507500759929417,0.7993130066845565,-3.538476908975839
1761469357148680700,6.4776806640625,3.0093197636365887,0.9133741240199654,-3.4052240383058785
1761469357158663400,6.487663330078125,3.103926969569921,1.0524817120674996,-3.2481232590585947
1761469357168647400,6.4976474609375,3.0740251677811146,1.221898002204299,-2.801283746922016
1761469357178630700,6.507630615234375,3.003389204543829,1.372375563919544,-2.3041063786894083
1761469357188613600,6.517613525390625,3.1345354583233593,1.3057669565021992,-1.9388491712182758
1761469357198596600,6.5275966796875,3.2852105884373186,1.0663980822823942,-1.6538567560732365
1761469357208580600,6.53758056640625,3.6155145559489723,0.7100416818864643,-1.2678157037705182
1761469357218563600,6.5475634765625,4.0803742934226985,0.48737727423012256,-0.6706120271652937
1761469357228546600,6.557546630859375,3.9481928513765334,0.499796830016002,0.06071604224741459
1761469357238530600,6.567530517578125,3.2734611139327288,0.4414860222794115,0.688416563925147
1761469357248513800,6.577513671875,1.1150503233790396,0.48334648434408006,1.2627122431516646
1761469357258496500,6.58749658203125,-0.9563239887565373,0.18473456303887067,1.5519494562596081
1761469357268479500,6.5974794921875,-1.918278092354536,-0.4914131786826998,1.6685832005620003
1761469357278463500,6.60746337890625,-2.473044310724735,-1.266010992436111,1.7126473832160234
1761469357288446700,6.61744677734375,-2.7656857793182135,-1.984334618847072,1.7536013248950242
1761469357298429400,6.627429443359375,-2.5165397535800933,-2.386087473414093,2.042315390911698
1761469357308413400,6.637413330078125,-2.9033658187806606,-2.74320039126575,2.4525328530937434
1761469357318396700,6.647396728515625,-3.9203181715011595,-2.3292238688111304,3.127101508930325
1761469357328379600,6.657379638671875,-4.823933483377099,-1.8129057467788456,3.8692853188782927
1761469357338362600,6.667362548828125,-5.43227697815597,-1.192734013170749,4.223450638970732
1761469357348346600,6.6773466796875,-5.53192451634407,-0.8279045295923948,4.345492964318394
1761469357358329600,6.68732958984375,-5.035611655986309,-0.642480596049875,4.256257514551281
1761469357368312600,6.6973125,-4.23056017871499,-0.5846625402662903,3.951048240807652
1761469357378296600,6.707296630859375,-3.486249293610453,-0.6018100013568997,3.5621833632558584
1761469357388279600,6.717279541015625,-2.5182307754069564,-0.6595138561762869,3.0672698483020064
1761469357398262500,6.727262451171875,-1.2779963215231895,-0.6961826678819955,2.436063364329934
1761469357408245500,6.73724560546875,-0.3435568323165178,-0.6760411395419389,1.6918763978660105
1761469357418229500,6.7472294921875,0.599838116762042,-0.6214140618193894,1.0170651654452085
1761469357428212700,6.757212646484375,1.565301105263829,-0.549510051407665,0.3853191677689552
1761469357438195700,6.76719580078125,2.3176602722674606,-0.562839561645314,-0.29137071800529957
1761469357448179700,6.7771796875,2.6416046416193244,-0.6518930059090257,-0.8880068238556384
1761469357458162400,6.787162353515625,2.7297657401531934,-0.6046820496618748,-1.5037211396634578
1761469357468145700,6.797145751953125,2.7077427089154718,-0.7303655079908669,-2.1843945421159265
1761469357478128600,6.807128662109375,2.8103935205727812,-0.6787322783220558,-2.7218893076896666
1761469357488112600,6.817112548828125,2.8715730886787174,-0.526363934424147,-3.0773318081110714
1761469357498095600,6.827095703125,2.8915380183428523,-0.4198335779197514,-3.4005244823127985
1761469357508078600,6.83707861328125,2.8511136534959074,-0.4409883018903434,-3.6690824800074098
1761469357518062600,6.8470625,2.807921577501297,-0.39896673097983,-3.826921510401368
1761469357528045600,6.857045654296875,2.81934781140089,-0.32172596265003084,-3.8847845013052225
1761469357538028800,6.86702880859375,2.9230542695909736,-0.31501703959591687,-3.832040753111243
1761469357548011500,6.877011474609375,2.935238043859601,-0.43072526655122634,-3.6390602667093277
1761469357557995500,6.88699560546875,2.5566467230409384,-0.45804742711037394,-3.303711290767789
1761469357567978500,6.896978515625,2.20656311930418,-0.42566951753161847,-2.893700164812803
1761469357577961700,6.906961669921875,1.966184337389469,-0.4031804762173444,-2.445555999818444
1761469357587945700,6.91694580078125,1.832045916056633,-0.2529986095130443,-1.8827800779938697
1761469357597928400,6.926928466796875,1.8835569075852632,-0.12206161457002163,-1.1845096440523861
1761469357607911700,6.93691162109375,1.8752175337851047,0.1020241311263293,-0.6152993052661418
1761469357617894700,6.946894775390625,1.6584563588231802,0.07118767883591354,-0.06445873590707779
1761469357627878700,6.956878662109375,0.8408885143280029,0.011934914074093103,0.4077683154642582
1761469357637861400,6.966861328125,-0.6307260069787501,-0.07408610369116067,0.9471785592705011
1761469357647844600,6.9768447265625,-2.2416239112913607,-0.18249299465715885,1.695295850920677
1761469357657828600,6.98682861328125,-3.3458208322227,-0.15722528240978717,2.302859008976817
1761469357667811600,6.9968115234375,-3.615077333575487,-0.21525296235606073,2.4367431632876393
1761469357677794800,7.006794921875,-3.1524796958148475,-0.10566226843297481,2.1866437823474407
1761469357687777500,7.016777587890625,-2.3176836531430483,0.026889906621724365,1.8850497764915226
1761469357697761500,7.026761474609375,-1.7930226501792668,0.16396058201417327,1.6963006440490482
1761469357707744500,7.03674462890625,-1.5583815351337194,0.3571231469847262,1.7268080105155705
1761469357717727700,7.046727783203125,-1.7319442043602467,0.5293132126837968,1.7001847920060156
1761469357727711700,7.056711669921875,-2.096815627384186,0.669186670537293,1.626158017286658
1761469357737694500,7.066694580078125,-2.5301275494277475,0.7978117352761328,1.6925176183789967
1761469357747677400,7.076677490234375,-3.022283290106058,0.8779550931796432,1.613666784504056
1761469357757660700,7.08666064453125,-3.255427444592118,0.7445131296783686,1.3755273059487343
1761469357767644700,7.096644775390625,-3.5171418600022792,0.520347815939784,1.0026391652077435
1761469357777627600,7.106627685546875,-3.51063145519495,0.27379545995667576,0.5186620548099279
1761469357787610600,7.116610595703125,-3.6022365567028523,0.03107873661369085,-0.016443185278773306
1761469357797594600,7.1265947265625,-3.869247324955463,-0.06319412279874086,-0.5437719461470842
1761469357807577600,7.13657763671875,-3.4011084196805954,-0.043646834024786946,-1.2983335916310548
1761469357817560600,7.146560546875,-2.386038227444887,0.057721974997967475,-1.9180863691747188
1761469357827543600,7.15654345703125,-1.3960884479403495,0.18431728747487067,-2.2479227191746234
1761469357837527600,7.166527587890625,-1.462019009965658,0.43925694805309173,-2.143121451485157
1761469357847510500,7.176510498046875,-0.9731927059710025,0.12409516622424124,-2.6808032640635964
1761469357857493500,7.186493408203125,0.6260989316999912,-0.06057941025570034,-3.1029338668793436
1761469357867477500,7.1964775390625,2.069173587220907,-0.16865049339607358,-3.3623896897077556
1761469357877460200,7.206460205078125,3.20327873968184,-0.24068697108104822,-3.809388776320219
1761469357887443200,7.216443115234375,3.996748500230908,-0.1789316489137709,-4.141481380814314
