time,seconds_elapsed,z,y,x
1761469358725761800,0.12276171875,2.7472727552711964,-1.3004476611755789,-1.3115198209404944
1761469358735745800,0.132745849609375,1.7058061390191315,-1.2155625155724585,-0.026282442247867584
1761469358745728800,0.142728759765625,0.17566051828861234,-0.9767689570225775,1.5131383718281983
1761469358755711700,0.152711669921875,-1.5715730251401663,-0.8543851247608661,2.861656090298295
1761469358765695000,0.162695068359375,-2.867002712023258,-0.4456850814044475,4.003870899456739
1761469358775679000,0.172678955078125,-3.663589143288135,-0.08753171458914875,5.036035434356331
1761469358785662000,0.182661865234375,-4.4196822361230845,-0.23055472251474857,5.623162538105249
1761469358795644700,0.192644775390625,-5.107879604339599,-0.2519143214076757,5.742258873128891
1761469358805628700,0.202628662109375,-5.383845247942209,-0.1846921121366322,5.794242158344388
1761469358815612000,0.21261181640625,-5.5294110722184175,0.018476590802520513,6.011323066779971
1761469358825595000,0.222594970703125,-5.617797796201706,0.17391192105561493,6.206576174288988
1761469358835579000,0.232578857421875,-5.446047144833207,0.3005804448992014,6.244280174261331
1761469358845561900,0.242561767578125,-5.037843945083022,0.5804068555831909,5.9183075139522545
1761469358855545000,0.252545166015625,-4.299087186974287,0.5862769166603684,5.563360103571415
1761469358865528000,0.262528076171875,-3.5450358291000126,0.48755745310261844,5.1171588893383735
1761469358875512000,0.272511962890625,-2.631238145905733,0.2988660421967506,4.756616435429454
1761469358885495300,0.282495361328125,-1.5599527299731968,0.16145532119497655,4.405062174618244
1761469358895478000,0.29247802734375,-0.4022334776908159,0.011400661066919565,3.604937047833204
1761469358905462000,0.3024619140625,0.805037448745966,-0.2107066972285509,2.3295202214092017
1761469358915445000,0.312445068359375,1.8730238231331109,-0.45288361460641025,0.9935983651399611
1761469358925428200,0.32242822265625,2.655145675715804,-0.542541527569294,-0.3436526939064264
1761469358935411000,0.332410888671875,3.3538743748188016,-0.7625143580541014,-1.5408429558336734
1761469358945395000,0.34239501953125,3.797867849874496,-1.005766795708984,-2.5641788721114396
1761469358955378200,0.352378173828125,3.6928485555201767,-0.9213692874923348,-3.4353567262411118
1761469358965361200,0.362361083984375,3.456139402028918,-1.1409865825377403,-4.069544271850586
1761469358975345200,0.37234521484375,2.94452668120861,-1.3264312666073441,-4.848368251931667
1761469358985328000,0.382328125,2.6498423086106775,-1.6742608078069985,-5.669665346083045
1761469358995311000,0.39231103515625,2.4794904181241986,-1.8458090684711932,-6.1407531642913815
1761469359005294000,0.402294189453125,2.1554104396939278,-1.881369334413111,-6.495075136250257
1761469359015278000,0.412278076171875,2.3826374790906906,-1.7316006516195832,-6.210028945091366
1761469359025261000,0.422260986328125,3.2895658610373735,-1.2074844230569899,-5.896361639603972
1761469359035244000,0.432244140625,4.164195316925644,-0.9594828911788761,-5.7610763863235706
1761469359045228000,0.44222802734375,5.191120782127976,-0.6362450626611709,-5.7276312128394835
1761469359055211000,0.4522109375,5.8882572436034675,-0.32550475053638217,-5.785225323674083
1761469359065194200,0.4621943359375,6.3567655667126175,-0.11841536702215671,-5.620844908812642
1761469359075177200,0.47217724609375,6.187429575270414,0.23597820886820553,-5.114122298121452
1761469359085161000,0.482160888671875,5.401171645796299,0.38617622298970816,-4.085797487515211
1761469359095144000,0.49214404296875,3.6843051835805176,0.8167050901859998,-2.333575634279847
1761469359105127200,0.502127197265625,0.9973615170657634,1.4687994638860224,0.07295593061745166
1761469359115111200,0.512111083984375,-2.8838001175671812,1.7567577430993317,2.518528297048807
1761469359125094100,0.52209423828125,-6.557655218803882,1.733665767455846,4.374264885294437
1761469359135077000,0.5320771484375,-6.844481279116868,1.655764197129756,6.141815240564942
1761469359145060000,0.54206005859375,-5.629178437393904,1.1543773945085705,7.07652244079709
1761469359155044000,0.552044189453125,-5.050117735722661,0.23661197672709822,6.892380509889126
1761469359165027000,0.562027099609375,-5.71456481051743,-0.22366817787140605,6.2521677126407615
1761469359175010300,0.57201025390625,-6.535239388856291,-0.43225905198976394,5.548383483713865
1761469359184994000,0.581994140625,-7.442240251517295,-0.02869154921621084,5.007814717522264
1761469359194977000,0.59197705078125,-7.4423057179689405,0.8095493732124567,4.529565921643376
1761469359204960000,0.6019599609375,-6.437214483433961,1.7747879053086042,4.421504190853238
1761469359214943200,0.611943115234375,-5.477251261392236,2.526955933654308,4.4261078852564095
1761469359224927200,0.62192724609375,-4.93474889678955,2.6644997795164582,4.326376175916194
1761469359234910000,0.631909912109375,-4.146233543777465,2.36621679790467,3.991910997071862
1761469359244893200,0.64189306640625,-3.1734277912974354,1.9912614955008028,3.22330913579762
1761469359254877200,0.651877197265625,-2.0937503945946694,1.421016845230758,2.1574363925635813
1761469359264860200,0.661860107421875,-1.042211881661415,0.8054417917631566,0.989396821796894
1761469359274843000,0.6718427734375,-0.22744915771484372,0.459088898987323,-0.20512275961637497
1761469359284826000,0.681826171875,0.7450280934631824,0.26411884620338677,-1.4838912345558404
1761469359294810000,0.69181005859375,1.7131968337923287,0.011790244906395674,-2.590613874572515
1761469359304793000,0.70179296875,2.486039985898137,-0.149741356395185,-3.419350763335824
1761469359314776000,0.711776123046875,3.069848174357414,-0.35598479060456156,-4.11545262106657
1761469359324760300,0.72176025390625,3.523112166583538,-0.5122790757745505,-4.707985383251309
1761469359334743000,0.731742919921875,3.637011517485976,-0.6913095088876784,-5.290563153132796
1761469359344726000,0.74172607421875,3.8877158785820005,-0.666249155780673,-5.8486664069712155
1761469359354710000,0.7517099609375,4.2674341576039785,-0.6928498701974749,-6.175066352781653
1761469359364693200,0.761693359375,4.740224688076973,-0.5983160217612982,-6.395688294824957
1761469359374676000,0.771676025390625,5.353784456199407,-0.48471536154448985,-6.507074786123633
1761469359384659000,0.781658935546875,5.919565405058861,-0.410934524410218,-6.590794687339663
1761469359394643000,0.791642822265625,6.291849150165915,-0.4073566659234464,-6.63645461475253
1761469359404626200,0.801626220703125,6.392801341211795,-0.45923488332927226,-6.6336909952580925
1761469359414609200,0.811609130859375,6.165381409591436,-0.6435284976676106,-6.4005152765899895
1761469359424593000,0.821593017578125,5.552185214084386,-0.7022539506196975,-5.733851694789529
1761469359434576100,0.831576171875,4.746038927313685,-0.3704746498584747,-4.6708577218621965
1761469359444559000,0.84155908203125,3.987903514996171,-0.1484714825898409,-3.398042602369189
1761469359454542000,0.8515419921875,2.8868939919292926,0.13120032205432652,-1.9902789142042396
1761469359464526000,0.861526123046875,0.6697013420611619,0.3462820194967091,-0.11240940460562705
1761469359474509000,0.871509033203125,-2.0505378603339195,0.4600681192830205,2.3967016602784392
1761469359484492000,0.881491943359375,-3.9706840846478935,0.3742072605155408,4.8678807616531845
1761469359494476000,0.89147607421875,-5.1182501917064185,0.20170126073509453,6.572266512480378
1761469359504459300,0.901459228515625,-5.689381853944063,0.22797201254516838,7.908848293963074
1761469359514442000,0.91144189453125,-5.394839520165324,0.14196166230440138,8.938141072818636
1761469359524425000,0.921425048828125,-4.642345913127064,0.2288699842981994,8.972026975807546
1761469359534409000,0.931408935546875,-4.02908542021215,0.4826175124824047,8.425567398011683
1761469359544392200,0.94139208984375,-3.5755063706874846,0.497127537741512,8.039591227638722
1761469359554375200,0.951375244140625,-3.3527222821742293,0.6444101028077304,7.774489507877826
1761469359564359200,0.961359130859375,-3.2276714226603507,0.47770329082533713,7.36037620730102
1761469359574342000,0.971341796875,-3.2519898713588713,-0.2450321606785059,6.550138267302513
1761469359584325000,0.9813251953125,-3.0702655229866505,-0.4449206729032099,5.926878942942619
1761469359594308000,0.99130810546875,-2.3396453095823526,-0.7475638955511152,5.201139487317204
1761469359604292000,1.0012919921875,-1.4516589439928531,-0.8404725539382547,4.164835952916741
1761469359614275000,1.011275146484375,-0.4406228295788169,-0.6581044277697801,2.912687773877382
1761469359624258000,1.021258056640625,0.6183288822203874,-0.5559109314259142,1.7205542108178138
1761469359634242000,1.031241943359375,1.3067825632855294,-0.550861319886148,0.543893526700139
1761469359644225000,1.04122509765625,1.6664762914106248,-0.5613077489681542,-0.5616565624058246
1761469359654208300,1.051208251953125,1.8265894042164086,-0.5920342380780726,-1.7172405562251805
1761469359664192300,1.061192138671875,2.016200706446171,-0.5162804203703999,-2.731148134422302
1761469359674175000,1.071175048828125,2.2050588522210717,-0.38665216993838547,-3.6229379839479923
1761469359684158200,1.081158203125,2.256553184875846,-0.2628425426572561,-4.327129624632001
1761469359694141200,1.09114111328125,2.4276608621656894,-0.1465172797821462,-4.874970427653193
1761469359704125200,1.101125244140625,2.7203245425909754,-0.08967121083587408,-5.31256280349493
1761469359714108000,1.11110791015625,3.058677376523614,-0.005918722524493932,-5.72834783667624
1761469359724091100,1.121091064453125,3.5539562176585195,0.22314707660675048,-6.162748723000288
1761469359734074000,1.13107421875,4.208123890501261,0.431381538502872,-6.710428197979927
1761469359744058000,1.14105810546875,4.771498362740874,0.6534110092565417,-7.1627137005627155
1761469359754041000,1.151041015625,4.948119835016131,0.8597843534559011,-7.5169678679823875
1761469359764024000,1.161024169921875,4.775989828941226,1.0507695743873715,-7.710609448641538
1761469359774008000,1.171008056640625,4.2361090450137855,1.2066165541812777,-7.554203665921092
1761469359783991000,1.180990966796875,3.4516870987951753,1.4142719010151923,-7.150303716322779
1761469359793974300,1.190974365234375,2.2535551721036433,1.5244060541652142,-6.480867747199535
1761469359803958300,1.200958251953125,0.5519444389477371,1.2006425943382084,-5.401445202040672
1761469359813941000,1.21094091796875,-0.983878350636363,0.9232669378072023,-3.770460202988982
1761469359823924000,1.220924072265625,-1.6853060795649886,0.6960309844516217,-1.5520809736847876
1761469359833907200,1.2309072265625,-1.7027587341472505,0.5156128963723778,0.8188117070764303
1761469359843891200,1.24089111328125,-1.606799821344018,0.3568918224468827,3.387076387196779
1761469359853875200,1.250875244140625,-1.9619591209098695,-0.10851473525464535,5.922898933395743
1761469359863858000,1.26085791015625,-2.8791446929767726,-0.702325846812129,7.8114423972219225
1761469359873842000,1.270842041015625,-4.194083382450044,-1.5727207338705658,8.659062850153445
1761469359883825200,1.2808251953125,-5.405251608586311,-1.8079343881070613,8.697778072994947
1761469359893808000,1.29080810546875,-5.570616358309984,-1.4939027793519197,8.560785431274772
1761469359903791000,1.300791015625,-5.111355171495676,-1.4296591475002467,7.960657391655444
1761469359913774800,1.31077490234375,-5.012938051885366,-0.21102818426787853,7.1087728515386575
1761469359923758000,1.320758056640625,-4.702844513231516,0.9850679988123476,6.230757844865321
1761469359933741000,1.330740966796875,-4.437765297563374,2.0008876942411065,5.767561656689644
1761469359943725000,1.34072509765625,-4.729745087377727,2.879765162962675,5.3279082566648714
1761469359953708300,1.350708251953125,-3.492480881476402,2.664373522788286,5.283321511441469
1761469359963691000,1.36069091796875,-2.298011568945646,2.4119037594549355,4.289819007891416
1761469359973674000,1.370674072265625,-1.4022370336979626,1.6000304733395576,2.9237521887272595
1761469359983658000,1.380657958984375,-0.4540291313797235,1.0588606725148857,1.5844500423699617
1761469359993641200,1.39064111328125,0.055251347100734705,0.7936376644618809,0.0417927305907011
1761469360003624200,1.400624267578125,0.3741577222853899,0.5633309253588319,-1.3599445368915795
1761469360013608000,1.41060791015625,0.8110589009925723,0.3242214327275753,-2.494869189041853
1761469360023591200,1.420591064453125,1.3429846342623233,0.1984051417991519,-3.460681137111783
1761469360033574100,1.43057421875,1.7916288577333093,0.1905897918730974,-4.2829304174214595
1761469360043557000,1.44055712890625,2.199125662779808,0.16410422826856375,-4.925564888858795
1761469360053541000,1.450541015625,2.6166259754464027,0.05465221216380596,-5.537969641727209
1761469360063524000,1.460524169921875,2.9475998050436374,-0.08789835594445466,-6.077564009928703
1761469360073507000,1.470507080078125,3.35901553709954,-0.20564795253425835,-6.453485234755277
1761469360083491000,1.480490966796875,3.761000300726294,-0.2947844719715416,-6.666996468010544
1761469360093474000,1.49047412109375,4.079516215288638,-0.2995857347734272,-6.9736839976131915
1761469360103457000,1.50045703125,4.31154831687957,-0.43937195273488755,-7.282461777493357
1761469360113440000,1.51043994140625,4.546944049684703,-0.5642658681213856,-7.455066415342688
1761469360123424000,1.520424072265625,4.3988408158853645,-0.6363795026957988,-7.445749720942974
1761469360133407200,1.5304072265625,3.959736574175954,-0.7211774084068835,-7.205475568446516
1761469360143390200,1.54039013671875,3.4651781562700865,-1.0044520598486066,-6.680133597481251
1761469360153374200,1.550374267578125,3.415616252982616,-1.1972383388526737,-5.975548573565483
1761469360163357000,1.56035693359375,3.5018256329268214,-0.766024996523559,-5.266569698604941
1761469360173340200,1.570340087890625,3.734035136911273,-0.4463071588255465,-4.195560177004337
1761469360183323100,1.5803232421875,3.31259573123008,-0.2466673606649041,-2.5419752236098048
1761469360193307100,1.59030712890625,1.6169970979705452,0.1678087818749249,-0.559348869985342
1761469360203290000,1.6002900390625,-0.49005321544110775,0.4329623779535293,1.3287006728440522
1761469360213273000,1.610273193359375,-2.439547699314356,0.3633635026790201,2.8863404496997593
1761469360223257000,1.620257080078125,-3.846362123930454,0.04551496598422527,4.456441064199805
1761469360233240000,1.630239990234375,-4.654475034599006,-0.048341129320859905,6.233603881946205
1761469360243223300,1.640223388671875,-4.807196575848758,-0.27196254544109105,8.103459011915326
1761469360253206000,1.6502060546875,-4.547968132035434,-0.39814883872568607,8.84374429476559
1761469360263190000,1.66018994140625,-4.903565823018551,-0.15865443843007088,9.066842271533607
1761469360273173000,1.670173095703125,-5.194141591253876,0.0009340659797191619,9.649213705188036
1761469360283156200,1.68015625,-4.903320031563937,-0.3566603517785668,9.668158059632777
1761469360293140200,1.69014013671875,-4.617785472366213,-0.8742322732642293,9.358742566370964
1761469360303123000,1.700123046875,-4.406040372000635,-0.9580319617182016,9.476314468306303
1761469360313106200,1.710106201171875,-3.8379908936873077,-1.4508672090932726,9.143041714116931
1761469360323090200,1.720090087890625,-3.4485622447729107,-1.83440095475018,8.270322475764155
1761469360333073200,1.7300732421875,-2.8048972612440584,-1.9528686364814638,6.998916054025292
1761469360343056100,1.74005615234375,-1.771565436130762,-1.7847329607397318,5.45583204126656
1761469360353039000,1.7500390625,-0.6907938144505024,-1.6060522178471088,3.8696798711538314
1761469360363023000,1.760023193359375,0.2739817763090133,-1.3444719502106308,2.2290093443900347
1761469360373006000,1.770006103515625,1.1854036702826618,-1.1206408368624745,0.6785580177336931
1761469360382989000,1.779989013671875,1.9757497458532451,-0.6024643736124038,-0.5856582002401352
1761469360392973300,1.789973388671875,2.543126147210598,-0.2821408981714397,-1.3301508716523647
1761469360402956000,1.7999560546875,3.2498148654073473,-0.5544445852003991,-2.4241718510061503
1761469360412939000,1.80993896484375,3.571410041284561,-0.3229405260715633,-3.863877906876802
1761469360422922200,1.819922119140625,3.9021494776040315,-0.2634861743230372,-5.046121359562873
1761469360432906200,1.82990625,4.047873122790455,-0.20238873154260217,-6.21018968861103
1761469360442889000,1.839888916015625,4.272845661258697,0.030118513279408215,-7.057801958236098
1761469360452872000,1.849871826171875,4.788183832342923,0.22458763080388305,-7.53302000811696
1761469360462856000,1.85985595703125,5.119793914017081,0.4381844965159893,-7.804010201394558
1761469360472839200,1.869839111328125,4.89450339564085,0.4482064165756106,-8.3389091052562
1761469360482822100,1.879822265625,4.830399172259867,0.6315360081873834,-8.716898953050375
1761469360492805000,1.88980517578125,4.936508307677507,0.6976531788259744,-8.805761477851867
1761469360502789000,1.8997890625,4.9453456941276785,0.655876303391531,-8.805920467805862
1761469360512772000,1.909772216796875,4.747143381424248,0.7930939860392361,-8.608395323711633
1761469360522755000,1.919755126953125,4.5665310859471555,1.0652802572336046,-8.069704626351594
1761469360532739000,1.929739013671875,4.583529859282076,1.3633075835838913,-7.204944238048792
1761469360542722000,1.93972216796875,4.619381217125058,1.8779612795352936,-5.862793716523051
1761469360552705000,1.949705078125,2.5664243129506707,2.884997802919149,-3.665081427672505
1761469360562688000,1.95968798828125,-1.5873796660810708,3.262648628017306,-1.1384101561784743
1761469360572672300,1.96967236328125,-1.8053367728292942,2.008754774354398,0.6264905613660812
1761469360582655200,1.9796552734375,-2.549232062870264,1.9611175555191933,3.4452696329683064
1761469360592638000,1.989637939453125,-2.0184856025129556,1.4222278284557164,6.353372417142987
1761469360602622000,1.9996220703125,-2.12663822645694,0.6388437008522451,8.486755733945966
1761469360612605200,2.009605224609375,-3.7826620974361895,-0.42817821241691706,9.800538239121437
1761469360622588200,2.019588134765625,-5.515366764774918,-1.2993873384676873,9.533091417539119
1761469360632571000,2.02957080078125,-6.299427476465702,-1.3310276544868946,8.8515424012959
1761469360642555000,2.039554931640625,-5.82107405116856,-1.2549253886677325,8.544727445921302
1761469360652538000,2.0495380859375,-4.349160254654288,-0.700172614300996,7.922111680161953
1761469360662521000,2.05952099609375,-3.3625676766231654,0.9486714281767606,6.6524319360852235
1761469360672505000,2.069505126953125,-2.832701506231725,2.0150354620590805,5.826047163406014
1761469360682488300,2.07948828125,-2.4915835914999245,2.9928415070444343,5.381951981541514
1761469360692471000,2.089470947265625,-2.1316528397485612,3.3349466792479157,4.818710780292749
1761469360702454000,2.0994541015625,-1.7060919702231883,2.94944163351804,4.0960768894672395
1761469360712438000,2.10943798828125,-1.0541133318573235,2.6262244093969462,3.156941935920715
1761469360722421200,2.119421142578125,-0.3948015741243958,2.094288446994126,1.9953519796848296
1761469360732404000,2.129404052734375,-0.11345599104911089,1.4941003477506338,0.7912123370110988
1761469360742388000,2.139387939453125,-0.11309446426033973,0.8588673116762191,-0.2780927187591791
1761469360752371200,2.14937109375,-0.14470248544514178,0.36697928202338514,-1.2488801171541213
1761469360762354200,2.159354248046875,0.038080724330246445,-0.020743001364544034,-2.2192332157850263
1761469360772337200,2.169337158203125,0.5228571684122085,-0.27160204156562684,-3.11689049603939
1761469360782321000,2.17932080078125,1.0118506456673144,-0.2378433451529592,-3.9048371092528105
1761469360792304000,2.18930419921875,1.4584759305313229,-0.08060980637148023,-4.575654303601384
1761469360802287000,2.199287109375,1.8411483831837772,0.1114165941759944,-5.149682856324315
1761469360812271000,2.20927099609375,2.202334980215132,0.26300540506877,-5.657802474331856
1761469360822254000,2.219254150390625,2.6574139129087326,0.29249533812105655,-6.112509651103616
1761469360832237000,2.229237060546875,3.0840836204588413,0.33564744743146,-6.459184323179722
1761469360842220000,2.239219970703125,3.3632705641955134,0.27869119610898196,-6.7000523499161
1761469360852203300,2.249203369140625,3.541885548375547,0.22048041468076407,-6.8302224521398545
1761469360862186200,2.259186279296875,3.5966537881344554,0.08714366511963308,-6.748568835803866
1761469360872169200,2.269169189453125,3.550189850862324,-0.03895392696820199,-6.540502423951029
1761469360882153200,2.2791533203125,3.5546205267861484,-0.21673881699964404,-6.03237988333404
1761469360892136400,2.289136474609375,3.462463928875327,-0.34391076032072304,-5.2531338784486055
1761469360902119200,2.299119140625,3.1460517085939643,-0.3874490924697369,-4.221781828975677
1761469360912103200,2.309103271484375,2.8590046990066766,-0.5562154673304408,-2.8656162261009213
1761469360922086100,2.319086181640625,2.5487197294339534,-0.4554454279184341,-1.6651140631467103
1761469360932069400,2.3290693359375,2.0110174585893748,-0.5054294290754944,-0.6261036078751087
1761469360942052400,2.33905224609375,1.0425848066270351,-0.4634729592904448,0.5699696327209473
1761469360952036000,2.3490361328125,-0.28566695340573783,-0.10137706539444624,2.1383160970300437
1761469360962019300,2.359019287109375,-1.7405837301507592,0.30850385830961163,3.891282631152868
1761469360972002300,2.369002197265625,-3.071752838934958,0.7111910711172967,5.559398214203119
1761469360981986300,2.378986328125,-3.989378555984795,0.8704705826431512,6.95643475664854
1761469360991969300,2.38896923828125,-4.348528094230592,0.6147842684160918,7.958636699482798
1761469361001952300,2.3989521484375,-4.362579708197712,0.15435586445331573,8.429820963802934
1761469361011935200,2.408935302734375,-4.15285471548289,-0.3471254845835268,8.321948618105054
1761469361021919200,2.418919189453125,-3.9894419766098257,-0.8960776829127222,7.4506772404730315
1761469361031902200,2.428902099609375,-3.4408304814770814,-1.1462014676418155,6.810985252228379
1761469361041885200,2.43888525390625,-2.67705794005543,-1.4638304433017968,6.546381545117497
1761469361051869200,2.448869140625,-2.0933736702367662,-1.5954276557192206,6.240880594950914
1761469361061852200,2.45885205078125,-1.738442918729782,-1.5734277130961418,5.85328354537785
1761469361071835400,2.46883544921875,-1.3702420590221882,-1.60821319527328,5.204640188914537
1761469361081818400,2.478818359375,-0.727257166711986,-1.4128367536455393,4.290265582615137
1761469361091802400,2.48880224609375,0.1328074649900198,-1.0893513801075518,3.30087460603714
1761469361101785000,2.49878515625,1.0124658549562096,-0.6342386912748217,2.2774188627719876
1761469361111768300,2.508768310546875,1.8298837695866823,-0.3361056760603562,1.2181190681874752
1761469361121752300,2.51875244140625,2.304546815933287,-0.29147388611882924,-0.07083353163599967
1761469361131735300,2.5287353515625,2.404126549582183,-0.2018475373379886,-1.484759249562025
1761469361141718300,2.53871826171875,2.448663610444963,-0.1426408767402172,-2.8480776468008755
1761469361151701200,2.548701171875,2.65387521738857,-0.08793050464838743,-4.109225124853849
1761469361161685200,2.558685302734375,2.8833523737996813,-0.05263371194824576,-5.156262819236517
1761469361171668200,2.568668212890625,3.1104099018484352,-0.025848580875247714,-6.1188464529097075
1761469361181651500,2.5786513671875,3.4167402885764835,-0.038089638289064164,-6.72407269245088
1761469361191635500,2.588635498046875,3.547194468438625,-0.014112038917466997,-7.070304296934604
1761469361201618200,2.5986181640625,3.6040211020320654,-0.024879370516911147,-7.269652564802765
1761469361211601200,2.60860107421875,3.461340477803349,-0.01904796094968915,-7.355400756976008
1761469361221584400,2.61858447265625,3.3783354468584057,-0.014554887314140796,-7.369294257771968
1761469361231568400,2.628568359375,3.459526121857762,-0.05770677742883563,-7.254997431984544
1761469361241551000,2.638551025390625,3.3919165207043287,-0.0315212927494198,-7.108186576083302
1761469361251534300,2.648534423828125,3.324319779032469,0.03786744690574705,-6.905814576479792
1761469361261518300,2.658518310546875,3.059536915962398,0.14839227987378834,-6.454820282751322
1761469361271501300,2.668501220703125,2.447997547751665,0.3476362105846405,-5.603292300987244
1761469361281484300,2.678484375,0.9263993906140326,0.9038134647965431,-4.271561466667056
1761469361291467300,2.68846728515625,-1.2706038731843232,1.293886110702902,-2.8551141213089224
1761469361301451300,2.698451171875,-2.814562622950971,1.2092786129973827,-1.4441016604810952
1761469361311434200,2.708434326171875,-3.2548090204328295,1.2272539762794972,0.16879004799723624
1761469361321417200,2.718417236328125,-2.6575810861691833,0.9239080852549523,2.1990204488396645
1761469361331401500,2.7284013671875,-2.468435647885501,0.4364713359225541,4.533240226241946
1761469361341384200,2.73838427734375,-3.156717187254131,-0.163325572046265,6.672165979602933
1761469361351367200,2.7483671875,-3.982619437113404,-0.5632713041260838,8.587895556518435
1761469361361351200,2.75835107421875,-5.138039180281758,-0.8335114096887409,9.944585475528239
1761469361371334400,2.76833447265625,-5.837917633941769,-1.23171533960253,10.347262605333327
1761469361381317000,2.778317138671875,-6.095849023681879,-1.2231485867872833,9.85271500108242
1761469361391300000,2.788300048828125,-5.762510803040862,-0.6276438230544328,8.855679647231101
1761469361401284000,2.7982841796875,-4.797048983582854,0.5239245053827762,7.695580806335807
1761469361411267300,2.808267333984375,-3.408464335401356,1.0699399196077137,6.563636631301045
1761469361421250300,2.818250244140625,-2.6076281377375126,1.4820609503887592,5.564993257731199
1761469361431234300,2.828234375,-2.135961935119331,1.4794371777564286,4.7452626822441815
1761469361441217300,2.83821728515625,-1.5866902225121855,1.276143094871938,3.7574160124987364
1761469361451200300,2.8482001953125,-0.9581620178386568,1.0548297364983708,2.3469652772068974
1761469361461183200,2.858183349609375,-0.31581542343199254,0.7093838755648583,0.9305471579432487
1761469361471167200,2.868167236328125,0.29729864674955603,0.5564872700091451,-0.4598784419298172
1761469361481150200,2.878150146484375,0.8806444783940911,0.35915925592221315,-1.6811837389379738
1761469361491133200,2.88813330078125,1.5621724518492817,0.14157704690098763,-2.836110730153322
1761469361501117200,2.8981171875,2.100280088624358,0.1061564086254686,-3.970603420627117
1761469361511100400,2.908100341796875,2.5270301679342984,0.12989950512144713,-4.9523552806288
1761469361521083400,2.91808349609375,2.7110160314977167,0.12620708034429698,-5.778766941314935
1761469361531066000,2.928066162109375,2.6202126017615197,0.2237372610522434,-6.610218934255838
1761469361541050000,2.938050048828125,2.4725188255459067,0.2781210315382108,-7.238254386976361
1761469361551033300,2.948033447265625,2.315382974985242,0.3840260592184961,-7.699171524304151
1761469361561016300,2.958016357421875,2.184097020474076,0.6116601450461894,-8.09671655191779
1761469361571000300,2.968000244140625,2.228129931207001,0.8245540501207113,-8.301803071177005
1761469361580983000,2.977983154296875,2.4967457965686917,0.996254432606697,-8.250103279078006
1761469361590966300,2.98796630859375,2.87388984118849,1.015003264479339,-7.910135995686054
1761469361600949200,2.99794921875,3.1299586519271134,1.1598609404861926,-7.327257781553268
1761469361610933200,3.007933349609375,3.2828353837385773,1.3403389420591294,-6.7077621936410665
1761469361620916500,3.01791650390625,3.245770850713551,1.2594887510605155,-6.066330083730817
1761469361630899200,3.027899169921875,3.0309581794708964,1.0019961911290884,-5.16224364721179
1761469361640883200,3.03788330078125,2.441126492938399,0.8111756592400372,-3.662195058581233
1761469361650866200,3.0478662109375,1.6191984074071049,0.4900623485956341,-1.4312795883089302
1761469361660849400,3.057849365234375,0.3906406550526619,-0.10838862465694546,1.1437544398158788
1761469361670832000,3.06783203125,-1.0247174337640403,-0.1562209642054513,3.9179099413156506
1761469361680816000,3.077816162109375,-2.295993507121503,-0.04655972579680383,6.736162943217158
1761469361690799400,3.08779931640625,-3.8391324649378653,0.061842196733132,9.28189255092442
1761469361700782300,3.0977822265625,-4.6269785403862596,-0.005716952874697745,10.725417872822284
1761469361710766300,3.107766357421875,-4.827870238304138,0.03299826996680349,11.327978108024597
1761469361720749000,3.1177490234375,-4.9471489441573615,-0.6268452930878847,10.585759226763248
1761469361730732300,3.127732177734375,-5.032454068738222,-1.4112418856695295,8.242891448003054
1761469361740715300,3.13771533203125,-4.4567815482005475,-1.51159187303856,7.042157814380526
1761469361750699300,3.14769921875,-3.627701837348938,-2.1815531812101603,6.101750941202044
1761469361760682200,3.15768212890625,-3.200520380884409,-2.380316342666745,5.332603721004724
1761469361770665200,3.167665283203125,-2.9258798484057187,-2.421825141749531,4.897824649018049
1761469361780649200,3.177649169921875,-2.4161665314659473,-2.2408301305651666,4.674631979703903
1761469361790632200,3.187632080078125,-1.7658046806469558,-1.8395466470755635,4.323474024733901
1761469361800615400,3.197615478515625,-0.9829936767563223,-1.2484177603393793,3.8736072737306353
1761469361810599400,3.207599365234375,-0.2459071899473667,-0.9722180157199501,3.1367455355882643
1761469361820582100,3.21758203125,0.05783844098448753,-0.8572004013773054,1.9064122979938982
1761469361830565000,3.227565185546875,0.370336118170619,-0.6995574050121008,0.617426964944601
1761469361840548400,3.23754833984375,1.1326423864319919,-0.4813464696332812,-0.66218906673491
1761469361850532400,3.247532470703125,2.0301643498688935,-0.20182547163665293,-1.820708529484272
1761469361860515300,3.257515380859375,2.820367802098393,0.026100729005411265,-2.877671990075707
1761469361870498300,3.267498291015625,3.4002389433696862,0.21771365338116883,-3.9633150171846148
1761469361880482600,3.277482666015625,3.763510822242498,0.2725644568569958,-4.905275549545884
1761469361890465300,3.28746533203125,3.8389290513202545,0.3689932887269184,-5.611401957684755
1761469361900448300,3.2974482421875,3.9613928169503807,0.7391146316356957,-6.0504953857392065
1761469361910431500,3.307431396484375,4.106158723020553,0.8894603836648166,-6.386435897833109
1761469361920415500,3.31741552734375,4.077427134054899,1.0446386704169213,-6.841453455728292
1761469361930398200,3.327398193359375,4.105667724633217,1.1870663427978754,-7.191316110190749
1761469361940381200,3.337381103515625,4.077643991675973,1.166796000446379,-7.433272516685724
1761469361950365200,3.347365234375,3.806810742525756,1.1813815751597285,-7.647846995258331
1761469361960348400,3.357348388671875,3.4824165835797785,1.0809056233234704,-7.74536979637742
1761469361970331400,3.367331298828125,3.150366649183631,1.1784940370246768,-7.459317643046378
1761469361980314400,3.377314453125,2.520963999763131,1.279931088978052,-6.740476714763045
1761469361990298400,3.38729833984375,1.5061483668103812,1.3650734242126346,-5.655158097302913
1761469362000281300,3.39728125,0.1857838528960943,1.3712521128475665,-4.290793405881524
1761469362010264300,3.407264404296875,-0.7988926623806357,1.1489623837225138,-2.7892671459138394
1761469362020248300,3.417248291015625,-1.0697782262399793,0.9231062673527747,-1.1526473558455705
1761469362030231300,3.427231201171875,-1.0187664164051413,0.5592886642307042,0.8678150996983051
1761469362040214300,3.43721435546875,-1.6443138517022131,0.15999986168965696,3.084520258310437
1761469362050197200,3.447197265625,-3.209969761753082,-0.21667685767933725,5.3746887125402685
1761469362060181500,3.457181396484375,-4.970970549249649,-1.3672436078585684,7.730167551070451
1761469362070164500,3.46716455078125,-6.1720449591338635,-2.1853679171927274,9.113433926838637
1761469362080147200,3.477147216796875,-6.8286442430377,-1.9126880172625182,9.594526421710848
1761469362090131200,3.487131103515625,-6.7742503895491355,-1.77945341290161,9.234601807439327
1761469362100114400,3.497114501953125,-6.045666065886616,-1.2098984984613954,8.403905601301789
1761469362110097400,3.507097412109375,-4.903103758464753,-0.06823986188098788,7.5326412379324434
1761469362120080100,3.517080078125,-3.7786096071749924,0.8117895533546805,6.597510843852162
1761469362130064100,3.527064208984375,-2.815489674668014,1.5721917415603994,5.917303889867663
1761469362140047400,3.53704736328125,-2.1007506287455557,1.6137541705265641,5.194159711432457
1761469362150030300,3.5470302734375,-1.7397358811497687,1.3495854938320815,4.40850150141716
1761469362160014300,3.557014404296875,-1.5405153313145041,1.011042251893878,3.1893963448017835
1761469362169997600,3.56699755859375,-1.183758533424139,0.6729037182990462,1.6751918050467967
1761469362179980300,3.576980224609375,-0.6490688883990049,0.4695350358083844,0.09492518584132194
1761469362189963300,3.58696337890625,0.15529577565193176,0.26221359710395337,-1.3398697171121834
1761469362199947300,3.596947265625,0.9355009809583424,0.07501585882194339,-2.4806658916443585
1761469362209930500,3.606930419921875,1.4285802662223577,0.13715360443554817,-3.5682314112484455
1761469362219913200,3.616913330078125,1.7222908253520726,-0.06203655026145279,-4.526342867943645
1761469362229897200,3.626897216796875,2.0505302615493535,-0.221304882806167,-5.406160540124774
1761469362239880400,3.63688037109375,2.169675111889839,-0.3427924968805164,-6.199882229608297
1761469362249863400,3.646863525390625,2.1719512401282786,-0.4518799174565822,-6.824090817517042
1761469362259847400,3.656847412109375,2.177859587389231,-0.5097868205673992,-7.254100190883874
1761469362269830100,3.666830078125,2.26789437084049,-0.570173703925684,-7.644150478827953
1761469362279813400,3.6768134765625,2.393873158854246,-0.5702067294124513,-7.966217948392033
1761469362289796400,3.68679638671875,2.5850001263439655,-0.6413274804919957,-8.197042135497927
1761469362299780400,3.6967802734375,2.7969895568594336,-0.5842359854172915,-8.343751284590363
1761469362309763300,3.706763427734375,2.8759856444239613,-0.6099675888493656,-8.177805520108341
1761469362319746300,3.716746337890625,2.979082738544047,-0.5874976175617427,-7.648449637326598
1761469362329730300,3.726730224609375,3.0231472134590147,-0.1905215489424765,-6.586546966767311
1761469362339713300,3.73671337890625,3.0661715316712854,0.4439412334118038,-5.249221673440933
1761469362349696500,3.746696533203125,2.9516347596481443,0.8712713045667856,-3.807157656267285
1761469362359679200,3.75667919921875,1.92599144321084,1.214379516332969,-1.6612515424996614
1761469362369663200,3.766663330078125,0.3443026822477579,0.8981283318322152,1.3863590810865163
1761469362379646200,3.776646240234375,-1.615473833926022,0.35434834850914776,4.741626956090331
1761469362389629400,3.78662939453125,-3.5263168078437443,-0.0897983443468809,7.316073539716005
1761469362399613400,3.796613525390625,-4.772822012560069,-0.2862874964568764,9.389646238678694
1761469362409596400,3.806596435546875,-5.3391702399134635,-0.34431802594736216,11.128672510254383
1761469362419579400,3.816579345703125,-4.713728603078424,-0.6041856444470584,10.838450377762317
1761469362429562400,3.826562255859375,-3.906156375157833,-0.5473402330879121,9.63430488986969
1761469362439546400,3.83654638671875,-3.150187200963497,-0.5436041152995079,8.291514316874743
1761469362449529300,3.846529296875,-2.856796375307441,-0.7097531472686678,7.069788748627901
1761469362459512300,3.85651220703125,-3.1628605123147366,-1.4970454612918198,6.160005561771989
1761469362469496300,3.866496337890625,-3.195255299963057,-1.7949591711997985,5.747171195089817
1761469362479479300,3.876479248046875,-2.812900827218592,-1.9214695818722247,5.546579649162292
1761469362489462300,3.886462158203125,-2.362311607159674,-1.752715481971204,5.137790173956751
1761469362499446300,3.8964462890625,-1.7842133207798003,-1.6342440008476375,4.546730991455912
1761469362509429500,3.906429443359375,-1.0899451082170009,-1.2254451732918619,3.7021255024313926
1761469362519412200,3.916412109375,-0.21156857475489377,-0.7812975305877625,2.674815421825647
1761469362529395500,3.9263955078125,0.5669491158559918,-0.628513080169633,1.4659867445528507
1761469362539379500,3.93637939453125,0.9882345000192523,-0.3954286199815571,0.2575800920844078
1761469362549362400,3.946362548828125,1.3326619776904582,-0.29803711709193886,-0.9103940122306347
1761469362559345200,3.95634521484375,1.6470602278009057,-0.2562245858222246,-1.9263754740923642
1761469362569329200,3.9663291015625,1.9172376433908938,-0.1460952549777925,-2.7618881406009197
1761469362579312400,3.9763125,2.1623338092163205,-0.16930479258634148,-3.5993747375309466
1761469362589295400,3.98629541015625,2.3259598985791206,-0.0680395170032978,-4.205226415494084
1761469362599278300,3.9962783203125,2.286896592952311,0.06495170705579222,-4.754164366102218
1761469362609262300,4.006262451171875,2.3422414635553954,0.05740837900415063,-5.385498860368132
1761469362619245300,4.016245361328125,2.367104394394159,0.17232830512598155,-5.865184995573759
1761469362629228300,4.026228271484375,2.4143068750739096,0.3069681731749326,-6.254033506512641
1761469362639212300,4.03621240234375,2.546135850420594,0.5015531721640378,-6.556064734742045
1761469362649195500,4.046195556640625,2.707354878641665,0.7278814360901713,-6.825149386659264
1761469362659178200,4.05617822265625,2.7817843889430165,0.8939879440918564,-7.000171022522449
1761469362669161200,4.0661611328125,2.8127281010001894,1.147555001142621,-7.079356202918291
1761469362679145200,4.076145263671875,2.8123385171607134,1.1930188945267348,-6.932866834056377
1761469362689128400,4.08612841796875,2.690498144125938,1.2615018444485961,-6.617870910313725
1761469362699111200,4.096111083984375,2.5621120027095077,1.1968015548706055,-6.218280056086182
1761469362709095200,4.10609521484375,2.452328562693298,1.2187520323287695,-5.66342615943253
1761469362719078400,4.116078369140625,2.3014988265395164,1.2501688417904078,-4.9175481711417435
1761469362729061400,4.126061279296875,2.1920953257516027,1.292952775375545,-3.977930402514338
1761469362739044400,4.13604443359375,2.1720526546761394,1.3043173422157763,-2.619225052028894
1761469362749028400,4.1460283203125,1.9735534048527479,1.3503043096259235,-0.4701216035246849
1761469362759011300,4.15601123046875,1.1595569891035555,1.2363903456762433,2.32027308511436
1761469362768994300,4.165994384765625,-0.2741048181667924,0.9440733597967773,5.345343960112333
1761469362778978300,4.175978271484375,-2.3087311158806085,0.11004238321334123,7.4890785750597715
1761469362788961500,4.18596142578125,-4.621430550870299,-0.9583291910991072,8.463277827724815
1761469362798944300,4.1959443359375,-6.032501463887095,-1.658523578840494,8.936486875870823
1761469362808927200,4.20592724609375,-6.007995383661985,-1.6696565288819372,8.917447828879952
1761469362818911200,4.2159111328125,-5.380599397888779,-1.4834092962577938,7.987046801409125
1761469362828894500,4.22589453125,-5.178669296833872,-0.8800156789712608,7.145308976775407
1761469362838877400,4.23587744140625,-4.798222703537345,-0.14718831091150641,6.792145527201891
1761469362848861200,4.245861083984375,-4.1040217109918595,0.5435461745671928,6.608254356184601
1761469362858844200,4.25584423828125,-3.694537531520426,0.9033893941655754,6.5202084084630005
1761469362868827100,4.2658271484375,-3.497300556717813,1.0164370966747402,6.0431450229763986
1761469362878811100,4.27581103515625,-3.099934685063362,1.0078206594988703,5.2032589636892075
1761469362888794000,4.285794189453125,-2.3448487234443425,0.8088273425482213,4.017435314428806
1761469362898777300,4.29577734375,-1.6063140836536884,0.5964443826705217,2.594156077224016
1761469362908760000,4.305760009765625,-0.8939467352986336,0.46899259949475525,1.1422113020271063
1761469362918744000,4.315744140625,-0.14633154795169828,0.29253917726278306,-0.22520167104899882
1761469362928727000,4.32572705078125,0.5261605938717723,0.15547938859052954,-1.4473960258513687
1761469362938710300,4.335710205078125,0.9847750072151422,-0.021309768401831387,-2.5105688624769447
1761469362948694300,4.3456943359375,1.1563099700063466,-0.2282510486822575,-3.325793943238258
1761469362958677000,4.355677001953125,1.1362401186630129,-0.29870544480755923,-4.221061698007583
1761469362968660200,4.36566015625,1.0522013607561587,-0.4738849746461957,-5.1736517609328025
1761469362978643200,4.375643310546875,1.052213927976787,-0.5636020704504102,-5.974363163173198
1761469362988627200,4.385627197265625,1.2049269936591387,-0.5175774013783783,-6.669576547631621
1761469362998610000,4.39560986328125,1.5322452233582735,-0.3623789486210793,-7.108613277062774
1761469363008593200,4.40559326171875,2.1092741269409654,-0.2163707143396139,-7.483585238340496
1761469363018577200,4.4155771484375,2.714462372559309,-0.02755450801029801,-7.857245532497763
1761469363028560100,4.42556005859375,3.1936408505037424,0.21069464146457612,-7.971700763717293
1761469363038543000,4.435543212890625,3.4873233525827523,0.3566255727261305,-7.915276865705847
1761469363048526000,4.445526123046875,3.453179383179545,0.3326912279743701,-7.656951508212089
1761469363058510000,4.455510009765625,3.3567265493795273,0.23821868127137422,-7.111312014627456
1761469363068493000,4.4654931640625,3.3695150115430352,0.06685425274148583,-6.424298887759447
1761469363078476300,4.475476318359375,3.620160920450091,-0.041753202297911046,-5.623069599124789
1761469363088460300,4.485460205078125,3.875700446617603,0.17016177474185823,-4.532731692197919
1761469363098443000,4.495443115234375,4.080347697676718,0.29312866758853195,-3.2326813597768544
1761469363108426000,4.505426025390625,4.126815726602077,0.24361783690117297,-1.7166630485981702
1761469363118409200,4.5154091796875,3.792894737637043,0.046726168404892084,0.2282125433027744
1761469363128393200,4.525393310546875,2.1896768664330244,-0.027030995592847464,2.4771856483131645
1761469363138376200,4.535376220703125,-0.23295652295947072,-0.11649791602827608,4.6992041109025475
1761469363148359200,4.545359130859375,-2.2882465462565422,-0.09250007758624851,6.165061091595888
1761469363158343200,4.55534326171875,-3.5394445849642158,-0.1653347199115902,7.222434302031994
1761469363168326100,4.565326171875,-4.000341848547756,0.12863441708907483,8.402103520315885
1761469363178309000,4.57530908203125,-3.7223371003329753,0.257378797358647,8.647356630268693
1761469363188293000,4.585293212890625,-3.536360939735174,0.5531533032808452,8.385599544760584
1761469363198276000,4.595276123046875,-3.619340836238861,0.8000964852124453,8.459159871011972
1761469363208259000,4.605259033203125,-3.6363866635859012,0.45548532153740523,8.069218888661265
1761469363218242000,4.615241943359375,-3.7756668317213653,-0.4890699765574187,7.055464455199242
1761469363228226300,4.625226318359375,-3.524225388522446,-0.7010442825689911,6.645178019434213
1761469363238209000,4.635208984375,-2.855657726666331,-1.2325406845107674,6.189632053750753
1761469363248192000,4.64519189453125,-2.501435707950592,-1.4371984569638967,5.490173286807536
1761469363258176000,4.655176025390625,-2.3173455072298643,-1.3766229922309516,4.56156206536293
1761469363268159200,4.6651591796875,-1.8868419206053018,-1.3074880812063812,3.5423376760572194
1761469363278142200,4.67514208984375,-1.1928434648945927,-1.0604230995260178,2.5726024170637127
1761469363288125000,4.685125,-0.3062292644411325,-0.8470271632134914,1.7891998770207165
1761469363298109000,4.69510888671875,0.5436056496694683,-0.8509552964426577,0.8804068702459334
1761469363308092200,4.705092041015625,0.9904384398043156,-0.7338917824208736,-0.14322189149856568
1761469363318075100,4.7150751953125,1.3296563661336898,-0.642828532704711,-1.1528525230288504
1761469363328059100,4.72505908203125,1.760871608158946,-0.6779261495709419,-2.144065454337001
1761469363338042000,4.7350419921875,1.804275865599513,-0.6949184931650757,-3.0971757417440413
1761469363348025000,4.745025146484375,1.5939020535871387,-0.6957973218262196,-3.914783918249607
1761469363358008000,4.755008056640625,1.5073247171133757,-0.7145989067994057,-4.5780327231705185
1761469363367992000,4.764991943359375,1.6903566409528255,-0.6645591568671166,-5.018344879364967
1761469363377975300,4.774975341796875,1.926987176249921,-0.5636943518437445,-5.428385815936327
1761469363387958000,4.7849580078125,2.202192064613104,-0.44201457619816065,-5.80514816776216
1761469363397942000,4.79494189453125,2.394115443177521,-0.3440203581750393,-6.102997141870856
1761469363407925200,4.80492529296875,2.811565194700658,-0.09847425662502646,-6.231255272993445
1761469363417908200,4.814908203125,3.2789602958709,0.04132292112186551,-5.938956334227323
1761469363427891000,4.824890869140625,3.619150282102823,0.05849807393699884,-5.778098248273134
1761469363437875000,4.834875,3.8027106137305497,0.08419263329431415,-5.714374256381392
1761469363447858200,4.844858154296875,3.9205736075669524,0.22782179041951894,-5.677343041104078
1761469363457841200,4.854841064453125,3.850536194744706,0.48486996758431194,-5.539259097015857
1761469363467825200,4.8648251953125,3.5161879202783104,0.8156877298370003,-5.24159950799942
1761469363477808000,4.87480810546875,2.717664383471012,1.2774006937175988,-4.595471349227428
1761469363487791000,4.884791015625,1.7841750345960259,1.6253263887681066,-3.520135196599364
1761469363497775000,4.894775146484375,0.8521756320178508,1.633883350841701,-2.041056915283203
1761469363507758000,4.904758056640625,0.4787269347846508,1.4844436077415941,-0.40530864735245703
1761469363517741300,4.9147412109375,0.5494184276014566,1.2047411156982182,1.4031915579438208
1761469363527724000,4.92472412109375,0.22963468506038187,0.9974079865559935,3.5572511675506826
1761469363537708000,4.9347080078125,-0.6246732828110456,0.7410724877052008,5.569850634634494
1761469363547691000,4.94469091796875,-1.992415926232934,-0.020253098955750466,6.901462811011076
1761469363557674200,4.95467431640625,-3.640745443317294,-0.9504423833720386,7.5594468272715805
1761469363567658200,4.964658203125,-4.719505140653252,-1.5803312088742851,7.687434324759244
1761469363577641000,4.974640869140625,-5.092383929044008,-1.8825135360121725,7.182054360848665
1761469363587624200,4.984624267578125,-5.328194087868929,-1.937554747493565,6.37194326210022
1761469363597607200,4.994607177734375,-5.476679598984122,-1.020985407628864,5.685384308740496
1761469363607591200,5.004591064453125,-5.023178875392675,-0.11885332004800438,5.544126410791278
1761469363617574100,5.01457421875,-4.465602860298753,0.5767445336833595,5.578537214437127
1761469363627557000,5.02455712890625,-4.227302345962822,1.0536524363473057,5.4684407629489895
1761469363637541000,5.034541015625,-4.062978045202791,1.1450943101175128,5.08135867716074
1761469363647524000,5.044524169921875,-3.3995985996395346,0.9820273159421979,4.287112671542167
1761469363657507000,5.054507080078125,-2.6554852829337117,0.7335084821917116,3.2132629580795764
1761469363667490300,5.064490234375,-1.8994556107237934,0.4962487090803683,1.961486534962058
1761469363677474000,5.07447412109375,-1.186026186095178,0.18172040284946558,0.62585869320333
1761469363687457000,5.08445703125,-0.5295134114310145,-0.1654144340842962,-0.6442459982872009
1761469363697440300,5.094440185546875,0.06793225723654031,-0.4835208910629153,-1.7884522735238073
1761469363707424300,5.10442431640625,0.6128416829809546,-0.6833408680960535,-2.8128642946004865
1761469363717407200,5.1144072265625,0.9830135505005717,-0.8783648430243134,-3.5838024898678063
1761469363727390000,5.124389892578125,1.2197507610425353,-1.0146329698622225,-4.233127398854494
1761469363737373200,5.134373291015625,1.360882110002637,-1.037401120378822,-4.904216980403661
1761469363747357200,5.144357177734375,1.4918606059998274,-1.0060206243395804,-5.492739922425151
1761469363757340200,5.154340087890625,1.692310405369103,-0.9526191428892314,-6.007533611369133
1761469363767323100,5.1643232421875,2.034213917520642,-0.9292774302683771,-6.446525332614779
1761469363777307100,5.17430712890625,2.434353345541656,-0.9346499170869589,-7.003603335058688
1761469363787290000,5.1842900390625,2.9298677489981055,-0.8406018063411116,-7.474926131066679
1761469363797273000,5.194273193359375,3.6959704869329926,-0.706532212460786,-7.730211390212178
1761469363807257000,5.204257080078125,4.2405075722336765,-0.6882276172243058,-7.791388035708666
1761469363817240300,5.214240234375,4.341066380047798,-0.7224715398706495,-7.726078820452094
1761469363827223000,5.22422314453125,4.23415177346617,-0.7752016979306936,-7.443408710774779
1761469363837206000,5.2342060546875,4.12854649591744,-0.7379552324675023,-6.681723497021198
1761469363847190000,5.24418994140625,4.183334317159653,0.02990677022486925,-5.404505174133181
1761469363857172700,5.2541728515625,3.961311860668659,0.26160481755584475,-4.06369905295372
1761469363867155700,5.26415576171875,3.0592279961436986,0.46401320364698767,-2.0978566608697173
1761469363877139700,5.2741396484375,1.54656513287276,0.5816420964665711,0.6385293742060661
1761469363887123000,5.284123046875,0.15926467928290367,0.49888081114962696,3.5425995418637988
1761469363897106000,5.29410595703125,-1.4856465537905692,0.588877454547584,5.91443797904253
1761469363907088600,5.304088623046875,-3.3218151027351617,0.7163691313423216,7.263299396383762
1761469363917073000,5.314072998046875,-4.4259868892252445,0.5643126298725605,8.016210936573147
1761469363927056000,5.324055908203125,-4.422538210076094,0.37468466876894235,8.672509191703796
1761469363937038800,5.334038818359375,-3.7283261116147037,0.20723113007247446,8.708430984434484
1761469363947022800,5.34402294921875,-3.0561268152579664,0.00440758730918169,8.509336399066449
1761469363957005800,5.354005859375,-2.8009111142173406,-0.001583615929633379,8.576049051380156
1761469363966988800,5.36398876953125,-2.9429154466196894,0.20602109669558702,8.808195427000522
1761469363976971800,5.3739716796875,-3.1224925538301465,0.4510438319586217,8.82237183639109
1761469363986955800,5.383955810546875,-2.626295136545598,0.3370361253108829,8.171014544793962
1761469363996939000,5.39393896484375,-1.8983020567744968,-0.06003383213691413,7.223897944843769
1761469364006921700,5.403921630859375,-1.5486448617562651,0.03772511582560837,6.36599166021943
1761469364016905700,5.41390576171875,-1.2399924618214369,-0.07286722942069172,5.25498973544836
1761469364026889000,5.423888916015625,-0.66293491666615,-0.03687149467095732,3.9342011509031054
1761469364036872000,5.433871826171875,0.23520751675665377,0.12995244088508187,2.389289338195324
1761469364046854700,5.443854736328125,1.1466793873518704,0.2678062294792384,0.8985247107386588
1761469364056838700,5.453838623046875,2.0414964757442475,0.3897832345057279,-0.5429769963771105
1761469364066822000,5.46382177734375,2.686337809576094,0.43927733325399454,-1.889911245048046
1761469364076804900,5.473804931640625,2.813611313575506,0.47102797777988015,-3.370106547695398
1761469364086788900,5.483788818359375,2.742987040776014,0.5325634466513991,-4.916837392523885
1761469364096771800,5.493771728515625,2.9585423470795154,0.5277483014546335,-6.080751407793164
1761469364106754800,5.5037548828125,3.449234737206995,0.4837024581748992,-6.839108938428759
1761469364116738800,5.51373876953125,3.8240707971453665,0.4264377984903753,-7.5732596640467635
1761469364126721800,5.5237216796875,3.955313497036695,0.39059009390920396,-8.146950363117456
1761469364136705000,5.533705078125,3.9841701736867425,0.46522579430714245,-8.544694128173589
1761469364146687700,5.543687744140625,3.9298099302068352,0.4853242872230708,-8.74892782999575
1761469364156671700,5.553671630859375,3.941059638495743,0.4357058314427733,-8.87550721425116
1761469364166654700,5.56365478515625,3.8859798485696313,0.24123247613459825,-8.81360809969902
1761469364176638000,5.573637939453125,3.7117844343975186,-0.13585150886103511,-8.622161398735642
1761469364186622000,5.5836220703125,3.2791046727776525,-0.5516314274758101,-8.250202647799252
1761469364196604700,5.593604736328125,2.1847321035072205,-0.8001132902167737,-7.520590150132775
1761469364206588000,5.603587890625,0.9470663310676812,-0.7830429129503667,-6.567512595951556
1761469364216571000,5.61357080078125,-0.11222732603698968,-0.7664468751974404,-5.343590978965163
1761469364226555000,5.623554931640625,-0.8103291254132986,-0.7349670104369521,-3.5890760463565585
1761469364236537900,5.633537841796875,-0.9964338808268308,-0.8313473635226487,-1.1104162338376045
1761469364246520800,5.643520751953125,-0.6570116640970111,-1.0424924521684646,2.026871153542399
1761469364256504800,5.6535048828125,-0.13689619560837746,-1.261591568558663,5.172261767879128
1761469364266487800,5.66348779296875,-0.6897837606251239,-1.3320225107431412,7.691781998574733
1761469364276470800,5.673470703125,-3.0114076758265496,-1.9904978176519275,9.333325801041722
1761469364286453800,5.683453857421875,-5.673185921424627,-2.2971989373885093,9.876943433409929
1761469364296437800,5.693437744140625,-6.8286892512232065,-1.473253082294017,10.086777439457178
1761469364306420700,5.703420654296875,-6.328416839584708,-0.45776583369001744,9.393044648945331
1761469364316404000,5.713404052734375,-5.3328655868113035,0.9193275525316595,8.161145477208494
1761469364326388000,5.723387939453125,-5.1073471048980945,2.348449378284812,7.5185150974243875
1761469364336371000,5.733370849609375,-4.899334469059109,3.4918057586938143,7.129553189238906
1761469364346353700,5.743353759765625,-4.426703513062,4.256883537495136,6.945235317242145
1761469364356337000,5.7533369140625,-3.953629781733453,4.504256123819947,6.524427487462758
1761469364366321000,5.76332080078125,-3.3669653270602224,3.8523905904397364,5.928381164199114
1761469364376303900,5.773303955078125,-2.7628838736400008,2.9356027855187654,4.8563422995507715
1761469364386286800,5.783286865234375,-2.299190841858089,2.1263972573079166,3.2449101422309874
1761469364396270800,5.793270751953125,-1.7822288689643144,1.3817816901683806,1.4963748685538767
1761469364406253800,5.80325390625,-1.1197726757258175,0.7081840713210403,-0.008694763109087943
1761469364416236800,5.81323681640625,-0.32244565522670743,0.18416034334748982,-1.215549509960413
1761469364426220000,5.823219970703125,0.6073796181827783,-0.1477681566260755,-2.2588936105221507
1761469364436203800,5.833203857421875,1.2246601603940128,-0.43057548281699415,-3.271935511800647
1761469364446186800,5.843186767578125,1.7579051595687865,-0.6264189574345946,-4.163582737985253
1761469364456169700,5.853169677734375,2.175199136008322,-0.7840024056322872,-4.861541037237644
1761469364466154000,5.863154052734375,2.5607655565366145,-0.9536125378407537,-5.336804095304012
1761469364476137000,5.873136962890625,2.8605297166168686,-0.9391738242521882,-5.717614845737814
1761469364486119700,5.88311962890625,3.0737358294457193,-0.9444957499273121,-6.155076288676262
1761469364496103000,5.89310302734375,3.3099709356844422,-0.8858695195659995,-6.6334706305056805
1761469364506087000,5.9030869140625,3.5951249711319804,-0.8184365901537239,-6.8151184065103525
1761469364516070000,5.91306982421875,3.9645138715803623,-0.7231377486944198,-6.909303587639331
1761469364526052900,5.923052978515625,4.405264419192076,-0.5039847101598978,-6.93260029207468
1761469364536036600,5.93303662109375,4.83465361483395,-0.43371305019035933,-6.8805749212831255
1761469364546019800,5.943019775390625,5.177127912610769,-0.2553571553379297,-6.621955549278855
1761469364556002800,5.9530029296875,5.319497571194171,0.03514657057449221,-6.1918468071907755
1761469364565986800,5.96298681640625,5.295537434414029,0.12994126190394162,-5.603471749207377
1761469364575970000,5.972969970703125,5.022507844263315,0.24007263857498765,-4.8786423941642045
1761469364585952800,5.982952880859375,4.24613301090002,0.3250492618538439,-4.021719275358319
1761469364595935700,5.992935791015625,3.32748788767457,0.3840045780390501,-2.7702210846602915
1761469364605919700,6.002919677734375,2.0644190861701963,0.44606399771943683,-1.0190238982975481
1761469364615903000,6.012903076171875,0.5092556363001466,0.42882600880116223,0.9088701636642217
1761469364625885700,6.0228857421875,-1.3215405719563365,0.5276378268174827,2.9282582679748534
1761469364635869700,6.03286962890625,-2.931825020545721,0.7209529520012438,4.532241278332472
1761469364645853000,6.04285302734375,-3.6565742960900067,0.9460317273229361,5.801036056268215
1761469364655836000,6.0528359375,-3.9963820050060748,1.1829231055133045,6.766323103681207
1761469364665819000,6.06281884765625,-4.1628222750067705,1.129154836577177,7.236645198214053
1761469364675803000,6.072802978515625,-4.092777847921848,0.6932679494790732,7.396473356598615
1761469364685785900,6.082785888671875,-3.9606352765813466,0.4791118424490094,7.684483073738217
1761469364695768800,6.092768798828125,-3.7727743251502512,0.3321858357354998,7.802825960046053
1761469364705752800,6.1027529296875,-3.4247605134248733,0.2644697054676711,7.487493351694941
1761469364715735800,6.11273583984375,-2.860542576098442,0.14926248683705926,7.125729831558465
1761469364725718800,6.12271875,-2.102951645921171,-0.16087342965379356,6.713504536685347
1761469364735701800,6.13270166015625,-1.386486506858468,-0.28695786999911066,6.120563778221607
1761469364745685800,6.142685791015625,-0.8120961350858211,-0.39325200659483667,5.538012896347046
1761469364755669000,6.1526689453125,-0.2663277544245124,-0.425925465054065,4.850368485838175
1761469364765652000,6.16265185546875,0.4230693449705839,-0.34325536515191196,3.774568807351589
1761469364775635700,6.1726357421875,1.0470660436943173,-0.28260552000850436,2.4872283188998696
1761469364785618700,6.18261865234375,1.5733698454290628,-0.3136472856126725,0.9762532625854015
1761469364795602000,6.192601806640625,1.9536799528643487,-0.26634192908033727,-0.5969646071523428
1761469364805585000,6.2025849609375,2.210820484487712,-0.23945099954530596,-2.101474266844988
1761469364815569000,6.21256884765625,2.312607372792065,-0.27106208947002886,-3.596549743238091
1761469364825552000,6.2225517578125,2.3845661090657115,-0.29379356123805045,-4.728763967385888
1761469364835534800,6.232534912109375,2.585649530163407,-0.32027401027604935,-5.520272072473168
1761469364845518800,6.242518798828125,2.736552916075289,-0.4292700993068516,-6.0565861038297415
1761469364855501800,6.252501708984375,2.790845647276938,-0.43468890948519107,-6.465297253102063
1761469364865484800,6.26248486328125,3.0111443487152454,-0.5119828693069517,-6.856367531743645
1761469364875467800,6.2724677734375,3.2070927450120448,-0.5381343786515295,-7.1385314454644915
1761469364885451800,6.28245166015625,3.3153920839503406,-0.5160473422668874,-7.48193747113347
1761469364895434500,6.2924345703125,3.306725670152902,-0.6244533564500511,-7.634424619105458
1761469364905417700,6.302417724609375,3.071094667287171,-0.6937168622903526,-7.615981199920177
1761469364915401700,6.312401611328125,2.470637249583006,-0.7525047129541635,-7.238378305616974
1761469364925384700,6.322384765625,1.5465715626135468,-0.8226679441131651,-6.562002892619371
1761469364935368000,6.332367919921875,0.649596419404447,-0.9198751034118234,-5.75332094989121
1761469364945350700,6.3423505859375,0.009576806640625,-0.8572697402864694,-4.685587673482298
1761469364955334700,6.352334716796875,-0.2548547587737441,-0.5945099074766039,-3.155409319525957
1761469364965317600,6.362317626953125,-0.5146083955049514,-0.4330370506249368,-1.2406512179911136
1761469364975300900,6.37230078125,-0.6912839360550046,-0.46516018172502516,1.0795867958098648
1761469364985284900,6.382284912109375,-1.1071072554200887,-0.6631530894614756,3.3713574245393274
1761469364995267600,6.392267578125,-1.8629530954957008,-0.9050279551528394,5.189449049523472
1761469365005250800,6.402250732421875,-3.198194568285346,-1.2254450271613895,6.5070081506282085
1761469365015233800,6.41223388671875,-4.803135610020161,-1.685019956099987,7.604930229073762
1761469365025217800,6.4222177734375,-5.568882666385173,-1.4359336977250874,8.033406401523948
1761469365035200500,6.432200439453125,-5.220168597435951,-0.45100291542634363,7.910183341959119
1761469365045183700,6.442183837890625,-4.807751579383015,0.9175355545483529,6.89955259347558
1761469365055167700,6.452167724609375,-4.711486669370532,2.197401907727122,5.719249168941379
1761469365065150700,6.462150634765625,-4.460305922934412,3.2632167832940815,4.970283736029267
1761469365075133700,6.4721337890625,-4.057692213754356,3.9186207199335095,5.12598692343831
1761469365085117700,6.48211767578125,-3.8542876562327146,3.860659529352188,5.610372614637017
1761469365095100700,6.4921005859375,-3.5553041251361366,3.2278573006212707,5.882841648295521
1761469365105083600,6.502083740234375,-2.813031467860937,2.3632797215394676,5.069844764977693
1761469365115067000,6.51206689453125,-2.0433874040573836,1.3099592936255038,3.195348531204462
1761469365125051000,6.52205078125,-1.149668340034783,0.47703357487022874,1.3494114524394274
1761469365135033600,6.53203369140625,-0.2780716759711504,-0.05529167911112308,-0.2076432180047035
1761469365145016600,6.5420166015625,-0.1903466307669878,-0.2733369025342166,-1.1536743608057498
1761469365155000600,6.55200048828125,0.7048167868450284,-0.9131636230744421,-2.185108243343234
1761469365164983800,6.56198388671875,1.5697604227602482,-0.4843931438528001,-3.1747131549328564
1761469365174966800,6.571966796875,2.33170516423285,-0.4637504610575735,-3.6333547485440967
1761469365184949800,6.58194970703125,2.8676728663697837,-0.6051362231701612,-3.8323265843153
1761469365194933800,6.591933837890625,2.8256767221614716,-0.6144185769088566,-4.209566490525007
1761469365204916700,6.601916748046875,2.6226895132690666,-0.46718408876806494,-4.582949721306562
1761469365214899700,6.611899658203125,2.4979133790433403,-0.405257355556637,-4.8255087698698045
1761469365224883700,6.6218837890625,2.4598709408968684,-0.36935806691870093,-4.954689276534318
1761469365234866700,6.63186669921875,2.7203584448605773,-0.23492972272858023,-5.0685126395910975
1761469365244849700,6.641849609375,3.2502269533395767,0.2190874259524047,-4.975337512287497
1761469365254832600,6.65183251953125,3.938284036302566,0.48074996504485606,-4.551580769574642
1761469365264816600,6.661816650390625,4.450175574064255,0.7781829056985676,-4.002834542146325
1761469365274799900,6.6717998046875,3.902482655081153,1.0699841240756214,-3.5739731697708366
1761469365284782600,6.681782470703125,3.2508143978387114,1.2494132011175154,-3.3836797304958104
1761469365294766600,6.6917666015625,3.2509833246648308,1.377988581495732,-2.964507392963767
1761469365304749800,6.701749755859375,3.317831001535058,1.1805386945948004,-2.3932792846143243
1761469365314732800,6.71173291015625,3.3323990405917168,0.8933553452767431,-1.730354304820299
1761469365324715500,6.721715576171875,3.520387710055709,0.672255264327675,-0.8041893074840307
1761469365334699500,6.731699462890625,3.5751708551228045,0.5034722305931151,-0.3238274649739265
1761469365344682800,6.741682861328125,2.777915146294236,0.530465597589314,-0.13426175545156002
1761469365354665700,6.751665771484375,1.271350307637453,0.45904403693228957,0.4005839569181204
1761469365364649700,6.761649658203125,-0.353961321952939,0.3222241214305162,1.2296885099500416
1761469365374632700,6.7716328125,-1.978215551444888,0.34449016764387486,2.2822218791395423
1761469365384615700,6.78161572265625,-3.7667771305620668,0.4212205022335052,3.5999019762754436
1761469365394598700,6.7915986328125,-5.449630848538876,0.5546373312935233,4.4488907949507235
1761469365404582700,6.801582763671875,-5.899576509997249,0.2632055307507515,5.207399132233858
1761469365414566000,6.81156591796875,-5.8539078147560355,0.34857290691286325,5.733154360175132
1761469365424548600,6.821548583984375,-5.050492998775839,0.37706717999130485,6.04276859087944
1761469365434532600,6.83153271484375,-4.186003244107962,0.3633011049672961,6.310737390509248
1761469365444515600,6.841515625,-3.351344564080238,0.10460326089933514,6.321659182018041
1761469365454498800,6.851498779296875,-2.62191852889657,-0.5092591434314847,5.730273836302757
1761469365464481500,6.8614814453125,-2.1728853061079976,-0.9287987068407237,5.04223136638701
1761469365474465500,6.871465576171875,-1.7803648286581037,-1.1892645834945141,4.3151849198162555
1761469365484448800,6.88144873046875,-1.297283205795288,-1.4117492506697773,3.4186592739403245
1761469365494431700,6.891431640625,-0.9307856428742408,-1.4112335562326013,2.34985164629817
1761469365504415700,6.901415771484375,-0.1413198572695255,-1.1664693988405168,1.2885171310156582
1761469365514398700,6.911398681640625,0.937130043464899,-0.9585064473621546,0.2641156313329935
1761469365524381700,6.921381591796875,1.9701777909398077,-0.8860641653552651,-0.896562470754981
1761469365534364700,6.93136474609375,2.682010886287689,-0.8380407236814499,-2.0272773962557316
1761469365544348700,6.9413486328125,2.8857898300796747,-0.7720550704680382,-2.931953030839562
1761469365554332000,6.951331787109375,2.58806886626482,-0.7598208811864257,-3.4666274782955644
1761469365564314600,6.961314697265625,1.9361311444312332,-0.8719644744627177,-3.497037229606509
1761469365574298600,6.971298583984375,1.4412977089762686,-1.0165183452174067,-3.216628050598502
1761469365584281600,6.981281494140625,1.1984686112999916,-1.0828795537449418,-2.9491221923053264
1761469365594264800,6.991264892578125,1.2257353884100912,-1.2515239096611737,-2.744117506110668
1761469365604247800,7.001247802734375,1.578188643887639,-1.1235479564808308,-2.6713959687709807
1761469365614231800,7.011231689453125,2.303187510278821,-1.0000764751128852,-2.896348633494973
1761469365624214500,7.021214599609375,3.423001687058806,-0.8129195802979171,-3.103759796309471
1761469365634197800,7.03119775390625,4.626584864893555,-0.5084096869952976,-3.286722162044048
1761469365644181800,7.041181640625,5.073069572243094,-0.48907370288446544,-3.505671786960959
1761469365654164700,7.051164794921875,4.338801357725262,-0.4382797735840082,-3.3157682237863537
1761469365664147700,7.061147705078125,2.942586068534851,-0.33372941191568967,-2.934249032822251
1761469365674130700,7.071130615234375,1.9610452209353446,-0.38283436521589753,-2.64769360614419
1761469365684114700,7.08111474609375,1.8813479993641375,-0.34075492663830514,-2.4221125803887844
1761469365694097700,7.09109765625,2.2917536775946616,-0.3297382964529097,-2.2600205687254666
1761469365704081000,7.101080810546875,2.6555846516549586,-0.3115096890620887,-1.8890414764761925
1761469365714064600,7.111064697265625,2.2619003911226985,-0.5400466420136392,-1.2382383116304874
1761469365724047600,7.121047607421875,1.008664416846633,-0.49824280550703404,-0.6864701060324907
1761469365734030800,7.13103076171875,-0.5794102457612753,-0.33357524426728485,-0.023526421537995338
1761469365744013800,7.141013916015625,-2.6271581831157205,-0.14248656296133994,0.631073212981224
1761469365753997800,7.150997802734375,-4.80322913352251,0.25528292105793954,1.3624211561381816
1761469365763980500,7.16098046875,-6.003569383913279,0.8377754968740045,2.325757654005289
1761469365773963800,7.1709638671875,-6.3311085628867145,1.429779851270467,3.0228906083494422
1761469365783947800,7.18094775390625,-6.319967575669288,1.7814292430192231,3.4591800848990677
1761469365793930800,7.1909306640625,-6.115857207965851,1.9459544731788336,3.9955800409734246
1761469365803913500,7.20091357421875,-5.88196837259233,1.9463602775007485,4.57456241671145
1761469365813897700,7.210897705078125,-5.671121974632143,1.8546099223032593,4.8524137279301875
1761469365823880700,7.220880615234375,-5.056225989469885,1.6167299714669585,4.631683064815402
1761469365833863700,7.23086376953125,-4.361906338980794,1.4010684283100068,3.8845454318523407
1761469365843847000,7.240846923828125,-3.2939638037353753,1.0386214559540152,2.9390970573753115
1761469365853831000,7.250830810546875,-1.962803462779522,0.657909635850042,1.7841466852843761
1761469365863814100,7.260814208984375,-0.8649082723408937,0.26231077386811374,0.4962339499026537
1761469365873797000,7.270797119140625,-0.22322247993052005,-0.16719079610705376,-0.6915753202170133
1761469365883780000,7.280780029296875,0.21835516615509987,-0.4572421020768583,-1.6548095267534255
1761469365893764000,7.29076416015625,0.42105099088549613,-0.6536027324363589,-2.344355971491337
1761469365903747000,7.3007470703125,0.23235797254443166,-0.7096721179217099,-2.8786306059747933
1761469365913730000,7.31072998046875,0.02535539053082466,-0.7188892974697053,-3.328175285416841
1761469365923714000,7.320714111328125,0.02817921577990055,-0.6813340583182871,-3.4908261000066996
1761469365933697000,7.330697021484375,0.1221937165170908,-0.5052440625712276,-3.6700545399099584
1761469365943680000,7.340679931640625,0.4074275392025709,-0.24964023899585008,-3.754732472503185
1761469365953663200,7.350663330078125,1.159520748746395,-0.05342793106585741,-3.9151895764410494
1761469365963647200,7.360647216796875,1.8837468771994113,0.05797200423628091,-4.143624822583794
1761469365973630200,7.370630126953125,2.392405424389243,0.057038230517506595,-4.321874772843718
1761469365983613000,7.380613037109375,2.9414737233787775,-0.11065291632711886,-4.397524764850735
1761469365993597000,7.390596923828125,3.3232477658867836,-0.3335276057332754,-4.4395986504703755
1761469366003580200,7.400580078125,3.6907162196666,-0.46747079675495623,-4.423414992910623
1761469366013563100,7.410563232421875,3.8576445654451845,-0.3635812370829284,-4.218907734844088
1761469366023545900,7.4205458984375,3.8084015188485383,-0.24633710579723117,-3.649395782762766
1761469366033530000,7.430530029296875,3.3635429513961075,-0.04991656194403767,-2.7789140942037105
1761469366043513000,7.44051318359375,2.861678302130103,-0.013528905267268418,-1.886125296768546
1761469366053496000,7.45049609375,2.4610160192787647,0.07993702167645096,-0.9674012630879878
1761469366063480000,7.46047998046875,1.6647954987168312,0.15722192140892147,0.08523205934464931
1761469366073463300,7.47046337890625,0.5672539440214633,0.24016674659922718,1.0234697717905044
1761469366083446000,7.480446044921875,-0.2978349455833435,0.32190570313110944,1.8312234937578438
1761469366093429000,7.490428955078125,-0.7857020491570234,0.4683671610727906,2.4884505541712043
1761469366103413000,7.5004130859375,-0.983742157036066,0.43739363839924333,2.9121961909681557
1761469366113396200,7.510396240234375,-0.9680074122875928,0.2380146831318736,3.00446881647408
1761469366123379000,7.52037890625,-0.7582581619143486,-0.08042538971528411,2.8990426948845385
1761469366133363000,7.530363037109375,-0.3865910874009132,-0.11568141201362013,2.631271463653445
1761469366143346200,7.54034619140625,-0.2146668330311775,-0.2788730554819107,2.3781559497624634
1761469366153329200,7.5503291015625,-0.5240215360164642,-0.3065313161276281,2.2237802115648986
1761469366163312000,7.56031201171875,-1.288984164005518,-0.4783914192199707,2.151270855671167
1761469366173295900,7.5702958984375,-2.3120500311702488,-0.5728101168438792,2.2378788795441387
1761469366183279000,7.580279052734375,-3.314615546619892,-0.6004137246929109,2.563555187255144
1761469366193262000,7.590261962890625,-4.17410822365284,-0.5551720226921141,3.050601037573814
1761469366203246000,7.60024609375,-4.988735338521003,-0.5859570370562375,3.243648159471154
1761469366213229000,7.61022900390625,-5.305906268215179,-0.6414240727342665,3.184676330542564
1761469366223212000,7.6202119140625,-4.993016376841068,-0.7426685247249901,2.8015964661329984
1761469366233196000,7.630196044921875,-4.005350324359536,-0.8793579457148909,2.115097718527913
1761469366243179000,7.640178955078125,-2.6819892589777705,-0.9775902102775871,1.3431968157082794
1761469366253162200,7.650162353515625,-1.6518728887796401,-1.021266854918748,0.5549491737216711
1761469366263145000,7.66014501953125,-0.9420932188302278,-1.0933870653644204,-0.24041794488131998
1761469366273129000,7.67012890625,-0.5464361969202757,-1.1493434919945895,-0.9120674984008074
1761469366283112000,7.68011181640625,-0.10206453620195388,-1.1056523804366587,-1.446774679082632
1761469366293095200,7.69009521484375,0.37616789306402204,-0.9906342546373605,-1.8382266505181788
1761469366303079200,7.7000791015625,0.6457084720551968,-0.8742688789475709,-2.204095852407813
1761469366313062100,7.710062255859375,0.7311568044990301,-0.7449434839196503,-2.413705986571312
1761469366323045000,7.720045166015625,1.2526134584635495,-0.6055157970722764,-2.6227146477103234
1761469366333028000,7.730028076171875,1.9416426013290882,-0.5268783136870712,-2.616668937805295
1761469366343012000,7.74001220703125,1.4252894079834222,-0.2272922866526991,-2.330785711300373
1761469366352995000,7.7499951171875,1.284785543271899,-0.219372745699808,-2.6421236970573663
1761469366362978000,7.75997802734375,1.9834780020177363,-0.2049954069096595,-2.9769793365240096
1761469366372962000,7.769962158203125,2.5152263328939677,-0.08253894780315459,-3.2666818290561435
1761469366382945000,7.779945068359375,2.9162451740980146,-0.03709127490147948,-3.522000405949354
1761469366392928000,7.789927978515625,3.107448129433393,0.07091441485248505,-3.6623207307875156
1761469366402911200,7.7999111328125,3.1197008772850037,0.06642930532768368,-3.610172025877237
