time,seconds_elapsed,z,y,x
1761469601765646000,0.11564599609375,0.4401747935503721,-0.12987477253898977,-1.965822518339753
1761469601775629000,0.125629150390625,-1.2581360212773083,-0.31810894119665023,-0.20675942090749738
1761469601785612000,0.135612060546875,-3.037169893592596,-0.3815533854946494,1.802196136716008
1761469601795595300,0.14559521484375,-4.64875051947236,-0.4480282835297286,3.9489229192167516
1761469601805579300,0.155579345703125,-5.423832390415668,-0.4015016562849283,5.671918093445897
1761469601815562000,0.16556201171875,-5.5154836691528555,-0.3949405442036688,6.507209810680151
1761469601825545000,0.175544921875,-5.437509618112444,-0.7111918748348951,6.399564259475469
1761469601835528200,0.185528076171875,-5.120329336068034,-0.8313850651845336,5.523247873413562
1761469601845511200,0.19551123046875,-4.433786749321222,-0.49952027809694405,4.423500917628407
1761469601855494100,0.205494140625,-3.524128065627813,0.15725553141757845,3.353753963309526
1761469601865477000,0.21547705078125,-3.1258295892983674,0.9295536168612539,2.7515321662813426
1761469601875460000,0.225460205078125,-3.2098242158025503,1.4535117322526871,2.5985774007976055
1761469601885443000,0.235443115234375,-3.5459196261972186,1.792809153559059,2.7403742279291152
1761469601895426000,0.245426025390625,-3.856230022472143,1.9664128854483365,2.8941297884017225
1761469601905409000,0.255408935546875,-3.937832785403728,1.9839264764375983,2.871518143621087
1761469601915392300,0.265392333984375,-3.579396363863349,1.9343685186728834,2.54629250228703
1761469601925376300,0.275376220703125,-2.760722019430995,1.6860514911048112,1.9003911380082368
1761469601935359000,0.28535888671875,-1.6367875478506086,1.3226301207587121,0.9569348141312599
1761469601945342000,0.295342041015625,-0.27699323308467866,0.9389546285435557,-0.12888298502266407
1761469601955325200,0.3053251953125,1.214413199406862,0.6773280375473201,-1.1978455109655857
1761469601965308200,0.31530810546875,2.4888667337566615,0.39406113102063534,-2.147787689730525
1761469601975291600,0.325291748046875,3.2407576987266538,0.14615443781912327,-3.036481326806545
1761469601985275000,0.33527490234375,3.590104220360517,-0.2382550677590072,-3.7063077565521
1761469601995257900,0.3452578125,3.6330326769828796,-0.5366757042758167,-4.154071982318163
1761469602005240600,0.355240478515625,3.4160751026660203,-0.7890897918991744,-4.479378872194886
1761469602015223800,0.365223876953125,3.0548937663316726,-1.0414536106400192,-4.698221529605984
1761469602025206800,0.375206787109375,2.649746447020769,-1.2503323617890476,-4.769761748206615
1761469602035189800,0.385189697265625,2.644139713054895,-1.3106344164080916,-4.87428653704226
1761469602045173800,0.395173828125,2.988706014674902,-1.2509084081113337,-5.10202211048305
1761469602055156700,0.40515673828125,3.393984266889095,-1.1467675040267407,-5.346818124318123
1761469602065139700,0.4151396484375,3.7297687116384504,-0.9429271854363381,-5.462368749558926
1761469602075123000,0.425123046875,4.124127510431409,-0.7170514145180582,-5.405074498453736
1761469602085106000,0.43510595703125,4.408136759757995,-0.4448647049322724,-5.157510773470998
1761469602095088600,0.445088623046875,4.391823922860622,-0.24136706229969856,-4.639228073367476
1761469602105071900,0.45507177734375,4.410702226331829,-0.154021517932415,-3.8902632249772546
1761469602115054800,0.465054931640625,4.577692531430721,-0.05756839187145233,-2.984337298071384
1761469602125037800,0.475037841796875,4.651427629727125,0.11581570591777562,-1.9462071327656507
1761469602135020800,0.485020751953125,4.466751445811987,0.4155030013695359,-0.6297656375139952
1761469602145003800,0.495003662109375,3.4383705211043356,0.7657160767048596,1.0208113662362097
1761469602154986800,0.50498681640625,1.3028601291447877,1.0424838304705917,3.247417156615853
1761469602164969700,0.5149697265625,-1.6559148576468228,1.1367132891327143,5.516938544136285
1761469602174953700,0.52495361328125,-4.780023029980063,1.0978092657208443,7.354775318554044
1761469602184936700,0.534936767578125,-6.8980170544713735,1.0667946803845465,8.62753607751131
1761469602194920000,0.544919921875,-7.856599635809659,0.6790883252181112,8.965790127244592
1761469602204903000,0.55490283203125,-7.645827472129464,-0.03542231877595186,7.9432585130870335
1761469602214885600,0.5648857421875,-6.53979164533317,-0.5041236802391708,6.660699998214841
1761469602224868900,0.574868896484375,-5.479076723253726,-0.8637985575333237,5.639561299720406
1761469602234851800,0.584851806640625,-4.8541953506499524,-1.0664679326482116,4.987635852846503
1761469602244834800,0.594834716796875,-4.283310941171646,-1.3622789711885153,4.684265484967828
1761469602254817800,0.60481787109375,-3.785573600968718,-1.6021812216326594,4.584475907960534
1761469602264800800,0.61480078125,-3.2134961823135613,-1.6265167675964534,4.427507815182209
1761469602274783700,0.62478369140625,-2.8278075967103242,-1.5355072938941419,4.107852667456865
1761469602284767700,0.634767822265625,-2.489226799240708,-1.2659449414625763,3.5718227137386798
1761469602294750700,0.644750732421875,-1.8465642707526684,-1.0128659601897,2.7120564804613587
1761469602304733700,0.654733642578125,-0.849312643802166,-1.0672102754481136,1.3687047664523124
1761469602314717000,0.664717041015625,0.18964929615259168,-1.2326539356268942,0.00409691392481327
1761469602324700000,0.674699951171875,1.1673603563308714,-1.2941399393334985,-1.1014455763965845
1761469602334682600,0.6846826171875,2.0181015716314317,-1.2457406500846147,-1.9308178404539822
1761469602344665900,0.694665771484375,2.667501299419999,-1.0428916806191206,-2.6047873613536354
1761469602354648800,0.70464892578125,3.0561674395292995,-0.8045664702333509,-3.257498990169167
1761469602364631800,0.7146318359375,3.189788558989763,-0.5520610510647297,-3.835039934927225
1761469602374614800,0.72461474609375,3.199449536782503,-0.21465689615905284,-4.51405972495377
1761469602384597800,0.73459765625,3.1742186494141813,0.06549465482607483,-5.182548768615723
1761469602394580700,0.744580810546875,3.2173212935596704,0.3500334809847176,-5.673592748659849
1761469602404564000,0.75456396484375,3.2579952492535114,0.6034903556592762,-6.049693421706557
1761469602414547700,0.764547607421875,3.2692385278016327,0.7234253334641456,-6.264428059276938
1761469602424530700,0.77453076171875,3.464543365497887,0.773624950133264,-6.383815486201644
1761469602434514000,0.784513916015625,3.8496751940011977,0.8331788167335092,-6.304041692262888
1761469602444497000,0.794496826171875,4.3535418307393785,0.8673568345367908,-6.065294310942292
1761469602454479600,0.804479736328125,4.8010780929684636,0.8533861768513917,-5.713742972740531
1761469602464462800,0.814462890625,4.910892220383882,0.7273430914297699,-5.1865580042570825
1761469602474445800,0.82444580078125,4.54376921904087,0.5547649031959474,-4.496756707975268
1761469602484428800,0.8344287109375,3.9827603068888187,0.38819647677093744,-3.633992461925745
1761469602494411800,0.844411865234375,3.180816147983074,0.12081409872695803,-2.816908601555228
1761469602504394800,0.854394775390625,1.8673311644494532,-0.19994477245658634,-1.6336083332926035
1761469602514377700,0.864377685546875,0.07122983747720718,-0.19854265057370066,0.13871347416341304
1761469602524361000,0.87436083984375,-1.6487293300569057,0.22063027148023245,2.266712175318599
1761469602534344700,0.8843447265625,-3.2155010923951863,0.631380963756144,4.563727134442329
1761469602544327700,0.89432763671875,-3.990117099392414,0.7139220304511487,6.5227972559124225
1761469602554311000,0.904310791015625,-4.8759313816398375,0.4756732463024556,7.8325787087529894
1761469602564294000,0.9142939453125,-6.404287196344137,-0.3110303811125457,8.375137187457085
1761469602574276600,0.924276611328125,-7.344794607287645,-0.3134695909582078,8.093367241489887
1761469602584259800,0.934259765625,-6.669501144307851,0.2927607110589742,7.148234508833289
1761469602594242800,0.944242919921875,-6.172494456467032,0.936659064952284,5.93476531227827
1761469602604225800,0.954225830078125,-5.758648866915703,1.5455074405133724,5.086992299133539
1761469602614208800,0.964208740234375,-5.009589325979352,2.175447265550494,4.607644017580151
1761469602624191700,0.974191650390625,-4.17971174274832,2.5692647970736027,4.371383192378282
1761469602634174700,0.9841748046875,-3.7912969470515847,2.4063211370170117,4.287414869359135
1761469602644158000,0.994157958984375,-3.4191888507723807,1.8997293130986392,4.001981724709272
1761469602654140700,1.004140625,-2.575364282992482,1.3949408853404224,3.0411300293952226
1761469602664124700,1.014124755859375,-1.599829982331395,0.7138108251616359,1.7529326318532228
1761469602674108000,1.02410791015625,-0.5331552750647067,0.05106514745727181,0.20698037018179893
1761469602684091000,1.0340908203125,0.3871843771189451,-0.43946050780117507,-1.3566560167402029
1761469602694073600,1.044073486328125,1.2656243312060833,-0.5939777002960444,-2.851100209492445
1761469602704056800,1.054056884765625,2.366361759333312,-0.6114483289264142,-4.098660476219654
1761469602714039800,1.064039794921875,3.2396263566091656,-0.5427143999181687,-5.161260481393337
1761469602724022800,1.074022705078125,3.8259693242430686,-0.6620682168342172,-5.9843637481838465
1761469602734005800,1.084005859375,4.211700579944253,-0.96496351454705,-6.481407845425605
1761469602743988700,1.09398876953125,4.216681875488161,-1.3251290979675947,-6.826941530773043
1761469602753971700,1.1039716796875,3.995223482620716,-1.4581130885683,-7.060434644827247
1761469602763955000,1.113954833984375,3.9352249409928914,-1.3796901247166096,-7.435378549054264
1761469602773937700,1.123937744140625,4.233281128111481,-1.2897582171179354,-8.006540606430173
1761469602783921700,1.133921630859375,4.67221147455871,-1.3248315763257443,-8.488651922956109
1761469602793905000,1.14390478515625,4.899017658194899,-1.3335904907122254,-8.667070800042152
1761469602803887900,1.153887939453125,4.703309208133817,-1.3448561272226274,-8.42371154101193
1761469602813870800,1.163870849609375,4.256328241699934,-1.3939467597365378,-7.4661162171453235
1761469602823853800,1.173853759765625,3.5406399322286246,-1.3821497928284108,-5.9060354768782855
1761469602833836800,1.1838369140625,2.782086879020929,-1.19835024561733,-4.206759031888843
1761469602843819800,1.19381982421875,2.1406489238917827,-1.0832818509355187,-2.827545146381855
1761469602853802800,1.203802734375,1.0689423599377275,-0.48807855436727404,-0.9058043463528156
1761469602863785700,1.21378564453125,-0.824222626209259,0.4321466776564717,2.307922722107172
1761469602873768700,1.223768798828125,-3.3453166820928453,0.948149303998798,5.773353099572658
1761469602883752000,1.233751953125,-5.354627336764335,0.9140886289648711,8.42960469070375
1761469602893734700,1.243734619140625,-6.14603490408659,0.46247123490199443,10.143334608459472
1761469602903717600,1.253717529296875,-6.009669454354047,-0.12813888865709305,10.696418572831153
1761469602913702000,1.263701904296875,-5.075455006074905,-0.40229448716305194,10.071913047802449
1761469602923684900,1.273684814453125,-4.242006870880723,-0.3663194298751652,8.974902238982915
1761469602933667800,1.283667724609375,-3.754307525089383,-0.20486009009219705,7.911540601786971
1761469602943650800,1.29365087890625,-3.4272923699900506,0.1433105196300894,7.224944239026308
1761469602953633800,1.3036337890625,-3.0506507219344376,0.12533778669647871,6.701579121091961
1761469602963616800,1.31361669921875,-2.8076234713375565,-0.3885439750343561,6.048689797621965
1761469602973599700,1.323599853515625,-2.5734236703187228,-0.4588943993285298,5.425711628291011
1761469602983582700,1.333582763671875,-2.3039169935971495,-0.6758922325905412,4.8819940426796675
1761469602993565400,1.3435654296875,-1.8997189378350972,-0.6607029928956181,4.164282410687208
1761469603003548700,1.353548583984375,-1.469206875643134,-0.6244608821693808,3.441798157465458
1761469603013531600,1.36353173828125,-1.1726496949106455,-0.6349183441020548,2.454232058227062
1761469603023514600,1.3735146484375,-0.7082084751099348,-0.7798655250232667,1.161008941477537
1761469603033499000,1.383498779296875,-0.11452800419479608,-0.8779223599538206,-0.09113046973347663
1761469603043481600,1.393481689453125,0.4401175104051828,-0.9293760683372616,-1.216664777725935
1761469603053464600,1.403464599609375,0.8311860354810953,-0.9628136430367827,-2.286568383911252
1761469603063447800,1.41344775390625,1.2883356369689105,-0.915100582486391,-3.150343852829933
1761469603073430800,1.4234306640625,1.7244897967010735,-0.8646026404578239,-3.987157080543041
1761469603083413500,1.43341357421875,2.198077322770655,-0.6912344708900898,-4.838089434501528
1761469603093396700,1.443396728515625,2.685052738201618,-0.5223566715441644,-5.6464235867053265
1761469603103379700,1.453379638671875,3.24193054189831,-0.42724487708956,-6.373558296081423
1761469603113362400,1.463362548828125,3.7314509656369683,-0.3889901113666594,-6.895853154435754
1761469603123345700,1.473345703125,4.140272297285497,-0.30684571583904324,-7.036138407960534
1761469603133328600,1.48332861328125,4.310210054013133,-0.14864523172155023,-6.824776461693644
1761469603143311600,1.4933115234375,4.299664402340352,-0.027162513018026947,-6.418184204271435
1761469603153294600,1.503294677734375,4.3479426955580704,0.12265936126746237,-6.086138361528516
1761469603163278600,1.513278564453125,4.193701981917023,0.3400119993165135,-5.838192359229922
1761469603173261600,1.523261474609375,3.849618203116953,0.6926750981524586,-5.395859510862827
1761469603183244800,1.533244873046875,3.385113854952156,1.0932450265452265,-4.888108726167679
1761469603193227800,1.543227783203125,2.834251366022229,1.3918623546779154,-4.393795515194535
1761469603203210500,1.55321044921875,2.251521328188479,1.5727283326551318,-3.828429576876759
1761469603213193700,1.56319384765625,1.5959680462062358,1.4802601845771073,-3.3349230061113833
1761469603223176700,1.5731767578125,1.0645485088929534,1.2500776563756166,-2.84922564779222
1761469603233159700,1.58315966796875,1.0321417385458946,1.1919783724978565,-1.9598580569773911
1761469603243142700,1.593142578125,0.8073761208266019,1.373590200406313,-0.2820008321136236
1761469603253125600,1.603125732421875,-0.28145839579999443,1.4409236149668692,2.2355203337192533
1761469603263108600,1.613108642578125,-2.094210121060908,1.2398606521353124,5.119557182651758
1761469603273091600,1.623091552734375,-3.976806074659526,1.067517880092561,7.722489271527528
1761469603283074600,1.633074462890625,-5.767870284247398,0.7300280927300453,9.307296456772088
1761469603293058600,1.64305859375,-6.549680002140999,0.2523113579012453,9.742946466374397
1761469603303041800,1.653041748046875,-5.920746139276027,0.6413267498396337,9.469352812600135
1761469603313024800,1.663024658203125,-4.9257425835132596,1.434032978670299,8.400319559508562
1761469603323007500,1.673007568359375,-4.372787798479199,1.644614588214457,7.0546484626412385
1761469603332990700,1.68299072265625,-3.885294496653974,1.7599824042342602,6.039426294714212
1761469603342973700,1.6929736328125,-3.294870397186279,2.0001886060610414,5.384903817084432
1761469603352956700,1.702956787109375,-2.8173391019269824,2.1357709425918756,4.922101596662402
1761469603362939600,1.712939697265625,-2.1752581727191806,1.7751637528836726,4.407715319475531
1761469603372922600,1.722922607421875,-1.3998074684634805,1.315377373151481,3.4103695845007893
1761469603382905600,1.732905517578125,-0.6923132791027427,0.8387376199044286,2.210624961915612
1761469603392888800,1.742888916015625,-0.08875029659867287,0.4174572041772306,0.9710971949964761
1761469603402871600,1.75287158203125,0.5205117743298411,0.09516162494570016,-0.24605741207301615
1761469603412855600,1.76285546875,1.13143417968601,-0.1554372299492359,-1.4818389782011507
1761469603422838800,1.7728388671875,1.7518842918440698,-0.41595761326923963,-2.683812967273593
1761469603432821800,1.78282177734375,2.2085899489566683,-0.5992571020036935,-3.8628064782530065
1761469603442804500,1.792804443359375,2.5665301114127037,-0.8254466150462627,-4.938893156987429
1761469603452787700,1.80278759765625,2.7390844803795216,-1.068920732627809,-5.875305407571792
1761469603462770700,1.812770751953125,2.7262907575190067,-1.367545659545064,-6.650125412708521
1761469603472753700,1.822753662109375,2.605147134576738,-1.521233123217523,-7.373667650550604
1761469603482736600,1.832736572265625,2.538639357185364,-1.3938783706754445,-8.073866422206162
1761469603492719600,1.8427197265625,2.5157266836315393,-1.2839264422245322,-8.652238557091355
1761469603502702600,1.85270263671875,2.6713310868412257,-1.2440487514749168,-8.987395809853076
1761469603512685800,1.862685791015625,3.0920547454684972,-1.134605357068032,-9.152031076258421
1761469603522668500,1.87266845703125,3.3461201074302194,-1.1122337315883486,-9.01089066720903
1761469603532651800,1.88265185546875,3.2618162688463923,-0.9905340821985155,-8.421682081010937
1761469603542635800,1.8926357421875,3.007260493019223,-0.6630353083007037,-7.232936406823993
1761469603552618800,1.90261865234375,2.8100767097085715,-0.20680289472304283,-5.567649325197935
1761469603562601500,1.9126015625,2.416126491716504,0.06537563155628741,-3.8572342310786243
1761469603572584700,1.922584716796875,1.9172478725239634,0.3951206500109285,-1.9057476966053246
1761469603582567700,1.932567626953125,0.7403115863353014,0.744559745299071,0.49923196267485614
1761469603592550700,1.942550537109375,-1.115749411559105,0.9507196659434586,3.7138510115385053
1761469603602533600,1.95253369140625,-3.2245547519445417,0.5277936749663203,6.897544176262617
1761469603612516600,1.9625166015625,-4.771746200022101,0.1405844556670636,9.259889393430948
1761469603622499600,1.97249951171875,-5.254240962907671,-0.04218509090915322,11.080248378825187
1761469603632482800,1.98248291015625,-5.106805253106355,0.07564809231087564,11.74043779617548
1761469603642465500,1.992465576171875,-4.524275998541713,0.4599527492750436,10.946734226870536
1761469603652448800,2.00244873046875,-3.7986598770350217,0.7891628571353853,9.3725127330482
1761469603662432800,2.012432861328125,-3.282214913752675,1.2072309597525746,7.807782705670594
1761469603672415700,2.022415771484375,-3.3125644593089816,1.0424747703813015,6.618696839743852
1761469603682398500,2.0323984375,-3.3743303028702734,0.09606091187298298,5.933818971338868
1761469603692381700,2.042381591796875,-2.680621477755904,-0.6385696331512183,5.547585611334442
1761469603702364700,2.05236474609375,-2.0807246165439484,-1.0424768892731517,4.935417589831352
1761469603712347600,2.06234765625,-1.7168763990879057,-1.1587581668760627,4.189752952030301
1761469603722330600,2.07233056640625,-1.1738450421750546,-1.1228492336269467,3.4362896231770512
1761469603732313600,2.082313720703125,-0.48466158553063865,-1.0537248439963907,2.6120067912131546
1761469603742296600,2.092296630859375,0.11587240454107522,-0.7563868881497532,2.0040444047063586
1761469603752279800,2.10227978515625,0.6932733563065528,-0.5840495229344814,1.08586222281754
1761469603762262500,2.112262451171875,1.2673881260082125,-0.577845042271167,-0.13916998575925826
1761469603772245800,2.122245849609375,2.0162053826212882,-0.5361884322155267,-1.3930746530771254
1761469603782228700,2.132228759765625,2.7403160680010914,-0.427240712371096,-2.558174663260579
1761469603792212700,2.142212646484375,3.0970486082330346,-0.28133615765981373,-3.651547407838702
1761469603802195500,2.152195556640625,3.1450404857248064,-0.14789799355082214,-4.604314580896497
1761469603812178700,2.1621787109375,3.1427789705336093,0.10729622631035744,-5.298198762577772
1761469603822161700,2.17216162109375,3.14990253880322,0.41228856936767694,-5.865192594358325
1761469603832144600,2.18214453125,3.1412428470075127,0.6119570821661502,-6.381940339979529
1761469603842127600,2.192127685546875,3.2436233172908424,0.7604955655775963,-6.857053760442137
1761469603852110600,2.202110595703125,3.5755437800884247,0.828459460061416,-7.221897710937261
1761469603862093600,2.212093505859375,3.8116853628247975,0.8890625434536487,-7.368305246734619
1761469603872076800,2.222076904296875,3.895644918015599,0.8748628993179649,-7.387041511386633
1761469603882059500,2.2320595703125,3.873805426651239,0.8154073054604232,-7.48258979756236
1761469603892042800,2.242042724609375,3.546638588121533,0.6124429659869521,-7.619765979155898
1761469603902025700,2.252025634765625,2.8963851661130784,0.46066002076156437,-7.574071564951539
1761469603912008700,2.2620087890625,2.2891820735409856,0.3090989746585488,-7.164898058864474
1761469603921992700,2.27199267578125,1.2609487406104802,0.11097776436731219,-6.385266854053735
1761469603931975700,2.2819755859375,0.26772008556574584,-0.012568316606804728,-5.271757914897799
1761469603941958700,2.291958740234375,0.01970686324983835,-0.13463738383091986,-3.6072879948735235
1761469603951941600,2.301941650390625,-0.06407587406933307,-0.20137845852151512,-1.0289175158023833
1761469603961924600,2.311924560546875,-0.7126105094611644,-0.3024772184312343,2.519123340332508
1761469603971907600,2.321907470703125,-1.9679142299219965,-0.4411605166520923,6.43613662506938
1761469603981890800,2.331890869140625,-3.5397789314851162,-0.6635211190562695,9.711225632464885
1761469603991874000,2.3418740234375,-5.807687915372848,-1.5156073922902344,11.814425407928228
1761469604001857000,2.35185693359375,-6.963369524347781,-2.0233122920170423,12.084536480283736
1761469604011839700,2.36183984375,-6.341243587931991,-1.3963573280096053,11.098232948327064
1761469604021823000,2.371822998046875,-6.232669231444597,-0.26988252429664134,9.124145290467142
1761469604031806000,2.381805908203125,-6.095146428370476,0.8901575721487403,7.434394798713922
1761469604041790000,2.3917900390625,-5.832445924532413,1.7776321888238191,6.214177881464361
1761469604051773200,2.401773193359375,-5.720726255756616,2.393894640033692,5.468698537102341
1761469604061756000,2.411755859375,-5.452448244047164,2.8006434031918643,5.090492416208982
1761469604071739000,2.42173876953125,-4.91608102119863,2.509713706952333,4.643498005771637
1761469604081722000,2.43172216796875,-4.013659595282376,1.9243829851008951,3.7251048114806413
1761469604091704800,2.441704833984375,-2.7419144431084392,1.586823493503034,2.2977982184559105
1761469604101687800,2.451687744140625,-1.5558207447350025,1.2986916112884879,0.7932382898807525
1761469604111671000,2.461671142578125,-0.4590092578798532,1.0718476529251784,-0.5704658918052912
1761469604121654000,2.471654052734375,0.5804658922940492,0.9076329500194639,-1.6683435465872287
1761469604131636700,2.48163671875,1.3189204525858162,0.8314705515109002,-2.565738961035013
1761469604141620000,2.491619873046875,1.828552520982921,0.7010462553303688,-3.5612317616194487
1761469604151603000,2.50160302734375,2.242368007656932,0.4176964197605848,-4.589918975797295
1761469604161586000,2.5115859375,2.5687279137179253,0.08955284515321255,-5.36567889213264
1761469604171570200,2.521570068359375,2.9222827006965875,-0.1604288276914507,-6.054129942849278
1761469604181553000,2.531552978515625,3.3757980373352763,-0.3261020588424057,-6.80548022507131
1761469604191535900,2.541535888671875,3.8176281968772408,-0.35472090814858676,-7.479577756264805
1761469604201519000,2.55151904296875,4.338447137460112,-0.3771490861210972,-7.961541773274541
1761469604211502000,2.561502197265625,4.834366030064225,-0.38598186946138735,-8.22976659349203
1761469604221484800,2.57148486328125,5.303009962251782,-0.36635881203748283,-8.108912601146102
1761469604231468000,2.581468017578125,5.452346537238359,-0.3334244376197457,-7.678374819990992
1761469604241451000,2.591450927734375,5.103399828577041,-0.26943478052914144,-7.080210773921013
1761469604251433700,2.601433837890625,4.5278953580826515,-0.30794702814444896,-6.502320285072923
1761469604261417000,2.6114169921875,3.87080098413825,-0.32757892646193504,-5.846930961480736
1761469604271400000,2.62139990234375,3.123560183061659,-0.14478687579296529,-5.250007270860672
1761469604281383000,2.6313828125,2.491347736917436,0.15052110859602688,-4.743125085693597
1761469604291366000,2.641365966796875,2.0305299683108924,0.38025545463860033,-4.017143053483963
1761469604301350000,2.651349853515625,1.8790540432080625,0.5037087427627295,-2.88488382115066
1761469604311332900,2.661332763671875,1.7288944614008068,0.5280196657419204,-1.2894044352442025
1761469604321316000,2.671316162109375,1.41935329593271,0.29838351937681434,0.7786135522007942
1761469604331299000,2.681299072265625,-0.19980828659534453,-0.11740787048004567,2.950280714690685
1761469604341281800,2.69128173828125,-2.4343396092772482,-0.5768596844956279,5.390232318630814
1761469604351265000,2.70126513671875,-4.050402056746185,-0.9289405995294451,7.499218276280164
1761469604361248000,2.711248046875,-4.708951305674016,-0.9028690966185182,9.105715315285325
1761469604371230700,2.721230712890625,-4.574535820965469,-0.5391767273113132,9.996610261797905
1761469604381214000,2.7312138671875,-4.133985179840028,0.1440956055931747,9.67906523809433
1761469604391197000,2.741197021484375,-4.3002375260531895,0.6033164603970944,8.863662462678551
1761469604401180000,2.751179931640625,-4.357723208077251,0.84495276809223,8.600758545222877
1761469604411163000,2.761162841796875,-4.033711326447129,0.9545599016934633,8.836205715954303
1761469604421145900,2.771145751953125,-4.1288790888726705,0.5052440625712276,8.687818404516577
1761469604431129900,2.7811298828125,-3.992537312276661,-0.2718805662460625,7.8986986558705565
1761469604441113000,2.791113037109375,-3.3933880545616146,-0.7953848734553903,7.117336097222566
1761469604451096000,2.801095947265625,-2.9235318239748476,-1.1875996459569782,6.071287998399138
1761469604461078800,2.811078857421875,-2.452880059096217,-1.3307324709326027,4.814266660365462
1761469604471062000,2.82106201171875,-1.7071788886770605,-1.2950608535706996,3.4872225225567814
1761469604481045000,2.831044921875,-0.687187606652081,-1.079559469411522,2.1791332605868576
1761469604491028000,2.841028076171875,0.2275178390368819,-0.8186410266846418,0.6219605167210102
1761469604501011000,2.851010986328125,0.9357987948611378,-0.5245703290056437,-0.8136439490497112
1761469604510994000,2.860993896484375,1.602303094446659,-0.27653416420556604,-2.029749339327216
1761469604520977000,2.870976806640625,2.2030790765807033,-0.2781359733790159,-3.364873907738924
1761469604530960000,2.8809599609375,2.58389070379734,-0.3815381879255175,-4.7498979408293955
1761469604540942800,2.89094287109375,2.9382804802954197,-0.3730474229559302,-5.816834513902664
1761469604550926800,2.9009267578125,3.3231063115894792,-0.22609693938829004,-6.322261824086308
1761469604560910000,2.91091015625,3.7344670985877513,0.027070962277054786,-6.468046844071149
1761469604570893000,2.92089306640625,4.1025510539174075,0.12331658306717871,-6.680540424716472
1761469604580875800,2.930875732421875,4.237997342978417,0.2237406585857272,-6.791052471268177
1761469604590859000,2.94085888671875,4.104017911599576,0.3762717918299138,-6.916805926093459
1761469604600842000,2.950842041015625,3.987041345208883,0.5347722818072885,-7.268100074663758
1761469604610825000,2.960824951171875,3.8139322649687526,0.6169235454671085,-7.62157039822936
1761469604620808000,2.970807861328125,3.5556858179301023,0.63621634802334,-7.899123603284359
1761469604630791000,2.980791015625,3.130051006385684,0.6546471999879926,-7.897569359579682
1761469604640774000,2.99077392578125,2.6659879722476005,0.7161149373855441,-7.581500253647565
1761469604650757000,3.000757080078125,2.118965499871969,0.7182476385653018,-7.015298449027538
1761469604660739800,3.01073974609375,1.047156060065329,0.701342973254621,-6.065213646921515
1761469604670723000,3.02072314453125,-0.06179565417766571,0.6340475526168942,-4.834470074960589
1761469604680707000,3.03070703125,-0.5092874927431345,0.47191243246421216,-3.2090736896961927
1761469604690690000,3.04068994140625,-0.23141630778014657,0.21556151684857905,-0.8991402122884988
1761469604700672800,3.0506728515625,-0.05262158311903476,0.3680677348472178,2.5514894864082334
1761469604710656000,3.060656005859375,-1.3903323686316609,0.09612959319502115,6.6036202666431665
1761469604720639000,3.070638916015625,-3.7683606003612278,-0.6336930400907993,9.954873060786724
1761469604730622000,3.0806220703125,-5.883533722212911,-1.7650784121990202,12.031634911179541
1761469604740605000,3.09060498046875,-6.226200327691435,-2.4084826989650723,12.375032169020175
1761469604750588000,3.100587890625,-5.704917276728153,-2.278359212362021,11.644237183570862
1761469604760571000,3.11057080078125,-5.689749518212675,-1.750889727848768,9.709808166882395
1761469604770554000,3.12055419921875,-5.264499322071671,-0.5843553009480238,7.7297928725391625
1761469604780536800,3.130536865234375,-4.758742341542244,0.6173493696637451,6.568451922628283
1761469604790520000,3.14052001953125,-4.518866540713608,1.4561051097467541,5.864744266068935
1761469604800504000,3.150504150390625,-4.256154638698697,1.861587360100448,5.207012763264775
1761469604810487000,3.160487060546875,-3.8883570990949865,1.5909863122709094,4.7071121075481175
1761469604820469800,3.1704697265625,-3.3287975089684125,1.2581266689270734,4.038400361046195
1761469604830453000,3.180452880859375,-2.691087634451687,0.9557065875105559,2.8974744226545095
1761469604840436000,3.19043603515625,-1.8866247707232833,0.7784494476802647,1.5420330424010753
1761469604850419000,3.2004189453125,-0.983466262704134,0.6409204340610652,0.1078238303810358
1761469604860402000,3.21040185546875,-0.09474164596796035,0.6613994507271796,-1.2606646629720926
1761469604870385000,3.220385009765625,0.7882005879744887,0.6153589264988899,-2.548873750951886
1761469604880367900,3.230367919921875,1.4172992860123514,0.4021169386390596,-3.668398004874587
1761469604890351000,3.24035107421875,1.929955086144805,0.09263912073075771,-4.89336474699974
1761469604900333800,3.250333740234375,2.445569443821907,-0.16561317152678964,-6.098752928429842
1761469604910317000,3.260317138671875,3.0849574806839226,-0.327632994736731,-7.108579374793171
1761469604920300000,3.270300048828125,3.6570688016086814,-0.4892808428291231,-7.878839524668455
1761469604930283000,3.280282958984375,4.102654806552827,-0.5637678554713725,-8.496137310275435
1761469604940266800,3.290266845703125,4.59780856000334,-0.5444908350061625,-9.009369156730175
1761469604950250000,3.30025,5.038420868188142,-0.4876113021817058,-9.386540673878788
1761469604960233000,3.31023291015625,5.330238745439052,-0.5493786801129579,-9.527544889327883
1761469604970216000,3.3202158203125,5.233004698133469,-0.6888091434393078,-9.392925406479835
1761469604980198700,3.33019873046875,4.935735569739341,-0.7973002786226571,-8.990566256582737
1761469604990181600,3.340181640625,4.82751075734198,-0.7846818392638116,-8.146478653952478
1761469605000164900,3.350164794921875,4.569099767391384,-0.4210764906529337,-6.860654999804496
1761469605010147600,3.360147705078125,4.57130633752495,0.09217252613231539,-5.60842732578814
1761469605020130600,3.370130615234375,4.15837552473098,0.3354725292559713,-4.068051987466216
1761469605030113800,3.38011376953125,3.060711512699723,0.6994291024573147,-2.1573130584448577
1761469605040096800,3.3900966796875,1.8979495900750158,1.0202233372151852,0.4874924250423908
1761469605050079500,3.40007958984375,-0.1007543303862214,1.0734859216514974,3.76656611815989
1761469605060063500,3.4100634765625,-2.5229782621949908,1.0005637471731752,6.644193684571981
1761469605070046700,3.420046630859375,-4.160638793487847,0.9707427555356174,9.145068836030363
1761469605080029700,3.43002978515625,-4.731988774651288,0.5836898958418518,11.120636503314971
1761469605090012700,3.4400126953125,-5.125967049694061,0.2644438403740525,11.801101815974711
1761469605099995600,3.44999560546875,-4.83962468124479,0.1268969988372177,10.539904653561115
1761469605109978600,3.459978515625,-4.719466854469478,-0.17742453228645025,8.979628682982922
1761469605119961900,3.4699619140625,-4.101337878735364,-0.05511383832618594,8.506265321058034
1761469605129944600,3.479944580078125,-3.6379809470400213,-0.2674655993480235,8.446839318621159
1761469605139927600,3.489927490234375,-2.9811458085536957,-0.731106900942698,7.90837132410109
1761469605149910800,3.499910888671875,-2.1523796936959028,-0.8687501155260949,7.346064188832044
1761469605159893800,3.509893798828125,-1.8637942224949597,-1.0433542566295713,6.807344849899411
1761469605169876500,3.51987646484375,-1.7690715734884142,-1.1768790030434726,6.044033496248722
1761469605179859700,3.529859619140625,-1.4189552365258336,-1.141693050306663,5.041183903160691
1761469605189843700,3.53984375,-0.8213713284313678,-0.993097868271917,3.7546722667485475
1761469605199826700,3.54982666015625,-0.11382277853488922,-0.827813490308076,2.409433131557703
1761469605209809700,3.5598095703125,0.6409118854284286,-0.6563504237093031,0.962328197607398
1761469605219792600,3.569792724609375,1.3876231096729634,-0.5014015617989004,-0.510789713999629
1761469605229775600,3.579775634765625,1.8042729429900646,-0.4082685931365937,-1.9417980841517448
1761469605239758800,3.5897587890625,2.0609093244835734,-0.3117771808918565,-3.3578567224532363
1761469605249741600,3.599741455078125,2.373838671085238,-0.11907828791029751,-4.498179434254765
1761469605259724500,3.609724609375,2.6580036954954265,-0.011796236255764961,-5.588940535029769
1761469605269707800,3.619707763671875,3.0258050344914196,0.27833149595111606,-6.470844365835189
1761469605279690800,3.629690673828125,3.3711730078831312,0.4348141433000564,-7.039639109557867
1761469605289673500,3.639673583984375,3.646149932709336,0.6520830485884099,-7.411597860494256
1761469605299656700,3.64965673828125,3.995302977597713,0.8933504499059169,-7.681621839088201
1761469605309639700,3.6596396484375,4.137573267459869,1.126448134901747,-7.91327604727745
1761469605319623700,3.669623779296875,4.297981271558999,1.4400617374405265,-8.016437146544456
1761469605329606700,3.679606689453125,4.260826429902017,1.6462784297734498,-7.951272892716527
1761469605339589600,3.689589599609375,3.9575565997883677,1.6680492398157716,-8.024583628121018
1761469605349572600,3.699572509765625,3.680308222898841,1.7232126163721084,-7.866141371136903
1761469605359555800,3.709555908203125,3.226781488083303,1.7765829720318316,-7.455897605469822
1761469605369538800,3.719538818359375,2.5149153672486544,1.6047139549806713,-6.882821823427081
1761469605379521500,3.729521484375,1.6772937457621098,1.1923599922265857,-6.158551271310448
1761469605389504800,3.7395048828125,0.9627958151191472,0.5414000293839722,-5.027517196857929
1761469605399487700,3.74948779296875,0.5646233032569289,-0.2734427009962499,-3.1141116789758203
1761469605409470500,3.759470458984375,0.2395160276055336,-0.9216475199118256,-0.4935971716582775
1761469605419453700,3.76945361328125,-0.5124833661749959,-1.0748282761711627,3.120962275522947
1761469605429436700,3.779436767578125,-1.865123717533052,-1.4273931022644042,6.965448668709397
1761469605439419600,3.789419677734375,-3.455357896262407,-1.9666924330420792,9.963000253140926
1761469605449403600,3.799403564453125,-5.54630375483036,-2.695871653857827,11.983940263068675
1761469605459386600,3.80938671875,-6.274182560572028,-3.3084295514613387,11.74220772845745
1761469605469369600,3.81936962890625,-6.155711663970351,-2.820952031727135,10.176565846931934
1761469605479352800,3.829352783203125,-5.984183130919933,-1.2341175784386693,8.50577023101747
1761469605489335800,3.839335693359375,-5.280492425495386,0.5063385067444295,7.130200839492678
1761469605499318500,3.849318603515625,-4.654914887320995,1.7796898520059883,6.339425140333176
1761469605509301800,3.8593017578125,-4.4218215862393375,2.530990303736925,6.059684654366969
1761469605519284700,3.86928466796875,-4.049246456970274,2.9993843528166413,6.318838279378414
1761469605529267500,3.879267333984375,-3.568566342291236,2.686138195350766,6.551459871295094
1761469605539250700,3.889250732421875,-3.1436963776394724,2.0394119245551527,5.720382556885481
1761469605549233700,3.899233642578125,-2.4250267142698165,1.5087817840538917,4.243577481198311
1761469605559216600,3.909216552734375,-1.6901070501059292,1.1435543141338973,2.5558330685704944
1761469605569199600,3.91919970703125,-0.7681041408851742,0.9168786980748176,0.8044079186707734
1761469605579183600,3.92918359375,-0.019285715228319168,0.6652312109097838,-0.7514747853845357
1761469605589166600,3.93916650390625,0.6931777869775891,0.4166466915119439,-2.1845161226689815
1761469605599149800,3.94914990234375,1.3457041223540902,0.22663221530877053,-3.547000991693139
1761469605609132800,3.9591328125,1.8763801478236912,0.05200403574258089,-4.671755547484755
1761469605619115500,3.969115478515625,2.312370641426742,-0.21157105897292494,-5.63179651093781
1761469605629098800,3.9790986328125,2.457122518971562,-0.5331505988895893,-6.57013593019247
1761469605639081700,3.989081787109375,2.676645559862256,-0.8297112136881798,-7.438899708917736
1761469605649064700,3.999064697265625,2.833232544368505,-1.0680527906868607,-8.256976671978832
1761469605659045600,4.009045654296875,2.9865543895989655,-1.2353826299384236,-8.959361555501818
1761469605669028900,4.01902880859375,3.4048400074243546,-1.3497757557071746,-9.42215676166117
1761469605679011600,4.029011474609375,3.659525547111034,-1.3739955663368104,-9.589961305752396
1761469605688994600,4.03899462890625,3.7937417098551984,-1.3374898362383245,-9.444207849949597
1761469605698977800,4.048977783203125,3.8832080457687375,-1.2489533285208045,-9.100359341210126
1761469605708960800,4.058960693359375,3.8691444491028784,-1.2137673757839946,-8.59551246126294
1761469605718943500,4.068943603515625,3.80153514021039,-1.194484290904179,-7.944009039193391
1761469605728926700,4.0789267578125,3.8829023408204315,-0.7450509628821164,-7.180107902956008
1761469605738909700,4.08890966796875,4.364695969699323,-0.03431969129629433,-5.949937746968865
1761469605748892700,4.098892578125,4.4481788472890855,0.278884599789232,-4.419641904112696
1761469605758875600,4.108875732421875,4.114142122989893,0.4888325145397335,-2.493247725319862
1761469605768858600,4.118858642578125,2.9561496067240833,0.6575255319032818,0.46992637321352954
1761469605778841900,4.128841796875,0.25849983727782966,0.7417074976731092,4.183921761658787
1761469605788825900,4.138825927734375,-2.8037264638990163,0.6327091436199843,8.223592288771272
1761469605798808600,4.14880859375,-5.244629669475555,0.5885751106001437,11.560101102769375
1761469605808791600,4.15879150390625,-6.081718791520595,0.4369506438720971,13.889472271096706
1761469605818774800,4.16877490234375,-5.623506821498275,0.49925264013670384,14.51931565002203
1761469605828757800,4.1787578125,-4.735766831885278,0.9193926536571234,13.15300976140499
1761469605838740500,4.188740478515625,-4.215183161363005,0.9410488243438303,10.84888876966834
1761469605848723700,4.1987236328125,-3.986815719759464,0.3600826543774456,9.077235655254125
1761469605858706700,4.208706787109375,-3.198229639598727,-0.37053529400452967,8.357308685299754
1761469605868689700,4.218689697265625,-2.682757028479874,-1.1582994633231312,7.360604755359888
1761469605878672600,4.228672607421875,-2.1184823925301433,-1.4279706098914147,6.2025003031522035
1761469605888655600,4.238655517578125,-1.561906786650419,-1.397633339294791,5.172621833363175
1761469605898638800,4.248638916015625,-1.0024287373274565,-1.1662149856880306,4.273181761345267
1761469605908621600,4.25862158203125,-0.1437128898859024,-0.7996379277899861,3.2274457972109314
1761469605918605600,4.26860546875,0.7353337979227303,-0.5900974247965961,2.0759031877368685
1761469605928588500,4.278588623046875,1.5381535706192253,-0.4078124468669295,0.8346428979367018
1761469605938571800,4.28857177734375,2.137324163383245,-0.14108122620806096,-0.43659810410737987
1761469605948554800,4.2985546875,2.514595049253106,0.08925715014226734,-1.682307774531841
1761469605958537500,4.308537353515625,2.609025729575753,0.37448110902085896,-2.801112482008338
1761469605968520700,4.318520751953125,2.5591864706516265,0.5657441970456392,-3.8681203667521475
1761469605978503700,4.328503662109375,2.7155834855437275,0.5889003970317542,-4.845537412419915
1761469605988486700,4.338486572265625,2.473954411306977,0.4800288111634552,-5.743035118198394
1761469605998469600,4.3484697265625,2.190962230068445,0.35273090337514873,-6.612951574090123
1761469606008452600,4.35845263671875,2.140739524784684,0.12272227043583989,-7.530439928495883
1761469606018435800,4.368435791015625,2.204263025668263,0.0010196984365582465,-8.368495849746465
1761469606028418800,4.378418701171875,2.4139000478386876,0.18617964728064834,-8.785106227836012
1761469606038402600,4.388402587890625,2.6513629423066973,0.4173581277169287,-8.896889609497785
1761469606048385500,4.398385498046875,2.8427906463086603,0.6601490122746676,-8.78682472219169
1761469606058368800,4.40836865234375,2.8630992748439312,0.8424143356557935,-8.434104924732447
1761469606068351700,4.418351806640625,2.65989988450557,0.9293677389003336,-7.993820825588703
1761469606078334500,4.42833447265625,2.224608479082584,0.9609300212472677,-7.3238745688557625
1761469606088317700,4.438317626953125,1.5351163948804138,0.9843732214812189,-6.388531408807635
1761469606098300700,4.44830078125,1.0404112619802355,0.9196031546026467,-5.2615550853133195
1761469606108283600,4.45828369140625,0.7847790890932083,0.7594026557743548,-3.7440474123597145
1761469606118266600,4.4682666015625,0.8908101908385753,0.36231267845183607,-1.7987416123479603
1761469606128249600,4.47824951171875,0.9753580673113464,-0.2291529659580439,0.407099037900567
1761469606138232800,4.48823291015625,0.3324070772707462,-0.7130191633272915,2.698324307706952
1761469606148215800,4.4982158203125,-0.8349950723752378,-1.1601743172843009,4.930592361631989
1761469606158198500,4.508198486328125,-2.4279344184100626,-1.6541341117098927,6.960801135164499
1761469606168181800,4.518181640625,-4.668793775069713,-2.0556687934815883,8.98630743009448
1761469606178165800,4.528165771484375,-6.7722472330331795,-2.1023905049070715,10.53495492219925
1761469606188148700,4.538148681640625,-7.726132596465945,-1.2656123485073447,11.618321821069717
1761469606198131500,4.54813134765625,-7.548190104719996,0.11348529020883143,12.081426823830604
1761469606208114700,4.55811474609375,-7.276150694650411,1.2119915252178908,11.406740094572305
1761469606218097700,4.56809765625,-6.769881672945618,2.0473466630771755,10.424271026211976
1761469606228080600,4.57808056640625,-6.0516579997777935,2.645693372237682,9.171811297005414
1761469606238063600,4.588063720703125,-5.2934886851906775,2.6675240957736968,7.64253369128108
1761469606248046600,4.598046630859375,-4.334586954900622,2.3221434090308843,6.1671460811764
1761469606258029800,4.60802978515625,-3.2445679046645757,1.7766893550157545,4.649227489334344
1761469606268012800,4.6180126953125,-2.2186516165047885,1.0553720997467637,2.6169325571775435
1761469606277995500,4.62799560546875,-1.0764783084005116,0.4632304557714611,0.6054132865458727
1761469606287978800,4.637978759765625,0.06540186197608709,-0.01601363475508988,-1.2215829449057578
1761469606297962800,4.647962646484375,0.8175260511800646,-0.37385771642550825,-2.6709581618756055
1761469606307945700,4.65794580078125,1.257808396758139,-0.6587041472285986,-3.807522982448339
1761469606317928400,4.667928466796875,1.6755466098338365,-0.6632025546263903,-4.69630897398293
1761469606327911700,4.67791162109375,2.175676690392196,-0.43955125482454893,-5.389322218048572
1761469606337894700,4.687894775390625,2.724352190671861,-0.24694902715049682,-6.124076170256734
1761469606347877600,4.697877685546875,3.180252961142361,-0.08075038388594985,-6.89419954200983
1761469606357860600,4.707860595703125,3.5057249784529207,0.06181194772534072,-7.547221551948786
1761469606367843600,4.717843505859375,3.858695828063786,0.10879333300031721,-8.08114547329843
1761469606377826800,4.727826904296875,4.2113358382850885,0.15580124095603823,-8.57930892995894
1761469606387809800,4.737809814453125,4.6843367966383695,0.12878522373661397,-9.03048793260455
1761469606397792500,4.74779248046875,5.0834512655258175,-0.030201150061562657,-9.333669499912858
1761469606407775700,4.757775634765625,5.449648384195566,-0.19457023981139063,-9.454884726786613
1761469606417758700,4.7677587890625,5.784022962146997,-0.23061354002989828,-9.331544178321957
1761469606427742700,4.77774267578125,5.889921961945295,-0.1511097952041775,-9.026104018431901
1761469606437725700,4.7877255859375,5.545038849461078,-0.1934460580870509,-8.158340356659888
1761469606447708700,4.797708740234375,4.803318565371632,-0.07679433973655105,-6.7733741912364955
1761469606457691600,4.807691650390625,4.006108156989515,0.30123043324053284,-5.195392468097806
1761469606467674600,4.817674560546875,3.4127512189403175,0.7236412412371486,-3.5760008762061593
1761469606477657600,4.82765771484375,2.6898709521383046,1.0730016452658921,-0.8048539088726043
1761469606487640600,4.837640625,0.7611328405678272,1.2843950826495885,2.8815906248241663
1761469606497623800,4.847623779296875,-2.271869996473193,1.1788196887824685,6.377241368508338
1761469606507606800,4.857606689453125,-4.543745545904338,0.5545990451097488,9.665527126607298
1761469606517589500,4.867589599609375,-5.587134946912527,0.3273386149000376,12.029881345510482
1761469606527572700,4.87757275390625,-5.956957270342111,0.25157040334083136,13.122380814385414
1761469606537555700,4.8875556640625,-5.623293471008539,0.11000088215917349,12.304597281312942
1761469606547538700,4.89753857421875,-4.886330318318307,0.002994213379919529,10.041356581497192
1761469606557522700,4.907522705078125,-4.321185037013888,0.011792144602537155,8.221575103729963
1761469606567505700,4.917505615234375,-3.9954719044238325,-0.3559649899255484,7.354636202344298
1761469606577488600,4.927488525390625,-3.737608611483872,-1.081204240943864,7.322863345986605
1761469606587471600,4.9374716796875,-2.77646290165931,-1.3632412403494119,7.053631394553184
1761469606597454800,4.947454833984375,-1.8640096188113093,-1.3721478926435111,6.663025810813903
1761469606607437600,4.9574375,-1.3454939867347477,-1.322782827102393,6.083993750715256
1761469606617420800,4.9674208984375,-0.8906567538425326,-1.166974060427025,5.207500839042663
1761469606627403800,4.97740380859375,-0.1784711917951703,-0.7559352719247341,4.317596657133103
1761469606637386500,4.987386474609375,0.7176248304918408,-0.4761469282288104,3.1145658524841067
1761469606647369700,4.99736962890625,1.4273738130420446,-0.4955294548951089,1.4120055635184048
1761469606657352700,5.007352783203125,1.9814444503635167,-0.4956312347691506,-0.3643365854948759
1761469606667335700,5.017335693359375,2.441387774223089,-0.48203540174551307,-1.991720345184207
1761469606677318700,5.027318603515625,2.744278249630332,-0.41171551872007545,-3.409432011389732
1761469606687302700,5.037302734375,3.044126580862701,-0.36083259596191347,-4.643972637546062
1761469606697285600,5.04728564453125,3.2751603190660474,-0.47846221943385897,-5.6992935916274785
1761469606707268600,5.0572685546875,3.03573518461436,-0.5355101676277816,-6.39838761691153
1761469606717251800,5.067251953125,2.6633880188822743,-0.5557732034556567,-6.8291960317015645
1761469606727234600,5.077234619140625,2.3234058301821348,-0.4704395834326744,-7.095054707309603
1761469606737217800,5.0872177734375,2.1404557394072414,-0.4695226877834648,-7.486393866020441
1761469606747200800,5.09720068359375,2.1099448658093807,-0.5233428330373019,-7.967543644037843
1761469606757183500,5.10718359375,2.446656362275779,-0.39440358778275547,-8.329976441738008
1761469606767166700,5.117166748046875,2.8945386614635584,-0.2279064730282873,-8.520902918219566
1761469606777149700,5.127149658203125,2.993078822931647,-0.07902071054913103,-8.53169143873751
1761469606787132700,5.137132568359375,2.8324314571186897,0.09602956688664853,-8.265086913198232
1761469606797115600,5.14711572265625,2.6561086755290626,0.2796246045015752,-7.783488806891441
1761469606807098600,5.1570986328125,2.30596866542995,0.4130369035169482,-7.033053885948657
1761469606817081600,5.16708154296875,1.7385148149222134,0.46574046583101153,-6.085949560958147
1761469606827065600,5.177065673828125,1.1525544168651103,0.3212686473365873,-4.902987730869651
1761469606837048800,5.187048828125,0.7501824074864387,0.15209098826125264,-3.042840924966335
1761469606847031600,5.197031494140625,0.4595511096715927,0.006143836517259478,-0.4806348142325878
1761469606857014800,5.207014892578125,0.24218057063966988,0.05771766414903104,2.8024574668765068
1761469606866997800,5.216997802734375,-0.9702218734666704,-0.25890607999116183,6.261585529327392
1761469606876980700,5.226980712890625,-3.20814605345726,-0.9181210993513464,9.039903411203623
1761469606886963700,5.236963623046875,-5.06306314201355,-1.878173607111722,10.794985330045222
1761469606896946700,5.24694677734375,-5.366593668889999,-1.9004050204031169,11.17854742501378
1761469606906929700,5.2569296875,-5.305996869108081,-0.8403171441808343,10.210556963860988
1761469606916912600,5.26691259765625,-5.6155468024045225,0.39622050101161,8.72697844851613
1761469606926895600,5.2768955078125,-5.571247641950845,1.6690807748205958,7.569143460899591
1761469606936878600,5.286878662109375,-4.855086162009835,2.7319565281957385,6.949094915279746
1761469606946862600,5.296862548828125,-4.492270794732868,3.515991520923376,6.6896262329697604
1761469606956845800,5.306845703125,-4.337454327030479,3.782687231877446,6.536241843897104
1761469606966828500,5.31682861328125,-3.9932454605460164,2.9909403495982287,6.273814896303415
1761469606976811500,5.3268115234375,-3.452523257358372,1.9886793700531125,5.178837639138102
1761469606986794800,5.336794677734375,-2.8369086025327444,1.227180764912814,3.7353842134326696
1761469606996777700,5.34677783203125,-2.0524451552599667,0.5902620407737791,1.9561118561863897
1761469607006760700,5.3567607421875,-1.30833885281682,0.032319165128841996,0.2104325564622879
1761469607016743700,5.36674365234375,-0.6405787079513072,-0.4096318443138152,-1.2132511698901653
1761469607026726700,5.3767265625,-0.09059387863874435,-0.6998073611851782,-2.4772809253811836
1761469607036710000,5.3867099609375,0.3475029395937919,-0.9768073893368243,-3.539167813849449
1761469607046692600,5.396692626953125,0.7848416329354048,-1.1306642912920564,-4.3118040452063084
1761469607056675600,5.406675537109375,1.155522619020939,-1.2559855652451515,-4.892480949902534
1761469607066658800,5.416658935546875,1.4580217570230365,-1.2545748216643928,-5.209397612574696
1761469607076641500,5.4266416015625,1.6773662264764309,-1.2586658903703092,-5.646646874067187
1761469607086624500,5.43662451171875,1.9608760018482803,-1.214995675469935,-6.143754099673032
1761469607096608500,5.4466083984375,2.3583517636179923,-1.1544842158839106,-6.575242313420772
1761469607106591700,5.456591796875,2.750329512493312,-1.020861342857778,-7.0274670257270335
1761469607116574700,5.46657470703125,3.0988109417304397,-0.8327511659059673,-7.408567114496231
1761469607126557700,5.4765576171875,3.5235733543545007,-0.5318566866215318,-7.619434555244445
1761469607136540700,5.486540771484375,4.01119057482034,-0.24691132548861205,-7.596752183315157
1761469607146523600,5.496523681640625,4.154670532733202,-0.022225787268206475,-7.40235949202776
1761469607156507000,5.5065068359375,4.244667614522576,0.1292909813016653,-7.179561959511041
1761469607166489600,5.516489501953125,4.35898548309803,0.10260529201515019,-6.849673002541064
1761469607176472600,5.52647265625,4.08915673481524,-0.10375080878846346,-6.458201741883158
1761469607186455800,5.536455810546875,3.6955887941390273,-0.3379406729351729,-5.910773611316085
1761469607196438500,5.5464384765625,3.403740521749854,-0.2581487588178366,-5.007556943368911
1761469607206421500,5.55642138671875,3.2173096031218766,-0.14873678246252237,-3.724075468432903
1761469607216405500,5.566405517578125,3.0226117914080617,-0.04127214078269899,-2.1800439456909895
1761469607226388700,5.576388671875,2.4736554283604026,0.400565471413359,0.020140286231040954
1761469607236371700,5.586371826171875,1.4362886486425994,1.0554524715065956,2.8238106360286475
1761469607246354700,5.596354736328125,-0.6265481367722153,1.5431198147244751,5.780085038176178
1761469607256337700,5.606337646484375,-2.6740327470153566,1.7148619905255733,8.398485914340615
1761469607266320600,5.616320556640625,-4.253292235004902,1.3224886664614082,10.754728138458729
1761469607276304000,5.626303955078125,-5.230120082607865,0.23342706308066843,12.783386175417899
1761469607286286600,5.63628662109375,-5.19189644267559,-0.5999451573330908,13.523947352600096
1761469607296269600,5.64626953125,-5.379670592606067,-0.6828150175910442,12.727851919722557
1761469607306252800,5.656252685546875,-5.798702060362697,-1.0858577658381312,11.447194854557514
1761469607316235800,5.66623583984375,-5.1931262767314905,-1.0780773410949855,10.667551374787092
1761469607326218500,5.676218505859375,-4.557249755121767,-1.240314825643599,9.488871752062439
1761469607336201700,5.68620166015625,-3.587148585425317,-0.9910203313454985,7.927918905135988
1761469607346184700,5.696184814453125,-2.517474404081702,-0.5398821721669286,6.359793390101194
1761469607356168700,5.706168701171875,-2.0385113224536178,-0.20263518058434127,4.679525012442469
1761469607366151700,5.716151611328125,-1.5382038395017386,0.16782449090071022,2.7996096762299536
1761469607376134700,5.726134765625,-0.5199839510634541,0.3501402292948216,1.0770669219434261
1761469607386117600,5.73611767578125,0.7294128834411502,0.36174328106604514,-0.1743330690771341
1761469607396100900,5.746100830078125,1.771755698005855,0.3866608647014946,-1.1518903999984265
1761469607406083600,5.75608349609375,2.5092265079572798,0.3671135759275406,-2.044022194829583
1761469607416066600,5.766066650390625,3.2097295232564207,0.3529256952948868,-2.712124869522452
1761469607426049800,5.7760498046875,3.6929791961625216,0.4310625356815755,-3.0811697788387535
1761469607436032800,5.78603271484375,3.6406329228535292,0.3247676684334874,-3.4580016887694596
1761469607446015500,5.796015380859375,3.381471991318464,0.11828355733603238,-4.01750311896801
1761469607455998700,5.805998779296875,3.0345535736143585,-0.0833464647937566,-4.676075748771429
1761469607465981700,5.815981689453125,2.8344179547607897,-0.2544639328252524,-5.445039429095387
1761469607475964700,5.825964599609375,2.9946751522123813,-0.3948771235786378,-6.454764753171801
1761469607485948700,5.83594873046875,3.3601994861871,-0.5386428396303207,-7.37634125367403
1761469607495931600,5.845931640625,3.6594244248241186,-0.7414899824649095,-8.23103617503643
1761469607505914600,5.85591455078125,3.949936480173468,-0.9541578236985951,-8.904482548844813
1761469607515897900,5.86589794921875,3.869454830226302,-1.0501095030434429,-9.158550248894095
1761469607525880600,5.875880615234375,3.111831166823208,-0.7910673025172203,-8.73113732176125
1761469607535863600,5.885863525390625,1.9260200847834348,-0.43095841771997506,-7.596041404697298
1761469607545846800,5.8958466796875,0.7068991460770369,-0.4742907059028744,-6.113513859710097
1761469607555829800,5.905829833984375,0.28820377840697764,-0.7662333055119961,-4.487784881490469
1761469607565812500,5.9158125,0.18494301815778016,-1.1650528100408613,-2.8618004672050477
1761469607575795700,5.925795654296875,0.3571469662517309,-1.396458742557466,-1.0058359154224394
1761469607585778700,5.93577880859375,0.3796118960380554,-1.284330785241723,1.4363491466581821
1761469607595761700,5.94576171875,-0.22267302935421465,-1.2449392705738545,4.190909136328101
1761469607605744600,5.95574462890625,-1.2856184869647025,-1.4864317128188906,6.414047542858124
1761469607615727600,5.9657275390625,-2.241964103031158,-1.8907295756936071,8.029390736141801
1761469607625711600,5.975711669921875,-3.2501538881033656,-2.168490578280389,8.49398276259005
1761469607635694800,5.98569482421875,-3.708220896697044,-1.443835410760343,7.743015926727652
1761469607645677600,5.995677490234375,-3.561251927624643,0.3285699102606624,6.567334316775202
1761469607655660500,6.00566064453125,-4.331576667168736,1.9638859973192213,5.4194075597107405
1761469607665643800,6.015643798828125,-4.553881447732448,3.154319770723581,4.669093634799123
1761469607675626800,6.025626708984375,-4.634156761452555,3.9057784817561503,4.377034350007772
1761469607685609500,6.035609375,-4.747219077008962,4.248827072289586,4.415696965879202
1761469607695592700,6.0455927734375,-4.47968925331831,4.355516637943685,4.616317153379321
1761469607705575700,6.05557568359375,-3.7019758648276326,3.856243174214661,4.543855728280544
1761469607715558700,6.06555859375,-2.746804553237557,2.8197634064644572,3.9090176098078486
1761469607725541600,6.075541748046875,-1.5480086096793413,1.8680764298588037,2.6077047101050614
1761469607735524600,6.085524658203125,-0.23183511771410703,1.4614597686477004,1.0160773234516383
1761469607745507800,6.0955078125,0.896426277154684,1.2587504999138415,-0.46820086459517474
1761469607755490800,6.10549072265625,1.3225374740391969,1.090662170445174,-1.6252268739163875
1761469607765474600,6.115474609375,1.6711843229711054,0.6264949452802538,-2.538041975814104
1761469607775457500,6.12545751953125,2.038485603490472,-0.0375640069797635,-3.1829245184391737
1761469607785440800,6.135440673828125,2.454303369897604,-0.455143522362411,-3.5320892537653443
1761469607795423700,6.145423828125,2.6364853989094494,-0.7475127498857677,-3.7840795630186794
1761469607805406500,6.155406494140625,2.6400229253858325,-0.8440170216120779,-4.101832676514983
1761469607815389700,6.1653896484375,2.934738277643919,-0.8883956770427525,-4.545175578707457
1761469607825372700,6.17537255859375,3.376440426892042,-0.8862688941471278,-4.924574124255776
1761469607835355600,6.185355712890625,3.788310332456231,-0.8432541474808007,-5.3834091946125024
1761469607845338600,6.195338623046875,4.194598053973913,-0.8378050152294337,-5.871716443169117
1761469607855321600,6.205321533203125,4.757151272958517,-0.8100403715997934,-6.008553602066636
1761469607865304800,6.215304931640625,5.321400189945101,-0.8508796008579432,-6.108210492604971
1761469607875287800,6.225287841796875,5.3390211868315935,-0.8981238748528063,-6.138173084670305
1761469607885270500,6.2352705078125,4.899982703834771,-0.7919828829921781,-5.941960776740312
1761469607895253800,6.245253662109375,4.157287437233329,-0.4017540236108005,-5.3842164193421596
1761469607905237800,6.25523779296875,3.582894142851233,0.05121843832284212,-4.2039679398655885
1761469607915220700,6.265220703125,2.952970099905133,-0.015055676443129776,-2.874183563438058
1761469607925203500,6.275203369140625,2.4496394697397945,-0.2165063234180212,-1.533693084079027
1761469607935186700,6.285186767578125,1.6773521979510784,-0.37529359444752336,-0.4305056324511766
1761469607945169700,6.295169677734375,-0.7786877864807844,0.549810203398019,1.0641530798345804
1761469607955152600,6.305152587890625,0.11569675571322441,1.4987817835651338,3.7096529753267764
1761469607965135600,6.315135498046875,-1.9141455225944517,1.130538399890065,4.809599253076315
1761469607975118600,6.32511865234375,-3.758339557084441,1.4211344802610575,5.1078258283257485
1761469607985101000,6.33510107421875,-3.747656250506639,1.4384027181871235,5.53326716312468
1761469607995084000,6.345083984375,-3.6309283981800076,1.1979415186859668,5.824774659252166
1761469608005067000,6.35506689453125,-3.646034197375178,0.7958832514315843,5.595035344773531
1761469608015050000,6.365050048828125,-3.4964731659829615,0.39396687686592335,5.241204371201992
1761469608025033000,6.375032958984375,-3.358813000264764,0.2176075626581907,5.20370261580348
1761469608035017000,6.385016845703125,-3.392181016859412,-0.008637772224843502,5.537684395045042
1761469608045000200,6.395000244140625,-3.749454239839315,-0.39779505685195327,6.058885028421878
1761469608054983200,6.404983154296875,-3.679858141043782,-0.9247830414585768,6.300398951846361
1761469608064966000,6.4149658203125,-3.2703158016443252,-1.4642920694641768,6.09254530596137
1761469608074949000,6.42494921875,-2.646863000538945,-1.654729301124066,5.436545741516351
1761469608084932000,6.43493212890625,-1.7284394111096857,-1.566083633943647,4.164765225768089
1761469608094915000,6.4449150390625,-0.6231441735476255,-1.3572056134469805,2.7414871576070783
1761469608104898000,6.45489794921875,0.504041993305087,-1.033438061966747,1.6549012966901062
1761469608114881000,6.464881103515625,1.6410983967870474,-0.6752570764921605,0.6167717159062623
1761469608124864000,6.474864013671875,2.5797663173437115,-0.4138625406861305,-0.30209844824671744
1761469608134847000,6.484846923828125,3.114623135629296,-0.23883301377743482,-1.082071013841033
1761469608144830000,6.494829833984375,3.355670026063919,0.003245119401067495,-1.7152046664834022
1761469608154813000,6.50481298828125,3.5572798091232776,0.1671675613619387,-2.304565812894702
1761469608164796200,6.514796142578125,3.647573243510723,0.32390199151486154,-2.8856220722973345
1761469608174779000,6.52477880859375,3.461400683557987,0.43078678748011584,-3.50962432397902
1761469608184763000,6.534762939453125,3.2211797225534915,0.43296661573722955,-4.283828243044018
1761469608194746000,6.54474609375,2.7777152398079634,0.2322048278093338,-4.970567229145765
1761469608204729000,6.55472900390625,2.2491420318365094,-0.047853638064861294,-5.323507975879311
1761469608214712000,6.564712158203125,2.0090268692940474,-0.22374168149903415,-5.374093669256568
1761469608224695000,6.574695068359375,2.066704566758871,-0.3035841567598283,-5.51060875659287
1761469608234678000,6.584677978515625,2.0265853223383425,-0.37877778330147266,-5.515125357234478
1761469608244661000,6.594660888671875,1.8584891018241643,-0.42603345547318455,-5.352139611601829
1761469608254644200,6.604644287109375,1.5431734446078538,-0.5195727399140596,-5.028025146380067
1761469608264627000,6.614626953125,1.1700731224209069,-0.6940051777124404,-4.585837843963503
1761469608274610000,6.62460986328125,0.8950468054950237,-0.851343565107882,-3.9170764131009577
1761469608284593200,6.63459326171875,0.5492343032062054,-0.8521284318752587,-2.8537083461642263
1761469608294575900,6.644575927734375,-0.3790308812797069,-0.7993181943163276,-1.331439157897234
1761469608304559000,6.65455908203125,-1.5131974085390567,-0.804380007750541,0.6958359002709388
1761469608314542000,6.6645419921875,-2.2452689897954463,-0.790032333446294,2.8168261839687823
1761469608324525000,6.674525146484375,-2.725378318849206,-0.7150302839539945,4.461450416794419
1761469608334509000,6.684509033203125,-3.268064807847142,-0.6465377624861895,5.3562979003250595
1761469608344492000,6.694491943359375,-3.9904438471287484,-0.5340383415095508,5.700019567814469
1761469608354475000,6.70447509765625,-4.623344860059023,-0.07334259184747934,5.790184991908073
1761469608364458000,6.7144580078125,-4.700149867320061,0.7115659688442945,5.478596830782294
1761469608374441200,6.724441162109375,-4.568469945055246,1.2903956382386386,4.728365907979011
1761469608384424000,6.734423828125,-4.537340062776208,1.6562715621300041,3.8390152682989833
1761469608394407000,6.744406982421875,-4.470415229016542,1.8782289905607699,2.9949089609682558
1761469608404390100,6.75439013671875,-4.113416731324792,1.9121267301179468,2.356871169671416
1761469608414373000,6.764373046875,-3.35078108497858,1.781707183177769,1.7615718653827905
1761469608424356000,6.774356201171875,-2.3549884246647355,1.6561590416662395,1.1216308708131313
1761469608434339000,6.784339111328125,-1.47730834903419,1.585364819127321,0.6172089382797479
1761469608444322000,6.794322021484375,-0.7218880408942699,1.4284779748916625,0.18858838892281055
1761469608454305000,6.804304931640625,-0.3179378224134445,1.1532628573954105,-0.3007049480617046
1761469608464289000,6.8142890625,-0.042000820383429525,0.7451563960179686,-0.7026660385519266
1761469608474272000,6.82427197265625,-0.2581663675397634,0.37228593706414104,-0.661073798969388
1761469608484255000,6.8342548828125,0.07050970650911331,0.32719971788600083,-1.613776674619317
1761469608494238200,6.84423828125,0.31446050169169903,0.20806758089661598,-2.0897692160040138
1761469608504221000,6.854220947265625,0.5711585502445697,-0.09512319263145327,-2.206818555369973
1761469608514204000,6.864203857421875,1.026404071676731,-0.28983503287062046,-2.6889690348625184
1761469608524187100,6.874187255859375,1.57630297627151,-0.42556554570049043,-3.3419407759189603
1761469608534170000,6.884170166015625,1.877266283008456,-0.4118178831160068,-3.8379146135807036
1761469608544153000,6.894153076171875,1.9287655840992926,-0.22429522372856736,-4.088662813818455
1761469608554136000,6.904135986328125,2.320155011692643,-0.065991352301836,-4.411140033227205
1761469608564119000,6.914119140625,2.785438527536392,-0.05576762605980038,-4.479789791083336
1761469608574102000,6.92410205078125,3.2562551275879144,0.009940671516954899,-4.008920584061742
1761469608584085000,6.9340849609375,3.5299206775546073,-0.05778685692772269,-3.6476340337872504
1761469608594068000,6.94406787109375,3.5906443185865875,0.03067556264027953,-3.4833997493982314
1761469608604051200,6.95405126953125,4.035778195849061,0.16068579812720418,-3.3650334822148085
1761469608614035200,6.96403515625,4.287882486870885,0.0703664986461401,-3.3764830969899893
1761469608624018000,6.974017822265625,4.012880135342479,-0.060853551021963354,-3.362433528849482
1761469608634001000,6.9840009765625,3.7217210142612456,-0.15445874030590057,-3.1155946110099553
1761469608643984100,6.993984130859375,3.278762142950296,-0.2628001648202538,-2.6625387085765597
1761469608653967000,7.003967041015625,2.6389614336341616,-0.1917360392987728,-1.7270219455271958
1761469608663950000,7.0139501953125,1.7423790891349316,0.02845613302513957,-0.5715963571399449
1761469608673933000,7.02393310546875,0.6318535497039556,0.1507560863956809,0.4170937776923179
1761469608683916000,7.033916015625,-0.4679641332298517,0.3039247868910432,1.4099825332581997
1761469608693899300,7.043899169921875,-1.111733746176958,0.37800957540795205,2.6085014134407043
1761469608703882000,7.053882080078125,-1.6750392448335885,0.12604396220445632,3.624832419392466
1761469608713865000,7.063864990234375,-2.1074410662949083,-0.1702127742767334,4.399001267144084
1761469608723848200,7.07384814453125,-2.1209435219466686,-0.21413871750384567,4.924837743628025
1761469608733831000,7.083830810546875,-1.8746727593839168,-0.1992639505855739,5.058376445502042
1761469608743814000,7.09381396484375,-1.9678490557312964,-0.5620059603653847,4.907301502415538
1761469608753797000,7.103797119140625,-2.3489362850189206,-1.1515231741212308,4.774160859948396
1761469608763781000,7.113781005859375,-2.8171237056106326,-1.6236644469052552,4.973921800270676
1761469608773764000,7.12376416015625,-2.9923996084958313,-2.012518364671618,5.239854125636816
1761469608783747000,7.1337470703125,-3.0203941153585907,-2.1002049775615332,5.3462581523478026
1761469608793730000,7.14372998046875,-2.824322092682123,-1.9302942549712956,5.1139995485246175
1761469608803713000,7.153713134765625,-2.2293664872646333,-1.768036239091307,4.509429142543674
1761469608813696300,7.1636962890625,-1.3817115475416182,-1.591827585400641,3.6838778980791567
1761469608823679000,7.173678955078125,-0.6166384449154139,-1.484586669474095,2.756481897643208
1761469608833662000,7.183661865234375,0.08769055841267108,-1.3128313419304787,1.8317174147546291
1761469608843645200,7.193645263671875,0.9031506169736385,-1.2243242064379154,1.0003829107135533
1761469608853628200,7.203628173828125,1.7935434591829775,-1.1806909625470638,0.31459435720443724
1761469608863611000,7.21361083984375,1.9813532649487255,-0.7276908819541335,-0.4301531657516956
1761469608873594000,7.223593994140625,1.987759040337801,-0.1357036248229444,-1.3891051649242638
1761469608883577000,7.2335771484375,2.078778450912237,0.35873788870498535,-2.280685755613446
1761469608893559800,7.243559814453125,1.7354256167352198,0.7364006965018809,-3.040392947292328
1761469608903544000,7.2535439453125,1.2632055796265602,0.9653244568139314,-3.626856618696451
1761469608913527000,7.263527099609375,0.9724784202218055,0.8678058934785425,-4.143659893897175
1761469608923510000,7.273510009765625,1.2882184403300285,0.5261676081344485,-4.670685287904739
1761469608933493200,7.2834931640625,1.9271856214314698,0.17750424645915627,-4.960920864400268
1761469608943476000,7.29347607421875,2.36646901910007,0.04467705385535955,-5.03626105980575
1761469608953459000,7.303458984375,2.7412054180562495,0.00017097265273332594,-5.045487737834454
1761469608963442200,7.313442138671875,3.033725306096673,-0.05104118205979466,-4.89735586246252
1761469608973425200,7.323425048828125,2.980248567453027,-0.1987805509828031,-4.559108826991915
1761469608983412500,7.33341259765625,2.5185516779243944,-0.37902664349600673,-3.9888714832454917
1761469608993395500,7.3433955078125,1.7672171777933834,-0.4877583825021982,-2.8987966111689802
1761469609003378400,7.35337841796875,0.9226882611364126,-0.6643490212477743,-1.4343763852804898
1761469609013361400,7.363361328125,0.31675942628383635,-1.0325659553073345,-0.07785773118436336
1761469609023344600,7.3733447265625,-0.3957236574053764,-1.1804472169190645,0.8965788373678922
1761469609033327400,7.383327392578125,-1.3250059099793434,-0.9497098313137888,1.4183715914189814
1761469609043311400,7.393311279296875,-1.936344494920969,-0.5133779769271611,1.616223483249545
1761469609053294300,7.40329443359375,-2.6755232778340576,-0.07342164843305946,1.7954665362000464
1761469609063277600,7.413277587890625,-3.4122552521169185,0.212709561483562,1.8934552012652157
1761469609073260500,7.423260498046875,-3.8939375295758247,0.3711756377346813,1.759217411211133
1761469609083243300,7.4332431640625,-4.061608218154311,0.46804625855535265,1.676929588624835
1761469609093226500,7.4432265625,-3.7371816182434556,0.5648363614857197,1.653077588394284
1761469609103209500,7.45320947265625,-3.182289143145084,0.6560835894666611,1.6994389420747755
1761469609113192400,7.4631923828125,-2.6908599631756545,0.8660903217323124,1.8935744437307118
1761469609123175400,7.473175537109375,-2.366789337095618,1.227587738278508,2.2127023527115584
1761469609133158400,7.483158447265625,-2.244073642531037,1.5378132327489553,2.3064485579013825
1761469609143141600,7.4931416015625,-1.5189023421823977,1.6340506702326236,1.9326719438880682
1761469609153124600,7.50312451171875,-2.3625445391327142,1.5724752346768975,1.6348942814499139
1761469609163107300,7.513107421875,-4.449421540826559,1.8841617416106162,1.8073972124904394
1761469609173090600,7.523090576171875,-3.4346921248525377,1.3980256996132432,1.6408593273341654
1761469609183074600,7.533074462890625,-2.306369062924385,0.8505237731575965,1.1326713202655314
1761469609193057500,7.5430576171875,-1.645450162255764,0.5857140220806002,0.39912908193469043
1761469609203040300,7.553040283203125,-1.1091291166365147,0.37377515270859,-0.1561953548401594
1761469609213023500,7.5630234375,-0.984357658585906,0.07869184392094612,-0.6848544875293969
1761469609223006500,7.57300634765625,-1.4047949014872312,-0.1704242250703275,-1.494061915436387
