time,seconds_elapsed,z,y,x
1761469383263861800,0.11286181640625,6.654060414069891,-0.42295434028878803,-3.862738673713803
1761469383273844500,0.122844482421875,6.517101674619317,-0.6755329708240926,-3.4139410132467747
1761469383283828500,0.132828369140625,6.052943947935104,-0.9007070232138037,-2.617955470484495
1761469383293811500,0.1428115234375,5.100409999111294,-0.9464240876413881,-1.5581442192465067
1761469383303794700,0.152794677734375,3.730674136045575,-1.0377630855590105,-0.6133510938078165
1761469383313778700,0.16277880859375,1.6127251197397707,-0.6142664550870657,0.5902975504785776
1761469383323761400,0.172761474609375,-1.3771154519230127,0.06646130790114402,2.216369058525562
1761469383333744600,0.18274462890625,-4.3654152238845825,0.48381651300862427,4.052781937620043
1761469383343728600,0.192728759765625,-6.073681031015515,0.6446066482931375,6.032855684152246
1761469383353711600,0.202711669921875,-7.913175509512424,1.3260261929377912,6.607300416460633
1761469383363694600,0.212694580078125,-8.220286232963204,0.42631490276306866,6.733103555646538
1761469383373678300,0.22267822265625,-7.853739570203423,-0.01702142355814576,6.3647513047695154
1761469383383661600,0.23266162109375,-7.41151544290781,0.049554596763849254,5.4134173793852325
1761469383393644500,0.24264453125,-6.392993648913502,-0.04967551972977817,4.843025137338042
1761469383403628500,0.252628662109375,-5.238161934766173,-0.13532302800752222,5.033999544614553
1761469383413611800,0.26261181640625,-4.481929141199588,-0.13581811804808674,5.611916921469569
1761469383423594500,0.272594482421875,-3.9806431686043737,-0.32083697792105376,5.775663714602589
1761469383433577500,0.282577392578125,-3.487122569313645,-0.465157697506994,5.478700291156769
1761469383443561500,0.2925615234375,-2.4630022246599195,-0.4134865469805896,4.709077854663134
1761469383453544700,0.302544677734375,-1.3603572093456984,-0.4470567350838333,3.6763720524936914
1761469383463527400,0.31252734375,-0.40240591164827344,-0.4476967865530401,2.5456647257775065
1761469383473511400,0.322511474609375,0.17016133635044098,-0.48826698961146175,1.2996364909231661
1761469383483494400,0.332494384765625,0.355604412984848,-0.540712704706937,0.03221358586251735
1761469383493477600,0.3424775390625,0.22170915275812147,-0.5475209234170615,-1.216118249759078
1761469383503461600,0.352461669921875,-0.12901391792595385,-0.6864902720376849,-2.2397131092339753
1761469383513444600,0.362444580078125,0.17583587485551833,-0.9597162615433334,-2.753627092733979
1761469383523427600,0.372427490234375,0.024649872609972954,-1.0136990500129759,-3.2738416376829145
1761469383533411600,0.38241162109375,0.14941022474467752,-1.1314029077649115,-3.6125042682170867
1761469383543394600,0.39239453125,0.901297682583332,-0.992240082398802,-3.6117841372489927
1761469383553377500,0.40237744140625,1.6221213091164826,-0.8102477307401597,-3.6505274171411988
1761469383563361500,0.412361572265625,2.0907178950309753,-0.9006060470573604,-4.0100773528814315
1761469383573344500,0.422344482421875,2.646756617555022,-0.9414673420168459,-4.458779736280441
1761469383583327500,0.432327392578125,3.418179381468892,-0.9189606189154088,-4.74093897382617
1761469383593311500,0.4423115234375,4.2284073845952745,-0.7852882076591253,-4.844826049280166
1761469383603294700,0.452294677734375,5.013634801977872,-0.5869315811768174,-4.769278933125734
1761469383613277400,0.46227734375,5.585900436681508,-0.24115707281082868,-4.829662966939806
1761469383623261400,0.472261474609375,5.940609946653247,-0.024058044196665285,-5.028982593235373
1761469383633244400,0.482244384765625,6.124600486391782,0.02935191282108426,-5.105364991170168
1761469383643227600,0.4922275390625,6.196772573155164,0.029675445687025785,-4.947050159958005
1761469383653210600,0.502210693359375,5.925769520395994,-0.08033581173568964,-4.432483850029111
1761469383663194600,0.512194580078125,5.245708696883916,0.004868044427782297,-3.7499265335261818
1761469383673177600,0.522177490234375,4.2207478097528215,0.30545243484973905,-2.994185322868824
1761469383683160600,0.53216064453125,3.0016397305279967,0.7673113830722867,-1.8073469436079264
1761469383693144600,0.54214453125,1.7618173645764588,1.3163468027055263,-0.4490495894014835
1761469383703127600,0.55212744140625,0.15296937853097914,1.5188354144260285,1.1194669707775116
1761469383713110500,0.562110595703125,-2.3747148693978786,1.4579663735739885,2.612828044468164
1761469383723094500,0.572094482421875,-5.033433142903447,1.1694636122204363,3.987660938411951
1761469383733077500,0.582077392578125,-6.827050836366414,0.6585030716985464,5.295785271695256
1761469383743060500,0.592060546875,-7.35970400712788,0.1754683567173779,6.354275503462553
1761469383753044500,0.60204443359375,-7.901831108677387,-0.0837454740487039,6.707853379055857
1761469383763027700,0.61202783203125,-8.173921372151375,-0.501926170194894,6.751519502303004
1761469383773010400,0.622010498046875,-7.748340921142697,-0.31263080204650756,6.614364363497495
1761469383782994400,0.631994384765625,-7.098133384102582,0.16714549566060305,6.138206986939907
1761469383792977700,0.641977783203125,-6.740892894348502,0.4013591790743172,5.448299307674169
1761469383802960600,0.651960693359375,-6.912552360302209,0.649846302512288,4.678186457315087
1761469383812944600,0.661944580078125,-6.854694045573472,0.8108435046762228,4.257839230784773
1761469383822927400,0.67192724609375,-6.038058513492345,0.9014230625286698,4.383741154170036
1761469383832910600,0.68191064453125,-4.327718238174915,0.9761335817284882,4.1720431078165765
1761469383842893600,0.6918935546875,-2.8036545677065847,0.9854999604888259,3.262214328253269
1761469383852877600,0.701877685546875,-1.4912901126354932,0.4277141020365059,1.7904577681273222
1761469383862860500,0.711860595703125,-0.3511351586163044,-0.42864670671150085,0.31307693837881084
1761469383872843000,0.721843017578125,1.2191162625312804,-0.6919897462368011,-1.0399386760324238
1761469383882827000,0.731826904296875,2.3118080391079188,-0.48850028691068287,-2.4108751470595595
1761469383892810000,0.74181005859375,2.8469477659881113,-0.5558665808275342,-3.716893447974324
1761469383902793000,0.75179296875,3.072890026271343,-0.5441936786904931,-4.900010176363587
1761469383912777000,0.76177685546875,3.229261322200298,-0.45727381238937376,-5.907115088808536
1761469383922760000,0.771760009765625,3.444458901107311,-0.44026422539949417,-6.532398612472415
1761469383932743200,0.7817431640625,3.666556760922074,-0.31289836694151163,-6.786068837636709
1761469383942727000,0.791726806640625,3.7279981948345897,-0.42907720708325503,-7.053320428907871
1761469383952710000,0.8017099609375,3.902659180691838,-0.516666497078538,-7.48915456290543
1761469383962692900,0.81169287109375,4.161084491428733,-0.2436652562394738,-7.865996994230151
1761469383972677000,0.821677001953125,4.305397100773454,-0.4219667905561626,-8.264751982155442
1761469383982660000,0.83166015625,4.315758335790038,-0.40871874805688857,-8.664400704050063
1761469383992642800,0.841642822265625,4.358447430698574,-0.30108605633378027,-8.88690305301249
1761469384002626800,0.851626708984375,4.319461281961202,-0.11281900831982493,-9.065750969165563
1761469384012610000,0.861610107421875,4.288321462810039,0.14149740579351783,-8.762360143020748
1761469384022593000,0.871593017578125,4.520354441183805,0.13735592207461594,-7.672767501503229
1761469384032576000,0.881575927734375,4.6957098390460015,-0.0820509450905025,-6.167531281101703
1761469384042559700,0.891559814453125,4.349306092865765,-0.4558949252516031,-4.456779502373934
1761469384052543000,0.90154296875,3.052692456895113,-0.4170117984972894,-2.4496172579079865
1761469384062526000,0.91152587890625,0.8927414511620998,-0.29368454790562387,-0.059791913139820095
1761469384072510000,0.921510009765625,-1.5945961733311413,0.10564765538573265,2.6868343609213827
1761469384082493200,0.9314931640625,-3.7613843316078186,0.9194570241302251,5.650170372018218
1761469384092476000,0.941475830078125,-5.324178422486781,1.8708420951798557,8.33851513750255
1761469384102460000,0.9514599609375,-6.506767912131547,2.0177917750298975,10.516797334218024
1761469384112443000,0.96144287109375,-7.378006556537747,0.8543332484431564,12.375811921221016
1761469384122426000,0.971426025390625,-7.087186458152532,0.10403773597106337,12.119652217328548
1761469384132410000,0.98141015625,-6.495713434153795,0.2793440339945257,11.137358505535126
1761469384142392800,0.991392822265625,-5.820941949221491,0.2526641168616712,10.783713409924507
1761469384152376000,1.0013759765625,-4.823429625508189,0.13516878729388118,10.549794763934612
1761469384162360000,1.011360107421875,-4.057287432345747,0.02793532402142882,10.517079073768853
1761469384172343000,1.021343017578125,-3.601816869986057,0.29705373207777735,10.554230116033553
1761469384182326000,1.031325927734375,-3.0117724174857137,0.6127252169944346,10.203895752406119
1761469384192309800,1.041309814453125,-2.2872475983470677,0.7853868457280099,9.435374555152654
1761469384202293000,1.05129296875,-1.7186545146763323,1.0845257135167716,8.066762727680802
1761469384212276000,1.06127587890625,-1.1638356893360615,1.0243217124447226,6.027690264213085
1761469384222259000,1.071259033203125,-0.32595161752104757,1.1379005992211402,3.8427076930761337
1761469384232243000,1.081242919921875,0.6775894649624824,1.0816619946487247,1.7071458631902932
1761469384242226000,1.091225830078125,1.7219044563829897,1.090786965868622,-0.42409985706210135
1761469384252209000,1.101208984375,2.5635090100258586,1.159256690982729,-2.437422962245345
1761469384262193000,1.11119287109375,3.1505648021042347,1.1454495532959699,-3.7419898953080173
1761469384272176000,1.121176025390625,3.348591465979814,0.8424212768532335,-4.5307150916785
1761469384282158800,1.131158935546875,3.519827153563499,0.5221669941909611,-4.9239445941805835
1761469384292142800,1.141142822265625,3.97123178165853,0.27735709796100855,-5.412696079373359
1761469384302125800,1.151125732421875,4.394432644054294,0.23633681304752827,-5.9684828729629515
1761469384312109000,1.161109130859375,5.199249143525957,-0.0488642764121294,-6.700808721241355
1761469384322093000,1.171093017578125,6.270824482315779,-0.5829268755801021,-7.642655271834134
1761469384332076000,1.181075927734375,7.3080012924194335,-1.1232729389317333,-8.448625032994151
1761469384342059000,1.19105908203125,8.192209893035889,-1.3744731207206844,-8.855786030215025
1761469384352043000,1.20104296875,8.67572756922841,-1.55911715593189,-9.063386578121781
1761469384362026000,1.21102587890625,8.627062030258774,-1.8335205186538397,-8.864270949965714
1761469384372009000,1.221009033203125,8.297661149066686,-2.0591626269467174,-8.177462405759096
1761469384381993000,1.230992919921875,7.9348945893675085,-2.0186878470867873,-7.012879112926125
1761469384391976000,1.240975830078125,7.269132924842834,-1.9734158960781991,-5.533374715152383
1761469384401959000,1.250958984375,6.147253047704696,-1.6642822884976862,-4.153485122340918
1761469384411943000,1.26094287109375,4.563877941089868,-1.4904023700155318,-2.667881823170185
1761469384421926100,1.270926025390625,2.2121476414382455,-1.6310755999445914,-1.4723323141872882
1761469384431909000,1.2809091796875,-0.8347919510185718,-1.6133290769822894,-0.7053402261972427
1761469384441892900,1.290892822265625,-3.5426615011841056,-1.4609339912079273,0.36626843034029005
1761469384451875800,1.300875732421875,-5.329987985548377,-1.2508927721507848,2.073929257315397
1761469384461859000,1.310859130859375,-6.1339060748755925,-0.9115541420511901,4.090156267246604
1761469384471842000,1.320842041015625,-6.20179829236269,-0.8073822583064436,5.504655985668301
1761469384481826000,1.330825927734375,-5.931515370571613,-0.7024047572672367,5.5767327953636645
1761469384491808800,1.340808837890625,-5.833857544896007,-0.4743582181811332,5.115802214032411
1761469384501792000,1.3507919921875,-5.880957734245062,0.2601725927956402,5.068491596803069
1761469384511776000,1.36077587890625,-6.545365061551332,1.419447550087422,5.149707990765571
1761469384521759000,1.370759033203125,-7.17292471345365,2.3174572970412672,4.818937574785948
1761469384531742000,1.380741943359375,-7.321769121009111,3.1469583020448684,4.198271189528703
1761469384541726000,1.390725830078125,-6.911924583792686,3.9404862225219603,3.9793601430565118
1761469384551709000,1.400708984375,-6.195490132129192,4.385283999697863,3.887933905246854
1761469384561692000,1.41069189453125,-5.291614123490453,4.45227283860445,3.6278579046934842
1761469384571676000,1.420676025390625,-4.69815489411056,4.026647379410266,2.8876135383754966
1761469384581659100,1.4306591796875,-4.518694399017095,3.0764936037212607,2.016524531573057
1761469384591641900,1.440641845703125,-3.820169698053598,2.0457874509364364,1.2940402783513067
1761469384601625900,1.4506259765625,-2.5099913548499346,1.2727993374019861,0.5174865812897682
1761469384611609000,1.460609130859375,-1.0779805296570062,0.5060298061214387,-0.3863216228097677
1761469384621592000,1.470592041015625,0.24336978042423724,-0.07033332702890038,-1.2242623932480812
1761469384631576000,1.480576171875,1.0453297214210033,-0.4297489688649773,-2.0929589519560334
1761469384641558800,1.490558837890625,1.7003268308252095,-0.7352714002110063,-2.8558582176744935
1761469384651542000,1.5005419921875,2.0572762286782265,-1.0120787553347648,-3.1155005029857157
1761469384661525000,1.51052490234375,2.1581986091077328,-1.2558799129135907,-3.239908388420939
1761469384671509000,1.520509033203125,2.3118565544247627,-1.197723638151586,-3.456197269695997
1761469384681492000,1.530491943359375,2.3565157803624865,-1.2298546602971852,-3.890529766958952
1761469384691475000,1.540474853515625,2.1996879728376864,-1.3009472812607883,-4.357987119710445
1761469384701459000,1.550458984375,2.0272306345045563,-1.1440921473376453,-4.439461872348189
1761469384711442000,1.56044189453125,1.6362696614563463,-1.2166454885035753,-4.1099394106030465
1761469384721425200,1.570425048828125,1.4449059626013039,-1.125109652839601,-3.2968425740420817
1761469384731409200,1.5804091796875,1.0468196677178143,-1.1413880029454826,-2.3214912287324667
1761469384741392000,1.590391845703125,0.7840759092599153,-1.0267021778404712,-1.4243027350336313
1761469384751374800,1.600374755859375,0.41860535129904747,-0.8267845856517553,-0.8935545211106538
1761469384761359000,1.610359130859375,0.12441782230734824,-0.6988495490036905,-0.6725625767111778
1761469384771342000,1.620342041015625,0.20366905367672442,-0.5724805926285684,-0.39661505328714847
1761469384781324800,1.63032470703125,0.8598387139916419,-0.5517296271532773,-0.019920506000518798
1761469384791308800,1.640308837890625,1.7373305735737083,-0.44885362843796606,0.2933177604198456
1761469384801292000,1.6502919921875,2.2676164306819437,-0.3649700610928237,0.49699733549058434
1761469384811275000,1.66027490234375,2.582147075000405,-0.23420608462914824,0.7473702726751565
1761469384821259000,1.670259033203125,2.9434751263290644,0.03783507900610566,0.8431640580445527
1761469384831242000,1.680241943359375,3.181978177499771,0.3274118993319571,0.845479933771491
1761469384841225000,1.690224853515625,3.2779116636008023,0.5887834926538169,0.8222352517843246
1761469384851209000,1.700208984375,3.161270905035734,0.8199246367543935,0.849489753934741
1761469384861192000,1.71019189453125,2.6750129902243613,0.875232390217483,0.8919476704359054
1761469384871175200,1.720175048828125,2.0338871697843075,0.8184960652559995,0.8053986832737923
1761469384881162200,1.730162353515625,1.6514426806688307,0.7321085522659122,0.4630862980604171
1761469384891146200,1.740146240234375,1.4678741657346486,0.5297067420460283,0.1692144108891487
1761469384901129200,1.750129150390625,1.483899417862296,0.31884792299568654,-0.06837678613364696
1761469384911112200,1.7601123046875,1.7699118237048386,0.10984159994423388,-0.3035767041057348
1761469384921096200,1.77009619140625,1.8829969356149434,-0.11522051650360227,-0.4520002559006214
1761469384931079200,1.7800791015625,1.513143048003316,-0.3719396078445017,-0.36498715835809703
1761469384941062100,1.790062255859375,0.7798568302601575,-0.518625668322295,-0.0006155015498399734
1761469384951046100,1.800046142578125,0.09431962116360663,-0.7273959906607866,0.3600836042255163
1761469384961029400,1.810029296875,-0.4211801702231168,-0.8434332303747534,0.6901794819444418
1761469384971012000,1.82001220703125,-0.9207412187218665,-0.8581358555965125,1.1141460680156945
1761469384980996000,1.82999609375,-1.6225573624461889,-0.9333443874463438,1.5588181729853152
1761469384990979000,1.83997900390625,-2.5390964533030984,-0.9565987140446901,1.9981892489373683
1761469385000962300,1.84996240234375,-3.4054929183751343,-1.0137009497091174,2.507888245090842
1761469385010946300,1.8599462890625,-4.125475417909026,-1.0988606744699179,2.8028268847107887
1761469385020929000,1.869928955078125,-4.490540317678451,-1.2318392582431434,2.745221083438396
1761469385030912300,1.879912353515625,-4.509705621397495,-1.3599404452383517,2.514305710917711
1761469385040896300,1.889896240234375,-4.103562276786565,-1.426362736303359,2.2438766586542127
1761469385050879200,1.899879150390625,-3.3499475567638872,-1.401565125785768,1.994808374327421
1761469385060862000,1.909862060546875,-2.553012165930867,-1.3087521097928285,1.662928535801172
1761469385070845200,1.91984521484375,-1.8629864132434129,-1.299338384759426,1.2384849798679352
1761469385080829200,1.9298291015625,-1.2653899379283189,-1.124704871430993,0.9126625416845082
1761469385090812200,1.939812255859375,-0.7172089431673287,-0.9209894943945109,0.6238660580813884
1761469385100795400,1.94979541015625,-0.18365794678330422,-0.8102071064688264,0.3413046694755554
1761469385110779400,1.959779296875,0.41136721673905846,-0.6543766394183039,0.03604921850264072
1761469385120762000,1.96976220703125,1.0003700512319802,-0.47338367406055326,-0.2603869661986828
1761469385130745000,1.9797451171875,1.7227876689583062,-0.37676732026189563,-0.5439350277543068
1761469385140729000,1.98972900390625,2.41721545599699,-0.32868907966092226,-0.7926344787687063
1761469385150712300,1.99971240234375,2.8522780211001635,-0.39617622347846626,-1.085877420386672
1761469385160695000,2.009695068359375,3.0800936740398406,-0.47395109868496654,-1.455006500855088
1761469385170679000,2.019678955078125,3.304946970042586,-0.5631549842700362,-1.634170643350482
1761469385180662300,2.029662353515625,3.557259935379028,-0.5829046637482941,-1.5672621762037275
1761469385190645200,2.039645263671875,3.9764825417935845,-0.5474946199320256,-1.5729390527963638
1761469385200629200,2.049629150390625,4.473108705884218,-0.45781391061544413,-1.7633149096578358
1761469385210612000,2.059612060546875,4.7974768536061045,-0.39794849384799597,-1.8560124825775621
1761469385220595200,2.06959521484375,4.948378778213263,-0.39303149571195245,-1.9594734415739774
1761469385230579200,2.0795791015625,4.665062187325955,-0.36075215113684533,-2.3337504063248633
1761469385240562200,2.089562255859375,4.116389025133848,-0.2404078618787229,-2.683409647169709
1761469385250545200,2.099545166015625,3.7468051866352554,-0.27853447117730973,-2.9321979455113407
1761469385260528000,2.109528076171875,3.340853565204143,-0.38255876314491033,-3.088844551250338
1761469385270512000,2.11951220703125,3.052386167424917,-0.3295433584026992,-2.755916080453992
1761469385280495000,2.1294951171875,2.9130320572704074,-0.13134776770099996,-2.168563351255655
1761469385290478300,2.139478271484375,2.549256612789631,0.03483896593004465,-1.4807044212132692
1761469385300462300,2.14946240234375,1.4521820910841226,0.1715719338007271,-0.627003771585226
1761469385310445000,2.159445068359375,-0.4524479996681213,0.12652560824155806,0.35852936052083967
1761469385320428000,2.169427978515625,-3.083794866645336,-0.002719634222239256,1.4463725280225277
1761469385330412000,2.179412109375,-5.861558621770143,-0.11422595250830053,2.519720137181878
1761469385340395300,2.189395263671875,-7.493238617348671,-0.040442923416942354,3.3899598336786028
1761469385350378200,2.199378173828125,-7.798899726513028,0.0240432850189507,3.9898587407171724
1761469385360362200,2.2093623046875,-7.253518591603636,0.04341200235560536,4.135566019290685
1761469385370345200,2.21934521484375,-6.3231561425775284,0.23579656869098542,3.980685254180431
1761469385380328200,2.229328125,-5.185106636404991,0.41853710836842656,3.8456934308886526
1761469385390312200,2.239312255859375,-4.430072697234153,0.6243450737699866,3.6184739902764558
1761469385400295200,2.249295166015625,-4.133752247866988,0.9751156368575989,3.4126726007461547
1761469385410278100,2.259278076171875,-4.156395456829667,1.310551706560701,3.2789912755310535
1761469385420261000,2.26926123046875,-4.357827545234561,1.505955620717257,3.2158646650105713
1761469385430245000,2.2792451171875,-4.487984787976742,1.534716435777396,2.9584447319239375
1761469385440228000,2.28922802734375,-4.482808262121677,1.4728265274450183,2.444461190319061
1761469385450211300,2.29921142578125,-3.987940924397111,1.2953254958562552,1.6822043141573666
1761469385460195000,2.309195068359375,-2.876881716480851,0.859029151174426,0.8240922778278589
1761469385470178000,2.319177978515625,-1.4873825838029384,0.4544846200622618,-0.06348199982941151
1761469385480161300,2.329161376953125,-0.4315799836844206,0.08296133793368934,-0.9559487257033586
1761469385490145300,2.339145263671875,0.15150807380676268,-0.19859657271802425,-1.7600924404799938
1761469385500128300,2.349128173828125,0.6076303780734539,-0.45028716837242244,-2.468959671759605
1761469385510111000,2.359111083984375,1.0324024353086947,-0.5884782260969281,-3.1565362777292725
1761469385520095200,2.36909521484375,1.3852607644557953,-0.8239994849778711,-3.799973882243037
1761469385530078200,2.379078125,1.751152762699127,-0.9662852646701038,-4.372053054463863
1761469385540061200,2.389061279296875,2.122383783882856,-1.0205202743351458,-4.801220131787657
1761469385550045200,2.399045166015625,2.4905162545293567,-1.051498911575228,-4.954634915998578
1761469385560028200,2.409028076171875,2.8338158972144125,-1.0582001627795397,-5.032193956497311
1761469385570011100,2.41901123046875,3.216961812597513,-1.062026735330373,-5.181978859773278
1761469385579995100,2.4289951171875,3.535777586889267,-1.0182562749259174,-5.390848404702544
1761469385589978000,2.43897802734375,3.8681034156173464,-0.927848858769983,-5.499955260631442
1761469385599961300,2.44896142578125,4.329476480019093,-0.7735204668454826,-5.498226829403639
1761469385609944000,2.458944091796875,4.466434634947777,-0.5374976881831884,-5.414157384097575
1761469385619928000,2.468927978515625,4.449070827692747,-0.47963878893256184,-5.146693026858568
1761469385629911300,2.478911376953125,4.309695674750208,-0.3888216229319572,-4.87891185875535
1761469385639894300,2.488894287109375,4.508350699657202,-0.21763211257755755,-4.517357597455382
1761469385649878300,2.498878173828125,4.780411152514815,-0.05326762593761086,-4.1149160299718375
1761469385659861000,2.508861083984375,4.758734742757678,-0.04803513211160898,-3.615938918840885
1761469385669844200,2.51884423828125,4.226614655959606,-0.24409341852366923,-2.8280209472000597
1761469385679828200,2.528828125,3.2838048132926225,-0.3837685773260891,-1.3712649723291397
1761469385689811200,2.538811279296875,1.7171330041974782,-0.374154653545469,0.7879512893885373
1761469385699794200,2.548794189453125,-0.5599012431710958,-0.16118585660383106,2.963428950077295
1761469385709778200,2.558778076171875,-2.8778268883764744,0.26059724794849753,4.918477560946345
1761469385719761200,2.56876123046875,-4.680149281820655,0.574037612812221,6.9564265733420845
1761469385729744100,2.578744140625,-5.725450361669063,0.6277348623387515,8.723911462160945
1761469385739728100,2.58872802734375,-6.138742993512749,0.7257578680649399,9.603653731018305
1761469385749711400,2.59871142578125,-6.052221478879451,0.8116537981458007,9.477963404557109
1761469385759694000,2.608694091796875,-5.665348651927709,0.9546990179032087,8.683899769768118
1761469385769678000,2.618677978515625,-4.918866268002986,1.266276511504501,7.9991312069565055
1761469385779661000,2.6286611328125,-4.109077825337648,1.5312654185406862,7.5927622368961565
1761469385789644300,2.638644287109375,-3.4868589499413964,1.7827454401843248,7.368961664816736
1761469385799627000,2.648626953125,-3.2425878367632626,1.209436726168543,6.929297158876061
1761469385809611000,2.658611083984375,-3.11013079264611,0.6418496046699583,6.362954484480619
1761469385819594200,2.66859423828125,-2.79989550743401,0.33678193135410545,5.8059676674515
1761469385829577200,2.6785771484375,-1.9908833098381757,0.07791428367719054,4.939763510081172
1761469385839561200,2.688561279296875,-1.1217910298109053,-0.09388312944248318,3.912890651848912
1761469385849544200,2.698544189453125,-0.25963527104854583,-0.042550124829262494,2.72247967479825
1761469385859527200,2.708527099609375,0.6640609980866312,0.058026218641549346,1.3666712147980928
1761469385869511200,2.71851123046875,1.3939189949467778,0.09758242235183716,0.003451601758599281
1761469385879491000,2.728490966796875,1.884174454961717,0.1424525145612657,-1.290244393199682
1761469385889474000,2.73847412109375,2.1746505622148513,0.1685197066232562,-2.240153838738799
1761469385899458000,2.7484580078125,2.5010259581059215,0.13870879798829555,-3.0091952604740855
1761469385909441000,2.75844091796875,2.7809230959385633,0.13072130636572837,-3.76128847001791
1761469385919424000,2.768424072265625,2.996988105329871,0.05473857527300715,-4.529070831602811
1761469385929408000,2.778407958984375,3.218455850547552,-0.03456920907795429,-5.284019430577755
1761469385939391200,2.78839111328125,3.364831237640977,-0.1982216019257903,-6.089512806397676
1761469385949374000,2.7983740234375,3.531245496417582,-0.40118659898638726,-6.925614670971036
1761469385959358000,2.80835791015625,3.6702968242332337,-0.48913595446571706,-7.610926839140057
1761469385969341000,2.8183408203125,3.909757614520192,-0.44415611827149987,-8.147456559073925
1761469385979324200,2.82832421875,4.2382115702509875,-0.4467028801448643,-8.682521467152238
1761469385989307100,2.83830712890625,4.437347072151303,-0.6538891481623054,-9.38360754303634
1761469385999291000,2.848290771484375,4.511519392821192,-0.9448135837048292,-9.865400295132398
1761469386009274000,2.858274169921875,4.477405526295304,-1.144798395910859,-9.827304665493964
1761469386019257000,2.868257080078125,3.9161891088724134,-1.236005876403302,-9.371298096561432
1761469386029241000,2.878240966796875,2.8422663301736115,-1.1562006644129752,-8.473835462096334
1761469386039224000,2.88822412109375,1.4879507390797138,-1.158399928022921,-7.185712298834323
1761469386049207000,2.89820703125,-0.01459434254169464,-1.105570255111158,-5.519339760059118
1761469386059191000,2.90819091796875,-1.3026222287356852,-0.6147203363344073,-3.118836369410157
1761469386069174000,2.918174072265625,-2.0167647700697184,-0.15867445830479263,0.36133915724456306
1761469386079157000,2.928156982421875,-1.5158382784366606,-0.11642945390194653,4.534574105194211
1761469386089141200,2.938141357421875,-0.8004819773986935,0.1459501474186778,8.350589606177806
1761469386099124000,2.9481240234375,-0.9422229826897383,0.3251039146505296,10.878435182148218
1761469386109107000,2.95810693359375,-4.386464441654086,-1.1349715600319206,11.621880390334129
1761469386119091000,2.968091064453125,-7.730774869313835,-1.936012486487627,11.000081201654671
1761469386129074200,2.97807421875,-8.682090674519538,0.006380056425929069,9.839885914647578
1761469386139057200,2.98805712890625,-6.880760799244046,0.5142505219779908,8.413871114999056
1761469386149039900,2.998039794921875,-5.418534868529439,2.1163219996258613,7.475884746965765
1761469386159024000,3.008024169921875,-4.745032380619645,3.4286540137320753,6.878654766875505
1761469386169007000,3.018007080078125,-4.18786173145622,4.266263944780826,6.557245468959212
1761469386178990000,3.027989990234375,-3.9003754536688326,4.962618900489807,6.584157441282272
1761469386188974000,3.03797412109375,-3.2258143966168165,4.663462350913882,6.276980082336068
1761469386198957000,3.04795703125,-2.681731484824419,4.042235701425374,5.3443672240346665
1761469386208940000,3.05793994140625,-2.0216303302794696,3.236708715596795,4.055618037828803
1761469386218924000,3.067924072265625,-1.2806804460406302,2.407518968499452,2.5372780057042834
1761469386228907000,3.077906982421875,-0.5136977104008198,1.6993452724419533,1.1344500203758479
1761469386238890200,3.08789013671875,0.2085153246641159,1.186979249036312,-0.3476227665811777
1761469386248874000,3.0978740234375,0.8119090880811214,0.8921640896655618,-1.8293676367580889
1761469386258857000,3.10785693359375,1.6098182923823594,0.42945597726777196,-2.7901334073543547
1761469386268840200,3.117840087890625,2.4004282795861362,0.14957695961371062,-3.5742630926281214
1761469386278824200,3.12782421875,2.87680865124464,0.12894041429832576,-4.255098992165923
1761469386288807200,3.13780712890625,2.925247395721078,0.18178747673630713,-4.918630705681443
1761469386298790000,3.147789794921875,2.891739970655739,0.3361987246386707,-5.6170572069674725
1761469386308773000,3.157773193359375,3.154232676962018,0.32259003213346005,-6.24851445083022
1761469386318757000,3.167757080078125,3.875079684370756,0.24971103920973836,-6.593724311050773
1761469386328740000,3.177739990234375,4.547683762136101,0.2154329950980842,-6.8577756449759
1761469386338723000,3.18772314453125,4.993018714928627,0.19607319172024726,-7.245323010188341
1761469386348707000,3.19770703125,5.273339046609402,0.28185601681545375,-7.574681221282482
1761469386358690000,3.20768994140625,5.497134942513704,0.17112674731649458,-7.555985288640857
1761469386368673000,3.217673095703125,5.648119284707308,0.05883811954632401,-7.539742009848355
1761469386378657000,3.227656982421875,4.762468376328051,-0.009412336793914436,-7.188317512896656
1761469386388640300,3.23764013671875,4.154470041725039,-0.6889247326429933,-6.828363672530651
1761469386398623000,3.247623046875,0.9128665398240089,0.6743062785733491,-5.370706949427723
1761469386408607000,3.25760693359375,-0.04320172060579061,0.13108436752445995,-4.301490156462789
1761469386418590000,3.26758984375,2.016080879458785,-0.44299832653850313,-3.452765541681647
1761469386428573200,3.2775732421875,1.6320178492307662,0.08283383909650147,-2.690804433596134
1761469386438557200,3.28755712890625,0.05670622208416461,-0.20671441272199154,-1.6425836669087408
1761469386448540000,3.297539794921875,-1.2140440738335252,-0.8906612108219415,0.07799860095977783
1761469386458523100,3.307523193359375,-1.5391154013887047,-1.1947898497220129,2.2300538850069045
1761469386468506000,3.317506103515625,-2.855074666081369,-1.0390014682475477,5.063381706443429
1761469386478490000,3.327489990234375,-5.12807600467205,-1.1807760835472494,7.928735482215881
1761469386488472800,3.337472900390625,-5.44578060285151,-2.3333722206622363,9.816125099831819
1761469386498456000,3.3474560546875,-4.486796162714064,-2.2596493973255156,10.972132872021197
1761469386508440000,3.357440185546875,-3.5331317485556006,-1.6875272627457976,10.679458085680007
1761469386518423000,3.367423095703125,-2.882182745498419,-1.6375865892738104,9.867862301331758
1761469386528406000,3.377406005859375,-2.354094106173515,-1.509714827120304,9.183186677500606
1761469386538390300,3.387390380859375,-1.989054925367236,-1.3580448407500982,8.140616483920812
1761469386548373000,3.397373046875,-1.6458330240935086,-1.0378685186948626,7.134093170756101
1761469386558356000,3.40735595703125,-1.2637740271642803,-0.5006434369079769,7.01995708848834
1761469386568340000,3.417340087890625,-0.8452087156146765,-0.4900024351019412,5.977638239321112
1761469386578323200,3.4273232421875,-0.3082806440129876,-0.13454071852341293,4.637231346592307
1761469386588306000,3.437305908203125,0.3235562468171119,-0.022583368534222242,3.3159985254108904
1761469386598290000,3.4472900390625,1.0719190376609564,-0.034777445001155136,1.9135095627784728
1761469386608273200,3.457273193359375,1.611208577696979,0.10498115430101752,0.3001367927849293
1761469386618256100,3.467256103515625,2.064399796947837,0.19576010718308387,-1.2449766799747943
1761469386628240100,3.477240234375,2.3163339920997617,0.21090894180238245,-2.5875322751700875
1761469386638223000,3.48722314453125,2.575757666224241,0.3597627747733146,-3.65046896495223
1761469386648206000,3.4972060546875,2.642240016913414,0.5454994275268167,-4.552563350871205
1761469386658189000,3.50718896484375,2.615590494918823,0.6802068078540265,-5.372076484215259
1761469386668173000,3.517173095703125,2.5849942811250686,0.8196758496250957,-6.091062373927235
1761469386678156000,3.527156005859375,2.539175656019151,0.9817590203948319,-6.6496367524087425
1761469386688139000,3.537138916015625,2.4495360093653202,0.9867813786014914,-7.073486434102058
1761469386698123000,3.547123046875,2.3830516128495334,0.9771549606654792,-7.379233467984199
1761469386708106000,3.55710595703125,2.4372464366346596,0.9344071943722665,-7.614899834424257
1761469386718089200,3.567089111328125,2.67530437438637,0.7727011132866144,-7.764117166945338
1761469386728073200,3.5770732421875,2.840525623986125,0.45492644554562867,-7.811514293414354
1761469386738056000,3.587055908203125,2.648870248708129,0.12340608798153697,-7.682346061709523
1761469386748039000,3.597038818359375,2.2556249641150234,-0.1929944418620318,-7.330502462562918
1761469386758023000,3.60702294921875,1.9500500719293952,-0.34425928149744867,-6.652021601718664
1761469386768006100,3.617006103515625,1.5786986392363904,-0.34928492763973773,-5.601030785796046
1761469386777989000,3.626989013671875,0.6116828683346509,-0.040279768744483586,-4.127069993624091
1761469386787973000,3.63697314453125,-0.311668532885611,0.07424743173271417,-2.2504700655698775
1761469386797956000,3.6469560546875,-0.7268833649635315,0.3146007869452238,-0.22415888399779796
1761469386807939000,3.65693896484375,-0.47055999494194983,0.08859912462495267,1.1476917792648076
1761469386817922000,3.666922119140625,0.023905191722512244,-0.0013328560389578342,2.8402555748730896
1761469386827906000,3.676906005859375,0.09896481662094593,-0.21709610600471496,4.842732291871309
1761469386837889000,3.686888916015625,-0.2562818689674139,-0.6113344932883977,6.424248034355044
1761469386847872000,3.6968720703125,-2.9763527290582656,-1.6587331299379466,7.920807611826062
1761469386857856000,3.70685595703125,-4.723552077956497,-2.8473320891305804,8.828148081704974
1761469386867839000,3.7168388671875,-5.503509153720736,-2.2498497417144474,9.24496771863103
1761469386877825000,3.726824951171875,-4.983533093702793,-0.9043108198594302,9.25865546772182
1761469386887809000,3.73680908203125,-4.379539318566024,-0.14046937792003153,8.340207912895083
1761469386897791700,3.746791748046875,-4.281407153376937,0.797294360338524,7.0890282866269345
1761469386907775000,3.75677490234375,-3.854540754210949,1.9744751958727835,6.100101420429349
1761469386917759000,3.766759033203125,-3.025145401538908,2.2224600688770413,5.500577191922068
1761469386927742000,3.776741943359375,-2.384917698982358,2.2400199832260608,5.0342625794649125
1761469386937725200,3.78672509765625,-1.9095406591475008,2.0591540052488444,4.148386922419071
1761469386947708000,3.7967080078125,-1.3030004143983125,1.6774194179683923,3.384852865928411
1761469386957692000,3.80669189453125,-0.84280545386523,1.313874567373097,2.659582196858525
1761469386967675000,3.8166748046875,-0.37096769407242536,1.017212684157118,1.7724685224503278
1761469386977658000,3.826658203125,0.04508358882963657,0.9467546347700059,0.770469408711791
1761469386987642000,3.83664208984375,0.2699564663156867,0.9524225974038243,-0.5910217730998992
1761469386997624800,3.846624755859375,0.5144932446926832,0.8265564759843052,-1.8973872800171374
1761469387007608000,3.856608154296875,0.9242460119724273,0.6178679867103696,-2.9317157149523494
1761469387017592000,3.866592041015625,1.3802689475178718,0.48006921623907983,-3.7987867182850836
1761469387027575000,3.876574951171875,1.8496330106735228,0.3787140338828787,-4.6234594263494015
1761469387037558000,3.88655810546875,2.3142174383372067,0.3687679555384442,-5.43957064229548
1761469387047541800,3.896541748046875,2.807497799131274,0.29810755197964606,-6.1860921891868115
1761469387057525000,3.90652490234375,3.1135131285607813,0.18548760989587754,-6.910102629062533
1761469387067508000,3.916508056640625,3.3710780230760573,0.06425890248604119,-7.638987981498241
1761469387077492000,3.926491943359375,3.7624920005887743,-0.03157722418773919,-8.22342745359838
1761469387087475000,3.936474853515625,4.0975867095083,0.046403731517493725,-8.673314662867783
1761469387097458000,3.9464580078125,4.330937784743309,0.20530834531635045,-8.926111027806996
1761469387107441000,3.95644091796875,4.462763837480545,0.2812696682948619,-8.987068477594852
1761469387117425000,3.9664248046875,4.515818551319837,0.3932681905446574,-8.944367984509467
1761469387127408000,3.976408203125,4.175496463140845,0.21670831226352602,-8.731718336519599
1761469387137390800,3.986390869140625,3.8557831554874777,0.21851448490265757,-7.919049954503774
1761469387147374800,3.996374755859375,3.7807518799006936,0.35071013813726604,-6.547682690843939
1761469387157357800,4.00635791015625,3.610992986871302,0.3360221624953672,-5.201235933429002
1761469387167339000,4.016339111328125,3.6129873755589124,0.3507547444639727,-5.201443438699841
1761469387177322000,4.026322021484375,2.6009797857642174,0.42982342234067616,-3.633085868474841
1761469387187305000,4.036304931640625,1.3816741381406783,0.39187980492617935,-1.3074825282484293
1761469387197289000,4.0462890625,0.27544483459889885,0.3498804093148559,1.814238456687331
1761469387207272000,4.05627197265625,-1.5618614862039684,0.09265577960461377,4.988951027098298
1761469387217255000,4.0662548828125,-3.669888243432343,-0.08472458474654704,8.33902133345902
1761469387227238000,4.07623779296875,-6.038932373717427,-0.3842673936937004,11.838470300382374
1761469387237222000,4.086221923828125,-7.853942399299144,-1.150308902960643,14.695571211594343
1761469387247205000,4.096205078125,-7.63466368855834,-1.3872719581477344,15.688099901676177
1761469387257188000,4.10618798828125,-7.177104629486799,-1.8552730623871088,13.165165478622912
1761469387267171800,4.116171875,-7.039906820583343,-1.8135218328505753,11.027367852509022
1761469387277154800,4.12615478515625,-6.048154375571012,-2.122966552206874,9.850704245781898
1761469387287138000,4.136137939453125,-4.467839825570583,-2.352757012350857,8.821955656805635
1761469387297122000,4.1461220703125,-2.9710990463137623,-2.434222120377421,8.051740515115856
1761469387307105000,4.15610498046875,-2.101548208864033,-2.5032658459872006,7.63805742264986
1761469387317088000,4.166087890625,-1.8485420005664228,-2.3978208735667166,7.361419578874111
1761469387327072000,4.176072021484375,-1.515740663281083,-2.380055645903945,6.997634782043099
1761469387337055000,4.186054931640625,-0.9924167541399598,-2.1460227258846163,5.9253533408105366
1761469387347038000,4.196037841796875,-0.10676613802164793,-1.5813772107958792,4.258814213296771
1761469387357021000,4.20602099609375,0.9783449741676449,-1.1348229453414678,2.4690672237873077
1761469387367005000,4.2160048828125,2.0626514919757843,-0.8877358979597687,0.5978624327749014
1761469387376988000,4.22598779296875,2.7454519695848223,-0.6580247135970742,-1.7410662529706953
1761469387386971000,4.235970947265625,3.0633792706042526,-0.43531029278654604,-4.000836646327376
1761469387396955100,4.245955078125,3.4375197494938967,-0.15307623643893747,-5.893312188905477
1761469387406938000,4.255938232421875,4.4533726165398955,0.570728196003288,-6.737794343811273
1761469387416920800,4.2659208984375,5.019741886681318,0.8645987680003047,-7.508837753018736
1761469387426904800,4.27590478515625,4.85576596096754,1.030945514498651,-8.404300153577328
1761469387436888000,4.28588818359375,4.2490401305183765,1.010732455292344,-9.348811539465189
1761469387446871000,4.29587109375,3.586883797009289,1.1412488867357373,-10.368491271322965
1761469387456855000,4.30585498046875,3.492365438403189,1.3178307576529682,-11.40966036593318
1761469387466837800,4.315837646484375,3.529377948980033,1.6243711338698863,-12.256472425091266
1761469387476821000,4.325821044921875,3.675463705477118,1.8444240438535808,-12.479846296191214
1761469387486805000,4.335804931640625,3.8034476958334444,1.5822671453729271,-12.028539283251762
1761469387496788000,4.3457880859375,3.372861107100546,1.296927231964469,-11.284267561113834
1761469387506771200,4.355771240234375,2.133260128814727,1.048310125471279,-10.421730694079399
1761469387516755000,4.3657548828125,1.2826146289736031,0.7237178136046976,-9.426752272757888
1761469387526738000,4.375738037109375,0.714202162566781,0.30476247982420024,-7.9321414912670845
1761469387536721000,4.385720947265625,-0.17902298045903442,-0.04853511752299964,-5.903216912326216
1761469387546704100,4.3957041015625,-1.0131152587756513,-0.12242452959828078,-3.8116006071507926
1761469387556688100,4.405688232421875,-1.2370903106391429,-0.06960530501529574,-1.687873007443547
1761469387566670800,4.4156708984375,-0.19233225162625311,0.024137831434607505,0.18335399540066719
1761469387576654000,4.425654052734375,0.35098961266577244,0.0010196253713220358,2.3885867428839207
1761469387586638000,4.43563818359375,0.9830234873726963,-0.024002222356200215,5.440195496195554
1761469387596621000,4.44562109375,-0.7894988110914826,-0.3201041336018592,8.96140972020328
1761469387606603800,4.455603759765625,-4.786636018379032,-1.737236173288524,12.304873175644873
1761469387616587800,4.465587890625,-8.309971180063485,-3.3769039527505633,13.530400474262237
1761469387626571000,4.475571044921875,-8.977501023304463,-3.1050895836085077,13.68968502728939
1761469387636554000,4.485553955078125,-8.705326588678359,-2.2846327396735546,12.722781776851415
1761469387646538000,4.4955380859375,-8.033403478914499,-0.2800492596544325,11.273092671626806
1761469387656521000,4.50552099609375,-7.51953625716567,1.3104707502789794,10.706333233124017
1761469387666504000,4.51550390625,-7.054643201944232,2.6464769238308072,10.769731646323203
1761469387676487000,4.52548681640625,-6.347351257157325,3.4967505216196177,10.75170499124527
1761469387686471000,4.535470947265625,-5.280237573951482,4.211215719036757,10.077720857298374
1761469387696454100,4.5454541015625,-4.268889032587409,3.413199254968762,8.792187126007676
1761469387706436900,4.555436767578125,-3.131100807699561,2.243912168359011,6.962228537619113
1761469387716420900,4.5654208984375,-2.5425088920950887,1.7502397395074367,4.886165190884471
1761469387726403800,4.57540380859375,-2.222708052288741,1.0976827897969632,2.810010074213147
1761469387736387000,4.585386962890625,-1.4710130482822656,0.4623178709711879,0.765637166249752
1761469387746371000,4.59537109375,-0.6424367569081485,0.06641432695426046,-1.1353156972944736
1761469387756356900,4.60535693359375,1.022929673564434,-0.33473332826122637,-4.345011318281292
1761469387766340000,4.615340087890625,1.8615610566154122,-0.489785066024214,-5.805878820124268
1761469387776323000,4.625322998046875,2.816638552442193,-0.7084118156623095,-7.100441661044955
1761469387786306800,4.635306884765625,3.580540857723355,-0.8730975701458752,-8.219310081407427
1761469387796290000,4.6452900390625,4.286367990654707,-0.7216147769108414,-9.178892195177077
1761469387806273000,4.65527294921875,4.552691361165047,-0.4530711000025272,-10.114120204412936
1761469387816257000,4.665257080078125,4.303822983324528,-0.270176977198571,-10.9123000423491
1761469387826240000,4.675239990234375,4.0775294253855945,-0.2933861494809389,-11.48892153417468
1761469387836223000,4.685222900390625,3.9711847276464103,-0.3455694142479449,-11.708520562911033
1761469387846206000,4.6952060546875,3.69097750095129,-0.5203120870392769,-11.636360166585444
1761469387856190000,4.70518994140625,3.717074649760127,-0.7741532848563045,-11.391609160935879
1761469387866173000,4.7151728515625,3.9972237165272233,-1.1597802034001796,-11.055672740495204
1761469387876152600,4.725152587890625,4.010843661078811,-1.6059440812975168,-10.295662181955576
1761469387886136600,4.735136474609375,3.722233055436611,-1.3589024804927408,-9.408804528135061
1761469387896119300,4.745119384765625,3.658660454714298,-0.706283717592433,-8.638995044636726
1761469387906102500,4.7551025390625,3.5348575494349,-0.1460648598395288,-7.482251943910121
1761469387916086500,4.76508642578125,3.079417382213473,0.6199696351647377,-6.134726159086823
1761469387926069500,4.775069580078125,3.129280314274132,0.5642999165214598,-4.571902257591486
1761469387936052200,4.78505224609375,1.563871072460711,0.2600047984806821,-2.2768577217578887
1761469387946036200,4.7950361328125,-1.139732929214835,0.211611975505203,1.1784434758812188
1761469387956019500,4.80501953125,-2.9634146292909977,-0.20528047092873603,4.786628127333522
1761469387966002400,4.81500244140625,-3.5693811658054586,-1.113234725324437,7.904211281812191
1761469387975986400,4.824986328125,-5.406189181697369,-1.5675450847983359,11.376939999592304
1761469387985969700,4.8349697265625,-6.489052222698927,-2.090263137000799,14.099970294010639
1761469387995952400,4.844952392578125,-6.023728374844789,-1.428996299677342,14.329780920159816
1761469388005935400,4.854935302734375,-5.440671297013759,-0.9705432874407619,13.268525315332411
1761469388015919400,4.86491943359375,-4.825332536520063,-0.3493010385243222,12.856353211951255
1761469388025902600,4.874902587890625,-4.600983682908118,-0.6393471933949738,12.1176145740211
1761469388035885300,4.88488525390625,-4.436408329996467,-1.675757914496958,10.70407113341093
1761469388045869300,4.894869384765625,-3.64197498511225,-2.0576989841349422,10.239843848621845
1761469388055852300,4.904852294921875,-2.677369197961688,-2.5051331011638043,9.763899822553991
1761469388065835500,4.91483544921875,-2.35831903039217,-2.451206134534627,9.133933694031834
1761469388075819500,4.924819580078125,-2.226882269233465,-2.1384457147590816,8.217762267443538
1761469388085802200,4.93480224609375,-1.54953099694103,-1.8251267843179404,6.580882949656248
1761469388095785500,4.944785400390625,-0.3916887028008699,-1.5429248766742645,4.625280796557664
1761469388105769500,4.95476953125,0.8733739028692244,-1.2738541071519256,2.6393986560076472
1761469388115752400,4.96475244140625,1.8307015157103537,-0.9237213305111974,0.8661503813564777
1761469388125735400,4.9747353515625,2.6174323233932255,-0.6295527254156768,-0.835748228830099
1761469388135718400,4.984718505859375,2.884427309554815,-0.33504159049279986,-2.333565112885833
1761469388145702400,4.994702392578125,2.667159646375477,-0.06192393846614286,-3.629322132027149
1761469388155685400,5.004685302734375,2.3239637563258406,0.14733967468147166,-4.757296234387159
1761469388165668600,5.014668701171875,2.34573865802139,0.7632670030523091,-5.113928236854076
1761469388175652600,5.024652587890625,2.55160755982995,1.1262134493630378,-5.7883531003057955
1761469388185635300,5.03463525390625,2.813635571233928,1.622290528203547,-6.592914163711667
1761469388195618300,5.044618408203125,2.632830675794184,1.9815584321320057,-7.533455476924777
1761469388205602300,5.054602294921875,2.811504112163186,2.420828385797143,-8.391270576134323
1761469388215585500,5.06458544921875,3.1507068409234282,2.4545187662139534,-9.22027342235744
1761469388225568500,5.074568603515625,3.3211119229018684,2.4002364102758467,-10.033103132414817
1761469388235552300,5.08455224609375,3.3178409384071825,2.1511666646443306,-10.452911429762839
1761469388245535500,5.094535400390625,3.0636370447576042,1.6746229191176591,-10.497863501167297
1761469388255518500,5.1045185546875,2.9520678903684017,1.197073138353601,-10.261638331800699
1761469388265501400,5.11450146484375,3.078433339612186,0.8587864284597336,-9.793246913069487
1761469388275485400,5.1244853515625,3.1989103153392673,0.6056023428445682,-8.984581336954236
1761469388285468400,5.134468505859375,3.054717825242877,0.529036003177613,-7.70607472782135
1761469388295451400,5.144451416015625,2.494635672546923,0.47011122826114293,-6.039986851206422
1761469388305435400,5.154435302734375,1.7560034176006911,0.47307504650279875,-4.384731334251165
1761469388315418400,5.16441845703125,1.028556281274557,0.2519558955270797,-2.9293939940065146
1761469388325401600,5.174401611328125,0.7037801372736692,0.03821724672410637,-1.0181576368570326
1761469388335385300,5.18438525390625,0.7259916768208146,0.08422564051477238,1.3006611577957867
1761469388345368300,5.194368408203125,0.2811731491178274,0.33827505598869173,3.94515859824717
1761469388355351600,5.2043515625,-0.8454933777749538,0.4692705031206831,6.453973310533166
1761469388365335600,5.21433544921875,-3.148364661711454,0.5506459235697985,8.229026588779687
1761469388375318500,5.224318603515625,-5.9820016952276225,0.2244350888569839,9.325293301233648
1761469388385301200,5.23430126953125,-7.296632926186919,-0.6928108533613383,9.569631049907207
1761469388395284500,5.244284423828125,-6.948686334478855,-0.9746764417227357,8.894784161651135
1761469388405268500,5.2542685546875,-6.903848829364776,-0.8567808607909828,8.34664992864132
1761469388415251500,5.26425146484375,-6.38609687513709,-0.2545490903580561,7.987159029611945
1761469388425234400,5.274234375,-5.545915047773718,0.43358200768921523,7.982873315116763
1761469388435218400,5.284218505859375,-4.862522741751373,0.7148742166094482,8.531679748299718
1761469388445201400,5.294201416015625,-4.345461400136351,0.47784222437199203,9.393442123830319
1761469388455184400,5.304184326171875,-4.292175215628743,0.2622016509378329,9.286431947919725
1761469388465168400,5.31416845703125,-3.6222318815052508,0.5129364802373573,8.181732338163256
1761469388475151600,5.324151611328125,-2.2568477839082477,0.30662527802139516,6.455870084065198
1761469388485134300,5.33413427734375,-1.130154661269486,0.03273762800293043,4.421477302846312
1761469388495118300,5.344118408203125,-0.37196079676300287,-0.025083797914674504,2.3772253909140826
1761469388505101600,5.3541015625,0.36073096221834416,-0.09186023617959581,0.4013829983413219
1761469388515084500,5.36408447265625,1.07952132935822,-0.25805044954251494,-1.4608727625399827
1761469388525067300,5.3740673828125,1.615266913177073,-0.3917471184572205,-3.1617601498574017
1761469388535051300,5.38405126953125,1.8860434637039898,-0.5276645686939359,-4.58582498448193
1761469388545034500,5.394034423828125,1.993883076176047,-0.6595419132269918,-5.6930169955760235
1761469388555017500,5.404017578125,1.9207906596973536,-0.728792121194303,-6.4894882760286325
1761469388565001500,5.41400146484375,1.76761523720026,-0.4892995475295931,-6.916005131104588
1761469388574984200,5.423984130859375,1.9677800821483133,-0.4127242573712021,-7.2674606077164405
1761469388584967400,5.433967529296875,2.262408340644836,-0.28342807017145677,-7.576652813616395
1761469388594951400,5.443951416015625,2.434678047451377,-0.060024808580242096,-7.908182523530721
1761469388604934400,5.453934326171875,2.7447736319318414,0.14182294795345515,-8.2481936460644
1761469388614917600,5.463917724609375,3.0238880949541924,0.3095490565136075,-8.45507815465629
1761469388624901600,5.473901611328125,2.4360496280655264,0.5247448087897152,-8.39903770300448
1761469388634884400,5.48388427734375,2.49153566070497,0.6141537884928285,-8.267479945814609
1761469388644867300,5.493867431640625,2.979021948267519,0.734893506809324,-7.789279080730676
1761469388654850600,5.5038505859375,3.4219317197397348,1.0343866679284721,-7.055117249196767
1761469388664834600,5.51383447265625,3.69433441016376,1.300162852884829,-6.2517474414020775
1761469388674817300,5.5238173828125,3.549960426020622,1.4703620370276271,-5.331800003406405
1761469388684800500,5.533800537109375,3.1896757462650536,1.3343255269885061,-4.412924578556418
1761469388694784500,5.543784423828125,2.3853528755292297,1.0530392728850244,-3.187923349639773
1761469388704767500,5.553767578125,1.4086936624914408,0.6845623727150261,-1.4712106166809797
1761469388714750500,5.56375048828125,-0.00663578475266695,0.2159747555582784,0.7109931373924017
1761469388724734500,5.573734375,-1.7943991992294788,-0.37042222555149346,3.377262849190831
1761469388734717400,5.583717529296875,-2.8822207394212485,-0.951806292136386,6.1541457298278806
1761469388744700400,5.593700439453125,-3.9538530690953135,-1.438864198219031,8.760909944212436
1761469388754684400,5.603684326171875,-4.743416762116551,-1.7458679541639983,10.846266604471205
1761469388764667400,5.61366748046875,-4.646539857685566,-1.7263097056046128,12.104371646088362
1761469388774650400,5.623650390625,-4.2971150101184845,-1.2708441116809843,12.269174085754155
1761469388784633300,5.63363330078125,-3.9955505226179957,-1.1678872297491878,11.249369266211986
1761469388794617300,5.643617431640625,-3.768914142590761,-1.3298308459177612,9.4899168772012
1761469388804600600,5.6536005859375,-3.429044766615331,-1.5771112239144742,8.743611018887162
1761469388814583600,5.66358349609375,-2.948038780982792,-2.015536689579487,7.892156102359294
1761469388824567300,5.6735673828125,-2.47362327965647,-2.060611218319833,6.889461992093921
1761469388834550300,5.68355029296875,-2.097949599850178,-1.996679428896308,5.936442890101671
1761469388844533500,5.693533447265625,-1.5725690504401921,-1.8253781287305055,4.927845108750462
1761469388854517500,5.703517578125,-0.6577870323836803,-1.5010691638499498,3.8336031801223753
1761469388864500500,5.71350048828125,0.40748453008681534,-1.2191428582772612,2.4783079303413627
1761469388874483500,5.7234833984375,1.1986200024694205,-0.9606926322948187,0.9438163893610239
1761469388884471300,5.73347119140625,1.8400892295196651,-0.6932732101760805,-0.6814297737777233
1761469388894454300,5.743454345703125,2.3998516487419606,-0.5123961262829602,-2.3243688299953935
1761469388904437000,5.75343701171875,2.7787951439991594,-0.3594453063219786,-3.905540873607993
1761469388914420200,5.763420166015625,2.9713357776790854,-0.3057537558838725,-5.353216885444522
1761469388924404200,5.773404296875,3.163789025336504,-0.31202023240011184,-6.592116875854134
1761469388934387200,5.78338720703125,3.36452670173645,-0.20649233093652872,-7.547651760059595
1761469388944370200,5.7933701171875,3.4305233147352934,-0.07795330051332712,-8.213856492176651
1761469388954354200,5.803354248046875,3.4688489537373184,0.18015121730398387,-8.683965820741653
1761469388964337200,5.813337158203125,3.5206250259429215,0.5553971366848797,-8.862946423363685
1761469388974320000,5.823320068359375,3.648427229991555,0.7079585920020938,-8.837042166778446
1761469388984304000,5.83330419921875,3.559897298145294,0.7642115173608064,-8.883241023373603
1761469388994287400,5.843287353515625,3.588818272203207,0.8809301634676754,-8.916801347669958
1761469389004270000,5.85327001953125,3.4671015255481,1.0550037778910248,-8.781983127379418
1761469389014253000,5.863253173828125,2.966344253002107,1.453150205463916,-8.284353339204191
1761469389024237000,5.873237060546875,2.1906512644231317,2.0507108788132666,-7.179296002051234
1761469389034220300,5.88322021484375,1.3455103533476591,2.477031919056177,-5.507279904431105
1761469389044203300,5.893203369140625,0.6109256202265619,2.874699988527596,-3.478224977108836
1761469389054187000,5.90318701171875,0.38563042567521333,2.956817130722105,-1.3519231429994105
1761469389064170200,5.913170166015625,0.29664632032066585,2.452505380564928,0.6911410204529762
1761469389074153200,5.9231533203125,-0.30137334884256123,1.4661197232827543,2.9532810655504464
1761469389084137200,5.93313720703125,-1.802084785296023,0.1672478600565344,5.360842558017373
1761469389094120200,5.9431201171875,-3.5274782528385518,-0.7880686321578919,7.766048427268863
1761469389104103200,5.953103271484375,-4.785102232940495,-1.7540712804943321,9.905532399034499
1761469389114087200,5.963087158203125,-6.299010712358355,-2.8912673847079273,10.643507651376723
1761469389124070100,5.973070068359375,-6.764440358674526,-2.740132235866785,10.318553228199482
1761469389134053000,5.98305322265625,-5.762119757896661,-1.6720429856270551,10.280959118342398
1761469389144036400,5.993036376953125,-5.292966122621298,-0.7574247798301279,9.202661193299292
1761469389154020000,6.00302001953125,-5.537233144146204,0.21814254631772637,8.065957841038703
1761469389164003000,6.013003173828125,-5.335494766271114,0.9147183782357722,7.562885569548606
1761469389173986300,6.022986328125,-4.350745478019118,1.461547593061626,7.265088617888092
1761469389183970300,6.03297021484375,-3.581963876263797,1.6215023004353046,6.386150066629051
1761469389193953300,6.042953369140625,-2.9171143581479786,1.4121514017298817,4.966684834754466
1761469389203936000,6.05293603515625,-2.0513325178429485,0.8979742372490465,3.2768829050749537
1761469389213920000,6.062919921875,-1.159992457911372,0.5664966959133744,1.4691338104069231
1761469389223903200,6.0729033203125,-0.5633484610155225,0.27289894950836896,-0.2837853774428367
1761469389233886200,6.08288623046875,0.008610884217917919,-0.060914998885616654,-1.7074533217042684
1761469389243869200,6.092869140625,0.5989435060098767,-0.34466713164597745,-2.6946681232869625
1761469389253853200,6.102853271484375,1.0854840371549128,-0.5898926229394972,-3.473743447780609
1761469389263836200,6.112836181640625,1.5175751852318644,-0.7122725096784531,-4.302002197638154
1761469389273819100,6.122819091796875,1.70247991720587,-0.6957728449720889,-5.16817362178266
1761469389283803100,6.13280322265625,1.9240777185440063,-0.6005169658716768,-5.795004959410429
1761469389293786400,6.142786376953125,1.9697046204701065,-0.41027189578302203,-6.4552370468586675
1761469389303769000,6.15276904296875,2.203332759080827,-0.14779665206819773,-6.9883590041756625
1761469389313753000,6.162753173828125,2.6218454636603594,0.05339738979712128,-7.320292618715762
1761469389323736000,6.172736083984375,3.010375117908418,0.19130042436048386,-7.4892276281416414
1761469389333719300,6.18271923828125,3.186560536853969,0.30720497760549187,-7.686447067287564
1761469389343702000,6.192701904296875,3.3660575645655393,0.42888891796953976,-7.701909424835443
1761469389353686000,6.20268603515625,3.6955043307259676,0.5442578299678862,-7.582792631545662
1761469389363669200,6.212669189453125,4.018585653507709,0.6682160719394683,-7.253691025561094
1761469389373652200,6.22265234375,4.086058184278011,0.7387475518889725,-6.687364717778563
1761469389383636200,6.23263623046875,3.7639436607018113,0.8271409248087555,-5.893994910472631
1761469389393619000,6.242618896484375,3.279677504229545,0.8554114721339195,-4.929608611291647
1761469389403602200,6.252602294921875,2.9541631090819833,0.8642482009969651,-3.9896109034359455
1761469389413586200,6.262586181640625,2.7399668161720037,0.8673694017574191,-3.158773827522993
1761469389423569200,6.272569091796875,2.2653604684486983,0.9783889594398438,-2.3358821576565503
1761469389433552400,6.282552490234375,1.6822925769627093,1.0350368754655122,-1.3669979625344275
1761469389443536400,6.292536376953125,1.2036328621953725,1.1458826840162277,-0.32799218343794345
1761469389453519000,6.30251904296875,0.587474894273281,0.9171914903510361,1.502663155043125
1761469389463502000,6.312502197265625,-0.5057268776521087,0.7010946245167404,4.05433618132472
1761469389473485300,6.3224853515625,-2.0125047745376823,0.4410248345084488,6.836144827926159
1761469389483469300,6.33246923828125,-3.5732033544421196,0.05707059841714799,8.801794912308454
1761469389493452000,6.3424521484375,-4.4908889849856495,-0.41323439885042607,9.70927683648467
1761469389503435000,6.35243505859375,-4.581843805891275,-0.3784646256990731,9.87599066272974
1761469389513419300,6.362419189453125,-3.729754390852153,-0.24937018988281487,9.122139211341738
1761469389523402200,6.37240234375,-2.8206194387719035,-0.07813435616865753,8.62231512799263
1761469389533385200,6.38238525390625,-2.002921538156271,-0.21261530732885,8.503599901241063
1761469389543369200,6.392369140625,-1.4703066535785794,-0.33310638464652,8.393903262725471
1761469389553352200,6.402352294921875,-1.5839055602297185,-0.667470441203937,7.92206082675755
1761469389563335200,6.412335205078125,-1.7336863718524573,-1.0054223661854862,7.1044444669455284
1761469389573319200,6.422319091796875,-1.5911498322695492,-1.3367510005697607,6.226356979557871
1761469389583302100,6.43230224609375,-1.2450614356487988,-1.326266577564925,5.101840908697247
1761469389593285000,6.44228515625,-0.7889207189425825,-1.1129639455590397,3.704850543481111
1761469389603268000,6.45226806640625,-0.18305618149787187,-0.8148707143656909,2.164828256380558
1761469389613252000,6.462252197265625,0.40392479177862406,-0.6409867772955447,0.8221797222048044
1761469389623235300,6.4722353515625,0.8744652052372693,-0.43749490681663156,-0.4627829311996698
1761469389633218300,6.48221826171875,1.4094292832896114,-0.2789738855078816,-1.5962351727098225
1761469389643202000,6.4922021484375,1.7914125846341251,-0.17666143895946443,-2.5882939071923494
1761469389653185000,6.50218505859375,1.819238749192655,-0.1667773199353367,-3.5093320630341767
1761469389663168300,6.512168212890625,1.80909291049242,-0.14098434170484542,-4.260953563413024
1761469389673152300,6.52215234375,2.0535715289413927,-0.010851868077740072,-4.823742929241061
1761469389683135200,6.53213525390625,2.258705102212727,-0.017628960997238752,-5.412242490386962
1761469389693118200,6.5421181640625,2.1860458164542913,0.060344432456046336,-5.94601092891395
1761469389703101200,6.55210107421875,2.03899238396883,0.16575893667303024,-6.505197886335849
1761469389713085200,6.562085205078125,1.886956779156625,0.24833850874751806,-7.030889401391148
1761469389723068200,6.572068115234375,1.8933137469679115,0.21238792831376194,-7.499920287069678
1761469389733051100,6.582051025390625,1.9431781403332948,0.15325170260369778,-7.885055914965272
1761469389743035100,6.59203515625,1.9318264329746364,0.13458996449261904,-8.136734089529513
1761469389753018000,6.60201806640625,1.7369380671247838,0.11602905640751122,-8.159229414454103
1761469389763001000,6.6120009765625,1.37120827370584,0.17767543830759822,-7.956200996768474
1761469389772985300,6.6219853515625,1.2285688582703471,0.4104884611431509,-7.331542911526561
1761469389782968300,6.63196826171875,1.0867889822736383,0.6965090502921492,-6.402501481971144
1761469389792951000,6.641950927734375,1.0643220066606998,0.8519169810816645,-5.199404626348614
1761469389802935000,6.65193505859375,1.0909048931598662,0.8975118073690682,-3.616972353541851
1761469389812918300,6.661918212890625,0.7518079628616571,0.7697832530785351,-1.7720494202554224
1761469389822901200,6.6719013671875,-0.36221681686192747,0.2873536643836647,0.23712591759860513
1761469389832884000,6.681884033203125,-1.2894850992649793,-0.32293716507069764,2.4101392340004444
1761469389842868000,6.691867919921875,-2.3511580527216194,-0.7216179917812346,4.186335837063193
1761469389852851200,6.701851318359375,-3.61234936991632,-1.247187341761589,5.677789615827798
1761469389862834200,6.711834228515625,-5.132753933355212,-2.042421627765149,7.374402979087829
1761469389872818200,6.721818115234375,-6.029916123569011,-2.162143839602172,8.760316654494405
1761469389882798000,6.731798095703125,-6.240667828983068,-1.5850152750372886,10.007257912540435
1761469389892781000,6.741781005859375,-6.064991528603434,-1.0169727379214017,10.569451066040992
1761469389902765000,6.75176513671875,-5.963500408375263,-0.3191716019921005,10.527033481550216
1761469389912747800,6.761747802734375,-5.87919014005065,0.7360136699456721,9.807328045392035
1761469389922731000,6.77173095703125,-5.0766485997736455,1.6301050013467668,8.566116855430602
1761469389932715000,6.781715087890625,-3.902053323753178,1.701828759820759,7.42904642342329
1761469389942698000,6.791697998046875,-3.0963422135293484,1.339081781604886,6.032025078547001
1761469389952680700,6.8016806640625,-2.2031731846049425,0.7756128360148519,4.483309197381138
1761469389962664000,6.811663818359375,-0.9907710327595471,0.5214565808992833,3.0332915908545255
1761469389972648000,6.82164794921875,0.17245909189879893,0.6010184125877917,1.7082383346021175
1761469389982631000,6.831630859375,1.043633438897133,0.5457281217161566,0.20774083316028116
1761469389992614100,6.8416142578125,1.3979595025092362,0.4203906272806227,-1.630893813636899
1761469390002598000,6.851597900390625,1.648053622752428,0.31212095282822844,-3.0779794583648443
1761469390012580900,6.861580810546875,1.8999872333824634,-0.014425854106992483,-4.2323347871720784
1761469390022563800,6.871563720703125,2.293164713436365,-0.3720867612302303,-5.1815252707868815
1761469390032547800,6.8815478515625,2.610248841629922,-0.750833711002022,-5.934831947773695
1761469390042531000,6.891531005859375,2.9724153896093366,-0.6685439156543463,-6.235880010184645
1761469390052513800,6.901513671875,3.3656273564547297,-0.5556803740730509,-6.2902545744508505
1761469390062497800,6.911497802734375,3.70671750639677,-0.30053580203987657,-6.44917263225317
1761469390072481000,6.92148095703125,4.070155681747198,0.010685096676088869,-6.74955024805665
1761469390082464000,6.931464111328125,4.877862349702418,0.4582835739538073,-6.702130909755826
1761469390092447000,6.941447021484375,5.303142648720741,0.4655641594160348,-6.751818192988634
1761469390102430700,6.9514306640625,5.407444734716415,0.7296054103385656,-6.912114553406834
1761469390112414000,6.9614140625,5.599264945167302,0.8582958684638142,-6.9286734740197655
1761469390122397000,6.97139697265625,5.671678439471125,1.0096360383577645,-6.954674761238694
1761469390132381000,6.981380859375,5.309170822969079,1.0370823367532342,-6.716528268420696
1761469390142364000,6.991364013671875,4.3694075083911414,1.0433918852262198,-6.240764275094866
1761469390152347000,7.001346923828125,3.4762370181620117,1.1156046693261712,-4.64160941554606
1761469390162331000,7.011330810546875,2.451118017859757,0.8892388498686253,-3.1159038230895995
1761469390172313900,7.02131396484375,1.120707910749316,0.791463316097483,-1.323290922755003
1761469390182297000,7.031297119140625,-0.6198468855679035,0.6207835088308901,0.9137281250894069
1761469390192281000,7.041281005859375,-2.2376707897514105,0.3570471591390669,3.2672984996497627
1761469390202263800,7.051263916015625,-3.731382576575875,0.14005173702985046,5.586563284504413
1761469390212246800,7.061246826171875,-4.949904964867234,-0.12420089162103831,7.648503413340449
1761469390222230800,7.071230712890625,-5.922039686217904,-0.5057527427457272,9.485614796093106
1761469390232214000,7.081214111328125,-6.4826996388018125,-0.824314834537357,10.427758283805847
1761469390242197000,7.091197021484375,-6.194526255533098,-0.7239039107613265,9.997930112224816
1761469390252180000,7.101179931640625,-5.040853648293018,-0.29951164662390944,8.738176718878746
1761469390262164000,7.1111640625,-4.096422049643099,-0.18976313179060816,7.599692912942171
1761469390272147000,7.12114697265625,-3.509672839295864,-0.5209021618869155,6.787053172498941
1761469390282130000,7.1311298828125,-2.747636620147526,-0.9620813101742416,6.085960082352161
1761469390292114000,7.141114013671875,-1.986744310337305,-1.3376919346816838,5.503329120978712
1761469390302097000,7.151096923828125,-1.3273635790213942,-1.5144327955529093,4.7966059159904715
1761469390312080000,7.161079833984375,-0.6874450885444879,-1.5683642922267318,3.988100498872995
1761469390322064000,7.17106396484375,-0.06352028601318598,-1.3991595259487628,3.120605717170238
1761469390332047000,7.181047119140625,0.5968105856344104,-1.1272807132683693,2.091165638798475
1761469390342029800,7.19102978515625,1.1670341931164263,-0.9426455920159816,0.921214096930623
1761469390352013800,7.201013916015625,1.6730775893718004,-0.7050968458954244,-0.22832360246181488
1761469390361996800,7.210996826171875,2.1779940274238587,-0.5368748801097274,-1.4781523986428975
1761469390371980000,7.22097998046875,2.295123446288705,-0.32258740178495643,-2.7183231396406886
1761469390381963000,7.230962890625,2.3672215910330414,0.05051408944576979,-3.5627106020003554
1761469390391947000,7.240947021484375,2.5382535727381703,0.1683664888229221,-4.022895333400369
1761469390401929700,7.2509296875,2.6696210680529475,0.10580474564358591,-4.505520444667339
1761469390411913000,7.260912841796875,2.688232245020568,-0.02659128900133073,-5.019033446151018
1761469390421897000,7.27089697265625,2.578495274494588,-0.18094561908468604,-5.368405102226138
1761469390431880000,7.2808798828125,2.7496365617930887,-0.3217581113539636,-5.659115310496092
1761469390441863000,7.29086279296875,3.061468468546867,-0.25407128024585546,-6.0973319557160135
1761469390451847000,7.300846923828125,3.4887767662614584,-0.07245674892365932,-6.425808707800507
1761469390461830000,7.310829833984375,3.782860834878683,0.10848514383397996,-6.591342968872189
1761469390471812900,7.320812744140625,3.878464650633931,0.31275683957897127,-6.717180010327697
1761469390481796900,7.330796875,3.8582413622945544,0.4225826574321836,-6.65961804819703
1761469390491780000,7.340780029296875,3.8026401788428426,0.41678887646161017,-6.567327887034415
1761469390501762800,7.3507626953125,3.7800101216226816,0.4752929417479783,-6.405684788182377
1761469390511746000,7.36074609375,3.6305277084246277,0.5889788690954446,-5.796934466168284
1761469390521730000,7.37072998046875,3.3203698723629116,0.7491175547339022,-4.616182128822803
1761469390531713000,7.380713134765625,2.374820083338022,1.238802375254035,-3.029412703594565
1761469390541695700,7.39069580078125,0.0016828385204076767,5.56430059929192,-3.059703212440014
1761469390551679700,7.4006796875,-2.6863725886285303,3.689793259602785,-3.6204601956576106
1761469390561663000,7.4106630859375,-1.8798685744613408,-2.1621692663043737,1.5073989513933657
1761469390571646000,7.42064599609375,-2.809745285797119,1.2324836936265229,6.082333124026656
1761469390581630000,7.4306298828125,-5.0279362990528345,1.6993037713877857,7.969376704683899
1761469390591613000,7.440613037109375,-5.447878451913595,0.4042665909536183,9.02457549369037
1761469390601596000,7.450595947265625,-5.535964731645584,1.123970127415657,9.331978478085993
1761469390611580000,7.460579833984375,-5.614299432691931,1.3431624750472604,9.115288614794611
1761469390621563000,7.47056298828125,-5.6527001827567815,1.3695359565794467,9.204499514642357
1761469390631546000,7.480546142578125,-5.832332527285814,2.0523706287190318,8.701037367051839
1761469390641530000,7.490530029296875,-5.778037457996606,2.2513963866345583,8.027605606290697
1761469390651512800,7.500512939453125,-5.421616467931866,2.1345041375264526,7.410882990223169
1761469390661495800,7.510495849609375,-4.996902278363704,1.4040730169534683,6.759018333625793
1761469390671479000,7.52047900390625,-4.215497049617767,0.7978283941499889,5.808471174705028
1761469390681463000,7.530463134765625,-2.9820296056509017,0.41042876684516666,4.290718002557754
1761469390691445800,7.54044580078125,-1.562347223894298,0.2067094442859292,2.6946196079701186
1761469390701429000,7.550428955078125,-0.4774573532402515,-0.057928457355499265,1.0439759687244892
1761469390711413000,7.5604130859375,0.3505804473429918,-0.17310396567359565,-0.5843132153719663
1761469390721396000,7.57039599609375,1.147513792349398,-0.2976918838508427,-2.046307090896368
1761469390731379000,7.58037890625,1.467250480878353,-0.554555790489912,-3.149970927864313
1761469390741362700,7.59036279296875,1.6255121205985545,-0.8238111227989197,-4.1486388513535255
1761469390751346000,7.600345947265625,1.5967705947607755,-1.1374012713968753,-4.975795777449012
1761469390761329000,7.610328857421875,1.6261171007543802,-1.4268370758168398,-5.4400522883325815
1761469390771313000,7.62031298828125,1.7168267147272824,-1.6624617950722573,-5.6423027073830365
1761469390781296000,7.630296142578125,2.105869286933541,-1.6598153722167015,-5.839015950572491
1761469390791278800,7.64027880859375,2.306240468108654,-1.693198001858592,-6.263761119800805
1761469390801262800,7.650262939453125,2.6680337988615035,-1.5376622799709438,-6.400314785581827
1761469390811245800,7.660245849609375,3.081387220981717,-1.179161999414116,-6.641355830797552
1761469390821229000,7.67022900390625,3.303185221067071,-1.2056190675765275,-6.603560645410418
1761469390831212000,7.6802119140625,3.8036674760639664,-1.1922175880812107,-6.5316475018441675
1761469390841195800,7.69019580078125,4.506303703999519,-0.939229207701236,-6.361457523921132
1761469390851179000,7.700178955078125,4.924165543454885,-0.8300389112725853,-5.548173055833578
1761469390861162000,7.710161865234375,5.268355412977933,-0.7498821093656122,-4.451095611518621
1761469390871146000,7.72014599609375,5.190480730658769,-0.8112623146101832,-3.3405753327846526
1761469390881128400,7.73012841796875,4.2779310016989704,-0.7373698337949812,-1.6154706190556287
1761469390891111700,7.740111572265625,2.7498154254913327,-0.6500489854775369,0.3532277469813824
1761469390901095700,7.750095703125,1.2682009036958217,-0.3746351305387914,2.152780675712228
1761469390911078400,7.760078369140625,0.10264496643841266,-0.016621464455127716,3.2659324719935654
1761469390921061600,7.7700615234375,-0.9740253574028611,0.2635837164133787,3.79174381403625
1761469390931045600,7.780045654296875,-1.5460329256922005,0.8132856371313333,3.770972828686237
1761469390941028600,7.790028564453125,-1.8014543784379957,1.0082210569933057,3.775047530779242
1761469390951011600,7.800011474609375,-2.2658482519656418,1.1394228403523563,4.0187902361690995
1761469390960995300,7.809995361328125,-2.9750615202039477,1.3666308827877043,4.474970992624759
1761469390970978600,7.819978515625,-3.637571489456296,1.6680048161521552,5.105135858589411
1761469390980961500,7.82996142578125,-4.226173049671948,1.8573121669992803,5.8000546440154315
1761469390990945500,7.839945556640625,-5.045262112385034,2.154070715522766,6.2183519522786135
1761469391000928800,7.8499287109375,-5.485455610635876,2.0658765915021298,6.151088680344819
1761469391010911500,7.859911376953125,-4.9407805781692264,1.6379197667509315,5.492364074850082
1761469391020894500,7.86989453125,-3.822230722236633,1.3413678467154502,4.737494386330247
1761469391030878500,7.87987841796875,-2.834813091558218,0.9810860895693302,4.074649486035108
1761469391040861700,7.88986181640625,-1.9322312143832443,0.674345076213777,3.2920167613208293
1761469391050844700,7.8998447265625,-1.151426874139905,0.3302574980214238,2.6249393380224704
1761469391060828400,7.909828369140625,-0.6451853249639272,-0.09666004680991172,2.084233209186792
1761469391070811400,7.919811279296875,0.055739422878623004,-0.4824082536458969,1.5134429077327252
1761469391080794600,7.929794677734375,0.848150614285469,-0.8548647249713539,0.8208914359599352
1761469391090778600,7.939778564453125,1.6456079831659793,-1.2658476185679435,-0.34185061292052266
1761469391100761600,7.94976171875,2.1386311543285847,-1.4866247511729598,-1.4558470433324575
1761469391110744600,7.95974462890625,2.8701848491907116,-1.5563520751327276,-2.347063476884365
1761469391120728600,7.969728515625,3.499965099751949,-1.5833385739967225,-3.0710470287531613
1761469391130711600,7.979711669921875,3.935581791606545,-1.5628773852482438,-3.6181881590723988
1761469391140694500,7.989694580078125,4.021797016769647,-1.4751049937710166,-3.7616169713199135
1761469391150678500,7.999678466796875,3.687214933547377,-1.4399883799433708,-3.6331209397882223
1761469391160661500,8.00966162109375,3.1400609437465667,-1.503329217736423,-3.5250860970050093
1761469391170644500,8.01964453125,3.215914349371195,-1.57893274025321,-3.3663708682984113
1761469391180627700,8.029627685546876,3.416890510702133,-1.6903730075657366,-3.2670471552371976
1761469391190611700,8.03961181640625,3.6825527869552372,-1.509099617831409,-3.3813813904255627
1761469391200594700,8.0495947265625,3.769970958167314,-1.2853756181195377,-3.682144790676236
1761469391210577400,8.059577392578126,3.768479258304834,-0.9865031461820006,-3.985857103860378
1761469391220561400,8.0695615234375,3.4331975023806094,-0.7059931371480226,-3.977295027220249
1761469391230544600,8.079544677734376,2.9441373896300793,-0.32985739278793336,-3.589215162566304
1761469391240527600,8.089527587890625,2.6423767950356005,-0.12931728478670118,-3.114477589678764
1761469391250511600,8.09951171875,2.138205622392893,0.4830056350171566,-2.4583365709364413
1761469391260494600,8.10949462890625,1.4866823265790938,0.5504167909890413,-1.521287191492319
1761469391270477600,8.1194775390625,-0.0015694412738084791,1.1235647614851594,-0.45989714663028713
1761469391280461600,8.129461669921875,-3.336915056711435,1.5653709556296467,0.3816168061196804
1761469391290444500,8.139444580078125,-4.599667047351598,1.090196744890511,1.4240011217385529
1761469391300427500,8.149427490234375,-4.296662590175867,1.1165814784690737,2.245211706650257
1761469391310411500,8.15941162109375,-3.670449092185497,1.048486139625311,2.5646178480505943
1761469391320394500,8.16939453125,-3.7070436696112155,0.7828580579027533,2.725038711631298
1761469391330377500,8.17937744140625,-3.9410213523119686,0.6045683601543307,3.1345430571079254
1761469391340360700,8.189360595703125,-4.439508049577475,0.7821800125107169,3.4368361511439085
1761469391350344700,8.1993447265625,-4.836311903434992,1.0224392596989869,3.580399403426051
1761469391360327400,8.209327392578125,-4.4875253537714475,1.08865974458158,3.8553707752943036
1761469391370310700,8.219310546875,-3.561493627426028,0.9398284887686371,4.071365642058849
1761469391380294700,8.229294677734375,-2.813298594364524,0.9141811295539141,3.9622091017693277
1761469391390277600,8.239277587890625,-2.262067564383149,0.8955454026669263,3.4998704072058198
1761469391400260400,8.24926025390625,-1.7505454444557427,0.7954284934014082,2.879202268382907
1761469391410244400,8.259244384765625,-1.3047984037309883,0.6354653104603291,2.234476377624273
1761469391420227600,8.2692275390625,-0.7709358571797609,0.41031946125179525,1.7180653166115283
1761469391430210600,8.27921044921875,-0.23040274682343004,0.23447160369753836,1.1562059251099823
1761469391440194600,8.289194580078124,0.04803542437255382,0.0900035115301609,0.2815004813760519
1761469391450177800,8.299177734375,0.4111392532020807,-0.08128449076265096,-0.9529115499645471
1761469391460160500,8.309160400390626,0.6508358980715274,-0.2599374688655138,-2.376228196570277
1761469391470144500,8.31914453125,0.705222152775526,-0.48445466478168964,-3.626105508068204
1761469391480127500,8.32912744140625,0.690488694024086,-0.6363505688622594,-4.541510041937232
1761469391490110700,8.33911083984375,0.7151397356778383,-0.4778893149167299,-4.970832017561793
1761469391500093400,8.349093505859376,1.1068868906676768,-0.6452399777606129,-4.952551095461845
1761469391510077400,8.359077392578126,1.2255799055874348,-0.8574211314558983,-4.860667761534452
1761469391520060400,8.369060302734376,1.319420803323388,-0.9382976259395479,-4.999719673871994
1761469391530043600,8.379043701171875,2.1271377004116774,-0.8427546004608273,-5.136510071018338
1761469391540027600,8.389027587890626,3.1746640550941225,-0.5608791482925415,-5.225810987237096
1761469391550010400,8.39901025390625,3.7040316283136603,-0.3907935075268149,-5.084814370572567
1761469391559993600,8.40899365234375,3.8427223061233757,-0.18510434619933366,-4.195022416865825
1761469391569977600,8.4189775390625,3.319867475798726,-0.1853746875733137,-3.2295272796601053
1761469391579960600,8.428960693359375,2.359236729758978,-0.401105058182776,-2.131196035891771
1761469391589943600,8.438943603515625,1.4198153604865074,-0.5203884402111172,-0.9376128585457801
1761469391599927600,8.448927490234375,0.7204945407092571,-0.4777048982605338,0.11481471218168735
1761469391609910500,8.45891064453125,0.664898910215497,-0.3584694470271468,1.113022616943717
1761469391619893500,8.4688935546875,1.1579378634691238,-0.0023459786042571065,1.839509676066041
1761469391629877500,8.47887744140625,1.7452023298621178,0.10197305852621794,2.0822072563171385
1761469391639860700,8.48886083984375,1.223417759117484,0.3582575578421354,2.1973820339828727
1761469391649843500,8.498843505859375,0.13018763788044452,0.5760290788903832,2.50246505099833
1761469391659826400,8.508826416015625,-0.9783481890380382,0.6268070799693465,2.540652450573444
1761469391669810400,8.518810546875,-1.6978969733297824,0.5457593205720186,2.6192595388203856
1761469391679793700,8.528793701171875,-2.078581467035413,0.7127785595044493,2.701653744390607
1761469391689776600,8.538776611328124,-2.1694453947871923,0.8812611489877105,2.79458103441298
1761469391699760400,8.548760498046875,-2.1307564754307267,1.0421575211256742,2.816367918807268
1761469391709743600,8.55874365234375,-2.7713030346781014,1.3122300150364636,2.8094436725020406
1761469391719726600,8.5687265625,-3.6276451387256383,1.5709551855027675,2.9208664041578767
1761469391729710600,8.578710693359374,-3.96420056784749,1.5129744134381413,3.1082845802575347
1761469391739693600,8.588693603515624,-4.028609034872055,1.3986808025211095,3.1383991480141877
1761469391749676500,8.598676513671874,-3.453061894279718,1.063530856283009,3.0800252849787473
1761469391759660500,8.60866064453125,-2.5235668757379055,0.5867302133858203,3.002299655741453
1761469391769643500,8.6186435546875,-1.6620044066935777,0.17026450446397065,2.7502584930837153
1761469391779626500,8.62862646484375,-0.8994318887114524,-0.041247079406678676,2.3613234729051586
1761469391789610800,8.63861083984375,0.20988895110487937,-0.2711684724539518,1.7544401138067245
1761469391799593500,8.648593505859376,1.535582258826494,-0.6154647249609232,0.8979092091888189
1761469391809576400,8.658576416015626,2.575286541581154,-0.9126432524621486,0.07073767004609108
1761469391819559700,8.6685595703125,3.2027292891055343,-1.0750737022995949,-0.5021791220426559
1761469391829543700,8.678543701171876,3.5830595625460147,-1.2649302114620804,-1.0180103373408318
1761469391839526700,8.688526611328125,3.3258214157670736,-1.6787559272691606,-1.3710416849672793
1761469391849509400,8.69850927734375,2.227533426618576,-1.9245386140540242,-1.5085387690782546
1761469391859493400,8.708493408203125,1.743178130558133,-1.9687100564748048,-1.6387667389690874
1761469391869476600,8.7184765625,1.8975772496312855,-1.849991030330956,-1.9406261177629232
1761469391879459600,8.72845947265625,2.4438813446044922,-1.589089684869349,-2.157114905524254
1761469391889443600,8.738443603515625,2.983899491176009,-1.3327794665902852,-2.2147236294060946
1761469391899426600,8.748426513671875,3.1919033591866492,-1.144156883136928,-2.354566399860382
1761469391909409500,8.758409423828125,3.3779514159768818,-1.0331465316742658,-2.598908240187168
1761469391919393500,8.7683935546875,3.534758765235543,-0.9178691704168915,-2.8276585436284543
1761469391929376500,8.77837646484375,3.5508617587745186,-0.7608087231799959,-2.891376690301299
1761469391939359700,8.78835986328125,3.115966366931796,-0.4934568864047527,-2.7240286578059196
1761469391949343500,8.798343505859375,2.561453246539831,-0.18429682920873164,-2.379941664135456
1761469391959326500,8.808326416015625,2.040077256596088,0.01416822608411312,-1.930687492072582
1761469391969309700,8.818309814453125,1.4805547836095094,0.29046003290116784,-1.5098761551618576
1761469391979292700,8.828292724609375,1.0252952336519956,0.5459416914016008,-1.1245867980092763
1761469391989276700,8.838276611328125,0.2967927430540323,0.678535805901885,-0.4997866739481687
1761469391999259400,8.84825927734375,-0.6824380740374326,0.587969399791956,0.20590777251422404
1761469392009242600,8.85824267578125,-1.5550661269754171,0.2892398434564471,0.8271125024318695
1761469392019226600,8.8682265625,-2.064136762097478,0.038084523722529406,1.4199007006824016
1761469392029209600,8.878209716796874,-2.0007956320434808,-0.30798925985097886,1.9522347224920986
1761469392039192300,8.8881923828125,-2.017220112621784,-0.5283250784292817,2.044451233896613
1761469392049176600,8.898176513671874,-2.293438854202628,-0.5717690833583474,1.9428695127755402
1761469392059159600,8.90815966796875,-3.0260107861965895,-0.4356272132486105,1.8945219537138938
1761469392069142500,8.918142578125,-3.940473655301332,-0.18862170667052267,1.8957284068942069
1761469392079126500,8.92812646484375,-4.845665422713756,0.19648352608680725,2.103594327738881
1761469392089109800,8.93810986328125,-5.69641715940833,0.7006058911517262,2.28673964882493
1761469392099092500,8.948092529296876,-5.936236553874611,1.2012032969608901,2.2884330087393523
1761469392109076500,8.958076416015626,-5.736034884047508,1.7225629202917216,2.2107477115124463
1761469392119059500,8.9680595703125,-4.78015863905847,1.9554820338502525,2.297066397050023
1761469392129042700,8.978042724609375,-4.014466527751088,1.956018624944985,2.2516735961407424
1761469392139025400,8.988025390625,-3.2030665582358835,1.744147852373123,1.8226906432121992
1761469392149009400,8.998009521484375,-2.0644933204501865,1.411199800093472,1.1917039394706488
1761469392158992600,9.00799267578125,-1.0987509304851293,1.0833493632137774,0.4733411500930786
1761469392168975600,9.0179755859375,-0.16874679337739942,0.7937313340947032,-0.22991116391420363
1761469392178959600,9.027959716796875,0.5765174469292164,0.5228332030147314,-0.8476011637091636
1761469392188942600,9.037942626953125,0.9407827207535505,0.2170566507771611,-1.4252613509327172
1761469392198925600,9.047925537109375,1.1836229243457317,-0.10311492203772067,-1.7966548692017792
1761469392208909600,9.05790966796875,1.2288181568562984,-0.28657676172703506,-1.9570780708700417
1761469392218892500,9.067892578125,1.370270116072893,-0.4312660954296589,-2.1034201402157544
1761469392228875500,9.07787548828125,1.2262205415785312,-0.5802776762455701,-2.39227975218296
1761469392238859800,9.08785986328125,0.9273884016513824,-0.708332978272438,-2.766124755257368
1761469392248842500,9.097842529296875,1.0075158313333987,-0.6717293407574295,-2.9972499711364504
1761469392258825500,9.107825439453125,1.466370190912485,-0.5780766590699553,-3.2073996190041303
1761469392268808700,9.11780859375,2.2499071709901095,-0.5084773454040289,-3.566122456270456
1761469392278792700,9.127792724609375,3.1122482231914996,-0.5365811578601598,-3.847652748262882
1761469392288775400,9.137775390625,3.7160172496616837,-0.5748889689445495,-3.92561393982172
1761469392298758400,9.14775830078125,4.030273168691992,-0.6251178117081523,-3.784952838721871
1761469392308742400,9.157742431640624,3.076170363116264,-0.37769685619696974,-3.485319319283962
1761469392318725600,9.1677255859375,2.0440695411026475,0.15917977747842668,-2.731886970090866
1761469392328708600,9.17770849609375,2.291941893643141,0.22024156442359089,-2.186126480475068
1761469392338692600,9.187692626953124,2.7528222060918806,0.31171397946253415,-1.5083230805009602
1761469392348675600,9.197675537109374,2.4588679013341666,0.41701778984665866,-0.914365838471055
1761469392358658600,9.207658447265626,1.95355632648468,0.4523663127340376,-0.2687988207131624
1761469392368642600,9.217642578125,1.2578864304304123,0.4209792408235371,0.5159364292383194
1761469392378625500,9.22762548828125,0.4279828359752893,0.38916210693269965,1.2092226450264454
1761469392388608500,9.2376083984375,-0.03642272799015045,0.46243689424097534,1.8079414023697375
1761469392398592500,9.247592529296876,0.08856675672531128,0.4259500149734318,2.1036048491328954
1761469392408575500,9.257575439453126,0.4206219518184662,0.34581747072488067,1.9507991367310284
1761469392418558700,9.267558837890626,0.31037177107334135,0.23523586606830357,2.0237655887424943
1761469392428541700,9.277541748046875,0.020561141991615295,-0.007027122157812118,2.003717072448134
1761469392438525400,9.287525390625,-0.5304577065438032,-0.18498831860423087,1.8097487440526485
1761469392448508400,9.29750830078125,-0.9628823243588208,-0.4692942127898335,1.700019956833124
1761469392458491600,9.30749169921875,-1.5736182672321795,-0.6516352317556738,1.7275415854871272
1761469392468475600,9.3174755859375,-2.4708926856487987,-0.5806102692008018,1.9526187533736228
1761469392478458600,9.327458740234375,-3.0543033992230892,-0.416886564682424,2.289283488088846
1761469392488441300,9.33744140625,-3.0127468154758215,-0.3409982338748872,2.6560131062000987
1761469392498425600,9.347425537109375,-2.9257255346268414,-0.20045155293494463,3.018254180720448
1761469392508408600,9.35740869140625,-2.821687068003416,-0.18937559377774596,3.155612148621678
1761469392518391600,9.3673916015625,-2.5829355950295922,-0.362643956232816,3.0261668535411355
1761469392528375600,9.37737548828125,-2.284984329590201,-0.6272460559085011,2.7584517364114522
1761469392538358500,9.387358642578125,-2.0615023219406603,-0.9591242869995534,2.457618778055906
1761469392548341500,9.397341552734375,-2.0123855320721864,-1.1373043868936599,2.305451363557577
1761469392558325500,9.407325439453125,-1.697483716353774,-1.142956713566929,2.195017058417201
1761469392568308500,9.41730859375,-1.110793834978342,-1.0790795769400894,1.9118594574838876
1761469392578291700,9.427291748046875,-0.5188578696429729,-1.0597444696120917,1.382456228429079
1761469392588274400,9.4372744140625,-0.04580956501662731,-1.0907838971287012,0.7214683541774749
1761469392598258400,9.447258544921874,0.5206155269652605,-1.078872217799723,-0.016581716966629027
1761469392608241700,9.45724169921875,1.1205635338425635,-1.0923498312711715,-0.7476981894552708
1761469392618224600,9.467224609375,1.6515309434741734,-1.1155576883792877,-1.4360586392790078
1761469392628208600,9.477208740234374,2.131498233708739,-1.1182542339868844,-1.9402952783733605
1761469392638191400,9.48719140625,2.469983754110336,-1.1321829522266984,-2.266935462680459
1761469392648174600,9.497174560546876,2.6716157490015027,-1.1073900178842246,-2.499600309216976
1761469392658158600,9.50715869140625,2.8917297415226697,-1.0232609513454138,-2.7256249870866536
1761469392668141600,9.5171416015625,3.1556670936793085,-0.9091691466107964,-3.016820348525047
1761469392678124500,9.52712451171875,3.4891830089747904,-0.772484694056958,-3.212148274835944
1761469392688108500,9.537108642578126,3.6878356957942247,-0.6096373339816927,-3.338907107311487
1761469392698091500,9.547091552734376,3.728798405301571,-0.3955615987114608,-3.3183149856597183
1761469392708074500,9.557074462890625,3.6315702032148836,-0.08134718073531985,-3.145961107701063
1761469392718058500,9.56705859375,3.5003263342797752,0.2780119086079299,-2.9199545500099657
1761469392728041700,9.577041748046875,3.1613971617639063,0.5393943155847489,-2.558336575824022
1761469392738024400,9.5870244140625,2.6465099493175743,0.7530756447099148,-1.9401327812880276
1761469392748007400,9.59700732421875,1.8700094437479973,0.956265974958986,-1.080177747440338
1761469392757991700,9.60699169921875,0.6705062287032604,1.1095591786168515,0.03499006483852863
1761469392767974700,9.616974609375,-0.3455103044718504,1.0609567680113017,1.059362338426709
1761469392777957400,9.626957275390625,-1.116646068137884,0.8370964285686612,1.7043857508271931
1761469392787941400,9.63694140625,-1.6814134560406206,0.5616136000469326,2.0139736780464648
1761469392797924600,9.646924560546875,-1.771796906799078,0.29676950830891724,2.102128346839547
1761469392807907600,9.656907470703125,-1.5608324354171752,0.13579393345490098,1.9603449637115
1761469392817891600,9.6668916015625,-1.379725926682353,0.03513575691953301,1.6947113290309905
1761469392827874600,9.67687451171875,-1.4139496833235023,0.07473024681359529,1.4165455450356006
1761469392837857500,9.686857421875,-1.636572443795204,0.2248869060114026,1.2561240969330072
1761469392847841500,9.696841552734375,-1.826117110529542,0.2899379087232053,1.1621966899573801
1761469392857824500,9.706824462890625,-2.86740953925848,0.20846593256443738,1.2769114488959312
1761469392867807700,9.716807861328125,-4.22151587151587,0.2131308556355536,1.5756827985465525
1761469392877791700,9.726791748046875,-5.267548188248276,-0.006506897675991058,1.7896937980175018
1761469392887774000,9.73677392578125,-5.9091375345468515,-0.15153817668408154,1.750007684317231
1761469392897757000,9.7467568359375,-5.6156385723412034,-0.15777210263758898,1.4786509958148002
1761469392907740000,9.756739990234376,-4.7821372456550595,-0.14992124300673604,0.8794558531314134
1761469392917724000,9.766723876953124,-3.9871167485326526,-0.09286781492009759,0.32318916707038875
1761469392927707000,9.776706787109376,-3.183672706457972,-0.1807273001588881,-0.18297347165048122
1761469392937690000,9.786690185546876,-2.2517793946027753,-0.18765344616025686,-0.7841273471862077
