time,seconds_elapsed,z,y,x
1761469329211131000,0.122130859375,1.0965519591361284,-0.4341894355304539,1.3782523469984531
1761469329221113900,0.13211376953125,0.3465466617822647,-0.24459800704494117,2.3918220715433356
1761469329231097900,0.142097900390625,-0.5258399836152792,0.021892098334431648,3.2557068460553884
1761469329241080800,0.152080810546875,-1.5901462081849573,0.3498119471885264,3.8002766645818946
1761469329251063800,0.162063720703125,-2.631625683918595,0.570607930624485,4.008652873036265
1761469329261047800,0.1720478515625,-3.4261382315188644,0.7075735382072628,4.258819473993778
1761469329271030800,0.18203076171875,-4.360348588144779,0.6392128264255821,4.73506452883482
1761469329281013800,0.192013671875,-5.1321051140576595,0.4048462905377149,5.247663338083028
1761469329290997800,0.201997802734375,-5.4875663191795345,0.13161898585781454,5.503024585074186
1761469329300980700,0.211980712890625,-5.465470222705602,-0.08664850201383233,5.4379830808430905
1761469329310964700,0.22196484375,-5.066660289722681,-0.12281228680685162,5.374724952897429
1761469329320948000,0.231947998046875,-4.504330358099937,-0.0688300828590989,5.301729274791478
1761469329330931000,0.241930908203125,-4.017423039469123,-0.11826835976690053,5.08130197853744
1761469329340914700,0.251914794921875,-3.303444164264202,-0.4085625345818698,4.660663660106063
1761469329350897700,0.261897705078125,-2.4348446361899376,-0.7550631652653217,3.937428296256065
1761469329360881000,0.271880859375,-1.456566005256772,-0.9890722660176455,3.0356641652047633
1761469329370865000,0.281864990234375,-0.22725685001313686,-0.9482327444985509,2.010455440792441
1761469329380847900,0.291847900390625,1.366316410011053,-0.7842803457908332,0.8864666086763143
1761469329390830800,0.301830810546875,3.056391895934939,-0.638067017391324,-0.42824762439131736
1761469329400814800,0.31181494140625,4.76341091787517,-0.5184183091819285,-1.6666653842419386
1761469329410797800,0.3217978515625,5.880595915195346,-0.4115969338417053,-2.5373896493852137
1761469329420780800,0.33178076171875,6.353205828404426,-0.34644334753826256,-3.1372371184974908
1761469329430764800,0.341764892578125,6.218566471812129,-0.4592499347679317,-3.496751398402452
1761469329440747800,0.351747802734375,5.8351809024542565,-0.7039845738045871,-3.5130414389461277
1761469329450730800,0.361730712890625,5.460446257063746,-0.8801764224909245,-3.49925490565598
1761469329460714800,0.37171484375,5.3542374606639145,-1.0326718998998403,-3.72792279151082
1761469329470698000,0.381697998046875,5.273688006177545,-1.1087687588915227,-4.14007209853828
1761469329480681000,0.391680908203125,5.348454785609245,-1.0757780511766672,-4.522861455568671
1761469329490664700,0.401664794921875,5.374249152079225,-1.0445334564767776,-4.910115975314379
1761469329500647700,0.411647705078125,5.487603728580474,-0.9193203921385109,-5.017729962337016
1761469329510631000,0.421630859375,5.529221687126159,-0.7296670043326914,-4.999173730427026
1761469329520615000,0.431614990234375,5.517090519827604,-0.5592001091644168,-5.001270994967222
1761469329530598000,0.441597900390625,5.388074263814091,-0.5233030124835669,-4.933886727002263
1761469329540580900,0.451580810546875,4.845912675473094,-0.3623547640278935,-4.473936973401904
1761469329550564900,0.46156494140625,3.5788720477283,-0.07674392472356557,-3.6072494164288043
1761469329560547800,0.4715478515625,1.5530378360182047,0.27701895204782484,-2.6272476149648427
1761469329570530800,0.48153076171875,-0.7866916447162627,0.5968170153751969,-1.1792699898332357
1761469329580514800,0.491514892578125,-2.674150235915184,0.9250869928412139,0.8935890079021453
1761469329590497800,0.501497802734375,-4.875073303505778,1.1609347071975469,3.3287188907742498
1761469329600480800,0.511480712890625,-8.183603977254032,0.6152766550429165,6.181645731171965
1761469329610464800,0.52146484375,-10.117243889391421,0.48064402045235033,7.636383936479687
1761469329620448000,0.531447998046875,-11.498607061886787,0.5384698942162096,8.271122101709246
1761469329630431000,0.541430908203125,-8.869694728580116,-0.054042848093807695,8.050103853824734
1761469329640415000,0.5514150390625,-7.9035554482519625,0.3627027006827295,7.391061268422007
1761469329650397700,0.561397705078125,-7.999813928523659,0.840556213633716,6.195896959364414
1761469329660381700,0.571381591796875,-6.968565923947096,1.4014040900051592,5.160906261128187
1761469329670365000,0.581364990234375,-5.725653190764785,2.1480194526597858,4.921497201028466
1761469329680348000,0.591347900390625,-4.365788441111147,2.618173497149348,4.539817266544699
1761469329690330600,0.60133056640625,-3.383223218899965,2.716196649006009,3.8669899014174938
1761469329700315000,0.61131494140625,-2.7517522387728093,2.1753920282319186,3.3399598312348124
1761469329710297900,0.6212978515625,-2.0535387957155704,1.5992350851781665,2.4595465312480926
1761469329720281900,0.63128173828125,-1.0766028115630148,1.0162035801798104,1.150661734986305
1761469329730264800,0.641264892578125,0.17995529287308454,0.30893340883329506,-0.11496025813221931
1761469329740247800,0.651247802734375,1.243093350446224,-0.13469590908512472,-1.3215654141366482
1761469329750231800,0.661231689453125,2.014624250909686,-0.4404965728506446,-2.3271406327962874
1761469329760214800,0.67121484375,2.5399510243058203,-0.8210711764410138,-3.2602602715760467
1761469329770197800,0.68119775390625,2.7821009075462815,-1.1520325849480926,-4.249795040538907
1761469329780181800,0.691181640625,2.6134002913981673,-1.5204250217050312,-4.921389649000764
1761469329790165000,0.7011650390625,2.4128818107068537,-1.8028640991054474,-5.2705836104214185
1761469329800147700,0.711147705078125,2.404136194193363,-1.9052382857784629,-5.534101275861263
1761469329810131700,0.721131591796875,2.769220090924203,-1.92928317823261,-5.718240284159779
1761469329820114200,0.7311142578125,2.9680326444804668,-1.9007383440107106,-6.007429566472768
1761469329830097200,0.74109716796875,2.947533169548213,-1.8997488945819436,-6.374428064653277
1761469329840081200,0.7510810546875,3.274473213584721,-1.8193591607019304,-6.567647035986185
1761469329850064400,0.761064453125,3.930609848412871,-1.5190486187852918,-6.5237956193000075
1761469329860047400,0.77104736328125,4.504654767748713,-1.2401087816774845,-6.048190615928172
1761469329870031400,0.78103125,4.747606615021825,-0.6206096866339444,-5.7189463866025205
1761469329880014000,0.79101416015625,4.936538702815771,-0.18817995425239203,-5.565570180836319
1761469329889997300,0.800997314453125,4.90283926230967,0.4038767148531973,-5.404700988966226
1761469329899981300,0.810981201171875,4.06466877476871,0.7302440735682845,-4.834669396924972
1761469329909964300,0.82096435546875,2.359488074171543,0.7923658909603953,-3.998887850347161
1761469329919947300,0.830947265625,0.7131365791618823,0.7329270290419458,-2.788898312601447
1761469329929931300,0.84093115234375,0.08161679145693779,0.7979479288764297,-1.0811088908106088
1761469329939914200,0.850914306640625,-0.24787089123576878,0.7602443672955036,0.9954425317019223
1761469329949898200,0.860898193359375,-1.1404793636679649,0.6312418475463986,2.9336025516122577
1761469329959881200,0.870881103515625,-2.1610791329801082,0.48017479550540443,4.4799815142631525
1761469329969864400,0.880864501953125,-3.122771370771527,0.2989351619102061,5.6481718916773795
1761469329979848200,0.89084814453125,-3.630537937557697,-0.008744885861128569,6.465726876690983
1761469329989831200,0.9008310546875,-3.6102252173691984,-0.3791238202601671,7.000956619942188
1761469329999814100,0.910814208984375,-3.3804961320236324,-0.6302842545606195,7.255444006708264
1761469330009798400,0.92079833984375,-3.3178204801410436,-0.5936624968670309,7.665282114183903
1761469330019781400,0.930781494140625,-3.48892231221199,-0.336634485707432,7.92355252662003
1761469330029764000,0.94076416015625,-4.146145280972123,-0.03728519003838301,7.895095662942528
1761469330039748000,0.950748046875,-5.026636906892061,-0.024254443551599978,7.588644864705205
1761469330049731300,0.9607314453125,-5.092487973940372,-0.08499284376129508,7.0395660443216554
1761469330059714300,0.97071435546875,-3.979916900156438,-0.11296411587893962,6.516476236197352
1761469330069698300,0.9806982421875,-2.891857751816511,-0.12470628385990858,5.545709880590438
1761469330079681300,0.990681396484375,-2.069350697353482,-0.07711188125312328,4.195989216071367
1761469330089664300,1.000664306640625,-1.209292203131318,-0.0511427427381277,2.9447359400451183
1761469330099648300,1.010648193359375,-0.2474362992107868,0.09872209390625357,1.787604132261872
1761469330109631200,1.02063134765625,0.5026280348539353,0.3005972499035299,0.5113064313501119
1761469330119614500,1.030614501953125,0.95465927041471,0.3804058228947222,-0.7596189288735389
1761469330129598200,1.04059814453125,1.3775591040372848,0.4605070952221751,-1.9600275683254003
1761469330139581200,1.050581298828125,1.7843167811542748,0.5413477877400815,-2.959020485985279
1761469330149564200,1.060564208984375,2.2761025194764137,0.45055108000561594,-3.718275257721543
1761469330159548200,1.070548095703125,2.7745816179573533,0.2787581969305873,-4.235613370451331
1761469330169531400,1.080531494140625,3.1350662041991946,-0.01425605049803853,-4.652157113045454
1761469330179515400,1.090515380859375,3.4808909814476965,-0.25518457524999977,-5.093922975179553
1761469330189498000,1.100498046875,3.8834956305384636,-0.5054270179226994,-5.462902418044209
1761469330199481300,1.1104814453125,4.440072113201022,-0.8158230466544628,-5.658919495663047
1761469330209465300,1.12046533203125,4.982330147653818,-1.1335904809370636,-5.6653772935003035
1761469330219448300,1.1304482421875,5.410812749844789,-1.4864793513529002,-5.619127583500743
1761469330229431000,1.14043115234375,5.651660318315029,-1.7744833694040774,-5.574814979043603
1761469330239415300,1.150415283203125,5.5642175971835846,-2.029870919880271,-5.337892475062608
1761469330249398300,1.160398193359375,5.166657372000813,-2.1116462628997863,-4.988319743457437
1761469330259381200,1.17038134765625,4.717541731625795,-1.9590284742854533,-4.4840831043630835
1761469330269365200,1.180365234375,4.196335253030061,-1.5972890656769274,-3.9712791279315947
1761469330279348200,1.19034814453125,3.6579338940054176,-1.200342003956437,-3.321621625989675
1761469330289331200,1.200331298828125,3.1574767734497784,-0.7271439155958592,-2.530406366369128
1761469330299315200,1.210315185546875,2.5698937426269053,0.003976648546010255,-1.3156214110404252
1761469330309298200,1.220298095703125,1.1385323212534189,0.6427120667181909,0.44193829609155655
1761469330319281400,1.230281494140625,-1.558796545675397,1.1712364671118556,2.5873224318116903
1761469330329265400,1.240265380859375,-3.9852240666538474,1.4372409809313713,4.585020097839832
1761469330339248000,1.250248046875,-6.021327743443846,1.5107542531706393,6.082650519412756
1761469330349231400,1.2602314453125,-7.4114008766174315,1.381239838376641,6.873362505686282
1761469330359215400,1.27021533203125,-7.743189529728889,1.0888961836859583,7.105553889492153
1761469330369198300,1.2801982421875,-7.362400991126894,1.2331461030580102,6.879322290873527
1761469330379181000,1.29018115234375,-6.730353380155563,1.5704817227721213,6.494845419147611
1761469330389165000,1.3001650390625,-6.550842031657695,1.9074866492271423,5.733600934898853
1761469330399148300,1.310148193359375,-6.411140715500712,2.345342498310655,4.9839153710186475
1761469330409132300,1.32013232421875,-6.282617795962095,2.837287957239151,4.4690006860435005
1761469330419115300,1.330115234375,-5.979025894287228,3.034986119812727,3.951951327127218
1761469330429098200,1.34009814453125,-5.136369201242924,2.7018109807789323,3.2335762627899647
1761469330439082200,1.350082275390625,-3.8284886135876177,1.8601457829900085,2.295371283569932
1761469330449065200,1.360065185546875,-2.531443892723322,1.207025573373586,1.190315699982643
1761469330459048200,1.370048095703125,-1.363075236132741,0.533016012724489,0.10026479330360889
1761469330469032200,1.3800322265625,-0.28127894757986066,-0.18766484433710573,-1.0411404530376196
1761469330479015400,1.390015380859375,0.5425286680877208,-0.7818577948190272,-2.122421193283796
1761469330488998100,1.399998046875,1.2130617847979068,-1.1783926224768162,-3.05139189569056
1761469330498982100,1.409982177734375,1.7355471972882746,-1.4261708669930695,-3.8177953701376914
1761469330508965400,1.41996533203125,1.9935995830595492,-1.54190298628062,-4.422154179194569
1761469330518948400,1.4299482421875,1.946570120859146,-1.5570716215789318,-4.956202019184827
1761469330528932400,1.439932373046875,2.077916281124949,-1.640466528624296,-5.4207496219694615
1761469330538915000,1.4499150390625,2.5142466742068525,-1.7195532170817256,-5.804702177560329
1761469330548898300,1.459898193359375,3.111428138980269,-1.7406534343861042,-6.18143062711656
1761469330558882300,1.46988232421875,3.607708266112208,-1.7635826206833123,-6.499254467761516
1761469330568865300,1.479865234375,3.960931336918473,-1.7816399631604551,-6.667893124589324
1761469330578848300,1.48984814453125,4.106237633475661,-1.7754050142936408,-6.645050593662262
1761469330588832300,1.499832275390625,4.353681531471014,-1.7519392369017004,-6.388713779637217
1761469330598815200,1.509815185546875,4.620461998099088,-1.63581066564247,-5.9058063442975275
1761469330608799200,1.51979931640625,4.749289453542232,-1.5820947114154695,-5.369615647059678
1761469330618782200,1.5297822265625,4.7095431340873235,-1.4762515334576367,-4.60522175886929
1761469330628765400,1.539765380859375,4.492478007742762,-1.4325678745537995,-3.689450145253539
1761469330638749400,1.54974951171875,4.197880144384503,-1.4910177254348993,-2.7736171568393706
1761469330648732200,1.559732177734375,3.6499662761271,-1.4516636201679707,-1.3966624484360217
1761469330658715100,1.569715087890625,2.172725147110224,-1.4392723406285046,0.49607846707999703
1761469330668699400,1.579699462890625,0.06180149939656257,-1.1010464940764009,2.6674627209752795
1761469330678682400,1.589682373046875,-2.2541128059864044,-0.287354468101263,5.186804672494531
1761469330688665000,1.5996650390625,-4.189247340595722,0.40791269237101074,7.236582654371857
1761469330698649000,1.609649169921875,-5.347283988264203,0.8520470372021198,8.211761565724014
1761469330708632300,1.61963232421875,-5.1876645041942595,0.9893895152732729,8.276534189885854
1761469330718615300,1.629615234375,-4.274941172233223,0.8590434719607234,7.585106169185042
1761469330728599300,1.639599365234375,-3.123136696952581,0.7888815559759735,6.431196830579638
1761469330738582000,1.64958203125,-2.3664193347394464,0.8803726757153868,5.481835666573048
1761469330748565200,1.659565185546875,-2.400227496317029,0.9108367875620722,4.8682881734102965
1761469330758549200,1.66954931640625,-3.037177492377162,1.0631477021843194,4.62116751601994
1761469330768532200,1.6795322265625,-3.590317570850253,1.1607254483610392,4.561428794372081
1761469330778516200,1.68951611328125,-4.063234942573309,1.2304168242245912,4.332217887681723
1761469330788499500,1.69949951171875,-4.0449271324664355,1.173545036315173,3.9447067628264425
1761469330798482200,1.709482177734375,-3.3283857132971284,0.9297788039192557,3.4845050802916284
1761469330808466200,1.719466064453125,-2.3044880714833735,0.5885461767666041,2.9743197619259356
1761469330818452200,1.7294521484375,-1.2037187869131565,0.2973874940767884,2.1884885334312916
1761469330828435200,1.739435302734375,-0.2054261264771223,0.018663491676747797,1.1178355701833962
1761469330838419200,1.749419189453125,0.6186141289025545,-0.30658845314234495,-0.1109784950196743
1761469330848402200,1.759402099609375,1.2254939808696508,-0.642822979746759,-1.2874410262167453
1761469330858385400,1.769385498046875,1.7326941459447145,-0.859724732223153,-2.146295405346155
1761469330868369200,1.779369140625,1.9929519328057765,-1.0482777575716375,-2.761659592542052
1761469330878352100,1.78935205078125,1.9642180057525633,-1.2379790761724114,-3.395832525104284
1761469330888335000,1.799335205078125,1.9662135634839533,-1.4055324219815433,-3.8847769025206564
1761469330898319400,1.8093193359375,2.353322537279129,-1.6264977706350385,-4.398693224108219
1761469330908302300,1.81930224609375,2.8507062417387963,-1.711647412393242,-4.936184482550621
1761469330918285000,1.82928515625,3.53064256208837,-1.6987755097299813,-5.453637746092677
1761469330928269000,1.83926904296875,4.57004756963551,-1.6584718486532568,-5.787576270714402
1761469330938252300,1.849252197265625,5.614515705791115,-1.4505515672728417,-5.92532995993495
1761469330948236300,1.859236328125,6.267132057538628,-1.21893520687595,-5.848968604788184
1761469330958219300,1.86921923828125,6.4473939321428535,-1.0139473256856202,-5.743538391545415
1761469330968202200,1.8792021484375,6.261630537512898,-0.8734740022428333,-5.557693163850903
1761469330978186200,1.889186279296875,5.712146643459796,-0.6368386446401476,-5.1765042277544735
1761469330988169200,1.899169189453125,4.78073673120737,-0.2529524322837591,-4.31702148759365
1761469330998152200,1.909152099609375,3.6112644972890613,0.04656944347321987,-3.1021956157326698
1761469331008136200,1.91913623046875,1.7071809345036744,0.5821490230754017,-1.9361673847883938
1761469331018119200,1.929119140625,-0.7866612495779991,0.9778940155297517,-0.6235784733116626
1761469331028102100,1.93910205078125,-3.5632536228358744,1.5862778423190116,0.8983324030369519
1761469331038086100,1.949086181640625,-5.677167684537172,1.9952049724295735,2.536789929926395
1761469331048069000,1.959069091796875,-6.606348814824223,2.3312942453444,3.928321445214748
1761469331058052400,1.96905224609375,-6.450934381228685,2.4326918420702217,4.783208674278855
1761469331068036400,1.979036376953125,-5.398921236521005,2.451977557298541,5.011087455582619
1761469331078019000,1.98901904296875,-4.157369854819774,2.319170092308521,4.689607430517674
1761469331088002300,1.999002197265625,-3.3664392573595046,2.000034292282164,3.9787580855101345
1761469331097986300,2.008986328125,-3.3936557655870914,1.6546660266295075,3.7081267886728044
1761469331107969300,2.01896923828125,-3.8918420186012983,1.3939417913004755,3.5375387513428924
1761469331117952000,2.028951904296875,-4.563082406798005,1.183016190624237,3.3508740239590407
1761469331127936000,2.03893603515625,-5.24311049708426,1.010050025986135,3.4386733034431933
1761469331137919200,2.048919189453125,-5.757134955221415,0.8904208992600441,3.4704771394610403
1761469331147903200,2.0589033203125,-5.5140077513813965,0.845371797221899,3.295323401650786
1761469331157886200,2.06888623046875,-4.580060429605841,0.650336716377735,2.8228035048127174
1761469331167869400,2.078869384765625,-3.4186692108124492,0.3790983935579657,1.8801713568001985
1761469331177853200,2.088853271484375,-2.249987250488996,0.04519552477151155,0.9053753072857856
1761469331187836200,2.098836181640625,-1.1162959395259617,-0.37819998341351746,0.045110476836562156
1761469331197819100,2.108819091796875,-0.240535433781147,-0.6183478791818022,-0.7653320458233356
1761469331207803100,2.11880322265625,0.35412498808205123,-0.7257970310315489,-1.3715584023177623
1761469331217786400,2.128786376953125,0.6201824011325836,-0.765392836099863,-1.9196563949704168
1761469331227769000,2.13876904296875,0.7812357173979282,-0.8503484165906906,-2.5274177059471605
1761469331237753000,2.148753173828125,0.8985393237859011,-0.9765230194374919,-3.247687205728888
1761469331247736300,2.158736328125,1.1027993290930986,-1.0887634972169995,-3.841378490298986
1761469331257719300,2.16871923828125,1.4937573795318602,-1.1305942217305303,-4.353777977582812
1761469331267703300,2.178703369140625,2.012470287746191,-1.1696908451050518,-4.8680952811867
1761469331277686000,2.18868603515625,2.6556705763727426,-1.1838742687582968,-5.319251487478613
1761469331287669200,2.198669189453125,3.3592484690725803,-1.1615770967543124,-5.587409672200679
1761469331297653200,2.2086533203125,4.037001600164174,-1.0064745055869222,-5.778315690416098
1761469331307636200,2.21863623046875,4.7243327069401735,-0.8833594364412128,-5.969305295261741
1761469331317619200,2.228619140625,5.284458406516909,-0.7194964695826173,-5.961432369929552
1761469331327603200,2.238603271484375,5.440059302595257,-0.5935628358848393,-5.7483688804417845
1761469331337586200,2.248586181640625,5.2865983411550515,-0.6075283790037036,-5.510435153591633
1761469331347570200,2.258570068359375,4.7737657231509685,-0.6683163174435496,-4.9805713212877505
1761469331357553200,2.26855322265625,3.917847981995344,-0.7517432270623743,-4.1522400907158845
1761469331367536400,2.278536376953125,2.852384988605976,-0.7402827986322343,-3.010374825647473
1761469331377520400,2.288520263671875,2.483639939019084,-0.8469396310605108,-1.686204197448492
1761469331387503000,2.298503173828125,2.2425047857791185,-1.0043675964355467,-0.20543138717412948
1761469331397486300,2.308486328125,1.539280528822541,-1.032042077563703,1.3160340834945439
1761469331407470300,2.31847021484375,0.4096276795953512,-0.9076588881783186,2.8541636887162922
1761469331417453300,2.328453369140625,-0.9217150321900844,-0.539024167098105,4.215169132837653
1761469331427436000,2.33843603515625,-2.319275306248665,0.07800356939584016,5.429564796587824
1761469331437420000,2.348419921875,-3.5621862858653066,0.5662696091592312,6.6137248965501785
1761469331447403300,2.3584033203125,-4.407582633006572,0.7804353608004748,7.402774502569437
1761469331457386200,2.36838623046875,-4.849150926741958,0.7935165223002433,7.522825946360826
1761469331467370200,2.378370361328125,-4.947902392873168,0.8007247001133859,6.858147985419631
1761469331477353200,2.388353271484375,-5.081924494349956,0.7927857238076627,6.08663345156908
1761469331487336200,2.398336181640625,-5.46674214233756,0.8991948650851845,5.692406754723191
1761469331497320200,2.4083203125,-5.743710825502872,1.1301849102772772,5.4872313881367445
1761469331507303200,2.41830322265625,-5.309707414063811,1.3199354748472572,5.260054617622495
1761469331517286400,2.428286376953125,-4.343714264208078,1.5665863227687775,4.840513446778059
1761469331527270400,2.4382705078125,-3.300222864130139,1.5671138537742197,4.182691927602887
1761469331537253000,2.448253173828125,-2.035763485050201,1.377095139787346,3.4960458804816006
1761469331547237000,2.458237060546875,-0.6588613836169243,1.104533021017909,2.870320458269119
1761469331557220000,2.46822021484375,0.4128980795681476,0.8775470969006419,2.2603929091691968
1761469331567203300,2.478203369140625,1.0082757097899913,0.7120261337019502,1.511231076902151
1761469331577187300,2.488187255859375,1.7617419612526892,0.5218747332461178,0.585673397809267
1761469331587170000,2.498170166015625,2.48122235648334,0.33345585567131636,-0.3989718455463648
1761469331597153300,2.5081533203125,2.9204554852694273,0.187792123978585,-1.2630465896725653
1761469331607137300,2.51813720703125,2.958218521952629,0.04037497274726629,-2.134205154579878
1761469331617120300,2.528120361328125,2.698897139158845,-0.0343073432713747,-2.981389554181695
1761469331627103200,2.538103271484375,2.328169391322136,-0.15232991158366202,-3.840328688985109
1761469331637087200,2.548087158203125,1.9373317523926494,-0.36842414706945414,-4.765621579661965
1761469331647070200,2.5580703125,1.5678315005242824,-0.5950326161764562,-5.792000516897439
1761469331657053200,2.56805322265625,1.3805267216712236,-0.8291722114406526,-6.880626359209418
1761469331667037200,2.578037109375,1.7921172257721423,-0.9158870566889643,-8.00979171718061
1761469331677020400,2.5880205078125,2.5829297498106953,-0.809349174465239,-8.79945448666215
1761469331687003100,2.598003173828125,3.3127962222382425,-0.6809425747826695,-9.082857002267241
1761469331696987100,2.607987060546875,4.06157256231904,-0.5688429667785764,-8.994908085179329
1761469331706970000,2.61797021484375,4.69668248347044,-0.40510421082153913,-8.607922445502878
1761469331716953300,2.627953369140625,5.062333658695221,-0.2072664936468005,-7.8888436168104406
1761469331726937300,2.637937255859375,4.97279659563303,-0.14796338693723082,-7.01941582121849
1761469331736920000,2.647920166015625,4.214044220460951,-0.2778863825321197,-6.042111588275432
1761469331746904000,2.657904052734375,3.0784318783074616,-0.35961963997557755,-4.719696279311179
1761469331756887300,2.66788720703125,1.7373977935910223,-0.4389535811923444,-3.2172201712727544
1761469331766870300,2.677870361328125,0.004237783700227737,-0.6460242600060999,-1.7622540024280546
1761469331776854300,2.687854248046875,-1.6271452747583388,-0.7601172337844967,0.14187924471795557
1761469331786837000,2.6978369140625,-1.89659934450984,-0.4485052533917129,2.4922078608781097
1761469331796820200,2.7078203125,-1.7228204021841287,0.03900149243697524,4.946714059871435
1761469331806804200,2.71780419921875,-2.021542067474127,0.47951647772714495,7.3039417878955595
1761469331816787200,2.727787109375,-3.603525427469611,0.2751126800350845,9.25216084500551
1761469331826766800,2.737766845703125,-6.229702198332547,-0.6168341136179865,10.190982494819163
1761469331836750800,2.747750732421875,-8.218897408953309,-0.5956831890396773,10.068134698307514
1761469331846733800,2.75773388671875,-8.366058393466473,-0.373349913033843,9.591068974733352
1761469331856716800,2.767716796875,-6.729619220662117,0.7561196885809301,8.924926786458492
1761469331866700800,2.77770068359375,-5.128115752160549,1.8079886025123297,8.572047414523363
1761469331876684000,2.78768408203125,-4.744971298082173,2.951719223061204,8.10412185973823
1761469331886666800,2.797666748046875,-4.642527114912867,3.323565745794773,7.944494776883721
1761469331896650800,2.807650634765625,-3.783928171849251,3.004647680172324,7.4762003887861965
1761469331906633700,2.8176337890625,-3.09397986831218,2.8702339490294455,6.096953185531497
1761469331916617000,2.827616943359375,-1.9957097070813177,2.2230388916783035,4.436039496684074
1761469331926601000,2.83760107421875,-0.8410133097514509,1.4918077067688107,2.6817098575145004
1761469331936583700,2.847583740234375,0.05496493137478828,1.0069903461545706,1.1320762769818304
1761469331946567700,2.857567626953125,0.8192717258036136,0.5732658977873623,-0.2538596102565527
1761469331956551000,2.867551025390625,1.1743243501245975,0.4707618011243641,-1.7395131783097981
1761469331966534000,2.877533935546875,1.7538965084493159,-0.09348097838237882,-2.921035330983996
1761469331976518000,2.887517822265625,2.4199510184407234,-0.2765666782356799,-4.052106230315566
1761469331986500900,2.8975009765625,2.650854116001725,-0.3569504207663238,-5.159336235332488
1761469331996483800,2.90748388671875,2.776423446431756,-0.6028159635290503,-6.150762517130374
1761469332006467800,2.9174677734375,2.925674388961494,-0.9656243165433406,-7.015151149511337
1761469332016450800,2.927450927734375,3.3022289432555434,-1.1623121330305932,-7.809483079847693
1761469332026434000,2.93743408203125,3.785001354038715,-1.106789860033989,-8.492021691650152
1761469332036417800,2.947417724609375,4.262937138445675,-0.9845578573331236,-9.079981739091872
1761469332046400800,2.95740087890625,4.653264489765465,-0.8348750992573797,-9.461577502423525
1761469332056383700,2.9673837890625,4.915735568761825,-0.7037777991861105,-9.672837741881608
1761469332066367700,2.97736767578125,5.150845470362901,-0.49419645272567864,-9.605718846854566
1761469332076351000,2.98735107421875,5.415222382980585,-0.36135026316046714,-9.181435449919103
1761469332086333700,2.997333740234375,5.703797917309403,-0.09825155378505587,-8.392924773082136
1761469332096317700,3.007317626953125,5.391407207629085,0.15313976666182277,-7.26611912997961
1761469332106301000,3.017301025390625,4.2596126701980825,0.45173809783309693,-5.851640454345941
1761469332116284000,3.027283935546875,3.174945502384007,0.6469744003377854,-4.23872945664525
1761469332126268000,3.037267822265625,2.3991943538770077,0.6638252896346152,-2.536625679275393
1761469332136250600,3.047250732421875,1.1433631024107336,0.7240289984457194,-0.5530120681792497
1761469332146234600,3.057234619140625,-0.1361357326298952,0.5426831279970705,1.7868571132868527
1761469332156217900,3.0672177734375,-1.6332345315441488,0.6127263860382139,4.3402077173918485
1761469332166200800,3.077200927734375,-3.347542249187827,0.5818205217733979,7.084316455674171
1761469332176184800,3.087184814453125,-4.815790801192819,0.5714565102778375,9.483651387065649
1761469332186168000,3.09716796875,-5.831924531006813,0.45933805144280193,11.254323673748969
1761469332196150800,3.10715087890625,-6.162891346341371,0.10664455746859311,11.720253086280822
1761469332206134800,3.117134765625,-5.254737221992015,-0.13872764881923794,10.392226367175578
1761469332216117800,3.12711767578125,-4.110425732815266,0.20136260336525738,9.63839128240049
1761469332226101000,3.13710107421875,-3.3890932799771427,0.16969817581810057,9.346725965362786
1761469332236085000,3.1470849609375,-2.680000130987167,0.01459441560693085,9.092291770088671
1761469332246067700,3.157067626953125,-2.2381594500511883,-0.3267573809459805,8.44222744091153
1761469332256051000,3.167051025390625,-2.0744225937902927,-0.5848801285397262,7.6476137710243455
1761469332266035000,3.177034912109375,-1.653572093912959,-0.8574104639314114,6.871062412050366
1761469332276018000,3.187017822265625,-1.1014230723038314,-0.9216435743890702,5.84421994895637
1761469332286000600,3.197000732421875,-0.5770835563793778,-0.9120882489278912,4.711345215073227
1761469332295984600,3.206984619140625,0.13901216484904289,-0.921238354589045,3.6531986821770666
1761469332305967900,3.2169677734375,0.8648726165056229,-0.7953978790674359,2.671253929951787
1761469332315950800,3.226950927734375,1.469887551383674,-0.520987940474227,1.7041887669503688
1761469332325934800,3.236934814453125,2.0683304143950343,-0.25437048238813875,0.6226338859379291
1761469332335917800,3.246917724609375,2.459407415038347,0.04693937276415527,-0.6395388435095548
1761469332345900800,3.25690087890625,2.6557261059522626,0.1973239224337041,-1.9733476531475782
1761469332355884800,3.266884765625,2.781951269942522,0.2575361068122089,-3.2575767315804955
1761469332365867800,3.27686767578125,2.9177456417888403,0.3062499419029802,-4.342903532347083
1761469332375851000,3.28685107421875,2.8985496506705877,0.324725948183611,-5.200380193382501
1761469332385835000,3.2968349609375,2.9962790802776813,0.2041577139765024,-5.9543912192463875
1761469332395817700,3.306817626953125,3.2010651552855967,0.13178316344358026,-6.606337124386429
1761469332405801700,3.3168017578125,3.304596549169719,0.03321611396856606,-7.283231592822075
1761469332415785000,3.326784912109375,3.479945809552073,-0.07014598776325583,-7.989117762464285
1761469332425768000,3.336767822265625,3.6947681254059073,-0.09534304592721164,-8.52682470948398
1761469332435752000,3.346751953125,3.92779654455781,-0.10997611304409802,-8.749670172795653
1761469332445734700,3.356734619140625,3.947563321301341,-0.07876103669963777,-8.782011768952012
1761469332455718000,3.3667177734375,3.7767262776464223,0.033131504425033924,-8.605663852921127
1761469332465702000,3.376701904296875,3.3151948078125715,0.22809541972912847,-8.371234334799647
1761469332475684900,3.386684814453125,2.6381471946418285,0.520958495184034,-7.848386518737673
1761469332485667800,3.396667724609375,2.19156837926805,0.8353015079759061,-6.846848592770099
1761469332495651800,3.40665185546875,2.347762272803485,0.9800925484873354,-5.443336132308841
1761469332505634800,3.416634765625,2.1213845437124372,0.7681046523418277,-3.919278307059407
1761469332515617800,3.42661767578125,0.9940870254397391,0.2279611988902092,-2.213717082712054
1761469332525601800,3.436601806640625,-0.5189321039229631,-0.3909799700096249,-0.5446551587224007
1761469332535585000,3.4465849609375,-0.837977010795474,-0.7957261611737311,0.7952303404808044
1761469332545567700,3.456567626953125,-0.1385626675158739,-0.8143658335834741,2.4145360076546667
1761469332555551700,3.4665517578125,0.620386691533029,-0.5532636317875236,4.5246074224531645
1761469332565534700,3.47653466796875,-0.12041940032094717,-0.4296264384638518,6.633616760978103
1761469332575518000,3.48651806640625,-2.3550018686681984,-0.9166095988098532,8.130876011151075
1761469332585502000,3.496501953125,-4.907528296908736,-1.4478092828273772,9.299256942701339
1761469332595484700,3.506484619140625,-6.4961050638198845,-1.221153613577783,10.180921704053878
1761469332605468700,3.51646875,-6.587073036468029,-0.5877879057452082,9.824482593810558
1761469332615452000,3.526451904296875,-5.870384317782521,0.48623979463279243,8.765817589998244
1761469332625435000,3.536434814453125,-4.97106231918633,1.3864292237132787,8.015498988911508
1761469332635419000,3.5464189453125,-3.928455885249376,2.217838546556234,7.738174331915378
1761469332645401900,3.55640185546875,-3.5038545084059236,2.5602365642264484,7.677955133274197
1761469332655384800,3.566384765625,-3.5855399811849,2.406465221662819,7.386593183097243
1761469332665368800,3.576368896484375,-3.420331591066718,1.5620187225922941,6.703935328829288
1761469332675351800,3.586351806640625,-2.6714582203522323,0.9335420289102941,5.587587951377034
1761469332685335000,3.5963349609375,-1.448348796531558,0.5056643338099122,4.328213912737369
1761469332695319000,3.606319091796875,-0.4059872772663832,0.297245601388067,2.9473849932491776
1761469332705301800,3.6163017578125,0.22504618822634218,0.3438494585875422,1.5519278289496898
1761469332715284700,3.62628466796875,0.5934469544202089,0.45175914062112565,0.14608078806102276
1761469332725268700,3.636268798828125,0.9109545687228441,0.5673910144045948,-1.1104957288146018
1761469332735252000,3.646251953125,1.2208707049831746,0.6978632413800805,-2.204405064487457
1761469332745234700,3.656234619140625,1.6825927289530633,0.6897950857367366,-3.342050081512332
1761469332755218700,3.66621875,2.243202997176349,0.5457408350672572,-4.45725296510458
1761469332765202000,3.676201904296875,2.657063492035866,0.3568668341360986,-5.639705676627159
1761469332775185000,3.686184814453125,2.977178073966503,0.11194164096340536,-6.765353966388106
1761469332785169000,3.6961689453125,3.13399360653162,-0.021418489473313092,-7.744550881209969
1761469332795152000,3.70615185546875,3.136212159363925,-0.047669732865318656,-8.668540288072824
1761469332805134800,3.716134765625,3.3874519425109026,-0.02623429225720465,-9.418146356976031
1761469332815118800,3.726118896484375,3.6850378817692397,-0.027996041232720016,-10.027702150154113
1761469332825102300,3.736102294921875,3.9309304586693643,-0.16931575237177313,-10.425261206293106
1761469332835086300,3.74608642578125,4.228383711458743,-0.31189393913932145,-10.58071947903037
1761469332845069300,3.7560693359375,4.679318091693521,-0.39283706911839544,-10.342553696990013
1761469332855052300,3.76605224609375,5.112122648736834,-0.33007468880042434,-9.651305709031224
1761469332865036300,3.776036376953125,5.0467269242405886,-0.43091560149155556,-8.372669336038827
1761469332875019300,3.786019287109375,3.985316421112418,-0.3717869015008211,-6.488737749922275
1761469332885002500,3.79600244140625,1.8917521967396138,-0.026041838425025342,-4.310983376473188
1761469332894986500,3.805986572265625,0.452478394806385,0.1883148326784372,-1.674762181457877
1761469332904969500,3.815969482421875,-0.7578963428646326,0.2206426925703883,2.3567776461690664
1761469332914952200,3.8259521484375,-1.7291306082442401,0.23118315661139785,7.067880284658074
1761469332924936200,3.835936279296875,-2.7009485187307,0.5628563666496426,10.626257241368293
1761469332934919400,3.84591943359375,-3.9732416601762175,1.0694400803267956,12.219254747331142
1761469332944902400,3.85590234375,-5.262160065469145,0.36351620902270076,13.052507067692279
1761469332954886400,3.865886474609375,-6.447198701831698,-1.58180025851354,12.172550279301404
1761469332964869400,3.875869384765625,-7.143276009643078,-1.439955938978493,10.148181463968752
1761469332974852400,3.885852294921875,-6.368434961718321,-1.7563085380271075,7.602989616400003
1761469332984836400,3.89583642578125,-4.905492991688847,-2.1622740418531,6.12471797529161
1761469332994819300,3.9058193359375,-3.2817809062495824,-1.971865305635333,5.222276967892051
1761469333004802300,3.91580224609375,-1.709246342600882,-1.7531620566949246,4.488528977856039
1761469333014786300,3.925786376953125,-0.7249433368116617,-1.5650921386882661,4.235020665255188
1761469333024769300,3.935769287109375,-0.6731748633906245,-1.7386689825706183,4.010648430767655
1761469333034752300,3.945752197265625,-0.33279169267416,-1.789674508795142,3.6546354369819163
1761469333044736500,3.955736572265625,0.019996786107122896,-1.8715747933685778,2.8561159918278456
1761469333054719500,3.965719482421875,0.7693193618938327,-1.7733035119697451,1.8605764294922351
1761469333064702200,3.9757021484375,1.7329200636550783,-1.5170293879173695,0.5102969620466232
1761469333074686200,3.985686279296875,2.5228777244299647,-1.5147446379810572,-1.2453361609369515
1761469333084669400,3.99566943359375,3.2660122592315077,-1.3140332650661468,-2.7796044145554304
1761469333094652400,4.00565234375,4.05065223211497,-0.785379246943444,-4.527100992834567
1761469333104636400,4.015636474609375,4.84046405467838,-0.3334256066635251,-6.318609731319547
1761469333114619100,4.025619140625,5.462908263263106,-0.0005462357059121131,-7.5695947117984295
1761469333124603400,4.035603271484375,5.710045287266373,0.08446458210349082,-8.386238427186012
1761469333134586400,4.04558642578125,5.125396556329727,0.06419584718719125,-9.082071989369393
1761469333144569300,4.0555693359375,4.3179184364333745,-0.25980887404978276,-9.617632572010159
1761469333154553300,4.06555322265625,3.506598838678002,-0.5951286238968372,-9.776837045538425
1761469333164536300,4.075536376953125,2.9505352739736437,-0.8881738509856164,-9.700373399060965
1761469333174519300,4.085519287109375,2.3854528287723658,-0.9287962226226926,-9.176505592301487
1761469333184503300,4.09550341796875,1.669191687849164,-0.753701959914714,-8.17914875141084
1761469333194486300,4.105486328125,0.8129881154894828,-0.4635093457780778,-6.997965036910772
1761469333204469500,4.115469482421875,-0.47720717787146566,-0.09565656885579228,-5.692009279838204
1761469333214453200,4.125453369140625,-1.3140092996686696,0.21103359109535813,-4.178361204922199
1761469333224436200,4.135436279296875,-0.8683180807843803,0.6934775005765259,-2.17640646597147
1761469333234419500,4.14541943359375,0.10002630837261677,1.3768158844545484,0.7118611523985863
1761469333244403500,4.155403564453125,0.532686780770123,1.4595344996735453,4.098759844940901
1761469333254386400,4.165386474609375,-0.9729533442571758,1.2541411064222454,7.575708810764551
1761469333264369200,4.175369140625,-3.766064598378539,0.756584383483231,10.50104446929097
1761469333274353200,4.185353271484375,-5.982655190700292,-0.5146940279617905,12.563858458352088
1761469333284336400,4.19533642578125,-7.178463058358431,-0.24153482008203864,12.37750352756977
1761469333294319400,4.2053193359375,-7.242304539149999,0.9451214806102216,10.320072985112667
1761469333304303400,4.215303466796875,-6.557299829494953,1.8611043988890945,8.058394712308049
1761469333314286300,4.225286376953125,-5.553593911838531,3.236117471705377,6.316855581128597
1761469333324269300,4.235269287109375,-4.208130320242047,4.442717659273743,5.416479689565301
1761469333334253300,4.24525341796875,-3.72136767077893,5.439760027387738,5.217740493506193
1761469333344236300,4.255236328125,-3.8320752399027347,5.600141728001833,5.010996270167827
1761469333354219500,4.265219482421875,-3.933056657043099,5.126597164291143,4.435155115064978
1761469333364203500,4.27520361328125,-3.360067091979086,4.409113495835662,3.5287510492533443
1761469333374186200,4.285186279296875,-2.3980101125285027,3.038307373189926,2.5912194392502306
1761469333384169200,4.295169189453125,-1.8806734611034392,2.206772670401633,1.3807301352888346
1761469333394153500,4.305153564453125,-1.2883382673174142,1.3718706831373273,0.25696575957834716
1761469333404136400,4.315136474609375,-0.5758870400711894,0.8058978649675845,-0.8287994326055049
1761469333414120400,4.325120361328125,0.08849076887965202,0.31561332498863337,-1.8774030611306427
1761469333424103200,4.335103271484375,0.7949971162468195,-0.05726823988109827,-2.71302386418879
1761469333434086400,4.34508642578125,1.4109066623657942,-0.29032500834465025,-3.441734444579482
1761469333444070400,4.3550703125,1.9233382983535527,-0.4575986604295671,-4.110413457855582
1761469333454053400,4.365053466796875,2.2970579214826223,-0.5967443885304033,-4.721572010055184
1761469333464036400,4.375036376953125,2.59454010810554,-0.8264576917849481,-5.320245759212971
1761469333474020400,4.385020263671875,2.883780536083877,-0.9959985581494867,-5.893282962810993
1761469333484003300,4.39500341796875,3.199173057928681,-1.1050478386722504,-6.441636391529441
1761469333493986300,4.404986328125,3.493993624126911,-1.2466349685758351,-6.829846604564786
1761469333503970300,4.41497021484375,3.861881472362578,-1.301796299305558,-7.008739528903365
1761469333513953500,4.42495361328125,4.239532589721679,-1.2342521646037696,-7.0479884202301495
1761469333523936300,4.434936279296875,4.55014810642302,-1.0760131751067936,-6.97607352309823
1761469333533920300,4.444920166015625,4.687091648304462,-0.8609894914619625,-6.6429194268524645
1761469333543903200,4.4549033203125,4.763539512690901,-0.7687852550171316,-6.240993992197513
1761469333553886500,4.464886474609375,4.835348611360788,-0.8157448668517172,-5.920584811234474
1761469333563870500,4.474870361328125,5.113680984094739,-0.8650194776304065,-5.395530425038934
1761469333573853200,4.484853271484375,5.194320454952121,-0.6257321442142129,-4.499871625125408
1761469333583836400,4.49483642578125,4.6561502743348475,-0.5279441893529147,-3.302859642374515
1761469333593820400,4.5048203125,3.031151363955438,-0.3926663887266069,-1.8417974947422742
1761469333603803400,4.514803466796875,0.8196060723245143,-0.14000957838855682,-0.3416495373904705
1761469333613786000,4.5247861328125,-0.6536684911489486,-0.04656235614530742,1.0294166974961758
1761469333623770000,4.53477001953125,-1.3384165956944227,0.26568032336644826,2.3281062629580496
1761469333633753300,4.54475341796875,-1.9404244577109813,0.6898632556021214,3.702639297172427
1761469333643736300,4.554736328125,-3.105238636690378,1.2616799774944782,5.1335401152968405
1761469333653720300,4.56472021484375,-4.101574902361631,1.4566250419676303,6.3333116258889435
1761469333663703600,4.57470361328125,-4.988011700421572,1.1961140109978616,7.133518585738539
1761469333673686300,4.584686279296875,-5.37399663862288,0.7005924471482634,7.718441457441449
1761469333683670300,4.594670166015625,-4.810013386835157,0.1718324113678187,7.814198417931794
1761469333693653200,4.6046533203125,-3.7018718199312683,-0.06310775968953966,7.817021074137092
1761469333703636500,4.614636474609375,-2.5163392625719307,0.24421061516255138,7.907128046041727
1761469333713620500,4.624620361328125,-1.6740698152795432,0.36168614405132826,7.696770892903208
1761469333723603200,4.634603271484375,-1.7302528902724383,-0.19590558006837963,6.78069415886104
1761469333733587200,4.644587158203125,-2.01944714102149,-0.1148812015466392,6.184917884710431
1761469333743570400,4.6545703125,-1.9974255710884927,-0.1300099432259798,5.985981704774499
1761469333753553400,4.664553466796875,-1.5806395441710948,-0.3597759265158325,5.471739804494381
1761469333763537400,4.674537353515625,-0.8866600854218005,-0.53484629689157,4.624425641033053
1761469333773520100,4.68452001953125,-0.10367810887843369,-0.6082167631266638,3.5988749713152646
1761469333783503400,4.69450341796875,0.6817746416926384,-0.4641078231278807,2.3789953231960532
1761469333793487400,4.7044873046875,1.3703405509606004,-0.25329719060081984,1.0533902782797813
1761469333803470300,4.71447021484375,1.834250148102641,-0.06075045597366988,-0.36212417014241216
1761469333813453300,4.724453369140625,2.0405448741078374,0.121595604493469,-1.7766151207357643
1761469333823436800,4.734436767578125,2.2941931797012685,0.407356519792974,-3.060515697866678
1761469333833419800,4.744419677734375,2.633654851658642,0.6729270261093974,-4.257618281510472
1761469333843402800,4.75440283203125,3.099337888213992,0.7588122156005352,-5.1864866925865405
1761469333853386800,4.76438671875,3.582809094916284,0.8769234851095825,-5.943110531297326
1761469333863369700,4.77436962890625,3.775805363409221,0.9382032987195998,-6.586632306963205
1761469333873352700,4.784352783203125,3.8436046419158574,1.019054001174867,-7.098389989212155
1761469333883336700,4.794336669921875,3.71217372597605,1.1002540285244584,-7.692684500372409
1761469333893319700,4.804319580078125,3.255882494883239,1.069214601007849,-8.312581654822825
1761469333903302700,4.814302734375,2.808156263040006,1.009397480361536,-8.737115811648964
1761469333913283800,4.824283935546875,2.4983351115867496,0.9152787885975092,-8.887529660478235
1761469333923266600,4.8342666015625,2.249762209561467,0.8586940740011632,-8.77364200001359
1761469333933250600,4.84425048828125,1.7938976794481276,0.8257263818357139,-8.320903492966293
1761469333943233800,4.85423388671875,1.3148033726558088,0.9437438355814665,-7.650314262154698
1761469333953216800,4.864216796875,0.9305071181938052,1.0958012138340623,-6.826359931492805
1761469333963200800,4.87420068359375,0.7010331766530871,1.0310101041674613,-5.693355433750153
1761469333973183700,4.884183837890625,0.3450459018304944,0.8787319958362728,-3.9199885011553763
1761469333983166700,4.894166748046875,0.15597411330491304,0.6501361523043364,-1.3041051607698202
1761469333993150700,4.904150634765625,-0.3061155749335885,0.37789742027036843,1.9845780722141264
1761469334003133700,4.9141337890625,-0.688963091892004,0.18326624405197797,5.661760272046923
1761469334013116700,4.92411669921875,-1.3525447820290923,-0.02033288619369268,9.042348466268182
1761469334023100700,4.9341005859375,-2.6613024447798725,-0.6769212833773345,11.768927393078803
1761469334033083600,4.944083740234375,-4.398926448342204,-1.740218403969705,12.806121738839149
1761469334043066600,4.954066650390625,-5.762884312528372,-1.6059451042108237,11.531831286096573
1761469334053051000,4.96405078125,-5.195777668023109,-0.4077374819345772,9.397911378198861
1761469334063033900,4.974033935546875,-4.1964252694010735,0.694151965771988,7.778591097977757
1761469334073016600,4.9840166015625,-3.3052146810680627,1.8808251445338129,6.700123077064752
1761469334083000600,4.99400048828125,-2.7367238887280223,2.69703163754791,6.195981715038418
1761469334092983800,5.00398388671875,-2.7946201973795888,2.9063612012043594,6.029596974617243
1761469334102966800,5.013966796875,-2.802065837210417,2.929967994502187,5.576157041302323
1761469334112950800,5.02395068359375,-2.1796777427271006,2.6760560695365068,4.51352021124959
1761469334122933500,5.03393359375,-1.1290566368997097,2.298295646584034,3.1263439685612915
1761469334132916700,5.043916748046875,-0.1956359693467617,2.1019595661439,1.4434768065810202
1761469334142900700,5.053900634765625,0.43510260485261676,1.963664755783975,-0.30574878744781014
1761469334152883700,5.0638837890625,1.1052332782417535,1.8412294855959712,-1.7490981682568787
1761469334162866700,5.07386669921875,1.6309969817504286,1.7083916254676876,-2.8586802893579004
1761469334172850700,5.0838505859375,1.9483108270466327,1.5302264308817684,-3.811926770365238
1761469334182833700,5.093833740234375,2.2782807402983307,1.4565378020755946,-4.605543245908618
1761469334192816600,5.103816650390625,2.571001996129751,1.3609674501985312,-5.2463247829556465
1761469334202800600,5.113800537109375,3.0083856976568697,1.2338538129359482,-5.685186155819893
1761469334212783900,5.123783935546875,3.5819141919031736,0.9664376787528395,-6.077162443390488
1761469334222766600,5.1337666015625,4.010063032095134,0.6758032391328365,-6.465652057889104
1761469334232750600,5.14375048828125,4.656771913364529,0.42550621672868727,-6.803202343267202
1761469334242733800,5.15373388671875,5.01203613460958,0.2270532902650535,-7.280646837025881
1761469334252717800,5.1637177734375,5.02162229360044,0.0417751949340105,-8.027316852477192
1761469334262700800,5.17370068359375,4.582042251072823,-0.15518281679674983,-8.69555221363902
1761469334272683500,5.18368359375,3.8553281051963566,-0.3757276019506156,-8.87491158644557
1761469334282667500,5.19366748046875,3.1695369213387368,-0.7069008996427059,-8.573430977836251
1761469334292650800,5.203650634765625,3.0605817488402125,-1.1103237332485616,-7.912545394915342
1761469334302633700,5.2136337890625,1.3458636968299746,-0.2682705590553582,-6.095832072547077
1761469334312617700,5.22361767578125,-0.04297843324393034,-0.148134651850909,-4.096026036062836
1761469334322600700,5.2336005859375,0.04231850803047418,-0.2590631702490151,-2.8647043719530103
1761469334332583700,5.243583740234375,-0.6532578645214439,-0.19470957521684468,-0.7631020948141812
1761469334342567700,5.253567626953125,-0.6063827160999179,-0.32496976687684653,1.3427823896884918
1761469334352550700,5.263550537109375,-1.638582906834781,-0.6590604133203626,3.5949674424827096
1761469334362534000,5.273533935546875,-3.4947385972753167,-1.24891986464262,6.1880456613421435
1761469334372518000,5.283517822265625,-4.771927109546959,-1.5356160149656235,8.377964519837498
1761469334382500600,5.29350048828125,-5.3342637631714345,-1.5269937325708567,10.201810178303719
1761469334392483600,5.303483642578125,-5.268756394994258,-1.4892590451993046,11.325312688207626
1761469334402467800,5.3134677734375,-5.033002934792638,-0.9199088595509528,11.107494113147258
1761469334412450800,5.323450927734375,-4.649057101203501,-0.3444164813531562,10.115375757431984
1761469334422433500,5.33343359375,-4.488255713872611,-0.945308089223504,8.647934137895703
1761469334432417500,5.34341748046875,-4.285082627019286,-1.2962782665364443,7.981496181544661
1761469334442400800,5.35340087890625,-3.4983547419458625,-1.5844051803149282,7.790663228565454
1761469334452383700,5.3633837890625,-2.6659330271899697,-1.7050225874260068,7.552631302037835
1761469334462367700,5.37336767578125,-2.237529335454106,-1.6855052553988992,7.103833641570806
1761469334472350700,5.383350830078125,-1.8219246272757648,-1.6957653681285678,6.284936594298482
1761469334482333700,5.393333740234375,-1.1723790612757206,-1.6565493561580775,5.197763288882374
1761469334492317700,5.403317626953125,-0.4368561705216765,-1.5191227069348097,3.7728339463829994
1761469334502300700,5.41330078125,0.3604875088512897,-1.139287158208713,2.2386124545156956
1761469334512284700,5.42328466796875,1.2056173140108584,-0.8537933694127947,0.795602096402645
1761469334522268700,5.4332685546875,1.796107172191143,-0.6323469592440873,-0.6142991883128881
1761469334532251600,5.443251708984375,2.01069977094233,-0.42903092025611544,-2.012794697394967
1761469334542234600,5.453234619140625,2.183051310813427,-0.26868045503050086,-3.2269851939618586
1761469334552218600,5.463218505859375,2.644582196125388,-0.28290793702118094,-4.273309187117219
1761469334562201900,5.473201904296875,3.0527690292626617,-0.1596511213172227,-5.029078454825282
1761469334572184800,5.483184814453125,3.2777117571145293,0.027820246274396776,-5.6893812694221735
1761469334582168800,5.4931689453125,3.412859063228965,0.2554756671510637,-6.596643413367867
1761469334592151600,5.503151611328125,3.6259114468008278,0.5495457072429358,-7.544380775564909
1761469334602134800,5.513134765625,3.617333295808732,0.899475727853179,-8.664705239954591
1761469334612118800,5.523118896484375,3.3525673838734624,1.114054005818069,-9.712924253076315
1761469334622101800,5.533101806640625,2.8542127885550257,1.3081380695477127,-10.40982749031782
1761469334632084700,5.543084716796875,2.398670037741959,1.4427844404026866,-10.797857670611142
1761469334642068700,5.55306884765625,2.1873498847901818,1.3950453686282038,-10.633864209240674
1761469334652051700,5.5630517578125,1.861891311483085,1.1267427339341491,-10.094864884322881
1761469334662034700,5.57303466796875,1.532348391471803,0.9547598812449722,-9.292648922738433
1761469334672018700,5.583018798828125,1.304293961340189,0.808397134437412,-8.416052550691365
1761469334682002000,5.593001953125,1.2049436525329946,0.6641726417675614,-7.285468558093905
1761469334691984600,5.602984619140625,1.2209525380477309,0.593954392485693,-5.8324581994920965
1761469334701968600,5.61296875,0.7948603381246327,0.4439926713380962,-3.9534313365519043
1761469334711951600,5.62295166015625,0.26075930664241315,0.02260945282354951,-1.722715188243985
1761469334721934800,5.632934814453125,0.14991408261358738,-0.5226259169396013,1.1227210041373967
1761469334731918800,5.6429189453125,-0.02364741756916046,-0.9153786687754094,4.975117732056975
1761469334741901600,5.652901611328125,-1.0870502635583281,-1.1593025759510696,8.969533405426144
1761469334751884800,5.662884765625,-2.3022931917876,-1.1521330496478825,11.79478079625964
1761469334761868800,5.672868896484375,-4.386937904384732,-1.9019371984064577,12.798179255402088
1761469334771851800,5.682851806640625,-6.40351796553731,-2.8533219771951437,12.223781284844875
1761469334781834500,5.69283447265625,-7.234891048023104,-2.0523473939739167,10.622860000145435
1761469334791818500,5.702818603515625,-7.054468429899215,-0.49249987794086336,9.035815849629044
1761469334801801700,5.7128017578125,-6.340263929244876,1.3747396627023816,7.548876333418488
1761469334811784700,5.72278466796875,-5.011866623261571,3.0991023258924484,6.8384525203466415
1761469334821768700,5.732768798828125,-3.906325594244897,4.132838932414352,6.5289224607944485
1761469334831752000,5.742751953125,-3.571195229490101,4.531474093352258,6.012699615830183
1761469334841735200,5.752735107421875,-2.8297221981599927,3.5593215440839527,5.600568428981304
1761469334851719200,5.76271923828125,-2.0428762396648525,2.6540350841253995,4.677937450990081
1761469334861702100,5.7727021484375,-1.2379179936349392,2.0798270831823347,3.210771141263842
1761469334871686100,5.78268603515625,0.08432838850319385,1.5424400157667695,1.644769194254279
1761469334881669000,5.792669189453125,1.3505483475148676,1.1337100156635045,0.02249357135891914
1761469334891652000,5.802652099609375,2.0908184327960013,0.7694794478263706,-1.631798069000244
1761469334901636000,5.812635986328125,2.227445748335123,0.5572616884477436,-3.135386522194743
1761469334911619000,5.822619140625,2.1644781277686356,0.3199022543542087,-4.399796216914058
1761469334921602000,5.83260205078125,2.3762460244879127,-0.0327046573150903,-5.502829354763031
1761469334931586000,5.8425859375,2.6249726557701822,-0.3962371598854661,-6.473219862794876
1761469334941569000,5.852569091796875,2.645726982246339,-0.6850036136765033,-7.340244104376435
1761469334951552300,5.86255224609375,2.2938187934309244,-0.9430833258461206,-8.24839939776957
1761469334961536300,5.872536376953125,2.05754861587882,-1.1255762474380433,-9.24996362722218
1761469334971519200,5.882519287109375,1.9676608396828172,-1.1164411201503126,-10.110673863351344
1761469334981502000,5.892501953125,1.9241443540394305,-1.1053700563639401,-10.667250930535793
1761469334991486000,5.90248583984375,1.9497034504488109,-1.0092531034547836,-10.775993044805526
1761469335001469200,5.91246923828125,1.9886872610986233,-0.9404719743039458,-10.407547854948044
1761469335011452200,5.9224521484375,2.0688088455617426,-0.7951713768351822,-9.437136888650059
1761469335021436200,5.932436279296875,2.3558277980983258,-0.18031302026957272,-7.875003892028332
1761469335031419100,5.942419189453125,2.530714701665938,0.1196608370386064,-6.526600739848614
1761469335041402000,5.952402099609375,2.590209969946742,0.45241080946289003,-4.944952895417809
1761469335051386000,5.96238623046875,2.327454228790104,0.4777210456777364,-2.592813430443406
1761469335061369000,5.972369140625,1.2941598130777479,0.4837137832865119,0.8468103055924177
1761469335071352300,5.982352294921875,-0.7169169744834304,0.3298827464248985,4.857224927604198
1761469335081336000,5.992336181640625,-3.585877250315249,-0.14460823129042982,8.070448722717165
1761469335091319000,6.002319091796875,-5.317985413065553,-0.8189380368698388,10.798389585530757
1761469335101302300,6.01230224609375,-5.2016123655259605,-1.3121851529814301,12.616723787099122
1761469335111286300,6.022286376953125,-4.131889084343612,-1.7901016481660306,13.182147008562087
1761469335121269200,6.032269287109375,-3.109964496168494,-1.6064748271733522,11.747061598229408
1761469335131252000,6.042251953125,-2.9525927910253404,-2.3904633504107595,9.06232508637011
1761469335141236000,6.052236083984375,-3.773628311631083,-3.22289821690917,6.561643996179104
1761469335151219200,6.06221923828125,-3.7855028738200662,-3.1909327605888245,6.387766269654035
1761469335161202200,6.0722021484375,-2.8140003128930924,-3.58275093498826,6.622164223593473
1761469335171186200,6.082186279296875,-2.157962462264299,-3.2497309865161776,6.529254469227791
1761469335181169200,6.092169189453125,-1.8180220668792724,-2.6877745643809434,6.089903267019987
1761469335191152000,6.102152099609375,-1.6345046976104378,-2.361582708363235,5.263489852768182
1761469335201136000,6.11213623046875,-1.4170193000271916,-2.184575890032202,4.0316339356511826
1761469335211119000,6.122119140625,-0.94912940107733,-1.9552789124935863,2.62406372423172
1761469335221102300,6.132102294921875,-0.16727175238877534,-1.8207023920044303,1.1781845326840876
1761469335231086000,6.142086181640625,0.724304746647179,-1.3584735875561833,-0.07181903554201126
1761469335241069000,6.152069091796875,1.2785861041098832,-1.0235719169907271,-1.3424334301203489
1761469335251052000,6.162052001953125,1.5512491990357637,-0.4745266335505992,-2.3195447708398103
1761469335261036000,6.1720361328125,1.7750205450206995,-0.21157610047422348,-3.1736604310095307
1761469335271019300,6.182019287109375,1.7421338822022079,0.07631532404795288,-3.7366567175865173
1761469335281002000,6.192001953125,1.8735452166587114,0.22085794275626539,-4.147303218835592
1761469335290986000,6.201986083984375,2.0393901511147616,0.390691289261356,-4.61477050845921
1761469335300969200,6.21196923828125,2.324937569794059,0.5499209702961146,-5.115034152269363
1761469335310952200,6.2219521484375,2.5906580059751865,0.6941190864156931,-5.636479115796089
1761469335320936200,6.231936279296875,2.728766792243719,0.784170747936517,-6.138737732815742
1761469335330919000,6.2419189453125,2.7607150051683185,0.9041692924968898,-6.5582227895587675
1761469335340902100,6.251902099609375,2.651689397782087,1.0258189652651548,-6.8868135234117505
1761469335350886100,6.26188623046875,2.6584794963136313,0.8764226229153573,-6.998194169491529
1761469335360869000,6.271869140625,2.7515023556649685,0.5604178874563426,-6.989029450783133
1761469335370852400,6.281852294921875,2.7676401282563803,0.23026816065832972,-6.763380035966635
1761469335380836000,6.291836181640625,2.5265765789479016,-0.08697678412012755,-6.293054434302449
1761469335390819000,6.301819091796875,2.080673178617656,-0.28266952515542504,-5.65147093322277
1761469335400802000,6.311802001953125,1.407900466287136,-0.40082960224226116,-5.0366082658082245
1761469335410786000,6.3217861328125,0.8267661732122301,-0.5604838653646409,-4.227003363016247
1761469335420769300,6.331769287109375,0.47913317749798295,-0.7345321992162614,-3.1114012509733437
1761469335430752000,6.341751953125,0.34989071151316165,-0.8577534321501851,-1.4322101471573114
1761469335440736000,6.351736083984375,0.06052811845988035,-0.6418514313008636,0.8204191422730683
1761469335450719200,6.36171923828125,-0.2909720740765333,-0.52008025104478,3.5941461892277
1761469335460702200,6.3717021484375,-1.0447791018009185,-0.42692178261503577,6.185794083023071
1761469335470686200,6.381686279296875,-2.3293591856285927,-0.470454342610389,8.590077576732636
1761469335480669000,6.3916689453125,-3.8397888830199833,-0.9508999178811908,10.254401950806379
1761469335490652200,6.401652099609375,-5.076872471657395,-1.2655085958719252,10.421478180623055
1761469335500636200,6.41163623046875,-5.456862553358078,-0.5598069890163838,9.369474972787499
1761469335510619100,6.421619140625,-5.17761189673543,0.3106334907494485,7.8153364820510145
1761469335520602000,6.43160205078125,-4.936701199901104,1.110470155981928,6.541515400385856
1761469335530586400,6.44158642578125,-4.843804889538884,1.901286771673709,5.520872960975766
1761469335540569000,6.451569091796875,-4.78772264457196,2.436307986740768,4.930510528567433
1761469335550552000,6.461552001953125,-4.572485025915503,2.6985879270792004,4.6726329148411745
1761469335560536000,6.4715361328125,-4.0505195456460115,2.469545947214961,4.148645281094312
1761469335570519300,6.481519287109375,-3.10107625631392,1.5972458110570906,3.408974915271997
1761469335580502000,6.491501953125,-2.141991570672393,0.9636242287673056,2.2177543754041196
1761469335590486000,6.501486083984375,-1.3511515741050242,0.5150530705325305,0.8264858949661255
1761469335600469000,6.511468994140625,-0.5564221688836812,0.20732640714049339,-0.5030851309716701
1761469335610452200,6.5214521484375,0.02671791105568409,-0.030746143658459183,-1.6184049189418552
1761469335620436200,6.531436279296875,0.4268254826337099,-0.15210282482951878,-2.586928464058041
1761469335630419000,6.5414189453125,0.8762754695296286,-0.2006790780805051,-3.593945113697648
1761469335640402200,6.551402099609375,1.2822563170552252,-0.19943974554389715,-4.455863556572795
1761469335650386200,6.56138623046875,1.6872025608360766,-0.24305676895231007,-5.20329111239314
1761469335660369200,6.571369140625,2.215476493600011,-0.19332330849021673,-5.840145246863365
1761469335670352100,6.58135205078125,2.8276877697229383,-0.1905325087279081,-6.326590793201327
1761469335680336100,6.591336181640625,3.4289877757310867,-0.14837693617418407,-6.727852795511484
1761469335690319000,6.601319091796875,3.8709240259960294,-0.0843449743118137,-6.971012732577323
1761469335700302000,6.611302001953125,4.378513774910569,-0.13021364910453556,-7.149746082440018
1761469335710286000,6.6212861328125,4.722171729514002,-0.3617158085372299,-7.374373168471455
1761469335720269300,6.631269287109375,4.806513562020659,-0.6928077115561813,-7.618926021200418
1761469335730252000,6.641251953125,4.787839548949897,-1.0704895893797277,-7.746136689096689
1761469335740236000,6.651236083984375,4.419212572784722,-1.4987958120904863,-7.524842546880245
1761469335750219000,6.661218994140625,3.8188638761520384,-1.9645545442305503,-6.899046982041001
1761469335760202200,6.6712021484375,3.1287370011776683,-1.9093138646543024,-5.809152142706513
1761469335770186200,6.681186279296875,2.675259658461809,-1.0659070838950573,-4.356580760043859
1761469335780169000,6.6911689453125,2.3431994949325916,-0.7791514584697783,-2.8579022907227274
1761469335790152200,6.701152099609375,1.5520976325586437,-0.24541326895058155,-0.9440671492516994
1761469335800136200,6.71113623046875,0.39663551155328747,0.3376483389250934,1.4464251349925994
1761469335810119200,6.721119140625,-1.299974344575405,0.7599611664399504,3.894717866298556
1761469335820102100,6.73110205078125,-3.155424517095089,0.8902106175102293,5.927703118807077
1761469335830090000,6.741090087890625,-4.462203865510225,0.8531729724921285,7.380739780893921
1761469335840073200,6.7510732421875,-4.868875910170376,0.7984469644397497,8.473588209336995
1761469335850056200,6.76105615234375,-4.595927860823274,0.544907233787328,8.941878505781292
1761469335860040200,6.771040283203125,-3.902541691792011,0.1904931996308267,8.533170863640308
1761469335870023000,6.78102294921875,-3.3200402020171285,0.12173662039935589,7.870118458074331
1761469335880006100,6.791006103515625,-3.333492388786375,-0.5137739905074239,7.323886843815446
1761469335889990100,6.800990234375,-3.394667280717194,-0.7934226334717124,7.3799448311239475
1761469335899973000,6.81097314453125,-3.0242686187043786,-1.1940276331778614,7.4697963669627905
1761469335909956000,6.8209560546875,-2.7333561658605934,-1.5159791482120752,7.337804310008883
1761469335919940000,6.830940185546875,-2.5748124943286177,-1.511005451452732,6.955083926561475
1761469335929923000,6.840923095703125,-1.9421216170176863,-1.4835571802958845,6.316515389388799
1761469335939906000,6.850906005859375,-1.1564125535979866,-1.4349553542122244,5.178088866597414
1761469335949890000,6.86089013671875,-0.13631313502341508,-1.3140151448875665,3.6921769398689266
1761469335959873300,6.870873291015625,0.7721054854810238,-1.2474012767732143,2.1230214972645043
1761469335969856000,6.88085595703125,1.3792784751757978,-1.2279232538431881,0.4644511566728353
1761469335979840000,6.890840087890625,1.7202727635279296,-1.1913274343084543,-1.1104705943733453
1761469335989823000,6.900822998046875,1.8571046617284417,-1.151703791385144,-2.566731479203701
1761469335999806200,6.91080615234375,1.8538073737487195,-0.9635248600460589,-3.8559120425641535
1761469336009790200,6.920790283203125,2.1414149398282167,-0.607589169280231,-4.631655007764697
1761469336019773000,6.93077294921875,2.7806857800513503,-0.24629947720058262,-4.906955465456843
1761469336029756200,6.940756103515625,3.188483321610093,-0.03323174992911517,-5.355679476165771
1761469336039740200,6.950740234375,3.2290108545705674,0.1465219559572637,-6.009512802487611
1761469336049723100,6.96072314453125,3.3237887408956883,0.2979771305330097,-6.529215890783071
1761469336059705900,6.970705810546875,3.5852050501421093,0.46854690155386924,-7.147309795203805
1761469336069690000,6.980690185546875,3.9589261345759033,0.7221791327953339,-7.645664390522241
1761469336079673000,6.990673095703125,4.403420544891059,0.898865779261291,-8.062892023727297
1761469336089656000,7.000656005859375,4.667258236065507,1.1089720263786613,-8.335767300099134
1761469336099640000,7.01064013671875,4.402214383971691,1.2660028091296553,-8.343890400800108
1761469336109623300,7.020623291015625,3.6433027265846727,1.445204068765044,-8.0227879768759
1761469336119606000,7.03060595703125,2.1968886975079776,1.3076285125903784,-7.115708203759789
1761469336129590000,7.040590087890625,0.6932128582909702,1.089197212459147,-5.943228604719042
1761469336139573000,7.050572998046875,-0.3287871332079172,1.148967644419521,-4.166194381788372
1761469336149556200,7.06055615234375,-0.5845642675235867,1.229288696977496,-1.7152718865007162
1761469336159540200,7.070540283203125,-0.5406061755925416,1.265696373528987,0.953818143415451
1761469336169523000,7.08052294921875,-0.8412272447630763,1.0224214317813516,4.072164098960161
1761469336179506200,7.090506103515625,-1.2427478980094193,0.7722676903054118,7.106741053450107
1761469336189490200,7.100490234375,-2.03637168007642,0.3180240393921733,9.529107900860906
1761469336199473200,7.11047314453125,-3.3580171737119553,-0.599978840406984,10.755016892272232
1761469336209456000,7.1204560546875,-4.8675166045159095,-1.368498430225253,10.657572417086362
1761469336219439900,7.13043994140625,-5.830659625637531,-0.7898913175404071,9.272748290482163
1761469336229423000,7.140423095703125,-5.528257226008177,0.4732805059470236,7.487616685813665
1761469336239406000,7.150406005859375,-5.205415264940261,1.3915104725003242,5.943758766072988
1761469336249390000,7.16039013671875,-4.913472884526849,2.409682430143654,4.798374094706774
1761469336259373300,7.170373291015625,-4.233044104485214,3.0365128909885883,4.386557380634546
1761469336269356000,7.18035595703125,-3.5566982098430393,3.0570307783603665,4.340627988630533
1761469336279340000,7.190340087890625,-3.132227181380987,2.4457481613896785,3.7845436733990905
1761469336289323000,7.200322998046875,-2.625556593137979,1.7593989052578807,2.6799773346334694
1761469336299306200,7.21030615234375,-1.7932614273712038,1.1908952534362673,1.3304466397285462
1761469336309290200,7.220290283203125,-0.9122048610448836,0.8670064136639237,0.009564531680941582
1761469336319273000,7.23027294921875,-0.06480038895159959,0.6398813733369112,-1.105982050782442
1761469336329256000,7.240255859375,0.6193652395308017,0.39607919284477827,-2.105580533120036
1761469336339240200,7.250240234375,1.0655331360161304,0.1899605540588498,-3.0012919400036333
1761469336349223200,7.26022314453125,1.2868290317982434,-0.0004667407289147377,-3.765189569109678
1761469336359206100,7.2702060546875,1.323714116603136,-0.21906682155579327,-4.397016815328597
1761469336369190000,7.28018994140625,1.4366425766468047,-0.4321550070933997,-4.929569448325037
1761469336379173000,7.290173095703125,1.753247104629874,-0.6730294635705649,-5.288320927163959
1761469336389156000,7.300156005859375,2.1383529219090938,-0.8430278644442558,-5.526248808795214
1761469336399140000,7.31014013671875,2.483940091009438,-0.999208606237173,-5.702692001894116
1761469336409123000,7.320123046875,2.7345839540898798,-1.0725048747248946,-5.82185847954452
1761469336419106000,7.33010595703125,2.8788372344627975,-1.0677947973378001,-5.922021566039324
1761469336429090000,7.340090087890625,2.7100638453394175,-1.231296675799042,-6.039296530854702
1761469336439073000,7.350072998046875,2.3848396653100847,-1.2103015263043344,-6.130585406020283
1761469336449056300,7.36005615234375,2.4660721336245537,-1.1269069115199148,-6.101671446225047
1761469336459040300,7.370040283203125,2.6465710318550464,-1.1194649249508977,-6.001582594010234
1761469336469023000,7.38002294921875,2.6233091064721346,-0.9860301218427717,-5.7996969166189425
1761469336479006000,7.390005859375,2.6244974394738674,-0.3430279861368239,-5.053191736340523
1761469336488990000,7.399989990234375,2.5170529637992383,-0.11032383050322532,-4.242306730610132
1761469336498973200,7.40997314453125,2.0129346903875467,0.17104264922961593,-3.235928378874063
1761469336508956200,7.4199560546875,1.4999918900072573,0.4353552644394338,-1.6155378390729427
1761469336518940000,7.42993994140625,0.98196287240386,0.7062213929459452,0.41990298989415165
1761469336528923100,7.439923095703125,0.010782090777158736,0.8784799938365817,2.4882547393381595
1761469336538906000,7.449906005859375,-1.3794894875779746,0.8481463765017688,4.275284871104359
1761469336548890000,7.45989013671875,-2.6332138298928736,0.5854502565778792,5.8904322495549915
1761469336558873000,7.469873046875,-3.2344322950974105,0.270119109531492,7.280209030130505
1761469336568856000,7.47985595703125,-3.16539090757519,-0.18579978111758827,8.162032196915149
1761469336578840000,7.489840087890625,-2.8614667052060363,-0.3280985664218664,8.552167825055122
1761469336588823000,7.499822998046875,-2.5495664093911645,-0.28752894788533445,8.718389483869075
1761469336598806000,7.509805908203125,-2.7389821890488264,-0.20183906177058814,8.681212138119339
1761469336608790300,7.519790283203125,-3.332705622322857,-0.8998204496376215,7.824546208944916
1761469336618773000,7.52977294921875,-3.4441818377315996,-0.7594937681239098,7.344588855582475
1761469336628756000,7.539755859375,-2.6502386144518852,-0.7334409699134529,6.95714378170073
1761469336638740000,7.549739990234375,-1.7961220774993298,-0.7302752724241465,6.413560636124014
1761469336648723200,7.55972314453125,-1.2731652481049298,-0.9004539252355694,5.552717129004002
1761469336658706200,7.5697060546875,-0.7768772299274802,-1.0947693135030567,4.294744189333915
1761469336668690200,7.579690185546875,-0.0886485897898674,-1.1601806739598512,2.8865654906272886
1761469336678673200,7.589673095703125,0.67352820687294,-1.0948505620457232,1.4357979425162075
1761469336688656100,7.59965625,1.515720205014944,-0.9324597866315394,0.11298048249185084
1761469336698640100,7.60964013671875,2.088076148350537,-0.6366073201023041,-1.0924024382412434
1761469336708623000,7.619623046875,2.39903156453073,-0.2750737362641841,-2.28439045535028
1761469336718606000,7.629606201171875,2.6210481758028266,0.10799509529471396,-3.4730291620314118
1761469336728590000,7.639590087890625,2.882788894698024,0.503521768823266,-4.21972606548965
1761469336738573000,7.649572998046875,3.096583328808844,0.7645121077425777,-4.633748180651664
1761469336748556000,7.65955615234375,3.1009350942775606,0.857854262176156,-5.180046430405974
1761469336758540000,7.6695400390625,3.107435562212765,0.9732100954972207,-5.9004527083098885
1761469336768523000,7.67952294921875,3.1546769135981796,1.0549884341914206,-6.7160904615253205
1761469336778506000,7.689506103515625,3.045969286119938,0.9428092581450939,-7.571416082006692
1761469336788490000,7.699489990234375,2.975503418752551,0.8008163239195942,-8.371952712202072
1761469336798473200,7.70947314453125,2.7760546131193635,0.5091352247908711,-8.845023813182115
1761469336808456200,7.719456298828125,2.547008541601896,0.398595194253698,-9.146329649746418
1761469336818440200,7.729440185546875,2.2890327281981704,0.3430213372003287,-9.043905632582307
1761469336828418800,7.739418701171875,1.6174159079045056,0.43027898408845067,-8.116490927445888
1761469336838401500,7.749401611328125,1.1284364591747522,0.7313388830676675,-7.066465157163143
1761469336848385500,7.759385498046875,0.8412129239767789,0.7244817106492817,-5.917373447972536
1761469336858368500,7.769368408203125,0.329940102635324,0.8339756661996245,-4.416064045625925
1761469336868351700,7.779351806640625,-0.15354863972365856,0.9639622285500168,-2.638987152597308
1761469336878334500,7.78933447265625,-0.4426794698476791,0.9002633710995316,-0.2518248895585537
1761469336888318500,7.799318359375,-0.5156409534230828,0.6117232003450394,2.578227271208167
1761469336898301700,7.8093017578125,-0.6366282167598605,0.05030599965304136,5.308064323031902
1761469336908284700,7.81928466796875,-1.9643506922215221,-0.8948620965778827,7.948637868037819
1761469336918268700,7.8292685546875,-4.202375117716193,-2.3360500615693627,10.129151769328116
1761469336928251600,7.839251708984375,-5.890332296311855,-2.683681742109358,11.506924808377027
1761469336938234600,7.849234619140625,-6.23978636997342,-1.6989700093887745,11.937874092942476
1761469336948218600,7.859218505859375,-5.854886304399371,-0.4580518110245466,10.949158823668956
1761469336958201600,7.86920166015625,-5.771039561933279,1.0597042837321757,9.616934652873873
1761469336968184800,7.879184814453125,-5.483465313601494,2.5833903530597686,8.276573352852463
1761469336978168800,7.8891689453125,-4.603295466981828,3.464074578942358,6.946880746361613
1761469336988151600,7.899151611328125,-3.944105289801955,3.6188159355819223,5.621924520742893
1761469336998134500,7.909134521484375,-3.312632848370075,3.167189189168811,4.220777620369196
1761469337008118500,7.919118408203125,-2.5972809312462806,2.4993325981914998,2.794097634810209
1761469337018101800,7.929101806640625,-1.868460168479383,1.8179773509547112,1.3770780425220728
1761469337028084500,7.93908447265625,-1.1052186651945113,1.2592993659682572,0.07142448326647281
1761469337038068500,7.949068359375,-0.2783984237074852,0.8285448733225464,-1.0991682791143655
1761469337048051700,7.9590517578125,0.3690650753214955,0.47205417902246116,-2.19117674960196
1761469337058034700,7.96903466796875,0.8550687231108546,0.262556565322727,-3.0629665981501337
1761469337068018700,7.979018798828125,1.3474153101861477,0.020080226606875657,-3.8869618453443047
1761469337078001700,7.989001708984375,1.6427987709641456,-0.15782149473726748,-4.5275604270398615
1761469337087984600,7.998984619140625,1.7706652724206446,-0.35953693012818694,-5.155115402767062
1761469337097968600,8.00896875,1.997125126837194,-0.5476917499393225,-5.722924058061838
1761469337107951600,8.01895166015625,2.13772631444335,-0.7126268760740757,-6.314705709618329
1761469337117934600,8.0289345703125,2.51880243781507,-0.9153777919925749,-6.728313398760557
1761469337127918800,8.0389189453125,3.024810470496118,-1.1163736809372902,-7.005318906804919
1761469337137901600,8.048901611328125,3.2791739386215806,-1.1924975740663706,-7.285691845455765
1761469337147884500,8.058884521484375,3.4502412839010357,-1.1717555225498975,-7.501737565624714
1761469337157868500,8.06886865234375,3.8100495783165096,-1.1084113237559794,-7.561829338493943
1761469337167851800,8.078851806640625,4.216795857256651,-1.0101781824104488,-7.487925313371419
1761469337177834500,8.08883447265625,4.482886003533006,-0.8372203472092747,-7.2281041643619535
1761469337187818500,8.098818603515625,4.59966470926404,-0.8066236950241029,-6.700339350163937
1761469337197801500,8.108801513671875,4.540027986685931,-0.6711378046050668,-6.147428988793492
1761469337207784700,8.11878466796875,4.496589826975763,-0.21745982475057243,-5.058216871026158
1761469337217768700,8.128768798828125,4.289143300586939,-0.043940556274354454,-3.8677620548337694
1761469337227751700,8.138751708984374,3.7454268840193747,0.1800501315496862,-2.3373399552494285
1761469337237734700,8.148734619140624,2.6509318574130534,0.4440983967348933,0.008749123644828796
1761469337247718700,8.15871875,0.8933081451341509,0.5603469411119818,2.6859587471306323
1761469337257701600,8.16870166015625,-1.402486332283914,0.4676546288892626,5.188394572034478
1761469337267684600,8.1786845703125,-3.735845108942687,0.7131890400014818,7.447290520644187
1761469337277668600,8.188668701171874,-5.278859271335602,0.845232827142626,9.302792715612053
1761469337287651600,8.198651611328126,-5.257926373422146,0.8115846784323454,10.20316860717535
1761469337297634600,8.208634521484376,-4.180807721291482,0.6624956484660506,10.005995345258713
1761469337307618600,8.21861865234375,-3.5762279629603024,0.8291203351229429,9.260542888903617
1761469337317601800,8.228601806640626,-3.3206235548630354,0.9395505486100911,8.43456435893774
1761469337327584800,8.238584716796876,-3.138187258829176,0.6601427286643534,7.658978045603632
1761469337337568500,8.248568603515626,-3.1643139259934423,0.02403897417001426,6.789325793606042
1761469337347551500,8.258551513671875,-2.9548133896842597,-0.22039785096384584,6.268371828466654
1761469337357534700,8.26853466796875,-2.2235206838458774,-0.49155412152335043,5.645723329481482
1761469337367518700,8.278518798828125,-1.743815843939781,-0.533495686000213,4.77657961152792
1761469337377501700,8.288501708984375,-1.1906862868607044,-0.4289554073344916,3.8682647436589
1761469337387484700,8.298484619140625,-0.5236074022576213,-0.3500363305289298,2.9378204615682364
1761469337397468700,8.30846875,0.16285276690274475,-0.3270923119887709,1.870798548299074
1761469337407451600,8.31845166015625,0.8460501348748802,-0.29679442355446517,0.808843855291605
1761469337417434600,8.3284345703125,1.4501149294212459,-0.2618468826834112,-0.21295126128494737
1761469337427418600,8.338418701171875,1.879603493784368,-0.25670506281554695,-1.237591830420494
1761469337437401600,8.348401611328125,1.9191613049298524,-0.16966120480857788,-2.255626133158803
1761469337447384600,8.358384521484375,1.8452713083326815,-0.11894063300527631,-3.306909210026264
1761469337457368600,8.36836865234375,1.8106424780219792,-0.13936295104809104,-4.239090106651187
1761469337467351600,8.3783515625,1.8336971903949975,-0.09512553071901202,-4.947633512803912
1761469337477334800,8.388334716796875,2.016124426339567,-0.11015716869942843,-5.4651323690533635
1761469337487318500,8.398318603515625,2.322723693136871,-0.036738077549636365,-5.727196328553557
1761469337497301500,8.408301513671875,2.6433368722394106,-0.04890146661736071,-5.886078145998716
1761469337507284700,8.41828466796875,2.721971140754223,-0.05369973374456167,-5.996651567348837
1761469337517268700,8.428268798828125,2.58792887327224,-0.05223872128129005,-6.1220186532050365
1761469337527251700,8.438251708984374,2.27374046652019,0.06709734078235924,-6.142461721774936
1761469337537234400,8.448234375,2.1731728908777237,0.29318069003671404,-5.9937248662471765
1761469337547218700,8.45821875,2.0600433553040025,0.44731830862946803,-6.102791974687576
1761469337557201700,8.46820166015625,1.6018372305005788,0.6407012383524328,-6.139538527804612
1761469337567184600,8.4781845703125,1.0814029053211212,0.6252485984809696,-5.791256420531869
1761469337577168600,8.488168701171874,0.660184156653285,0.47851475333869453,-5.127315541693568
1761469337587151600,8.498151611328124,0.3450675291404128,0.40373241101168095,-4.035578873884678
1761469337597134600,8.508134521484376,0.19289222359657288,0.1559213602043688,-2.390007715597749
1761469337607118600,8.51811865234375,0.18649317020922898,-0.13953472741842268,-0.3622106793820858
1761469337617101600,8.5281015625,-0.34534342347234487,-0.3595421908251941,2.0035119052648542
1761469337627084800,8.538084716796876,-1.2694281074032188,-1.0859867259800433,4.026577236783504
1761469337637067500,8.548067626953125,-2.410982699087262,-1.860601710063964,5.7371934064328665
1761469337647051500,8.558051513671876,-3.521791731634736,-2.4521178425520658,6.802447140985727
1761469337657034800,8.56803466796875,-4.353331402859092,-2.4186909353770316,7.519038829037546
1761469337667017700,8.578017822265625,-4.657180786426365,-1.7417739628486335,7.867776863384246
1761469337677001700,8.588001708984375,-4.591578433442115,-0.3150073219195008,7.784259206742048
1761469337686984400,8.597984375,-4.145583263175189,1.0635580365508794,7.3007263329803935
1761469337696967700,8.6079677734375,-3.594875964806974,2.008114869015664,6.464812099933624
1761469337706951700,8.61795166015625,-3.1487080683216453,2.5947894066914916,5.602511964264512
1761469337716934700,8.6279345703125,-2.7637498428195713,2.6789117512285707,5.098810162699222
1761469337726917600,8.637917724609375,-2.5698224309563633,2.153144394458085,4.487256473702192
1761469337736901600,8.647901611328125,-2.5241227560549975,1.4116402373373507,3.5624668563723563
1761469337746884600,8.657884521484375,-2.364462063191831,0.8117638343915343,2.419645898014307
1761469337756867600,8.66786767578125,-1.8543112316176293,0.38179552368745207,1.1682459069937468
1761469337766851600,8.6778515625,-1.1040087048828602,0.17624460178688167,0.0019546411991119383
1761469337776834800,8.687834716796875,-0.36749037335067986,0.1507823898807168,-0.9644050038814544
1761469337786817500,8.697817626953125,0.16549159097373484,0.17622355899885295,-1.8436171113848685
1761469337796801500,8.707801513671875,0.6716890087470412,0.1239024201311171,-2.7022043640106914
1761469337806784500,8.717784423828125,1.1280278783738613,0.05103869784176349,-3.420432128831744
1761469337816767700,8.727767822265625,1.355484634873271,-0.1339038819245994,-4.105394168388843
1761469337826751700,8.737751708984375,1.6057950282156466,-0.3318446941476315,-4.756910449939966
1761469337836738800,8.74773876953125,1.9659370846301316,-0.31026158869713544,-5.273449521246552
1761469337846721500,8.757721435546875,2.4156720259472726,-0.3180458858978003,-5.595523420551419
1761469337856705800,8.767705810546875,2.6357109074056146,-0.23568448661863803,-6.019499358972907
1761469337866688800,8.777688720703125,2.692308992940187,-0.18627565500102936,-6.30345892393887
1761469337876671700,8.787671630859375,2.8045912640348076,-0.16822518065609038,-6.6133467108875506
1761469337886655700,8.79765576171875,3.067041007982194,-0.11964512801282107,-6.876515416759252
1761469337896638700,8.807638671875,3.252867238715291,-0.1759336361415684,-6.977690310645103
1761469337906621700,8.81762158203125,3.6029578567147253,-0.21603125325217842,-6.854159792566299
1761469337916605700,8.827605712890625,3.9578476916894316,-0.24775968594625591,-6.364107161647081
1761469337926588000,8.837587890625,4.0960768894672395,-0.24664018039703367,-5.588600927811861
1761469337936570600,8.847570556640624,3.8250925414085386,-0.44777650072574615,-4.495774711200594
1761469337946554600,8.8575546875,3.697083416610956,-0.11419760319665073,-2.8700685293346644
1761469337956537600,8.86753759765625,3.498759231093526,-0.1291883977100253,-1.319516080391407
1761469337966520800,8.877520751953124,2.7559073126256464,0.007720072858035564,0.06794014828205108
1761469337976504800,8.8875048828125,1.5590028819024562,0.11612550251930952,1.4052648570865391
1761469337986487600,8.897487548828124,0.190514096288383,0.15581687691658735,2.608995918959379
1761469337996470800,8.907470703125,-1.5229519098341464,0.1665910035829991,3.7077620470136403
1761469338006454800,8.917454833984374,-3.259642139677703,0.06903634602092205,4.8246875166147944
1761469338016437800,8.927437744140626,-4.242696898971498,0.11489391489773988,6.286053031107783
1761469338026420500,8.93742041015625,-4.301428489403427,0.16339732210822402,7.765141249296069
1761469338036404700,8.94740478515625,-4.259090984411538,0.2229042077615857,8.874766625016926
1761469338046387700,8.9573876953125,-4.420013367773592,-0.16305632665082812,9.100849170553683
1761469338056370700,8.96737060546875,-4.3723713266327975,-0.19563750371672212,8.836394516524672
1761469338066354700,8.977354736328126,-4.125433916854858,-0.3032007104001939,8.317774547290801
1761469338076338000,8.987337890625,-3.846377321499586,-0.5410719664733856,7.647617862677573
1761469338086320600,8.997320556640625,-3.310446736502647,-0.7050857399795204,6.829300661119818
1761469338096304600,9.0073046875,-2.5512851960077882,-0.7852904726814478,5.968387595894932
1761469338106287600,9.01728759765625,-1.6856684831365942,-0.861547344540432,4.904722007316351
1761469338116270800,9.027270751953125,-0.8813423975303769,-0.8792967901121824,3.846352771580219
1761469338126254800,9.0372548828125,-0.1669338987365365,-0.8724143371220677,2.730275443241
1761469338136237600,9.047237548828125,0.4639759403765201,-0.7647314495816826,1.6203268269151447
1761469338146220800,9.057220703125,1.1614739286407827,-0.6426561718124896,0.5635048206210136
1761469338156204800,9.067204833984375,1.792925327284634,-0.3828828074675053,-0.457437478518486
1761469338166187800,9.077187744140625,2.198098950080573,-0.17975363282114265,-1.4263929853111506
1761469338176170800,9.087170654296875,2.501607265125215,0.03866327345855534,-2.431647301453352
1761469338186154500,9.097154541015625,2.8007079928606746,0.14809190868772565,-3.431509987685084
1761469338196137700,9.1071376953125,3.208382200300693,0.2824213956132531,-4.352268157541752
1761469338206120700,9.11712060546875,3.6263854940533635,0.4590825423117727,-5.031335878363252
1761469338216104700,9.127104736328125,3.8774931752532718,0.7402180628329516,-5.490078594261408
1761469338226088000,9.137087890625,3.921937881657481,0.9822302181031555,-5.88291938970685
1761469338236070700,9.147070556640625,3.8684301633536813,1.15395376226902,-6.266342952987551
1761469338246053600,9.1570537109375,3.701576051855087,1.2372422863304615,-6.7246186358958475
1761469338256037600,9.16703759765625,3.4862864107504485,1.0040215594768525,-7.179902151250839
1761469338266020900,9.177020751953124,3.2473926066964864,0.6574672989100218,-7.6122022659033535
1761469338276003600,9.187003662109374,3.088052524089813,0.15587489071413874,-7.955120800316333
1761469338285987600,9.196987548828124,2.823082029493153,-0.18804858295768498,-8.244636245843768
1761469338295970600,9.206970458984374,2.351480124282837,-0.2004452693246305,-8.31704974014759
1761469338305953800,9.216953857421874,1.6776093875825404,-0.046867403506487604,-7.784396569386124
1761469338315937800,9.226937744140624,0.9732923669531941,0.2636220025971532,-6.811408446076512
1761469338325920800,9.236920654296876,0.22338643832057714,0.4174491670012474,-5.4817836441248655
1761469338335903700,9.24690380859375,-0.7918418670862912,0.30529709815755485,-3.4368449189722536
1761469338345887700,9.2568876953125,-1.4072633374273775,-0.17111527607440946,-0.6925041254997253
1761469338355870700,9.26687060546875,-1.4144243150979279,-0.5604531779654324,2.6736843719691037
1761469338365853700,9.276853759765626,-1.7095304202392696,-1.0643731523260473,5.81134000813961
1761469338375837700,9.286837646484376,-3.0696830469235774,-1.6477726138539612,8.303871109622717
1761469338385820700,9.296820556640625,-4.901546884411573,-2.7103116826206444,9.947059172165392
1761469338395803600,9.3068037109375,-6.147521343252063,-2.5571836063966153,10.700755725252627
1761469338405787600,9.31678759765625,-6.371914036005735,-1.8624689652405677,10.633830306971072
1761469338415771000,9.32677099609375,-5.717956206521391,-0.5627933113507926,9.323708077868819
1761469338425753600,9.336753662109375,-4.971967159071564,1.166572713084519,7.923528561222553
1761469338435737600,9.346737548828125,-4.068486287230253,2.5362761351853607,6.918336204400658
1761469338445720600,9.356720458984375,-3.593081482605636,3.261455618840456,6.317208632349968
1761469338455703800,9.366703857421875,-3.509546290306747,3.4402035817503926,6.203543674725294
1761469338465687800,9.376687744140625,-3.0821248876065015,2.789502708235383,5.97788549208045
1761469338475670800,9.3866708984375,-2.460153264969587,1.9945416862152516,5.050190800958871
1761469338485653800,9.39665380859375,-1.829716304065287,1.318760585848987,3.549029867172241
1761469338495637800,9.4066376953125,-1.0847007778227329,0.7522966231614351,1.8857360051900147
1761469338505621800,9.416621826171875,-0.31113252631276844,0.3993348336398601,0.28007775509655475
1761469338515604700,9.426604736328125,0.2601259771749377,0.15756883515045045,-0.9787900875866412
1761469338525588700,9.436588623046875,0.6887807210624217,0.019971505535393952,-2.0243214690595863
1761469338535571700,9.44657177734375,1.072439846664667,-0.11999357612431048,-2.981027735131979
1761469338545554700,9.4565546875,1.4048703048110007,-0.23627529211863874,-3.7103421266347167
1761469338555538700,9.46653857421875,1.6587053651481867,-0.34632702768221496,-4.234594548797607
1761469338565521700,9.476521728515625,1.815141543006897,-0.5387395049378275,-4.71430464940071
1761469338575505000,9.4865048828125,2.0185206738263366,-0.7477914206966757,-5.190178532841801
1761469338585489000,9.496489013671875,2.307620816551149,-0.9904838863812386,-5.678288212999701
1761469338595471600,9.5064716796875,2.731846053558588,-1.0214666152745484,-6.174206521081924
1761469338605454600,9.51645458984375,3.227070826418698,-0.9194400729954242,-6.597620733967423
1761469338615438600,9.5264384765625,3.6167052270382642,-0.9356240228161216,-6.8731585075467825
1761469338625421800,9.536421875,3.86785499381423,-0.8689014336302876,-6.837226193422079
1761469338635404800,9.54640478515625,3.9971804619073867,-0.950268195848912,-6.6091328925848005
1761469338645387800,9.5563876953125,3.8070395828455683,-1.017884665134549,-6.099369599023461
1761469338655371800,9.566371826171874,3.5762259171336885,-0.4524269568800926,-5.38298541624248
1761469338665354800,9.576354736328126,3.6587101390749215,-0.021795798353105782,-4.586936160594225
1761469338675337700,9.586337646484376,3.5527456728249787,0.3159127463266253,-3.732333593690395
1761469338685321700,9.59632177734375,2.9705212464258075,0.6341903220884502,-2.722757322695851
1761469338695304700,9.6063046875,2.4344006918147203,0.8148680840171874,-1.3950661191552876
1761469338705287700,9.61628759765625,1.8925182126760483,0.8710131650872528,0.2073340059250593
1761469338715271700,9.626271728515626,0.9535399109959601,0.77023340799883,1.8814619811326265
1761469338725254700,9.636254638671875,-0.40444998469650745,0.6643919836066663,3.3032436732560395
1761469338735237600,9.646237548828125,-1.8800532833784818,0.548934735737741,4.309754126939177
1761469338745221600,9.6562216796875,-2.919463551622629,0.488868389570713,4.9292152280598875
1761469338755204600,9.66620458984375,-3.478625374603271,0.3655279872365296,5.141310749298333
1761469338765187800,9.676187744140625,-3.778714821115136,0.23679902373179793,4.997999425950646
1761469338775171800,9.686171875,-3.946163975897431,0.13292480775937437,4.749306989198923
1761469338785154800,9.69615478515625,-3.8947523530900474,0.14924422052800654,4.516007351890206
1761469338795137500,9.706137451171875,-3.692642803815007,0.15529548339098692,4.325778794544935
1761469338805121500,9.71612158203125,-3.649671092572808,-0.0822900145433843,4.380158619508147
1761469338815104800,9.726104736328125,-3.638167701783776,-0.1912410953886807,4.714499879711866
1761469338825087700,9.736087646484375,-3.255930717939138,-0.4080218518339097,4.920059861701727
1761469338835068400,9.746068359375,-2.5945173117518423,-0.6434191920742393,4.811111411204934
1761469338845051600,9.7560517578125,-2.0938521014034746,-0.7975465084686875,4.447769097444414
1761469338855034400,9.766034423828126,-1.6067986523002384,-0.9721937580615282,3.8040240344166754
1761469338865018400,9.776018310546876,-1.056471585421264,-1.1693132439643144,3.0925662021219726
1761469338875001300,9.78600146484375,-0.5527776749014854,-1.3809627750009297,2.3290198706716296
1761469338884984600,9.795984619140626,-0.0172930801063776,-1.4294380520954728,1.4740835417687892
1761469338894968600,9.805968505859376,0.7021624729439616,-1.354065123464167,0.5552426037102938
1761469338904951600,9.81595166015625,1.4169760454073548,-1.2025820379681884,-0.01780804389119148
1761469338914934300,9.825934326171875,2.0909633942246435,-0.7834108694799244,-0.4626011448919773
1761469338924918500,9.83591845703125,2.659456232391298,-0.4919570032358169,-1.1996914310932159
1761469338934901500,9.845901611328125,2.737861952847242,-0.29331966011598704,-2.1888316477805376
1761469338944884500,9.855884521484375,2.7201906870782375,-0.2814360378377139,-3.0846453459948298
1761469338954868500,9.865868408203125,2.7463012798905373,-0.4890088209547102,-3.882852656459808
1761469338964851500,9.8758515625,2.844384052979946,-0.7806997108250856,-4.6279713508158915
1761469338974834400,9.88583447265625,3.143118577751517,-0.9399860174179077,-4.989395263734459
1761469338984817400,9.8958173828125,3.5968455113142728,-1.0389248228147625,-5.170886972394586
1761469338994801400,9.905801513671875,3.8134266535341736,-1.239971711294353,-5.4963148583024735
1761469339004784400,9.915784423828125,3.896079217779636,-1.2541888910867274,-5.752416110005974
1761469339014767400,9.925767333984375,4.030923741555213,-0.989260628196597,-5.462383362606167
1761469339024751400,9.93575146484375,3.9514597442179915,-0.6100391927808523,-4.886923315775394
1761469339034734600,9.945734619140625,3.4261721337884663,-0.38091786407008765,-4.337631729423999
1761469339044717600,9.955717529296875,2.6502579036742446,-0.2027015238188207,-3.7036177868157623
1761469339054701600,9.96570166015625,1.9910820472806692,-0.09966185897439718,-2.9660598831027745
1761469339064684300,9.975684326171875,1.2504916440039873,-0.11987433365881442,-1.864435443007946
1761469339074667500,9.98566748046875,0.13956746064424513,-0.177555099863559,-0.3937006271451711
1761469339084651500,9.995651611328125,-1.2058072836250067,-0.2668047242864966,1.2689601976305245
1761469339094634500,10.005634521484374,-2.4418273346841333,-0.33158450884148477,2.749591553607583
1761469339104617500,10.015617431640624,-3.32032632548213,-0.19715046556293964,3.779237383684516
1761469339114601500,10.0256015625,-3.722635206496715,0.07374591195136308,4.095579461339116
1761469339124584400,10.03558447265625,-4.010077937403321,0.6588445786125957,4.083490964138508
1761469339134567400,10.0455673828125,-4.374138628566265,1.3061964339606462,3.96794910672605
1761469339144551400,10.055551513671874,-4.772919335454702,2.127921252004802,3.868350668376684
1761469339154534700,10.06553466796875,-5.218030416363478,2.9347353550344706,4.001413569432497
1761469339164517400,10.075517333984376,-5.222765043669939,3.40563145006299,4.253413815557956
1761469339174501400,10.08550146484375,-4.565373148083687,3.773398010006547,4.332396166858077
1761469339184484600,10.095484619140626,-3.8055660031616685,3.6359015104174612,3.9286411786884066
1761469339194467600,10.105467529296876,-3.0556027913838624,3.1437671047881244,3.100411654925346
1761469339204451600,10.11545166015625,-2.27232358545959,2.202799236726016,2.1052368342489003
1761469339214434300,10.125434326171876,-1.6344161425441504,1.4693893926031887,1.1733435223937034
1761469339224417500,10.13541748046875,-0.8013309954434633,0.8320666177079081,0.3713584469556808
1761469339234401500,10.145401611328126,0.37528409596681594,0.3368288392357528,-0.28382863206267356
1761469339244384500,10.155384521484375,1.4024533067971467,0.17009455472454427,-0.8888508734643459
1761469339254367200,10.1653671875,1.788818768748641,0.1604625107653439,-1.4803244819849728
1761469339264350500,10.1753505859375,1.741826131427288,0.08747033979073167,-1.898682580524683
1761469339274334500,10.18533447265625,1.5487334168225526,-0.10058087351545691,-2.1938445075064896
1761469339284317400,10.1953173828125,1.2059697807103396,-0.2751575420901179,-2.2108394814491272
1761469339294300700,10.20530078125,1.1245943967938423,-0.5226571157954633,-2.346332240000367
1761469339304284700,10.21528466796875,1.6538111633658408,-0.7869836134001612,-2.709431977176666
1761469339314267400,10.225267333984375,2.4057529817402363,-0.8011476017005741,-2.995524462518096
1761469339324250400,10.23525048828125,3.279284705519676,-0.7084501749113201,-3.2719705831140278
1761469339334234400,10.245234375,4.140605767023563,-0.667067778687179,-3.6970717261731623
1761469339344217600,10.255217529296875,4.7523161078870295,-0.5596610046744346,-4.082915794599056
1761469339354200300,10.265200439453125,4.96996166446805,-0.42375367397293445,-4.220092560714483
1761469339364184300,10.275184326171875,4.653034480401874,-0.2920861727982759,-3.941210737404227
1761469339374167600,10.28516748046875,4.132904691126942,-0.16160291297212243,-3.608370529413223
1761469339384150500,10.295150634765625,4.007607163375615,-0.11591449011713266,-3.164540135964751
1761469339394134500,10.305134521484375,3.9171155760675664,-0.19141893617361783,-2.7344021677821875
1761469339404117200,10.3151171875,3.3025071756750344,-0.30265827408656476,-2.3206109387665985
1761469339414100500,10.3251005859375,3.02138371091783,-0.5439771133303642,-1.7300445082187652
1761469339424084500,10.33508447265625,2.992130143904686,-0.6537094076812267,-1.0494225436925888
1761469339434067500,10.3450673828125,2.8314509216487407,-0.3817337104976177,-0.32020635186731816
1761469339444050400,10.355050537109374,2.0084961234182117,0.20324892856851218,0.5268816016227007
1761469339454034700,10.36503466796875,0.5598164874970912,0.8498442664608359,1.2422528079688548
1761469339464017400,10.375017333984376,-1.1979559856027364,1.4134127999678254,2.098360518738627
1761469339474000400,10.38500048828125,-2.8112030833899975,1.9330879773430525,3.1549586531490084
1761469339483983600,10.394983642578126,-4.102622950109839,2.154089127962291,4.116488978376984
1761469339493967600,10.404967529296876,-5.043860428893566,2.245633146932721,4.84867980209887
1761469339503950300,10.414950439453126,-5.560744368115067,2.1329192064225673,5.27220448962152
1761469339513933300,10.424933349609375,-5.819716791340708,1.9000925934530795,5.455592971813679
1761469339523917300,10.434917236328126,-5.785534535753727,1.4556993054248393,5.529190122944116
1761469339533900500,10.444900634765625,-5.215947180348635,0.8814972958311438,5.621113204360008
1761469339543883500,10.454883544921875,-4.389669959697127,0.39775136384069915,5.732614846470952
1761469339553867500,10.464867431640625,-3.4734874271929264,-0.07901055448129772,5.882158926728367
1761469339563850500,10.4748505859375,-2.4212638546049594,-0.4917354694396257,5.8817538530588145
1761469339573833500,10.48483349609375,-1.3365420339941978,-0.9983337230987847,5.533071932813525
1761469339583817500,10.4948173828125,-0.3991781817734241,-1.4291260635368526,4.9358103885412214
1761469339593800400,10.504800537109375,0.3868739959955215,-1.620753820155561,4.152868451747298
1761469339603783400,10.514783447265625,1.2176193019717931,-1.5680224930517375,3.1390614113152027
1761469339613767400,10.524767333984375,1.939753426581621,-1.372221250140667,1.8297826472997665
1761469339623750400,10.53475048828125,2.3221757038652897,-1.150141072113067,0.4297282183378935
1761469339633733600,10.544733642578125,2.546315298640728,-0.9569834755785762,-0.9159627522736787
1761469339643717600,10.554717529296875,2.7170909674972292,-0.7718782525964081,-2.2502070307195186
1761469339653700400,10.564700439453125,2.928949172848463,-0.6381145097948611,-3.4779625267803667
1761469339663683300,10.574683349609375,3.0813001272201537,-0.5054585821047425,-4.259294105768204
1761469339673666600,10.58466650390625,3.0571921064019203,-0.5184649248026311,-4.716663195225596
1761469339683650600,10.594650634765625,3.1621704842239615,-0.506719249690324,-4.948333770027756
1761469339693633500,10.604633544921874,3.295676452872157,-0.4809770517989993,-5.191729853937029
1761469339703616300,10.6146162109375,3.212012081235647,-0.481574433170259,-5.5492421463698145
1761469339713600500,10.6246005859375,2.9762334865927693,-0.6268868672072887,-5.765841993290185
1761469339723583500,10.63458349609375,2.509964466843009,-0.8094768924981355,-5.848032200720906
1761469339733566500,10.64456640625,2.147425870680809,-0.9367541958898306,-5.847994206798076
1761469339743550500,10.654550537109374,2.358085221636295,-0.9089536041639744,-5.601251735070347
1761469339753533400,10.664533447265624,3.0645939070910213,-0.593407499192655,-5.267642880794406
1761469339763516400,10.674516357421876,3.494670500475168,-0.15280819661989808,-5.016731598949432
1761469339773500400,10.68450048828125,2.782176895391941,0.1414129423804581,-4.448655817151069
1761469339783483400,10.6944833984375,0.6994751335561276,0.21745061853080985,-3.2060306687384843
1761469339793466600,10.704466552734376,-0.8336234917610883,0.2492940559066832,-2.6492542795896528
1761469339803450400,10.714450439453126,-1.213759119412303,0.7015136536464095,-0.6602677432835101
1761469339813433300,10.724433349609376,-1.7519301768124103,0.2537061732605099,1.5082073451668023
1761469339823416600,10.73441650390625,-3.314492212501168,0.09964008553400636,3.0024867027461526
1761469339833398800,10.744398681640625,-4.593197559076548,-0.1366696933761239,4.052561572867631
1761469339843382800,10.7543828125,-4.55298245306611,-0.38494682732522484,4.453230285459757
1761469339853366000,10.764365966796875,-3.6221143926054236,-0.2515489952266216,4.185224660950899
1761469339863348700,10.7743486328125,-2.775130484011769,-0.1882182404361665,3.316576033037901
1761469339873332700,10.784332763671875,-1.4016010738819837,0.11606675806939601,2.4382459690660236
1761469339883315700,10.794315673828125,-0.9527040446937084,-0.12929068904072047,1.9788959349244832
1761469339893299000,10.804298828125,-1.704911820527911,-0.2115627295359969,1.9173942952573297
1761469339903283000,10.814282958984375,-3.7568928654074667,0.17622019799798727,1.9006150098919867
1761469339913266000,10.824265869140625,-6.3755357336342335,0.8058927504010498,1.6383873842626808
1761469339923248600,10.83424853515625,-7.969908035081625,1.5121736184492707,1.467073370745778
1761469339933233000,10.84423291015625,-6.9902283051788805,1.7356744769297539,1.5898457639336585
1761469339943215900,10.8542158203125,-5.021800572776794,1.7179193322695792,1.5205103619009255
1761469339953198800,10.86419873046875,-3.187282129126787,1.5529112870290875,1.252610535854101
1761469339963182800,10.874182861328125,-1.3038468020945786,0.6283394041031599,0.6363584599077701
1761469339973165800,10.884165771484374,-0.2632785959869623,0.03498948031663895,-0.1746563096821308
1761469339983148800,10.894148681640624,0.6312234351068735,-0.1997596251480281,-0.5650631559789181
1761469339993131800,10.9041318359375,1.2064876671046019,-0.08227788571417331,-0.6710591864109039
1761469340003115800,10.91411572265625,1.1631956378668546,0.0014060674056410789,-1.102164538320899
1761469340013099000,10.92409912109375,0.8171253614246845,-0.04689531442672014,-1.7218261304497717
1761469340023081700,10.934081787109376,0.39273791959285737,-0.15368834045529364,-2.195434407046437
1761469340033065700,10.944065673828124,0.429852136978507,-0.1604335769318044,-2.4967250460416075
1761469340043049000,10.954049072265626,0.46891105869114397,-0.14263999995738266,-2.7282027286201713
1761469340053032000,10.964031982421876,0.8217500986158848,-0.047280368221551176,-3.006329934170842
1761469340063016000,10.974015869140626,1.5603507893800734,-0.05460179715082049,-3.200357883799076
1761469340072998700,10.98399853515625,2.457342883723974,-0.11691109993904829,-3.203716546577215
1761469340082982000,10.99398193359375,3.2058903834849595,-0.09313158042281866,-3.1816175274938345
1761469340092966000,11.0039658203125,3.4129730449974534,0.019280162270367145,-3.1814263888359067
1761469340102948900,11.013948974609375,2.8081115471154448,0.475677191825211,-2.782113767027855
1761469340112931800,11.023931884765625,2.5923177558809516,0.707449911827594,-2.1933003176271915
1761469340122915800,11.033915771484375,2.549272979402542,0.7313450205475092,-1.620014692226052
