time,seconds_elapsed,z,y,x
1761469340871256600,0.117256591796875,4.3699230566978455,-1.8213349908195435,-4.823571079805493
1761469340881239600,0.127239501953125,4.561106138288975,-1.5017561232008039,-4.741936168169975
1761469340891223600,0.1372236328125,4.419844733208418,-1.1620324393063783,-4.5062446672886605
1761469340901206500,0.14720654296875,4.209185966774821,-0.8122861046999692,-3.8693443555891514
1761469340911189500,0.157189453125,3.948887263381481,-0.3816460322141647,-2.8444050957679745
1761469340921172700,0.1671728515625,3.524174827378988,-0.047640287575125694,-1.5817407834112642
1761469340931156700,0.17715673828125,3.047826312163472,0.13221841305568813,-0.3010731968522072
1761469340941139700,0.1871396484375,2.15533094471693,0.2922007390886545,0.9895505510538816
1761469340951122400,0.197122314453125,0.41101825717091556,0.586095861005038,2.444495092588663
1761469340961106400,0.2071064453125,-1.3886767103791235,0.8722314548358321,3.6896599886119366
1761469340971089700,0.217089599609375,-2.638410814014077,0.9218881967999041,4.283592096200585
1761469340981072600,0.22707275390625,-2.8205443277090785,0.8217357778295874,4.683782085365057
1761469340991056600,0.237056640625,-2.582366270709038,0.8926207473918795,5.265200163817405
1761469341001039600,0.24703955078125,-2.4721815564155576,0.8931723899252713,5.453001201754808
1761469341011022600,0.257022705078125,-2.331398874762654,0.90693846494928,4.925211253115535
1761469341021006600,0.267006591796875,-2.193722342431545,1.0159054740160702,4.276115476709604
1761469341030989600,0.276989501953125,-2.258153021287918,1.157708438627422,3.8228584987461565
1761469341040972800,0.286972900390625,-2.796251597973704,1.1587805979035795,3.5932390112549064
1761469341050956500,0.29695654296875,-3.450100706386566,1.0383845784582197,3.5152865875244137
1761469341060939500,0.306939453125,-3.741026018711924,0.8481365857601165,3.569432603731751
1761469341070922500,0.316922607421875,-3.6401807951718568,0.7118259349547326,3.656933777052164
1761469341080906800,0.32690673828125,-3.236936679133773,0.5660225025303661,3.6887890509963035
1761469341090889700,0.3368896484375,-2.59314193174541,0.4006465007603168,3.544544246190786
1761469341100872400,0.34687255859375,-1.742469690027833,0.2097844678170979,3.369918331646919
1761469341110855700,0.356855712890625,-0.8734089741826057,0.07609042925089597,3.248745774871111
1761469341120839700,0.366839599609375,0.15319149684906005,-0.11715645300224423,2.823393287399411
1761469341130822700,0.37682275390625,0.8544365626871585,-0.2582261349029839,1.9724615179628133
1761469341140805600,0.3868056640625,1.4587041863292456,-0.29778847609311343,0.9462789800822734
1761469341150789400,0.396789306640625,1.8550591273754835,-0.2926644110776484,-0.20773849507272243
1761469341160772600,0.406772705078125,1.8528771071612833,-0.2732804961718619,-1.041275477594137
1761469341170755600,0.416755615234375,2.0264374383002517,-0.2867503647282719,-1.6019132183462381
1761469341180739600,0.426739501953125,2.433250644996762,-0.45867914914265273,-2.01383339279294
1761469341190722800,0.436722900390625,2.623115629726648,-0.5678158156879246,-2.4797183816611765
1761469341200705500,0.44670556640625,3.0134418120026587,-0.6407360904701054,-2.9370278498858213
1761469341210689500,0.456689453125,3.0545950756460427,-0.5438020490244031,-3.435703932243585
1761469341220672500,0.466672607421875,2.974718405854702,-0.40790027128085493,-3.920900939825177
1761469341230655700,0.47665576171875,3.1673125232875345,-0.18350830917954444,-4.326434628105163
1761469341240639700,0.4866396484375,3.559095334112644,0.0654741965599358,-4.647629406487941
1761469341250622500,0.49662255859375,4.148385168853402,0.15950681747570633,-5.108890827208757
1761469341260605700,0.506605712890625,4.778610240572691,0.19977511497810482,-5.396821633893251
1761469341270589700,0.516589599609375,5.167201561880112,0.14979995471462607,-5.468339056140184
1761469341280572700,0.52657275390625,5.171257559272647,0.0007590016737580299,-5.194373646444082
1761469341290555600,0.5365556640625,4.97652642981112,0.03119388742595911,-4.651761391726136
1761469341300538600,0.54653857421875,4.778866261160373,-0.040714726095646615,-3.7706267917275427
1761469341310522600,0.556522705078125,4.263408555349708,-0.0873990281201899,-2.842663220536709
1761469341320505600,0.566505615234375,3.2699697646856305,-0.033482729015499355,-1.9632085364490746
1761469341330488600,0.576488525390625,2.1004080989181992,0.1043957556284964,-1.1375018091619014
1761469341340472600,0.58647265625,1.100866315203905,0.22758023674860595,-0.4341664930462837
1761469341350455600,0.59645556640625,0.3448521328240633,0.2417566461391747,0.3401321185648441
1761469341360438500,0.6064384765625,-0.32030747415423394,-0.44699075717553494,0.9693114806234836
1761469341370422500,0.616422607421875,-1.0547621511548757,0.3035622371889651,1.927545102393627
1761469341380405800,0.62640576171875,-1.7264765866041183,0.8717338805772363,3.5418706430673597
1761469341390388500,0.636388427734375,-2.4162404734849927,0.6729881086468696,4.65539010361731
1761469341400372500,0.64637255859375,-3.7730087184280157,0.6198483468726277,5.129198871222138
1761469341410355500,0.65635546875,-5.1795922568976875,0.7201698387995362,5.211017322731018
1761469341420338700,0.666338623046875,-6.294887494948506,1.2185548292562365,5.140172685179114
1761469341430322700,0.67632275390625,-6.864235196378827,1.9206180796094237,5.053859260338545
1761469341440305700,0.6863056640625,-6.482004642274975,2.6569991946280003,5.093263634487986
1761469341450288600,0.69628857421875,-5.287107459720969,3.2016791955307125,5.4130812792986625
1761469341460272600,0.706272705078125,-4.075466063115001,3.6506554274350402,5.676478533229232
1761469341470255600,0.716255615234375,-3.02996273869276,3.6155274154305457,5.412784342178702
1761469341480238600,0.726238525390625,-2.30063431866467,3.332138928350806,4.619618533012271
1761469341490222600,0.73622265625,-1.6102186898767947,2.6882535800695417,3.4374060599863525
1761469341500205600,0.74620556640625,-0.7003735437005758,2.1752342073217035,1.9700743305653332
1761469341510188500,0.7561884765625,0.2865934206008911,1.7217461970813572,0.6019184301674365
1761469341520171500,0.766171630859375,1.1929969018906355,1.3026676753126083,-0.5950117195188999
1761469341530155800,0.77615576171875,1.6610352694004773,0.9472558622904121,-1.7030986336261034
1761469341540138800,0.786138671875,1.835630204284191,0.686642101598531,-2.7724194714874026
1761469341550121500,0.79612158203125,1.7586609463721512,0.36967283195629713,-3.6308261068493124
1761469341560105500,0.80610546875,1.544426075017452,0.12007029462233185,-4.197639905887842
1761469341570088700,0.816088623046875,1.3464157777547836,-0.23403145871460437,-4.529190074068308
1761469341580071700,0.82607177734375,1.6557161202043293,-0.6829590291716158,-4.687792490050196
1761469341590055700,0.8360556640625,2.1844214301228524,-0.7498223420023917,-4.75904863101244
1761469341600038700,0.84603857421875,2.5434230843305587,-0.78142349505499,-4.866259297931194
1761469341610021600,0.856021728515625,2.9387089348405597,-0.918773864171654,-4.9524119792520995
1761469341620005600,0.866005615234375,3.4447803881466386,-1.0040811807096004,-4.966085699817538
1761469341629988600,0.875988525390625,3.7592894051551817,-0.9849633693940937,-4.787893617224693
1761469341639971600,0.8859716796875,4.110243361985683,-0.981947236443311,-4.619851172724366
1761469341649955600,0.89595556640625,4.319823685532808,-0.9524081304870545,-4.450598183390498
1761469341659938600,0.9059384765625,4.183202215212583,-0.8878526562072336,-4.2078339676439755
1761469341669921500,0.915921630859375,4.20624114549458,-0.6063571432672441,-3.86048826443851
1761469341679905500,0.925905517578125,4.235828474506736,-0.463825133728981,-3.331631563350558
1761469341689888800,0.935888671875,3.725802730616927,-0.5152800111562014,-2.5532962435692546
1761469341699871500,0.94587158203125,2.3384236588329075,-0.5944168223656714,-1.4384820670336484
1761469341709854700,0.955854736328125,0.2958399723738432,-0.5668287043467164,0.13911445617973803
1761469341719838700,0.965838623046875,-1.7668775705754756,-0.19652020483538507,1.6759715572476386
1761469341729821700,0.97582177734375,-3.46680341938436,0.4199383534684777,2.7657535838574168
1761469341739804400,0.985804443359375,-4.461499516633153,1.0367613611705602,3.50736748496294
1761469341749788400,0.995788330078125,-4.406501852032542,1.5469446337096393,4.257298548036814
1761469341759771600,1.005771728515625,-3.7187557347148656,1.8019393854759633,5.073064896067977
1761469341769754600,1.015754638671875,-3.048022126996517,1.9149355039283633,5.679300604912639
1761469341779738600,1.025738525390625,-2.6792987047195433,1.7674778745561837,6.0446975131154055
1761469341789721600,1.0357216796875,-2.82428994397819,1.2561090454943478,6.218307528614997
1761469341799704600,1.04570458984375,-2.9637878465175627,0.4826506840996444,6.051324822300672
1761469341809688600,1.0556884765625,-3.123401485368609,-0.07339490655660628,5.6108975152939555
1761469341819671600,1.065671630859375,-2.934404515644908,-0.3794852009184658,5.575414698502421
1761469341829654800,1.07565478515625,-2.3510089996397494,-0.4878599431805312,5.6926540074825285
1761469341839638800,1.085638671875,-1.903273999968171,-0.5045416133902967,5.551804105812311
1761469341849621500,1.09562158203125,-1.3495733650028705,-0.5350161005005241,4.963783852615952
1761469341859604500,1.1056044921875,-0.5987380465656519,-0.5738228010177612,4.059429705071449
1761469341869588700,1.115588623046875,0.052774143332242965,-0.6113260177209973,2.938475710606575
1761469341879571700,1.12557177734375,0.4787257657408714,-0.5735273252025246,1.8428841209352016
1761469341889554700,1.1355546875,0.7864239336907863,-0.5440281128652393,0.7926058371961117
1761469341899537700,1.14553759765625,1.2118459792673588,-0.407679175876081,-0.13875322165191173
1761469341909521700,1.155521728515625,1.5384715505272148,-0.3943519306607544,-1.0564245314091443
1761469341919504600,1.165504638671875,1.5916981138020754,-0.31117855741158124,-1.921045803502202
1761469341929487600,1.175487548828125,1.578729326635599,-0.20917115822434423,-2.710745397862792
1761469341939471600,1.1854716796875,1.707511773893237,-0.155435184122622,-3.402157051950693
1761469341949454600,1.19545458984375,2.0978531537383796,-0.01523439401090145,-3.6989655770957466
1761469341959437600,1.2054375,2.737103243434429,-0.037328736919164655,-3.9940807423263784
1761469341969421600,1.215421630859375,3.362891209489107,-0.004655862981826067,-4.23973658786118
1761469341979404800,1.22540478515625,3.8878593787059184,-0.016585224097967147,-4.326395465138554
1761469341989387800,1.2353876953125,4.3453550171524284,0.029372663348168133,-4.399225723549724
1761469341999371500,1.24537158203125,4.69707294409275,0.15473872629106045,-4.466934985685349
1761469342009354500,1.2553544921875,4.772366377747058,-0.005679360810667276,-4.576861341303586
1761469342019337700,1.265337646484375,4.369976540450751,0.0013099135547876358,-4.74675730471611
1761469342029321700,1.27532177734375,3.774815475589037,0.03073839874342084,-4.838847559392452
1761469342039304700,1.2853046875,3.0629674749329685,0.003985562504827976,-4.945981653943657
1761469342049287700,1.29528759765625,2.281769459196925,-0.10329188603982328,-5.151928004902601
1761469342059271700,1.305271728515625,1.455146786108613,-0.22705489770025014,-5.253334953978658
1761469342069254700,1.315254638671875,0.5527817665547132,-0.3000533522851765,-4.895569563567638
1761469342079237600,1.325237548828125,-0.39041152247190475,-0.416405503167212,-3.808568107587099
1761469342089220900,1.335220947265625,-1.6153741729438305,-0.4359035459719598,-2.4179613059282303
1761469342099204600,1.34520458984375,-2.5259365274786947,-0.22256357763037085,-0.7148182486385106
1761469342109187600,1.3551875,-2.8576638057917356,0.221369691670686,1.1690110461473464
1761469342119170600,1.365170654296875,-2.8761697688192127,0.3304294935874641,2.669561739081144
1761469342129154600,1.375154541015625,-3.0830706440240143,-0.06970277404040098,3.88579630869627
1761469342139137800,1.3851376953125,-3.7184129126265644,-0.5537868519440293,4.6265462864488365
1761469342149120500,1.39512060546875,-4.887835169923306,-1.2903747415810822,5.660656694719195
1761469342159104500,1.4051044921875,-5.703937033519148,-1.5500795707345008,6.441427132692933
1761469342169087700,1.415087646484375,-5.9463610575258725,-1.3207501522310077,6.6889791672378776
1761469342179070700,1.42507080078125,-5.388647679787874,-0.7469080619908869,6.44959991775453
1761469342189054700,1.4350546875,-4.72723018194735,0.5049206758357584,5.7092672886312
1761469342199037400,1.445037353515625,-4.068492424710095,1.516568638537824,5.028357154813409
1761469342209020700,1.455020751953125,-3.3579958386629816,1.9254947457350788,4.87743886359334
1761469342219004700,1.465004638671875,-2.931035331472754,1.815960165913403,4.736985852286219
1761469342228987600,1.474987548828125,-2.591915020298958,1.3275024029701947,4.18283455094397
1761469342238971000,1.484970947265625,-2.322194993087649,0.8532859313473105,3.3502345570117233
1761469342248954600,1.49495458984375,-1.48708097050786,0.5226023168683052,2.220666463458538
1761469342258937600,1.5049375,-0.4146627511531114,0.33184900499656794,0.8577011174410581
1761469342268920600,1.514920654296875,0.4126122483640909,0.08427168987989425,-0.4899292968004942
1761469342278904600,1.524904541015625,0.8632844705313444,-0.1158230124413967,-1.769002892166376
1761469342288887800,1.5348876953125,1.0878063426226376,-0.3075176968164742,-2.9435791712254282
1761469342298870500,1.54487060546875,1.2357160996764898,-0.4227015345714986,-3.9690485924005507
1761469342308853500,1.554853515625,1.4649579860270023,-0.493399457129091,-4.960363815039396
1761469342318837800,1.564837646484375,1.6615291903972624,-0.581619884634763,-5.8600751052141185
1761469342328820700,1.57482080078125,1.8240198459893464,-0.7138178394243121,-6.640263943907618
1761469342338803500,1.584803466796875,2.1460119122296573,-0.7737921233937144,-7.221289223650097
1761469342348787500,1.594787353515625,2.487045363548398,-0.8941847818382084,-7.646712438270449
1761469342358770700,1.604770751953125,2.705869900780916,-1.0655581243269145,-7.739183216696977
1761469342368753700,1.614753662109375,2.801215065599978,-1.2077438046455382,-7.547368851464986
1761469342378737700,1.624737548828125,3.014823037227988,-1.216217033958435,-7.014225266838073
1761469342388720600,1.634720703125,3.1989912716209887,-1.2240665784150362,-6.236447580939531
1761469342398703600,1.64470361328125,3.345553705719113,-0.9126084734097123,-5.398184154418111
1761469342408687600,1.6546875,3.593900397773087,-0.4586545992232859,-4.377515411522984
1761469342418670600,1.664670654296875,3.561708146959543,0.020839958932995794,-3.295974559035897
1761469342428653800,1.67465380859375,3.2863390079453585,0.3340770563095808,-1.9626491490006446
1761469342438637800,1.684637939453125,2.581779410731792,0.5767119465880096,-0.2505202367007732
1761469342448620500,1.69462060546875,1.5066086777985095,0.8282179794557392,1.6650117718160151
1761469342458603500,1.704603515625,0.1495125160753727,1.0303928490519523,3.456958317196369
1761469342468587500,1.71458740234375,-1.3751990969076753,1.3696971384905279,4.880473116722703
1761469342478570800,1.72457080078125,-2.511272042310238,1.7910623098917304,5.970061666586995
1761469342488553700,1.7345537109375,-2.875759142191708,1.935802204737812,6.576714724060893
1761469342498536700,1.74453662109375,-2.829217463508248,1.7340948065228758,6.606432401454448
1761469342508520700,1.754520751953125,-2.9582863264918324,1.3054676812946795,6.468219278028607
1761469342518503700,1.764503662109375,-3.474128939966857,0.27110636700317264,6.078716687095165
1761469342528486700,1.774486572265625,-3.7637864243134853,-0.46165977238863704,5.7320677339822055
1761469342538470700,1.784470703125,-3.4899487326502796,-0.7783078472524881,5.804044005912542
1761469342548453600,1.79445361328125,-2.9173142646342516,-0.7800923925817013,6.090910982757807
1761469342558436600,1.8044365234375,-2.7237802360028027,-0.4404059719577431,6.168888540929555
1761469342568420600,1.814420654296875,-2.8582196861088276,-0.1488328632481396,6.030522857290506
1761469342578403600,1.824403564453125,-2.8022207355111837,0.026527649180591105,5.74343493117094
1761469342588386600,1.834386474609375,-2.345075517937541,0.17834785767644643,5.15536148648262
1761469342598370600,1.84437060546875,-1.5103604315474628,0.3340973684452474,4.1898558278828855
1761469342608353500,1.854353515625,-0.5530126527011394,0.40042277500703927,3.0872891385018826
1761469342618336800,1.864336669921875,0.28074557135552164,0.3674083941556513,1.9182336686909198
1761469342628320800,1.87432080078125,0.8741010480999946,0.31237448919788,0.7010767235338687
1761469342638303700,1.8843037109375,1.4439181206077336,0.10354264593049883,-0.2633528302669525
1761469342648286500,1.894286376953125,1.883975132997334,-0.25344372293204065,-1.143507771578431
1761469342658270700,1.904270751953125,2.1714625798285008,-0.570556638828665,-2.0066601401627064
1761469342668253700,1.914253662109375,2.386033259008825,-0.8827810520313679,-2.702755568152666
1761469342678236700,1.924236572265625,2.4323320688471197,-1.1695911841228603,-3.79899831520915
1761469342688220700,1.934220703125,2.2953967102721333,-1.3676235470868647,-4.897333066108822
1761469342698203600,1.94420361328125,2.086169437946379,-1.5356978480301797,-5.97773643899858
1761469342708186600,1.9541865234375,1.8717969116866588,-1.72487397371307,-7.027962700289487
1761469342718169600,1.964169677734375,1.8463146799057721,-1.922120885387808,-8.009001443585753
1761469342728153600,1.974153564453125,1.8460829169765114,-1.9512313906684517,-8.820909947144985
1761469342738136600,1.984136474609375,1.9625915735945105,-1.8959417573839425,-9.416663424941897
1761469342748119600,1.99411962890625,1.813841566324234,-1.9898155344761908,-9.779414202550052
1761469342758103600,2.004103515625,1.5777026139363646,-2.0313769405290483,-9.575213818475603
1761469342768086800,2.014086669921875,1.5458520161673426,-1.797184299903363,-8.866776210784911
1761469342778069800,2.02406982421875,1.6726123099476098,-1.2130262750931085,-7.764733837538957
1761469342788053800,2.0340537109375,1.8334549060717225,-0.6276242415711283,-6.692046153593063
1761469342798036500,2.044036376953125,1.7188620199471711,-0.16586027815565466,-5.721593686240912
1761469342808019700,2.054019775390625,1.2072229956418274,0.05925532204508781,-4.55939816532731
1761469342818003700,2.064003662109375,0.4750099600881338,0.002183189257979393,-3.0492110445201397
1761469342827986700,2.073986572265625,-0.2232823934242129,0.1398790108114481,-1.1650947494864463
1761469342837973000,2.083972900390625,-0.40763270638585086,0.3511240527004003,1.4831822095036507
1761469342847957200,2.093957275390625,-0.1326569506034255,0.513429560983926,4.606059963259101
1761469342857940200,2.103940185546875,-0.763522073791921,0.7047099654696881,7.486549348843098
1761469342867923200,2.113923095703125,-2.6755194784417746,0.4390374600835144,8.776316187658905
1761469342877907200,2.1239072265625,-6.387429585045576,-0.5878088024027646,9.856955122870206
1761469342887890400,2.133890380859375,-9.31218013716042,-1.1202933385990559,10.70036292654276
1761469342897873200,2.143873046875,-9.521332006162405,-0.7801103666298091,10.461894362163543
1761469342907856100,2.153856201171875,-8.165286814796923,0.6477522528424858,9.129844378891587
1761469342917840100,2.163840087890625,-6.3861015513122075,2.243750694186985,7.828601621815562
1761469342927823400,2.1738232421875,-4.844920157304406,2.4915555344492195,6.903681071582436
1761469342937806000,2.18380615234375,-3.961920347955823,2.484538349163532,6.202745802345872
1761469342947790000,2.1937900390625,-3.28524507522881,2.2244972737930713,5.560433986991644
1761469342957773300,2.203773193359375,-2.597099144938588,1.7660612857565283,4.639414535850286
1761469342967756300,2.21375634765625,-1.8979571888595819,1.2485733892925084,3.417429439884424
1761469342977740300,2.223740234375,-1.0990993055313825,0.7515545726224779,2.027440477862954
1761469342987723000,2.233722900390625,-0.3878796659067273,0.28814781043604015,0.6865396641373634
1761469342997706200,2.243706298828125,0.08526420804858208,0.033109365658462044,-0.5706465090692043
1761469343007690200,2.253690185546875,0.3661053487330675,-0.09229030729308724,-1.6347762080281971
1761469343017673200,2.263673095703125,0.520920355130732,-0.29620909794718026,-2.5621698703765867
1761469343027656200,2.27365625,0.7197551205188035,-0.5260860673308372,-3.2520863174706696
1761469343037640400,2.283640380859375,0.9751134449005127,-0.7983360514111817,-3.692454003244638
1761469343047623200,2.293623046875,1.064718897023797,-1.135717556093633,-4.2941403782218694
1761469343057606100,2.303606201171875,1.2201295312270521,-1.407015354015678,-5.060034734103083
1761469343067590100,2.313590087890625,1.5344927100241184,-1.4539057000063358,-5.965004383197426
1761469343077573400,2.323573486328125,1.928719991391897,-1.5015924570716916,-6.828110574552416
1761469343087556000,2.33355615234375,2.36248696372658,-1.4836435434050856,-7.623222841611504
1761469343097539000,2.3435390625,2.8920722713500258,-1.3550075188808142,-8.236050203806162
1761469343107523300,2.3535234375,3.6048449856355784,-1.2748942638546228,-8.614344002982973
1761469343117506300,2.36350634765625,4.048382825878262,-1.3154152209438383,-8.720717634555697
1761469343127489300,2.3734892578125,4.081053507858514,-1.291576226325333,-8.673653685563803
1761469343137473300,2.383473388671875,3.814527308252454,-1.3634458230108022,-8.32609696995616
1761469343147456300,2.393456298828125,3.2192323878780007,-1.5765494983784853,-7.691032056990266
1761469343157439200,2.403439208984375,2.5451734351292252,-1.5301402139030396,-6.698368342351913
1761469343167423200,2.41342333984375,2.0730837464019656,-1.2147494456239043,-5.1090013018459075
1761469343177406200,2.42340625,2.2113354482725263,-0.7740763471625745,-3.2488883982121943
1761469343187389200,2.43338916015625,2.322698558695614,-0.27823884923160075,-1.4818115056723355
1761469343197373200,2.443373291015625,1.9864052876412868,0.21679697692766783,0.39891456240117545
1761469343207356200,2.453356201171875,0.6738774587020278,0.6947991045691072,2.6251076803267
1761469343217339400,2.46333935546875,-0.9223895704507827,1.3098643088184296,5.163937591648102
1761469343227323400,2.473323486328125,-2.378574759696424,1.6339973326101898,7.49506700181961
1761469343237306000,2.48330615234375,-3.8219428452059625,1.1654773190632461,9.243595261234045
1761469343247289000,2.4932890625,-4.503519333977997,0.01842500674575567,10.414152952301501
1761469343257272300,2.503272216796875,-4.639519457529485,-0.843138485211879,10.554508348453044
1761469343267256300,2.51325634765625,-4.167613893197476,-0.6436750665314496,9.747342070984839
1761469343277239300,2.5232392578125,-3.3761776843026277,-0.4764690728552639,8.882328584703803
1761469343287222300,2.53322216796875,-2.5624539480149746,-0.13506927244216202,8.613651929065584
1761469343297206300,2.543206298828125,-2.3634695450231433,-0.10555354736149311,8.135268693152069
1761469343307189200,2.553189208984375,-2.4533187427744267,-0.20610884804427623,7.248612114861607
1761469343317172200,2.563172119140625,-2.2482935983136296,-0.3999577878437936,6.321585532259941
1761469343327156200,2.57315625,-2.0611454713270065,-0.5301107928022742,5.336555673500895
1761469343337139200,2.58313916015625,-1.6043573966279625,-0.5395043518304824,4.087816426122188
1761469343347122200,2.5931220703125,-0.9117422119691967,-0.5771686043143273,2.6318437105834485
1761469343357106200,2.603106201171875,-0.2837821625724435,-0.5882032085478306,1.260376493680477
1761469343367089200,2.613089111328125,0.39919600969105956,-0.6664904171906412,-0.003988192853331566
1761469343377072400,2.623072265625,1.0345078831553458,-0.8366932545952498,-1.216429799926281
1761469343387056000,2.63305615234375,1.5308090530753136,-0.9790835175752639,-2.462398413547873
1761469343397039000,2.6430390625,2.0543959970667958,-1.0981424431979656,-2.9551760855168103
1761469343407022300,2.653022216796875,2.4909762732565404,-1.2344118852101265,-3.5029438233017918
1761469343417006300,2.66300634765625,2.645238906468451,-1.086819815803319,-4.110145162308216
1761469343426989300,2.6729892578125,2.6661557300299403,-0.968546049208939,-4.693195810398459
1761469343436972000,2.682971923828125,2.647237971331179,-0.793006234690547,-5.374905570161342
1761469343446955300,2.692955322265625,2.7880618617773054,-0.6191055656813085,-5.994331599968671
1761469343456939300,2.702939208984375,3.0933868708550927,-0.34603520512878894,-6.398756450223923
1761469343466922200,2.712922119140625,3.626545360790193,-0.13295651807188988,-6.586918722689151
1761469343476905500,2.722905517578125,4.005143111349642,-0.03465937157943844,-6.855317145907878
1761469343486889200,2.73288916015625,4.0353205152094365,-0.007826601972430944,-7.040665529996156
1761469343496872200,2.7428720703125,4.058876455102861,-0.04351312464252114,-6.878570011201501
1761469343506855200,2.752855224609375,3.806462659740448,-0.06326484994739294,-6.314237507584691
1761469343516839200,2.762839111328125,3.519758179980516,-0.0851145704448223,-5.6305859661042685
1761469343526822400,2.772822509765625,3.287892082606256,0.029661417161673306,-4.7572085561037065
1761469343536805000,2.78280517578125,2.9037989495009184,0.19025661439597605,-3.8266520458102224
1761469343546789000,2.7927890625,2.1700211488485337,0.3865639071330428,-2.6338036124795674
1761469343556772400,2.8027724609375,0.1804851619660854,0.6216622644267976,-1.1498311293810606
1761469343566755300,2.81275537109375,-1.8320447470128536,0.6760062874242663,0.08594459152817725
1761469343576739300,2.8227392578125,-2.413349428218603,1.0904738082662224,1.8195885855436325
1761469343586722000,2.83272216796875,-2.1585288639754054,1.2224541747823356,4.367335962814092
1761469343596705300,2.842705322265625,-2.7036493021219967,1.0548650270074604,6.44628158698678
1761469343606688300,2.852688232421875,-4.198906564822793,0.3253488293223083,8.082939955499768
1761469343616672300,2.86267236328125,-5.588888512581587,-0.9360977778077125,8.646075358286499
1761469343626655200,2.8726552734375,-5.675154006627202,-1.3032218020640314,8.526064246505499
1761469343636638200,2.88263818359375,-4.722442070887983,-1.4659991656430065,7.7568404539406295
1761469343646622200,2.892622314453125,-4.289534930253029,-0.9798526022516191,6.448690401694178
1761469343656605200,2.902605224609375,-4.099346120396256,-0.1118332121528685,5.570500622975826
1761469343666588400,2.91258837890625,-3.788832602764666,0.46354324804767966,4.964117030093074
1761469343676572400,2.922572509765625,-3.8133319609880445,1.0569563001982867,4.434372440254688
1761469343686555100,2.93255517578125,-3.759070501707494,1.3233221946761011,4.10116749060452
1761469343696538000,2.9425380859375,-3.3426559384509917,1.383370128403604,3.6160341959089037
1761469343706522000,2.952522216796875,-2.6171564290612936,1.2157133222199976,2.8542396765619515
1761469343716505300,2.96250537109375,-1.681148083102703,0.807279820845276,1.9033692770361899
1761469343726488000,2.972488037109375,-0.9576631284058094,0.3388736429363489,0.8102385245203971
1761469343736472000,2.98247216796875,-0.5294470681965351,-0.0004186638034880161,-0.17261165211200713
1761469343746455300,2.992455322265625,-0.10218319414556026,-0.2501724461764097,-1.1500602619618177
1761469343756438300,3.002438232421875,0.5165989848002791,-0.43494332263767715,-2.072547447568178
1761469343766422300,3.01242236328125,1.15792617303133,-0.4697343577727675,-2.8837627081662416
1761469343776405200,3.0224052734375,1.7617957372665405,-0.5512089642800391,-3.663126786473393
1761469343786388200,3.03238818359375,2.2623668395906686,-0.6314011297613382,-4.409265471526981
1761469343796372200,3.042372314453125,2.6438053665339947,-0.6945043594062328,-5.081736278301477
1761469343806355200,3.052355224609375,2.9026518252924083,-0.7049697854496538,-5.679136354261637
1761469343816338200,3.062338134765625,2.999502133977413,-0.6302681802086532,-6.215397194126248
1761469343826321200,3.072321044921875,3.0673458361476658,-0.5653611160121857,-6.761501382613182
1761469343836301800,3.0823017578125,3.2605040172040463,-0.4220997692860663,-7.263165540871023
1761469343846284500,3.092284423828125,3.3603087917804717,-0.313555954067409,-7.706767386260628
1761469343856267800,3.102267822265625,3.310424524670839,-0.23409546386152505,-7.97849466164112
1761469343866251800,3.112251708984375,3.4555104564756154,-0.1476506677262485,-7.899859516343474
1761469343876234800,3.12223486328125,3.8747412461966273,-0.11018997499048709,-7.516580329969525
1761469343886217700,3.1322177734375,3.919000659161806,-0.11814444112628697,-6.82898034312427
1761469343896201700,3.14220166015625,3.4680373450934887,-0.22307795689329504,-5.780962990054488
1761469343906184700,3.152184814453125,3.1051503738850355,-0.209486800044775,-4.22899366005063
1761469343916167700,3.162167724609375,3.0098367732480167,-0.038083939200639724,-2.357445170167088
1761469343926151700,3.172151611328125,2.0379343993484973,0.11284604245722293,-0.1921943044602871
1761469343936135000,3.182135009765625,-0.11589052471965551,0.41182971968427295,2.7296272084653377
1761469343946117600,3.19211767578125,-1.791663052263856,0.9535542317822575,6.342015741348266
1761469343956101600,3.2021015625,-2.3943515900209547,1.1313979393288494,9.440312596076726
1761469343966084600,3.212084716796875,-2.521153677116334,0.7363141872622072,11.241765805470942
1761469343976067800,3.22206787109375,-1.913018856652081,0.6696333913914859,11.337254470413923
1761469343986050800,3.23205078125,-1.1967357961580156,1.1194599565148353,10.152144522380828
1761469343996034600,3.24203466796875,-1.097781500931084,1.4342441372029482,8.76454040966928
1761469344006017800,3.252017822265625,-1.303693072837591,1.8566798604451118,8.08965143583715
1761469344016000800,3.262000732421875,-1.1997405309319495,2.1891433440782126,7.884988110426068
1761469344025984800,3.27198486328125,-0.9206909498393535,2.273562625735253,7.551171750879288
1761469344035967700,3.2819677734375,-0.9665876086175441,1.9737965659588574,6.935057622098922
1761469344045950700,3.29195068359375,-1.1452964085608721,1.586593045748025,6.23107933190465
1761469344055934700,3.301934814453125,-1.0291782125651836,1.0837710957571864,5.176980613094568
1761469344065917700,3.311917724609375,-0.541241550886631,0.628704730284214,3.8113703055262564
1761469344075900700,3.321900634765625,0.25193068802058693,0.26415932434424755,2.337665533941984
1761469344085885000,3.331885009765625,1.2161609198570251,-0.015667670861631632,0.8285323061019182
1761469344095867600,3.34186767578125,2.0525819333821533,-0.2504888186492026,-0.64601943770051
1761469344105850600,3.3518505859375,2.5858789550051093,-0.39431510578170414,-1.9024433943629264
1761469344115834600,3.361834716796875,2.9249715013891455,-0.4857737845562398,-2.8903870947420596
1761469344125817900,3.37181787109375,3.1497888492956756,-0.4778823737192899,-3.7175621410161255
1761469344135800800,3.38180078125,3.231101981630921,-0.4359520612888038,-4.420899795219302
1761469344145784600,3.39178466796875,3.1788965780973433,-0.299446326302737,-5.049142753210663
1761469344155767600,3.401767578125,3.1206013332560656,-0.22563538629114627,-5.835411788600683
1761469344165750800,3.411750732421875,3.3075124366164204,-0.18179164145477114,-6.6251628208875655
1761469344175733800,3.421733642578125,3.661209846936166,-0.0000336100086569786,-7.341021518489718
1761469344185717800,3.4317177734375,3.7615576423481105,0.12862046162895857,-7.865423578256368
1761469344195700700,3.44170068359375,3.6431887448161837,0.3872342806752771,-8.245623503315448
1761469344205683700,3.45168359375,3.3855320803642273,0.6644291007466614,-8.404072190040349
1761469344215667700,3.461667724609375,3.0139608674407006,0.9751664902620018,-8.223979242262244
1761469344225650700,3.471650634765625,2.574626031845808,1.028754507260397,-7.5497624686032525
1761469344235634000,3.481634033203125,2.0289929680019614,0.7646656908690929,-6.480884698334336
1761469344245617700,3.49161767578125,1.4195561250284314,0.4478610372040421,-5.1411143499433996
1761469344255600600,3.5016005859375,1.010779217043519,0.050759734769910574,-3.6200878552138804
1761469344265583900,3.511583984375,0.6406751540631056,-0.22801000646799802,-2.0600375100851056
1761469344275567900,3.52156787109375,0.359673854380846,-0.3346633317649364,-0.24579963791966436
1761469344285550800,3.53155078125,-0.5038982009202242,-0.49858694276958704,2.2839970721185208
1761469344295533600,3.541533447265625,-1.6143962678223847,-0.7390878897592424,4.989733117386699
1761469344305516800,3.551516845703125,-2.742673737043142,-0.692451664660126,7.253984455549716
1761469344315500800,3.561500732421875,-3.7615503358244893,-0.9363301252588629,8.3709479190737
1761469344325483800,3.57148388671875,-4.950576580518484,-1.2980198495067656,8.522513860547543
1761469344335466500,3.581466552734375,-5.545977591615915,-1.4466926998876035,7.9664067489624015
1761469344345450800,3.59145068359375,-5.359408725821972,-0.9563010462723672,6.875023716896772
1761469344355433700,3.601433837890625,-4.990110134005547,0.13490472953021526,5.616124894553423
1761469344365416700,3.611416748046875,-4.556142378401756,1.2821011264935136,4.683752274748683
1761469344375400700,3.621400634765625,-3.8796898085147142,2.257550233089179,4.140617457461357
1761469344385384000,3.631384033203125,-3.510542023345828,2.8928350724160667,4.068346001976728
1761469344395366700,3.64136669921875,-3.2738381305515762,2.8711382043927904,3.9934576419919727
1761469344405350700,3.6513505859375,-3.1452704950883983,2.5661957648918032,3.828267664313316
1761469344415333600,3.661333740234375,-2.964052050411701,1.8506667376354335,3.3275334803819656
1761469344425316900,3.67131689453125,-2.370168750400841,1.3805256987579166,2.4854630627930163
1761469344435300900,3.68130078125,-1.5410910853758453,1.2018269087519495,1.4346873509258031
1761469344445283600,3.69128369140625,-0.5990075111567974,1.0502603827562182,0.37359775031507014
1761469344455266800,3.701266845703125,0.2896270892083645,1.0223130029708147,-0.5659370162039995
1761469344465249800,3.711249755859375,1.0135472204521299,1.0276414314519613,-1.4640285962224007
1761469344475233800,3.72123388671875,1.753506632348895,0.9876515855647623,-2.320629058945179
1761469344485216500,3.731216552734375,2.2938892283186316,0.8849222287785261,-3.067940294909477
1761469344495199700,3.74119970703125,2.46592045019418,0.734577061271295,-3.716242875111103
1761469344505183700,3.751183837890625,2.442273909407854,0.4580499843936413,-4.417031429353356
1761469344515166700,3.761166748046875,2.4286995575636623,0.2193983185324818,-5.042767372959852
1761469344525149700,3.771149658203125,2.576390703430772,0.09898417890854179,-5.52537728665769
1761469344535134000,3.781134033203125,2.964583380809426,0.024166326876729725,-5.938987313887477
1761469344545116700,3.79111669921875,3.6204774390533565,0.06583886515386403,-6.284048705548048
1761469344555099600,3.801099609375,4.401660549481213,0.14751198990792036,-6.472450631988048
1761469344565083600,3.811083740234375,4.946240597140789,0.09343326678313314,-6.563920708939433
1761469344575067000,3.82106689453125,5.257065372678637,0.15416457966491579,-6.606210867658257
1761469344585049600,3.831049560546875,5.339878680443763,0.17340850157812238,-6.508015281844139
1761469344595033600,3.84103369140625,5.02061516238451,0.2472054861295968,-6.2060226320594545
1761469344605016800,3.851016845703125,4.563601462236046,0.39915881948582826,-5.672254778054357
1761469344614999800,3.860999755859375,3.9688156604275107,0.3643211687300354,-4.925059277424216
1761469344624982800,3.870982666015625,3.0088363640338183,0.26721045554317535,-3.9250773487269877
1761469344634966500,3.880966552734375,1.8525035976737736,0.02211765071861446,-2.419465280750394
1761469344644949800,3.89094970703125,0.33694238261282444,-0.04459602450840175,-0.4722282204151153
1761469344654932700,3.9009326171875,-1.6429951703190802,0.18409641126580537,1.5111615187972782
1761469344664916700,3.910916748046875,-3.5326883887022733,0.2816422279343009,3.2731682684659957
1761469344674899700,3.920899658203125,-5.0294414429187775,0.14636128550283609,5.038613760411739
1761469344684882700,3.930882568359375,-5.72698590067327,-0.07000475266166031,6.6640265122890465
1761469344694866700,3.94086669921875,-5.811044824585318,-0.47070130310878155,8.2428774194777
1761469344704849700,3.950849609375,-5.656933874803781,-0.820196877824515,9.102007108417153
1761469344714833000,3.9608330078125,-5.189571214598417,-0.6637376113511622,9.19729586687386
1761469344724817000,3.97081689453125,-4.374184513534606,-0.4102876778740436,9.082250853067636
1761469344734799600,3.980799560546875,-3.708718617086112,-0.23676789794117212,8.122595674061774
1761469344744782600,3.990782470703125,-3.855836346979439,-0.5174513638459146,6.62895987508297
1761469344754766600,4.0007666015625,-3.7859929954245684,-0.5338135928429663,6.235664321607351
1761469344764749800,4.010749755859375,-3.145937142303586,-0.783461357558146,6.191815243008732
1761469344774731500,4.0207314453125,-2.464815996083617,-0.8315593988381326,5.8637985096514225
1761469344784715800,4.0307158203125,-2.0027900207310916,-0.8473425127729773,5.171004461294412
1761469344794698800,4.04069873046875,-1.5932593717694281,-0.9247706203684211,3.941604120635986
1761469344804681700,4.050681640625,-0.9866723652690649,-0.7621607223108411,2.6915204729110003
1761469344814665000,4.0606650390625,-0.1437877086877823,-0.7327119980517774,1.5504250231713055
1761469344824648700,4.070648681640625,0.7382470550209284,-0.8028807091034948,0.3202969527602196
1761469344834631700,4.080631591796875,1.300052670508623,-0.565868919403851,-0.9446113391309976
1761469344844614700,4.09061474609375,1.8460607051447033,-0.4793878098461777,-2.259254845049977
1761469344854598700,4.1005986328125,2.483033789819479,-0.5008812642518431,-3.4285721806675196
1761469344864582000,4.110581787109375,3.0960175116196273,-0.4182292114630341,-4.1513995482385155
1761469344874564900,4.12056494140625,3.511474335759878,-0.5073919613201171,-4.741918047991395
1761469344884548900,4.130548828125,3.880320507633686,-0.47988721073567864,-5.006522924146056
1761469344894531800,4.14053173828125,4.052933913311362,-0.6164652803055942,-5.48113950100243
1761469344904514800,4.150514892578125,3.9619653561413286,-0.7181574029985814,-6.128862820011377
1761469344914498800,4.160498779296875,3.841469091191888,-0.608807385963574,-6.422924676796794
1761469344924481800,4.170481689453125,3.887428293812275,-0.371009852713719,-6.467234358644485
1761469344934465000,4.180465087890625,4.021560869926214,-0.17653693579696117,-6.367611954897642
1761469344944449000,4.190448974609375,4.051169241726398,-0.1097343401774764,-6.325923853725195
1761469344954431700,4.200431640625,4.063142003592849,-0.0007183774024248123,-6.278032806259393
1761469344964414700,4.210414794921875,4.148292229872942,0.2577934425741434,-6.091663846951723
1761469344974398000,4.22039794921875,4.1491488467022775,0.54776160030514,-5.718231516331434
1761469344984382000,4.2303818359375,3.7688241262197493,0.9196526928327977,-5.059472424045205
1761469344994364700,4.24036474609375,2.8485476024001835,1.3013693060651421,-4.0744630235522985
1761469345004348000,4.250347900390625,1.4430980363965034,1.4627534617200493,-2.8227222562700507
1761469345014332000,4.260331787109375,0.1642059350773692,1.445009569106251,-1.4764105234116316
1761469345024315000,4.27031494140625,-0.4679208786100149,1.2536403172932564,-0.052175008395314214
1761469345034297900,4.2802978515625,-0.9428510514602064,0.9048087594442069,1.0818138242095707
1761469345044281900,4.29028173828125,-1.6146885287672281,0.31058570608496666,2.1411346615821123
1761469345054264800,4.300264892578125,-2.213965504515171,-0.42451720569133755,3.43873467824161
1761469345064247800,4.310247802734375,-3.188650787131488,-1.2257495630659163,4.975200734165311
1761469345074231800,4.320231689453125,-4.524200302956998,-1.8161115570828317,6.223906663796305
1761469345084215000,4.330215087890625,-5.934319906598329,-2.1296831471107898,7.041392675226926
1761469345094197800,4.34019775390625,-6.663095953440666,-2.043037567706406,7.153202944895625
1761469345104181800,4.350181640625,-6.46687137055099,-1.714195051049441,6.595757862704992
1761469345114164700,4.360164794921875,-6.0153258726805445,-0.7731907964996994,5.855217143788933
1761469345124148000,4.37014794921875,-5.171431162273883,-0.012280658771842718,5.215245169559121
1761469345134131000,4.380130859375,-4.411148801055551,0.8259773609220981,4.71141418865621
1761469345144115000,4.390114990234375,-3.8913782004818316,1.4447528178662061,4.465949481779337
1761469345154098000,4.400097900390625,-3.35699221457839,1.6831600074470041,4.274519731950759
1761469345164081000,4.410080810546875,-2.9585885243088006,1.6012589922212064,4.000862949812412
1761469345174065000,4.42006494140625,-2.7984552454978227,1.3147498889029026,3.506011978700757
1761469345184047900,4.4300478515625,-2.4051871645510197,0.9729580204322934,2.7732430628299714
1761469345194030800,4.44003076171875,-1.4983078824430702,0.6542119503758848,1.8656594318449495
1761469345204014800,4.450014892578125,-0.6742267105311155,0.4086103192463517,0.7666285153746605
1761469345213997800,4.459997802734375,0.23522826728373764,0.23502295396998524,-0.266350843039155
1761469345223980800,4.469980712890625,0.9188269095331429,0.08438874038830399,-1.234432489606738
1761469345233964800,4.47996484375,1.4192726319119333,-0.11245938122719526,-2.210910208597779
1761469345243947800,4.48994775390625,1.745714663298428,-0.27425986259803176,-3.162141842651367
1761469345253930800,4.4999306640625,1.8674758336171506,-0.3674643621265888,-4.144841212636232
1761469345263914000,4.5099140625,2.081205385798216,-0.35617695217579604,-5.049464240249991
1761469345273898000,4.51989794921875,2.3719863212168217,-0.3055472735263407,-5.8485389811992645
1761469345283881000,4.529880859375,2.5729551760241387,-0.23484087540134785,-6.476943267232179
1761469345293863700,4.53986376953125,2.8386130683630704,-0.11186718748770653,-6.8954854901671405
1761469345303847700,4.54984765625,3.2404023094177243,-0.0346469504892826,-7.122782087668776
1761469345313831000,4.559830810546875,3.6738559780195352,0.10106807251051067,-7.2348431172281495
1761469345323814000,4.56981396484375,3.960373995296657,0.16892726451084017,-7.19879272968173
1761469345333798000,4.5797978515625,4.241156099270284,0.16094444906339048,-6.999974623167514
1761469345343780900,4.58978076171875,4.474835091285407,0.153189743283391,-6.545822742190957
1761469345353763800,4.599763916015625,4.680113333724439,0.13858312578201293,-5.725648514589667
1761469345363747800,4.609747802734375,4.60270422309041,0.07976429545804858,-4.539766413140296
1761469345373731800,4.61973193359375,4.046962729947269,0.11765943408831954,-3.1749744362175463
1761469345383714800,4.62971484375,3.3753169758200645,0.1522379955165088,-1.7205583024710416
1761469345393697800,4.63969775390625,2.598919053842127,0.3710281920880079,-0.31623043397367
1761469345403681800,4.649681884765625,1.5548735270127654,0.6876721752986311,1.140064937648177
1761469345413664800,4.659664794921875,0.33335809438526626,0.9276600581996143,2.654007611596584
1761469345423648000,4.66964794921875,-1.31839146027565,1.32427072757259,4.181730389094352
1761469345433632000,4.679632080078125,-3.0069144560605285,1.588917835433781,5.727399742171168
1761469345443615000,4.689614990234375,-4.302153588807583,1.6554159682139753,7.2309934560626745
1761469345453597700,4.69959765625,-5.0085038688302035,1.5572234511397778,8.404759587782621
1761469345463581700,4.709581787109375,-5.249036964523792,1.0939815241262316,8.82192292357981
1761469345473565000,4.71956494140625,-4.987606042230129,0.5989046353042126,8.32193517410159
1761469345483548000,4.7295478515625,-4.218333734348416,0.5171427362881601,7.991860923692584
1761469345493532000,4.739531982421875,-3.5971684596583247,0.28456571416556836,7.75620507864654
1761469345503515000,4.749514892578125,-3.091566669690609,-0.21774010299667715,7.287022217276692
1761469345513497900,4.759497802734375,-2.699674845533073,-0.6098410398602485,6.5782128536641595
1761469345523480800,4.769480712890625,-2.2274355192020536,-0.8298290679141879,5.786247652459144
1761469345533464800,4.77946484375,-1.6439441416069864,-0.9023404696345328,4.942655724391341
1761469345543448000,4.789447998046875,-0.7937099990457296,-0.9403693907123059,4.050780534669757
1761469345553430800,4.7994306640625,0.18262831147462127,-0.8458733900684863,2.87882349819839
1761469345563414800,4.809414794921875,1.3409975520983337,-0.5501229226090014,1.899223263272643
1761469345573397800,4.819397705078125,2.5973440596103665,-0.4559058119717985,0.8680828107237816
1761469345583381000,4.829381103515625,3.1854239340394734,-0.22904782508313654,-0.656918432855606
1761469345593365000,4.839364990234375,3.3795518369108435,0.05392828180342912,-2.154649392193556
1761469345603347700,4.84934765625,3.2201088784515854,-0.009739157595485447,-3.6144302678436038
1761469345613331000,4.8593310546875,2.778273165951669,-0.04919774615019559,-4.745605796593427
1761469345623315000,4.86931494140625,2.61373113078773,-0.23490093502551315,-5.492109807828069
1761469345633298000,4.8792978515625,2.643880769857764,-0.5328654983378946,-5.992478665578365
1761469345643280600,4.88928076171875,2.59875509545207,-0.8693360256552696,-6.483741841331124
1761469345653264000,4.899263916015625,2.4615847590774296,-1.345570997493714,-6.9949196778655045
1761469345663248000,4.909247802734375,2.256530096261203,-1.569106781157106,-7.157568738889694
1761469345673230800,4.91923095703125,2.38014887714535,-1.4167027814239264,-6.905124256128072
1761469345683213800,4.9292138671875,2.7883137907117606,-1.2525228575706482,-6.699267921540141
1761469345693198000,4.939197998046875,2.8935899824365974,-1.0064847347199917,-6.598872779855132
1761469345703180800,4.949180908203125,2.653535610170662,-0.744000357850641,-6.539192510396242
1761469345713163800,4.959163818359375,2.4226550167024135,-0.43832565855234856,-6.316451676502823
1761469345723147800,4.969147705078125,2.2786709086596963,-0.1514265330031514,-5.8050721799165
1761469345733131000,4.979131103515625,2.0536443019166586,0.19461422508358955,-4.909947633010149
1761469345743113700,4.98911376953125,1.287654376706481,0.5786665877871215,-3.6570308076858518
1761469345753097700,4.99909765625,0.24365970328152178,0.7924202514961362,-2.2462311128258703
1761469345763081000,5.0090810546875,-0.542522822868824,0.8359351297043264,-0.6295838512063026
1761469345773064000,5.01906396484375,-0.8629425252258777,0.8226707205921411,1.3246604575425385
1761469345783047000,5.029046875,-1.1127324018254876,0.6704324328146875,3.8476743755728005
1761469345793030700,5.03903076171875,-1.7585490104302763,0.07444514626190066,6.378406320634484
1761469345803014000,5.049013916015625,-2.8181773063167928,-0.8788516036279499,8.562744748649001
1761469345812996900,5.058996826171875,-4.149921876901388,-1.73849771765694,9.993040002095698
1761469345822980900,5.06898095703125,-5.169448464024066,-2.147407458241284,10.181430238097905
1761469345832963800,5.0789638671875,-5.719863501447439,-1.8693518566220997,9.040639908784627
1761469345842951000,5.088950927734375,-5.356776039230823,-0.7527344300568103,7.309730892691015
1761469345852935000,5.098934814453125,-4.634914301821589,0.42966143671199675,5.801952586591243
1761469345862918000,5.10891796875,-4.226841450452804,1.5297301717974245,4.503879691722989
1761469345872900900,5.11890087890625,-4.14935839779973,2.273913338869065,3.5832571309447285
1761469345882884900,5.128884765625,-4.033780884552002,2.284022498820722,3.090907913520932
1761469345892867800,5.138867919921875,-3.3816321503162383,1.7799027641043066,2.8719162030279635
1761469345902850800,5.148850830078125,-2.6476775317922234,1.1845860702894628,2.4629420189052817
1761469345912834800,5.158834716796875,-1.9442752879202365,0.7021957906916737,1.6362690769344568
1761469345922818000,5.168818115234375,-1.2437301870450377,0.42037089966684577,0.7305208446830511
1761469345932801000,5.178801025390625,-0.6427607281655073,0.3261383722648024,-0.19193068508803843
1761469345942783700,5.18878369140625,-0.1337844933286309,0.23602979292497037,-1.1832990992188452
1761469345952767700,5.198767822265625,0.4393585087314248,0.2806668070308864,-2.199754023811221
1761469345962751000,5.2087509765625,1.2106056238174439,0.3904949629716575,-3.265483559182286
1761469345972734000,5.21873388671875,1.9108920737564563,0.3877040170788765,-4.305473088619113
1761469345982718000,5.228718017578125,2.213314639391005,0.2418580606870353,-5.061456291338801
1761469345992701000,5.238700927734375,2.206829953546822,0.008835779014974832,-5.696707666787505
1761469346002684000,5.248683837890625,2.2240616588547826,-0.32600963131859895,-6.300308935475349
1761469346012668000,5.25866796875,2.466065996144712,-0.5990563187345862,-6.813997878047823
1761469346022651000,5.26865087890625,2.6628596110939977,-0.9038407911948859,-7.241868485820293
1761469346032633900,5.2786337890625,2.6006299494132397,-1.118475621652603,-7.524580681073665
1761469346042617900,5.288617919921875,2.681859787379205,-1.2584138153053819,-7.581777317023277
1761469346052600800,5.298600830078125,2.6810888030067086,-1.383669257480651,-7.440831553763151
1761469346062583800,5.308583740234375,2.616773274962604,-1.4896419070370495,-7.241797758671641
1761469346072567000,5.318567138671875,2.876363245564699,-1.6796411856710909,-7.021833988276123
1761469346082551000,5.328551025390625,3.4308664290845394,-1.8448096821703015,-6.4976102076858275
1761469346092533800,5.33853369140625,3.8432767251357434,-1.7578749105609952,-5.615823865780234
1761469346102517000,5.34851708984375,4.014393462514877,-1.1583594498820602,-4.458160727599263
1761469346112501000,5.3585009765625,3.4712639059245585,-0.9182359579026699,-3.1578865232944486
1761469346122484000,5.36848388671875,2.593203014282882,-0.5041343477636575,-1.208850304582715
1761469346132466700,5.378466796875,1.412501530341804,0.13695464779734612,1.7343372369766235
1761469346142450700,5.38845068359375,-0.5398597411394119,0.8120508346393704,4.603424354058504
1761469346152434000,5.398433837890625,-2.9717841059684753,1.8182813023373483,6.934159796476364
1761469346162417000,5.4084169921875,-5.18432454611659,2.5260885031700133,9.210604845780134
1761469346172401000,5.41840087890625,-6.177372291636466,2.431445203009993,10.923375563114881
1761469346182384000,5.428384033203125,-6.069665950155258,2.0264665182642636,11.497054571747778
1761469346192366800,5.438366943359375,-5.13775568716526,1.7759813528768718,11.244695429182052
1761469346202349800,5.448349853515625,-3.981244933889806,1.4857688649959861,10.28755720143318
1761469346212333800,5.458333740234375,-3.5801974511131642,0.61924263606444,8.836372889214754
1761469346222317000,5.468317138671875,-3.4796883276596664,-0.0485604711599648,7.8010168647974725
1761469346232299800,5.4782998046875,-3.168182584120333,-0.8164720120824873,6.959030033838749
1761469346242283800,5.48828369140625,-2.661473709693551,-1.188753272971511,6.117095809850096
1761469346252267000,5.49826708984375,-1.957474668972194,-1.3347498898804186,5.0874230917662375
1761469346262250000,5.50825,-1.1366843552991748,-1.6008590331181882,3.993421401634812
1761469346272234000,5.51823388671875,-0.3947665028110146,-1.5037543112806975,2.705723770308494
1761469346282216700,5.528216796875,0.3300897402390838,-1.309726507782936,1.47902392078042
1761469346292200000,5.538199951171875,1.0106199348285794,-1.190905920960754,0.280379368391633
1761469346302184000,5.548183837890625,1.5959294677615166,-1.0855284608185292,-1.0803168636500835
1761469346312167000,5.5581669921875,2.0000787159457802,-1.0245220573224127,-2.444626025491953
1761469346322150000,5.56814990234375,2.2755618367284534,-0.829033387491852,-3.611998072260618
1761469346332132900,5.5781328125,2.4758096837848425,-0.6468873065762222,-4.46087057107985
1761469346342116900,5.588116943359375,2.449812195958197,-0.5529454326838255,-5.006774853080511
1761469346352099800,5.598099853515625,2.488018592494726,-0.519133763974905,-5.47647852345407
1761469346362083000,5.6080830078125,2.607489606049657,-0.46432285411804913,-5.903679269140959
1761469346372067000,5.618067138671875,2.773400006957352,-0.28986659705266354,-6.211092774930596
1761469346382049800,5.6280498046875,3.0754999165087935,-0.20282792667746544,-6.537657555913925
1761469346392032800,5.63803271484375,3.3884500136375424,-0.11186404568254947,-6.913368352860212
1761469346402016800,5.648016845703125,3.739760236559808,0.032929479046911,-7.133875728613138
1761469346412000000,5.658,3.9191564342454073,0.057918666613847015,-7.31151426897645
1761469346421983000,5.66798291015625,3.756189101052284,0.05730959480479359,-7.327576930505037
1761469346431966000,5.677966064453125,3.3351141447693107,0.10749883621037006,-7.089723867675661
1761469346441950000,5.687949951171875,2.9746348192244767,0.33808534210287033,-6.576268149337172
1761469346451933000,5.697932861328125,2.7394074287235735,0.6097100338917225,-5.806599535614252
1761469346461916000,5.707916015625,2.4995301665902137,0.9767496678002178,-4.848459437346458
1761469346471900000,5.71789990234375,2.017112560594082,1.262853405188024,-3.6426048074483868
1761469346481883000,5.7278828125,1.2715858699589968,1.2606348523557185,-2.1129595374554393
1761469346491865900,5.737865966796875,0.4262099810838699,1.0404457487717271,-0.1870475892215967
1761469346501849900,5.747849853515625,-0.7492536022037267,0.8701805136553943,2.4833289733737707
1761469346511832800,5.757832763671875,-2.190680782778561,0.2533611592151224,5.52547139468193
1761469346521816000,5.767816162109375,-3.872548704588413,-0.5212171461202204,8.01618463308811
1761469346531799800,5.7777998046875,-5.080423442137241,-1.4470856447279452,9.285751564440131
1761469346541782800,5.78778271484375,-5.661793589794636,-2.0736178532786664,9.218963508802652
1761469346551766000,5.79776611328125,-5.512271721369028,-1.2506833671838045,8.464930271106958
1761469346561750000,5.80775,-4.870200144511461,-0.16896102064996957,7.174293663719296
1761469346571733000,5.81773291015625,-4.743856907099485,0.9263850698277354,6.161459267711639
1761469346581715700,5.8277158203125,-4.75677074920833,1.893311116619408,5.884751865831017
1761469346591699000,5.837698974609375,-4.541417395217716,2.7232690716102717,6.132179981735348
1761469346601683000,5.847682861328125,-4.244721682797372,3.155532361383736,6.229351485198736
1761469346611666000,5.857666015625,-3.7148932140678164,2.80992941019237,6.069615096750855
1761469346621649000,5.86764892578125,-2.994009381780028,2.285685317466408,5.2204029907137155
1761469346631633000,5.8776328125,-2.079815392744541,1.7010542683169245,3.88488270098269
1761469346641616000,5.887615966796875,-1.1151984996780753,1.0907333359852434,2.423361119145155
1761469346651598800,5.897598876953125,-0.2637310159295797,0.5007002816617488,0.879708366587758
1761469346661582800,5.907582763671875,0.5310621021777391,0.040394700361043215,-0.6672475191682576
1761469346671566000,5.917566162109375,1.175792961372435,-0.323417276737839,-2.0524773039638995
1761469346681548800,5.927548828125,1.481651931196451,-0.6940823346018791,-3.387175171396136
1761469346691531800,5.93753173828125,1.6523232628956437,-1.1758365082532167,-4.727608367609977
1761469346701516000,5.94751611328125,1.8841738704398274,-1.4007906342819332,-5.998619652551413
1761469346711499000,5.9574990234375,2.079552942416072,-1.5592942660644649,-6.9773986342221495
1761469346721481700,5.967481689453125,1.971729112035036,-1.4434310677431523,-7.838077306169271
1761469346731465700,5.9774658203125,1.8931608944937586,-1.2744359986931084,-8.48430132653117
1761469346741449000,5.987448974609375,2.2175921705797315,-1.2335723656460642,-9.001430764946342
1761469346751432000,5.997431884765625,2.713898601196706,-1.2016188920244575,-9.254912774062156
1761469346761416000,6.007416015625,3.073889850963652,-1.073555406691134,-9.203515764302015
1761469346771398700,6.017398681640625,3.609343758359551,-1.013340738094598,-8.969630436059832
1761469346781382000,6.0273818359375,4.083126222479343,-1.0922978088229893,-8.694539821726083
1761469346791366000,6.037365966796875,4.533506475962699,-1.0902183722004293,-8.159225322800875
1761469346801348900,6.047348876953125,4.621815458534658,-1.175425881625712,-7.341547588190436
1761469346811332000,6.05733203125,4.432458131065965,-0.7550431453905999,-6.0144701326340435
1761469346821314800,6.067314697265625,4.077676724901795,-0.46155777331888675,-4.329141548976302
1761469346831298800,6.077298828125,3.382780151307583,-0.12274769713804125,-2.71052503311038
1761469346841278200,6.0872783203125,2.5561802745729683,0.3295909238714725,-0.6064595807284117
1761469346851261200,6.09726123046875,1.0174825140744448,0.7863862320289016,2.2158055794239044
1761469346861245200,6.1072451171875,-0.6736407273367047,1.045824519200623,5.302344191819429
1761469346871228200,6.117228271484375,-2.7791213072136043,1.0096371343363075,7.842420303809642
1761469346881211400,6.12721142578125,-4.6708156362861395,0.7362249015435576,10.242747753369807
1761469346891195400,6.1371953125,-5.036894097012281,0.18881445276364683,11.779696624374388
1761469346901178000,6.14717822265625,-4.950568397212028,0.13434972599595785,12.027370239472388
1761469346911161000,6.1571611328125,-4.801350772430002,0.22477080535106359,11.21246956835985
1761469346921144300,6.167144287109375,-4.229583442637324,-0.06174911162219941,9.621890813976526
1761469346931128300,6.17712841796875,-3.811029529264569,-0.6382309757813811,7.855027271926403
1761469346941111300,6.187111328125,-3.7432524625897403,-0.8609135766815393,7.010514721882343
1761469346951094300,6.19709423828125,-3.445180785641074,-1.255629883675277,6.378342607748508
1761469346961078300,6.207078369140625,-3.05773395819366,-1.2822335207015276,5.751849708294868
1761469346971061200,6.217061279296875,-2.66476719828099,-1.1812575834538788,5.229639021092653
1761469346981044200,6.227044189453125,-2.048324568198621,-0.9951379227321594,4.57957819904685
1761469346991028200,6.2370283203125,-1.2220277660638093,-0.8236620697170496,3.666203125178814
1761469347001011200,6.24701123046875,-0.4442801830425858,-0.6367337229609489,2.461642042222619
1761469347010994200,6.256994140625,0.3844420926734805,-0.47186705895252523,1.2839543531447648
1761469347020978200,6.266978271484375,1.0685264726132153,-0.26987806731723246,0.05929097788035869
1761469347030961200,6.276961181640625,1.6245944212317467,-0.07035933825299143,-1.045733041524887
1761469347040944400,6.2869443359375,2.055491975609958,0.12335143518485128,-2.1124387284517288
1761469347050927000,6.296927001953125,2.3314055967643856,0.3687952454041689,-3.092709409984946
1761469347060911000,6.3069111328125,2.5687629850313067,0.5953893937248737,-3.9411370876461267
1761469347070894300,6.316894287109375,2.794511476308107,0.8111277284450829,-4.708149049380421
1761469347080877300,6.326877197265625,3.0083056181579826,0.9693905372090638,-5.4015515850245945
1761469347090861300,6.336861328125,3.1414003756567834,1.1023471283461899,-5.969465454259514
1761469347100844000,6.346843994140625,3.211249572430551,1.0756000642612575,-6.453878617987036
1761469347110827300,6.3568271484375,3.1880127814888954,1.1154182799085974,-6.993037517380714
1761469347120811300,6.366811279296875,3.2517452489480374,0.9813636644016951,-7.357626031810045
1761469347130794200,6.376794189453125,3.1513983303189277,0.9640438424188643,-7.580140655732154
1761469347140777500,6.386777587890625,3.041373190501332,0.9108643331561237,-7.704164510285854
1761469347150761200,6.39676123046875,2.982685146950185,0.7564847225010395,-7.535701794546842
1761469347160744200,6.406744140625,2.7756945476353168,0.6819304167762398,-7.22091162250936
1761469347170727200,6.41672705078125,2.7757170517280696,0.6599946254305541,-6.716754478392005
1761469347180711200,6.426711181640625,2.659721020807326,0.7927315824676304,-5.941180440017581
1761469347190694400,6.4366943359375,2.4027739659294483,0.7400497205287218,-4.890739659193158
1761469347200677000,6.446677001953125,1.8733318661689757,0.6545152441713958,-3.611690029224753
1761469347210660000,6.45666015625,1.3348045426771045,0.5158836030725389,-2.025039846462011
1761469347220644400,6.466644287109375,0.7336550510555505,0.36079964354038235,0.12730185331106186
1761469347230627300,6.47662744140625,-0.09757453130632639,0.06247757202722132,2.6438801853358744
1761469347240610000,6.486610107421875,-1.3884101683974266,-0.2665926889710128,5.3101615875720976
1761469347250594000,6.496593994140625,-3.168202750125527,-0.6345689461424946,7.750470918908714
1761469347260577300,6.506577392578125,-5.35092614415884,-1.447219646371156,9.483589427745342
1761469347270560300,6.516560302734375,-7.444574831944704,-2.237779072431475,9.930961439323426
1761469347280544300,6.526544189453125,-7.876264121222496,-1.8705432583637533,9.554510637664794
1761469347290527200,6.53652734375,-6.98644352594316,-0.9832445827774703,8.671541807976364
1761469347300510200,6.54651025390625,-6.135449212664366,0.20070362799987196,7.730669655373692
1761469347310493200,6.5564931640625,-5.5624131781101225,1.0843266838133334,6.914642610579729
1761469347320477200,6.566477294921875,-5.4763703869044775,1.7073559988096356,6.595741496092081
1761469347330460400,6.57646044921875,-5.4530356885463,2.1443936633780596,6.537511425441503
1761469347340443100,6.586443115234375,-4.652786058598757,1.8876846550397575,6.203179517588019
1761469347350427100,6.59642724609375,-3.423026529239118,1.3453886266641317,5.32576715298295
1761469347360410000,6.60641015625,-2.328952650654316,0.8576359432503581,3.963870312979817
1761469347370393300,6.616393310546875,-1.3575494584485888,0.31462942851781844,2.2107284222900865
1761469347380377300,6.62637744140625,-0.404579456295073,-0.18417868272177873,0.36266952906548977
1761469347390360000,6.636360107421875,0.4638745258286595,-0.5338117662120611,-1.2235785026371477
1761469347400343300,6.64634326171875,1.18606914845407,-0.7522825215708464,-2.5414327872961757
1761469347410327300,6.656327392578125,1.6588818907588718,-0.9929206120088696,-3.7332612299293277
1761469347420310300,6.666310302734375,1.9539450335413215,-1.0886015846535564,-4.7596752384781835
1761469347430293200,6.676293212890625,2.359023671530187,-1.0578451387967913,-5.629226952710748
1761469347440276200,6.686276123046875,2.7396923831447957,-1.0118402704037726,-6.427188179460168
1761469347450260200,6.69626025390625,3.0937948671340942,-1.047431954397261,-7.2031041631400585
1761469347460243200,6.7062431640625,3.5363077482432126,-1.008425712719932,-7.847370035171508
1761469347470226200,6.71622607421875,4.20495461281538,-1.0196821430105716,-8.40660609243214
1761469347480210400,6.72621044921875,5.034896201193332,-0.9253738469585776,-8.921081801468134
1761469347490193200,6.736193115234375,5.6253165012687445,-0.7674610206760466,-9.39467078884244
1761469347500176100,6.746176025390625,5.66866756721735,-0.6470399398546666,-9.784853763255477
1761469347510160100,6.75616015625,5.469304686301946,-0.47423751441091294,-9.860129076731205
1761469347520143400,6.766143310546875,5.0697529950410125,-0.13699695256911218,-9.340438263395429
1761469347530126300,6.776126220703125,4.761294364112615,0.4384720082204789,-8.257007067117094
1761469347540109000,6.786109130859375,4.528019861245155,0.7351287038046866,-7.202973814758658
1761469347550093000,6.796093017578125,4.192926029108465,1.0741153055962174,-5.829083170101046
1761469347560076300,6.806076171875,3.7285388775825496,1.2547386339239774,-3.9716561445504426
1761469347570059300,6.816059326171875,2.7289558850750324,1.2440665793925523,-1.7873334986269473
1761469347580043300,6.826043212890625,1.274487144358456,1.171867677687481,0.7417407423555851
1761469347590026200,6.836026123046875,-0.6761632315516471,0.924247984733805,3.2689123645871874
1761469347600009200,6.84600927734375,-2.710056831076741,0.8274844775494188,6.091647480338811
1761469347609993200,6.8559931640625,-3.9507437049031253,0.4650622012432664,8.452903733226657
1761469347619976200,6.86597607421875,-5.190296021741628,0.06905658509135246,10.373511145311593
1761469347629959400,6.87595947265625,-5.898487545716762,-0.25274755736142396,11.800926459407806
1761469347639943200,6.885943115234375,-5.26310289927721,0.08960282177478074,11.753605905306339
1761469347649926100,6.895926025390625,-4.5050832222938535,-0.17036920694746077,10.010678534638881
1761469347659909400,6.905909423828125,-4.218494770129024,-0.5119139687892049,8.959557370334863
1761469347669892400,6.915892333984375,-3.810831960865855,-0.5276647148244082,8.984010843589902
1761469347679876400,6.92587646484375,-3.185344439062476,-0.9541215833414345,8.969871259078383
1761469347689859000,6.935859130859375,-2.7742960790142415,-1.1256047428801654,8.793346817436813
1761469347699842300,6.94584228515625,-2.2805825874999166,-1.30176926516816,8.331032088270783
1761469347709826300,6.955826416015625,-1.9012980237200856,-1.5021590049132705,7.512612010860443
1761469347719809300,6.965809326171875,-1.4267565579265356,-1.475265591160208,6.320496567979455
1761469347729792000,6.9757919921875,-0.708327425314486,-1.5148488290078936,4.773561140489578
1761469347739776300,6.9857763671875,0.09802315185666084,-1.4549829738490283,3.1626410243451595
1761469347749759200,6.99575927734375,0.7650070516526699,-1.1533858992531896,1.7669816154718399
1761469347759742200,7.0057421875,1.3799959757953881,-0.7780192395694553,0.5797960302084684
1761469347769726200,7.015726318359375,1.742314791727066,-0.4262955404754728,-0.6794429838746786
1761469347779709400,7.02570947265625,1.7726015011802314,0.018187544728070496,-1.91806532638669
1761469347789692200,7.035692138671875,1.9438912570387124,0.40599750639945265,-3.207985894459486
1761469347799675100,7.045675048828125,2.426851883870363,0.7053617804419249,-4.438701993891597
1761469347809659100,7.0556591796875,2.9054531464487314,0.9352774744007736,-5.42157262879014
1761469347819642400,7.065642333984375,3.330630277353525,1.019362701797858,-6.209308229601382
1761469347829625000,7.075625,3.57204600110054,1.0943797296635807,-6.8320116736441845
1761469347839609600,7.085609619140625,3.6633421827897426,1.1127684960521758,-7.20828478064835
1761469347849592600,7.095592529296875,3.746492759685218,1.1436249682173132,-7.516954423978924
1761469347859575600,7.105575439453125,3.8204096442893145,1.179170328851044,-7.750323619392514
1761469347869559600,7.1155595703125,3.920891587474942,1.1464894177377223,-7.9104919695168725
1761469347879542500,7.12554248046875,3.8908343028634786,1.1327052225351333,-7.9631468703836195
1761469347889525800,7.13552587890625,3.719038058787584,1.0694994092985988,-7.8645058788895605
1761469347899508700,7.1455087890625,3.557700080361962,0.9331633317910134,-7.691580338522791
1761469347909492500,7.155492431640625,3.4141163698136805,0.7370118872027843,-7.426675602638721
1761469347919475500,7.165475341796875,3.37094241399765,0.6257700650718063,-7.000162839215993
1761469347929458700,7.175458740234375,3.295051598972082,0.6785219235070049,-6.398961032885313
1761469347939442700,7.185442626953125,2.994856646259129,0.7142145105917006,-5.577701348134875
1761469347949425700,7.19542578125,2.374666938602924,0.7680197505373507,-4.658567564609647
1761469347959408600,7.20540869140625,1.7296555089011787,0.7950519882392137,-3.175756526505947
1761469347969392600,7.215392578125,1.0613348075434565,0.6632590340539812,-1.110025188693404
1761469347979375600,7.225375732421875,-0.07223287703990935,0.3751601773262024,1.753780773115158
1761469347989358600,7.235358642578125,-1.288496965010464,0.08160663538910448,5.4544139911621805
1761469347999342600,7.245342529296875,-2.79477655698508,-0.44692930931188163,8.433324003487824
1761469348009325600,7.25532568359375,-4.5742932443812485,-1.1200865639805793,10.591371805948018
1761469348019308500,7.26530859375,-5.863423831120133,-1.7862492105215786,11.09835102174878
1761469348029291500,7.27529150390625,-6.237566355836391,-1.8127946876198053,10.225651657140254
1761469348039275500,7.285275634765625,-6.33242373713851,-1.4674714301526546,8.790174617141485
1761469348049258800,7.2952587890625,-6.247673908352851,-0.4270969930514693,7.23542237842083
1761469348059241500,7.305241455078125,-5.772430724030733,0.39583647013008594,5.853754670020938
1761469348069225500,7.3152255859375,-5.433851095604896,1.1650389276459812,5.150627443698048
1761469348079208700,7.325208740234375,-5.418603257590532,1.7176587816372513,5.3408881497472525
1761469348089191700,7.335191650390625,-5.373658200448751,1.7855642969973384,5.844081417268514
1761469348099175700,7.34517578125,-4.969608613246679,1.3387835293106733,5.683061418750881
1761469348109158400,7.355158447265625,-4.138452972903847,0.8734744406342506,4.906276251021027
1761469348119141600,7.3651416015625,-3.139371792438626,0.41337746058292685,3.751368549028039
1761469348129124600,7.37512451171875,-2.2682047519639132,0.1331639502774924,2.2398183231741187
1761469348139108600,7.385108642578125,-1.319342185129225,-0.1280495298732072,0.7504623934715986
1761469348149091800,7.395091796875,-0.3115785165145993,-0.25324841955564914,-0.5129781639546156
1761469348159074600,7.405074462890625,0.5347875524416565,-0.4086205483794212,-1.704277614277601
1761469348169058600,7.41505859375,1.0997729670092462,-0.5361262536995113,-2.841422865086794
1761469348179041500,7.42504150390625,1.4251055758491158,-0.6050495678000152,-3.91336060744822
1761469348189024800,7.435024658203125,1.8911390332773326,-0.6031337242413312,-4.880657825639844
1761469348199008800,7.4450087890625,2.285148872502148,-0.48448140665814277,-5.711817557635903
1761469348208991500,7.454991455078125,2.4323905210360883,-0.3175342831138521,-6.462866811084747
1761469348218974500,7.464974365234375,2.483091657486558,-0.32862638968825336,-7.165217207816243
1761469348228957700,7.474957763671875,2.72249896402061,-0.1288156188748777,-7.442506208977103
1761469348238941700,7.484941650390625,3.144407448518276,-0.20510588154681025,-7.505670228898524
1761469348248924400,7.49492431640625,3.553714810118079,-0.29932182314023376,-7.553858798006177
1761469348258907600,7.50490771484375,4.022205013048649,-0.4554628174446523,-7.4580644281148905
1761469348268891600,7.5148916015625,4.585138755783438,-0.5335248390294611,-7.30362556155324
1761469348278874600,7.52487451171875,5.01869383893311,-0.6801012285877018,-7.094618069458007
1761469348288857600,7.534857666015625,5.087990662521124,-0.835376692103967,-6.884804521676897
1761469348298841600,7.544841552734375,4.962506672286987,-0.9600810032024979,-6.483731904458999
1761469348308824600,7.554824462890625,4.754671146580576,-0.8067704830836504,-5.708161373215914
1761469348318807600,7.5648076171875,4.8353670238003135,0.06260105227641762,-4.305509913498163
1761469348328790800,7.574790771484375,4.491489288966357,0.3684318189192563,-2.9471219583988186
1761469348338774800,7.58477490234375,3.4155823507130143,0.8731062649089842,-1.2971382443666457
1761469348348757500,7.594757568359375,1.9683149196773766,1.3189881109945476,1.2005974400222301
1761469348358740500,7.604740478515625,-0.016223697309195994,1.5039341978922485,3.7425007674396036
1761469348368724500,7.614724365234375,-2.4569430707514286,1.612837494073063,5.6086716559380285
1761469348378707700,7.624707763671875,-4.6807159757927055,1.9123253214299678,7.228534956994652
1761469348388690700,7.634690673828125,-5.912894841253757,1.9609265629917383,8.435429451334477
1761469348398674400,7.64467431640625,-6.144402918970584,1.8297100204549728,8.98597483713925
1761469348408657700,7.65465771484375,-5.891355209618807,1.7191253470584749,8.677472367069125
1761469348418640600,7.664640625,-5.385188479244709,1.4928785508707165,8.423682899439335
1761469348428624600,7.674624755859375,-4.636360408976674,0.6023780835684388,7.9534917378097765
1761469348438607600,7.684607666015625,-4.073941337765753,-0.15533084696531294,7.7125506458371875
1761469348448590600,7.694590576171875,-3.7080765197902914,-0.8318486641082912,7.623485291939973
1761469348458573600,7.704573486328125,-3.1672192920461297,-1.4468248018346725,7.070575515091419
1761469348468557600,7.7145576171875,-2.6749200512439013,-1.5699635441169142,6.402495636752247
1761469348478540500,7.72454052734375,-2.0766548828870057,-1.4930677898325024,5.778744729483127
1761469348488523800,7.734523681640625,-1.0991901986852288,-1.1901005959272384,4.8563370388537646
1761469348498507500,7.744507568359375,-0.117191378185153,-0.9835403508536517,3.633749885341525
1761469348508490500,7.754490478515625,0.7732485180363059,-0.7480456877186894,2.368210894331336
1761469348518473700,7.7644736328125,1.495490486934781,-0.5750361223302781,1.0879980658024548
1761469348528457700,7.774457763671875,2.013447608345747,-0.38757987924255427,-0.02974164279103279
1761469348538440700,7.784440673828125,2.372951951378584,-0.31421843656413256,-1.1416314563125372
1761469348548423400,7.79442333984375,2.4635820703744886,-0.26259550909362733,-2.234709601858258
1761469348558406700,7.80440673828125,2.476483053001761,-0.28356545108184217,-3.131735013949871
1761469348568390700,7.814390625,2.5251386550992727,-0.3091923520304262,-3.8158454051136967
1761469348578373600,7.82437353515625,2.606492996227741,-0.15040449647903442,-4.359609167954326
1761469348588356600,7.834356689453125,2.89033039611876,0.0457055201202631,-4.873612583303451
1761469348598340600,7.844340576171875,3.2064018401384353,0.07687127743028103,-5.429272535642982
1761469348608323600,7.854323486328125,3.4375451761960982,0.1411630592726171,-5.904367835927009
1761469348618306600,7.864306640625,3.8215608601510525,0.19532931455038488,-6.364247446900606
1761469348628290600,7.87429052734375,4.16564142408073,0.1592022085059434,-6.92885175319612
1761469348638273800,7.884273681640625,4.387002201792598,0.0660169251345098,-7.3297361543655395
1761469348648256500,7.894256591796875,4.503837606146932,-0.00951126712374389,-7.422992530211806
1761469348658239500,7.904239501953125,4.307568015071749,-0.06932583048678934,-7.24386930424869
1761469348668223700,7.9142236328125,3.935763577914238,-0.0381411492805928,-6.884136413156986
1761469348678206700,7.924206787109375,3.395241865734756,-0.08484510585367679,-6.301962547901272
1761469348688189400,7.934189453125,2.77220086030066,-0.13998670896962284,-5.46623828446865
1761469348698173400,7.94417333984375,2.1670400872111317,-0.3428971993640065,-4.438327899882197
1761469348708156700,7.95415673828125,1.4678385098993778,-0.37143260817043483,-3.0556027913838624
1761469348718139600,7.9641396484375,0.8084393661439419,-0.54096814077273,-1.5052964261561632
1761469348728123600,7.97412353515625,0.11686112331748008,-0.7088069524597376,-0.18208558290004728
1761469348738106400,7.9841064453125,-0.5856859650298952,-1.229545155956596,0.8943360268771647
1761469348748089600,7.994089599609375,-1.3855658848822117,-1.6203903936706483,1.9046487954527138
1761469348758073600,8.004073486328124,-2.3673054699242115,-1.97278475856781,2.945751254567504
1761469348768056600,8.014056640625,-3.983692034780979,-2.0609955414623022,4.109070811074972
1761469348778038500,8.02403857421875,-6.458087175592779,-1.5284008228898047,5.384491729152202
1761469348788021500,8.034021484375,-8.192991983324289,0.2473080697212368,6.922688554391264
1761469348798005500,8.044005615234376,-8.933516920149327,2.3092399421855805,8.558944771844148
1761469348807988700,8.05398876953125,-8.371464051902294,3.120552233417332,9.768331667521595
1761469348817971700,8.0639716796875,-7.416157715755701,3.775503750114143,9.494891743004322
1761469348827955700,8.073955810546876,-6.059471888399123,4.086182687440514,8.778073844981193
1761469348837938400,8.0839384765625,-4.675165940450132,3.501540970766544,8.05242499024868
1761469348847921400,8.09392138671875,-3.657128130580485,2.2912135793685913,7.127914189860224
1761469348857905400,8.103905517578125,-2.751752823294699,1.4820894458308815,5.7125639920890325
1761469348867888400,8.113888427734375,-1.5851351020246742,0.7532401876218616,3.8574996040165423
1761469348877871600,8.12387158203125,-0.22448680077791214,0.048908042488619685,1.6760206570863723
1761469348887854600,8.1338544921875,1.0827297700107097,-0.32659144979454574,-0.3359574632287025
1761469348897838600,8.143838623046875,2.004519621002674,-0.3808832311481237,-2.126464915716648
1761469348907821300,8.1538212890625,2.7378759813725946,-0.3573571018710732,-3.329712577986717
1761469348917804500,8.163804443359375,3.3747137492299077,-0.3805702927414328,-3.858779122433066
1761469348927788500,8.17378857421875,3.9207290903896093,-0.37148813774995504,-4.098875580275059
1761469348937771500,8.183771484375,3.965286609518528,-0.5493289226870983,-4.53339980071783
1761469348947754500,8.19375439453125,3.506456799858808,-0.8124103156015277,-5.207479211732745
1761469348957738500,8.203738525390625,3.141352737122774,-1.0096921524591744,-5.440831456011534
1761469348967721500,8.213721435546875,2.8847604870319365,-1.11411260413751,-5.382458762019873
1761469348977704400,8.223704345703124,2.762228332340717,-0.9574209902130066,-5.269622656434774
1761469348987687700,8.233687744140624,2.924088873335719,-0.6889673296757042,-5.005960029566288
1761469348997671400,8.24367138671875,3.16495222389698,-0.3340639045670628,-4.889177816703915
1761469349007654400,8.253654296875,3.36493645158112,-0.04557349123843014,-4.778292260664701
1761469349017637400,8.263637451171874,3.301892843168974,0.28837738140821456,-4.5290731696903705
1761469349027621600,8.27362158203125,3.4054069936573503,0.610967559672147,-3.8490743054985996
1761469349037604600,8.2836044921875,3.6228479675769805,0.9092596744384616,-3.090070293653011
1761469349047587300,8.29358740234375,3.729878017231822,1.0928395875494927,-2.439731823709607
1761469349057571300,8.3035712890625,3.4470448259472843,1.2865801716037093,-1.8932529566913843
1761469349067554600,8.313554443359376,3.0070798757553097,1.280580200536549,-1.3082038282603026
1761469349077537500,8.32353759765625,2.3519863202393054,1.1286764054104685,-1.0154337648510932
1761469349087520500,8.3335205078125,1.313637543746829,0.840838976097852,-0.8385182780653238
1761469349097504300,8.343504150390626,0.0006055646777153015,0.5931435875594615,-0.279450563108921
1761469349107487500,8.353487548828125,-1.8421581447482107,0.38235593404918905,0.4214350217670202
1761469349117470500,8.363470458984375,-3.332649800482392,0.12644772069975732,1.4738187533527611
1761469349127454500,8.373454345703125,-4.732124383729696,-0.20528934835493565,2.713402634373307
1761469349137437700,8.383437744140625,-5.984274900856613,-0.5633304869674146,3.8737802922099824
1761469349147420400,8.39342041015625,-6.322776203349233,-0.83818013215214,5.506497814142704
1761469349157404400,8.403404296875,-5.727637058058381,-0.7317034785963594,7.0909601314723485
1761469349167387400,8.413387451171875,-5.200180286896228,-0.5301255519799888,8.096814751595259
1761469349177370600,8.42337060546875,-4.629034011611342,-0.046616205224394795,8.735492009839415
1761469349187353300,8.433353271484375,-4.0282682586103675,-0.08299903959557414,8.151001099812984
1761469349197337300,8.44333740234375,-3.5991508656471964,-0.4410872322201729,6.254536779859662
1761469349207320600,8.453320556640625,-2.912255812200904,-0.6427461151182651,4.779534369680285
1761469349217303600,8.463303466796875,-1.9671850388646124,-0.7721940405473112,3.7139796063542363
1761469349227287600,8.47328759765625,-1.235898470506072,-1.1090392463959753,2.4195050282388926
1761469349237270500,8.4832705078125,-0.8472048578679561,-1.322387105783075,0.9833359143227338
1761469349247253500,8.49325341796875,-0.20089199017882345,-1.4645195946097374,-0.15950141064822673
1761469349257237500,8.503237548828125,0.4006862482488155,-1.3274473117820917,-1.2217898656547068
1761469349267220500,8.513220458984375,0.9154226540476084,-1.148453995808959,-2.0863006631106136
1761469349277203500,8.523203369140624,1.4392133039176462,-1.0146297549918293,-2.5448165845155715
1761469349287186400,8.5331865234375,1.978724670010805,-1.0290563397511838,-2.973734655514359
1761469349297170400,8.54317041015625,2.5305010589152572,-0.872941210540384,-3.107590168252587
1761469349307153400,8.5531533203125,3.084417966979742,-0.698669516261667,-3.1440409532934424
1761469349317136600,8.56313671875,3.52101899369657,-0.5349295912608504,-3.2989193803161383
1761469349327120600,8.57312060546875,3.853509073075652,-0.4347856478579342,-3.4262568894624708
1761469349337103400,8.583103271484376,4.22356637430489,-0.42177375220209357,-3.5607372561007735
1761469349347086300,8.59308642578125,4.694194173786044,-0.4084519138142466,-3.822203249707818
1761469349357070300,8.6030703125,4.998555306267738,-0.5096639248400926,-4.065207703951001
1761469349367055400,8.613055419921874,5.306248798042535,-0.41765228835791346,-4.1733699725061655
1761469349377038600,8.62303857421875,5.357483895239234,-0.1808218465745449,-4.152140137472749
1761469349387021600,8.633021484375,5.026897019132972,0.15282032544910906,-3.859941151949763
1761469349397005600,8.643005615234374,4.0533611988127225,0.42039924897849557,-3.2100060021102426
1761469349406988300,8.65298828125,2.482984689980745,0.3623093174509704,-2.278494967570901
1761469349416971500,8.662971435546876,0.5716495486319064,0.264734786144644,-1.4002888222396372
1761469349426954500,8.67295458984375,-1.7441022596657274,0.49357262173891064,-0.4029723133593797
1761469349436938500,8.6829384765625,-3.954789765423536,0.06044453182965517,0.4998258369147777
1761469349446921500,8.69292138671875,-4.859028762155771,0.12432239910885691,0.27384499818682667
1761469349456904400,8.702904541015625,-4.38597168970108,0.41639249755516644,0.45914837408959863
1761469349466888400,8.712888427734375,-3.524042140910029,0.6621694852516055,1.4946481908917426
1761469349476871400,8.722871337890625,-3.8512078103959557,0.9969973599284887,2.2947160345315933
1761469349486854700,8.732854736328125,-4.3842198775976895,1.0680693764954805,2.8350352098762985
1761469349496838700,8.742838623046875,-4.0605712763220065,0.6866054228499532,2.898771476727724
1761469349506821400,8.7528212890625,-4.038079458528757,0.6425809876844286,2.789325598102808
1761469349516804400,8.762804443359375,-4.021958344811201,0.9663967622205615,2.683271700003743
1761469349526787600,8.77278759765625,-3.806781224170327,1.4148811189547181,2.844200513106584
1761469349536771600,8.782771484375,-3.345053939503431,1.5305051016926765,3.112738052535057
1761469349546754600,8.792754638671875,-3.2819992251753805,1.6128687659941612,3.1285937933146952
1761469349556737500,8.802737548828125,-3.5236814909040928,1.6805463178172706,2.833967872905731
1761469349566721500,8.812721435546875,-3.222692465204,1.5573755729615688,2.3215789070159194
1761469349576704500,8.82270458984375,-2.197324166315794,1.3732473783180117,1.5657055944114922
1761469349586687500,8.8326875,-0.9483750755786895,0.9983438061013817,0.5837649338394403
1761469349596670500,8.84267041015625,-0.015378770917654036,0.48447702274397014,-0.4728507362276315
1761469349606654500,8.852654541015625,0.7743184853553772,0.03226005535274744,-1.5598697278648614
1761469349616637400,8.862637451171874,1.6511100877135991,-0.5010585935801267,-2.4935212815642354
1761469349626620400,8.872620361328124,2.272295528408885,-0.9794885912448167,-3.165583507537842
1761469349636604700,8.882604736328124,2.4308833313435314,-1.0270376934051513,-3.3299592462241647
1761469349646587400,8.89258740234375,2.327391392686963,-1.0388741155408323,-3.2868577711224556
1761469349656570400,8.9025703125,1.6511311305016279,-1.1338361262612044,-3.2828345069557425
1761469349666554400,8.912554443359374,0.8115460999876261,-1.1461743604391812,-3.3146465262800455
1761469349676537600,8.92253759765625,0.5075771816939115,-0.9052755001731216,-3.361417629805207
1761469349686520600,8.9325205078125,0.9795791921377182,-0.5470224723756313,-3.365246832704544
1761469349696503300,8.94250341796875,1.8833850581496954,-0.22111016395166516,-3.37140886246562
1761469349706487300,8.9524873046875,2.6054297509104014,-0.0232568108163774,-3.450083755251765
1761469349716470500,8.962470458984376,3.284683349692821,0.05531652129143476,-3.5024914033591745
1761469349726453500,8.97245361328125,3.9950411117911337,0.05524082570672035,-3.3720617734164
1761469349736437500,8.9824375,4.448160142588615,-0.05403057313412427,-3.10672682942152
1761469349746420500,8.99242041015625,4.460570126828551,-0.22444836846366523,-2.679579275226593
1761469349756403500,9.002403564453125,4.174689822933078,-0.37833983027562496,-1.9815140084683893
1761469349766386400,9.012386474609375,3.661310676962137,-0.39251112509965896,-1.133772559505701
1761469349776370400,9.022370361328125,2.9226480268776416,-0.24538944968357682,-0.10675473984479904
1761469349786353700,9.032353759765625,2.1105238347411155,0.05694675284177064,0.9840589679002761
1761469349796336400,9.04233642578125,1.1555717188596726,0.3456140571072697,1.863415452310443
1761469349806320400,9.0523203125,-0.101197105717659,0.4304242377780378,2.3175135572731493
1761469349816303600,9.0623037109375,-1.087887591165304,0.2845389722891152,2.3737878176808356
1761469349826286600,9.07228662109375,-1.6332196262359617,0.06579919073060154,2.150663537427783
1761469349836270600,9.0822705078125,-1.909928197160363,-0.008176292192935943,2.0161410852134227
1761469349846253000,9.092253173828125,-2.2401935862272975,0.08919131836444139,2.0074480756700037
1761469349856236300,9.102236328125,-2.8096324730724094,0.24304025620892641,2.1980162402331826
1761469349866219300,9.11221923828125,-3.125770552587509,0.4483274126067757,2.3864777879059313
1761469349876203300,9.122203369140625,-3.044175972962379,0.4914208505325019,2.509903092044592
1761469349886186200,9.132186279296874,-3.105276046091318,0.5051456436980516,2.733359965252876
1761469349896169200,9.142169189453124,-3.0223920111775398,0.4656060988616198,3.087278617107868
1761469349906153200,9.1521533203125,-2.806341030311584,0.3677149758867919,3.5384359924435613
1761469349916136200,9.16213623046875,-2.345852932050824,0.18293854646757243,3.935201852378249
1761469349926119400,9.172119384765624,-1.7263994297146796,-0.08012684516012668,4.10605175551474
1761469349936102100,9.18210205078125,-1.0508791722416877,-0.475791904246062,3.9671243463397023
1761469349946086100,9.192086181640626,-0.7361486214369535,-0.8227919358190149,3.556465570130944
1761469349956069000,9.202069091796876,-0.5995008476316929,-1.0308114397902042,2.823475704985857
1761469349966052400,9.21205224609375,-0.6162123284578322,-1.1149351725667715,2.0529139418154956
1761469349976036400,9.222036376953126,-0.7092775656461715,-1.1344190407156944,1.3822235887169838
1761469349986019000,9.23201904296875,-0.44749826830625533,-1.0699502948712556,0.6589373714625835
1761469349996002300,9.242002197265625,0.16758008768558502,-0.9369392701331526,-0.06522153697311878
1761469350005986300,9.251986328125,0.8200181602567433,-0.7674394664313644,-0.8540811733782291
