time,seconds_elapsed,z,y,x
1761469320555927000,0.113927001953125,4.9739901893317695,-0.8642635446965694,-4.3384313553690905
1761469320565910000,0.123909912109375,5.506906394943595,-1.073382826603204,-4.665412315937877
1761469320575893200,0.133893310546875,5.89923865634501,-1.1781938850343228,-4.969334472480416
1761469320585877200,0.143877197265625,6.37906624584794,-1.051148929093778,-5.107519538855552
1761469320595860000,0.15385986328125,6.7628200639963145,-0.9153218240216374,-5.044254981169105
1761469320605843000,0.163843017578125,6.579902121925354,-0.8363209141515194,-4.629422134146094
1761469320615827200,0.1738271484375,5.721214916056394,-0.8033741917088627,-3.7824002316296097
1761469320625810200,0.18381005859375,4.272115593418479,-0.8858749263934791,-2.731009602734446
1761469320635793200,0.193793212890625,2.9112025037556886,-1.1187044619724154,-1.549557008165121
1761469320645776100,0.203776123046875,1.8305156377494334,-1.211981588345766,-0.03928104003071785
1761469320655760100,0.213760009765625,0.8868599919080734,-0.8316238423764705,1.8588544280052184
1761469320665743000,0.2237431640625,0.003083352968096733,0.006043810208886861,3.756724523103237
1761469320675726000,0.23372607421875,-1.006816158631444,1.0577627942755818,5.338643001168966
1761469320685709000,0.243708984375,-2.286858891290426,2.0685132236160335,6.621226065960526
1761469320695693000,0.253693115234375,-3.0947634199053047,2.6109493911147115,7.673332149648666
1761469320705676000,0.263676025390625,-3.6757378462433814,2.4942285530507564,7.869947193160653
1761469320715659300,0.2736591796875,-4.063153109508753,2.181433938744664,7.39650082912743
1761469320725643300,0.283643310546875,-4.405825560206175,1.9037693822696804,6.771116767698526
1761469320735626200,0.293626220703125,-4.626459192687273,1.793460457074642,6.140693543058633
1761469320745609000,0.30360888671875,-4.229767567032575,1.8972056398399173,5.514309364676476
1761469320755592200,0.31359228515625,-3.808899531498551,1.9949588887140153,5.065506443512439
1761469320765576200,0.323576171875,-3.7182448625832794,2.2797934829488393,4.560268518421053
1761469320775559200,0.33355908203125,-3.4498318263173102,2.249267704042792,4.151532819229364
1761469320785542000,0.3435419921875,-3.175144532087445,1.9040426462531088,3.683438922140002
1761469320795525000,0.353525146484375,-2.5864327894955874,1.7462284580394625,3.206090289971232
1761469320805509000,0.363509033203125,-1.403200910294056,1.9403749194808304,2.844440167081356
1761469320815491300,0.3734912109375,-0.26264497425854205,1.6352482094541192,2.1254174524903298
1761469320825474300,0.383474365234375,1.0092670589148998,1.1914391510546207,1.119939848986268
1761469320835458300,0.393458251953125,1.4937842675387858,0.6451812333106994,-0.42586452864706514
1761469320845441300,0.403441162109375,1.872290832683444,0.2436415831029415,-1.4390806174486874
1761469320855424500,0.413424560546875,2.324444817841053,-0.17801029628515241,-2.022254599657655
1761469320865407500,0.423407470703125,2.7707243580073118,-0.5301680759474635,-2.61744226026535
1761469320875391500,0.4333916015625,3.168236652395129,-0.9989397261679172,-3.183165925979614
1761469320885374200,0.443374267578125,3.1871652247488496,-1.5470269051656127,-3.7993238939017053
1761469320895357400,0.453357421875,3.0927894894838333,-2.0233061545372006,-4.388764535290003
1761469320905340400,0.46334033203125,3.3198172069162126,-2.2774591947823764,-4.759306405165791
1761469320915324400,0.473324462890625,3.4591263088852164,-2.050816969536245,-4.936534026640653
1761469320925307400,0.483307373046875,3.745743694883585,-1.5284928850874304,-5.1557040163099765
1761469320935290400,0.493290283203125,4.191529898574948,-1.2869880217522383,-5.413273587000369
1761469320945274400,0.5032744140625,4.265944795829057,-0.9855883694246411,-5.807895420643687
1761469320955257300,0.51325732421875,4.2013878602445125,-0.6996732864767312,-6.211933317407965
1761469320965240600,0.523240478515625,3.830002525281906,-0.5435144642546773,-6.56806730722487
1761469320975223300,0.533223388671875,3.287610050794482,-0.42815380862802266,-6.769186091896891
1761469320985207300,0.543207275390625,2.393998246538639,-0.26942279783040285,-6.548272473430633
1761469320995190300,0.553190185546875,0.535920648124814,0.20937603314667938,-5.629806798425316
1761469321005173500,0.563173583984375,-1.4581705178439617,0.21410189262479543,-4.219713206008076
1761469321015156200,0.57315625,-2.771271762757003,0.26132921548485755,-2.1587065586298704
1761469321025140200,0.58314013671875,-2.833591148547828,0.3668848086729645,0.32855449349582194
1761469321035123500,0.59312353515625,-2.3053420579642054,0.1486234582811594,2.608597275030613
1761469321045106400,0.6031064453125,-2.1053052233099936,-0.34898265675753354,4.294986765918136
1761469321055090400,0.61309033203125,-2.9603643018096686,-0.9016820057258009,5.589648975560069
1761469321065073200,0.6230732421875,-4.045719159626961,-1.6808897244274614,6.79513126501441
1761469321075056400,0.633056396484375,-5.447918783923983,-2.175835095824301,7.737298718124627
1761469321085039400,0.643039306640625,-6.6497577484399075,-2.3213293161690234,7.722797314563393
1761469321095023400,0.6530234375,-6.747113376298547,-1.7424778733342885,6.938956383103132
1761469321105006300,0.66300634765625,-5.8694894147694106,-0.38406712188124653,6.096109135922789
1761469321114989300,0.6729892578125,-4.847624740087985,0.9256056098878384,5.352248332673311
1761469321124972300,0.68297216796875,-4.119415679478645,1.9982719587847588,4.906032505393028
1761469321134956300,0.692956298828125,-3.495174358344078,2.6881135870769617,4.761135374158621
1761469321144939500,0.702939453125,-3.003998276352882,2.842528195980191,4.648480470359325
1761469321154922500,0.712922607421875,-2.4148057645067573,2.5797885291755196,4.213558775031566
1761469321164906200,0.72290625,-1.727989913776517,2.0384280280843377,3.3603742582321163
1761469321174889200,0.73288916015625,-1.0643167459636926,1.4748510190099478,2.15829622426331
1761469321184872400,0.74287255859375,-0.5271420061245561,0.966699836820364,0.8116255949646234
1761469321194855400,0.75285546875,-0.021459259875118732,0.5008338449135422,-0.5644038152873516
1761469321204839400,0.76283935546875,0.5302765047580004,0.1621245987586677,-1.8275211321085691
1761469321214822400,0.772822509765625,1.0962035840898752,-0.09443623328059911,-3.084451284727454
1761469321224805400,0.782805419921875,1.5907067646771669,-0.22973098504170775,-4.082618272957205
1761469321234788400,0.792788330078125,1.9459031813830137,-0.2592649764314294,-4.892555768704414
1761469321244772400,0.8027724609375,2.4508447538763285,-0.4197917846046388,-5.6389855456590645
1761469321254755300,0.81275537109375,2.870589338338375,-0.6463759960532188,-6.29174685883522
1761469321264738300,0.82273828125,3.2244708730533715,-0.7822361266121268,-6.7404562564969055
1761469321274722300,0.832722412109375,3.4695050795584916,-0.7817860447570681,-6.974042309531569
1761469321284705300,0.842705322265625,3.637920449024439,-0.7298813777357339,-7.0899144218117
1761469321294688500,0.8526884765625,3.8378532387822863,-0.6597910656824708,-6.9698688232392065
1761469321304671200,0.862671142578125,4.028533339287341,-0.5732733504414558,-6.7370905794560905
1761469321314655200,0.8726552734375,4.136672811488807,-0.49355742416977877,-6.3966913343876595
1761469321324638500,0.882638427734375,4.206630729334056,-0.4893118955545127,-5.829322824075818
1761469321334621400,0.892621337890625,4.151731556671858,-0.4016749670252204,-5.11468519270122
1761469321344604200,0.902604248046875,4.1664916111692785,-0.21353402960896492,-4.307170540186762
1761469321354588200,0.912588134765625,4.012795087407529,0.10910407944992184,-3.4711984394729134
1761469321364571400,0.9225712890625,3.179946671672165,0.5060039410278201,-2.388263502278924
1761469321374554400,0.932554443359375,1.6179101211622355,1.204302285889536,-0.9823498258948326
1761469321384538400,0.942538330078125,-0.06942395709902048,1.6291161364398896,0.6035381403237581
1761469321394521600,0.952521484375,-1.6264721978023646,2.030272194157541,2.326529807421565
1761469321404504300,0.96250439453125,-3.350121159765124,2.107611746686697,4.267430065950751
1761469321414487300,0.9724873046875,-4.5598634447515005,1.6374477653250097,5.8453439845502375
1761469321424471300,0.98247119140625,-5.5007449497044085,0.959318932788819,7.027106960242986
1761469321434454500,0.99245458984375,-5.879143378299474,0.3130151251889765,7.856315558171272
1761469321444437200,1.002437255859375,-5.753132149320841,-0.2081603737466037,8.108949426025152
1761469321454420200,1.012420166015625,-5.134377150642871,-0.6028080724835395,7.728213494393229
1761469321464404200,1.022404296875,-4.538207200999557,-1.322493781027943,6.840760212767123
1761469321474387500,1.032387451171875,-4.256720455887914,-1.497078779039532,6.466534685942531
1761469321484370400,1.042370361328125,-3.870067993688583,-1.7105157780148088,6.526227230361104
1761469321494354200,1.052354248046875,-3.20443492397964,-1.7794653956003486,6.486541701182722
1761469321504337400,1.06233740234375,-2.4572873541444538,-1.736317743269354,6.300414733937382
1761469321514320400,1.0723203125,-1.5853601429522037,-1.5583173838563262,5.851851466748118
1761469321524303400,1.082303466796875,-0.6652794339656829,-1.4396071255408227,5.204077294334769
1761469321534287400,1.092287353515625,0.1762657907053828,-1.2703051824986933,4.170658375459909
1761469321544270300,1.102270263671875,0.7718272530615329,-1.2845979117453097,2.9419167909711597
1761469321554253300,1.11225341796875,1.0180933394491671,-1.434233323547989,1.6145599339514969
1761469321564236300,1.122236328125,1.051122917869687,-1.4314809560999273,0.25943828717172146
1761469321574220500,1.132220458984375,1.19701665892601,-1.3933071466587483,-0.9917775794535875
1761469321584203500,1.14220361328125,1.4927838583245872,-1.4201669504031538,-2.037334095367789
1761469321594186200,1.152186279296875,1.8196873697429894,-1.3328354345612228,-2.933812979492545
1761469321604169500,1.16216943359375,2.2356670487135646,-1.1011100608319044,-3.7366415200173853
1761469321614153500,1.172153564453125,2.8737609541118143,-0.865663913013786,-4.396380270990729
1761469321624136400,1.182136474609375,3.3629280343681573,-0.745226538644731,-5.176088048169016
1761469321634119200,1.192119140625,3.402645127728581,-0.7828859688229859,-6.128682202747464
1761469321644103200,1.202103271484375,3.1198791564613577,-0.6229771464176476,-6.872262435489892
1761469321654086400,1.21208642578125,2.886490379564464,-0.3550781971536576,-7.515275677111744
1761469321664069400,1.2220693359375,2.9527959123820064,-0.32431802496984596,-7.812325609797239
1761469321674052400,1.23205224609375,2.9547298030540343,-0.4678590654201805,-7.835186845424771
1761469321684036400,1.242036376953125,3.0519810937553644,-0.39515287178009745,-7.664008440986275
1761469321694019300,1.252019287109375,3.2255168749749656,-0.3118631786748767,-7.380961899212003
1761469321704002300,1.262002197265625,3.4652409923732277,-0.21768910346180198,-6.792993083941936
1761469321713985500,1.271985595703125,3.6536876347377896,0.33359570253342385,-5.940481936359405
1761469321723969500,1.281969482421875,3.3978894576340912,1.0175763298377394,-4.777983633106946
1761469321733952300,1.2919521484375,2.4234046660259363,1.6058642940595744,-3.550810905370116
1761469321743935200,1.301935302734375,1.144046700760722,1.8847789967261255,-2.676034149965644
1761469321753919500,1.31191943359375,0.5168339625999331,1.7394436202049255,-1.6872756260722874
1761469321763902500,1.32190234375,0.48267596467137336,1.6129732492819429,-0.20982056204378605
1761469321773885200,1.33188525390625,0.00274754514247179,1.5121046448662876,1.6655898639649152
1761469321783868400,1.341868408203125,-1.3083563884735108,1.2505299301877617,3.6239889543056485
1761469321793852400,1.351852294921875,-2.9744705685734747,0.9998848980635404,5.026347568556666
1761469321803835400,1.36183544921875,-4.490821472707391,0.5228872712895274,6.028230362439155
1761469321813819400,1.3718193359375,-5.570653767710924,-0.2564735921472311,6.510144110566377
1761469321823802400,1.38180224609375,-5.958293487381935,-0.2087692994251847,6.797920018950104
1761469321833786400,1.391786376953125,-5.913863978546858,-0.05907616608589887,6.96035163783133
1761469321843769600,1.40176953125,-5.6800189823150635,0.17349281886070966,6.827651724869012
1761469321853752300,1.41175244140625,-5.418798487901688,0.5435311231285334,6.727097593230009
1761469321863736300,1.421736328125,-4.735048746743798,1.0520508463695644,6.72925798613429
1761469321873719600,1.431719482421875,-4.018951856471598,1.5737407245680688,6.643970981732011
1761469321883702500,1.44170263671875,-3.517747716940939,1.6090449699223042,6.3696577815115445
1761469321893685500,1.451685546875,-3.2279604687348007,1.3102797577515244,5.800774774983525
1761469321903669500,1.46166943359375,-2.814228568691015,0.9634034256234765,4.859023501458764
1761469321913652500,1.471652587890625,-2.1833985168159007,0.39384588083475824,3.7139626552194356
1761469321923635500,1.481635498046875,-1.5599047991782427,-0.16758330255597828,2.4462036500722166
1761469321933618400,1.491618408203125,-1.0792682313799857,-0.582614887021482,1.114678567457199
1761469321943602700,1.501602783203125,-0.6978823114067315,-0.7717416206046939,-0.11656067906618117
1761469321953585400,1.51158544921875,-0.25595102957785126,-0.87318174129799,-1.2523375641316175
1761469321963568400,1.521568359375,0.1397170982480049,-0.9977863183490931,-2.3797429266929626
1761469321973552400,1.531552490234375,0.4993742937549948,-1.2120407711870969,-3.4904824011355635
1761469321983535600,1.54153564453125,0.7140949028000235,-1.4520349376983939,-4.469308144557476
1761469321993518600,1.5515185546875,1.0457792187541723,-1.6971505388766526,-5.363759906768799
1761469322003501300,1.561501220703125,1.3755898497909307,-1.7400313569650052,-6.261173441395163
1761469322013485300,1.5714853515625,1.8383318644583224,-1.7956363398090003,-7.046990641364455
1761469322023468500,1.581468505859375,2.343747191943228,-1.8710371793605387,-7.712148494777083
1761469322033451500,1.591451416015625,2.68416280362457,-1.9075167521044611,-8.30285813318789
1761469322043434500,1.6014345703125,2.876225298398733,-2.053366069497168,-8.62960586952269
1761469322053418500,1.61141845703125,3.1139158641427755,-2.0352612346164882,-8.65989345575869
1761469322063401500,1.6214013671875,3.3510791911423206,-1.9690122542917727,-8.379954816871882
1761469322073384400,1.631384521484375,3.46245808365643,-1.9905675218872725,-7.810875995510816
1761469322083367700,1.64136767578125,3.4247520378574725,-2.066255069425702,-7.0491802603632205
1761469322093351700,1.6513515625,3.472462175798416,-1.8443099159546195,-5.828059087750315
1761469322103334400,1.66133447265625,3.741308050523698,-0.6730899615861475,-4.163759848117828
1761469322113317400,1.6713173828125,3.7094916472852226,-0.0810268627397716,-2.76375276542902
1761469322123301600,1.681301513671875,2.808318175603449,0.47992549691945313,-1.1253887620419263
1761469322133284600,1.69128466796875,1.833772593718767,1.1896899692997336,1.118378591018915
1761469322143267300,1.701267333984375,0.9613511692687868,1.8651181645750998,3.748298055541515
1761469322153250600,1.71125048828125,-0.797114546792209,1.9571132883138953,6.344238678094745
1761469322163234600,1.721234619140625,-2.554158997878432,2.148665203217417,8.414668402856588
1761469322173217500,1.731217529296875,-3.013705431374907,2.2641981466710566,9.763941908130048
1761469322183200500,1.741200439453125,-2.726666605094075,2.1211140562079844,10.248621029317379
1761469322193183500,1.75118359375,-2.8203546503558754,2.0009715731322766,10.081019898843765
1761469322203167500,1.76116748046875,-2.7727073485180735,1.8720364195309578,9.345633493950963
1761469322213150500,1.771150390625,-2.386957388116419,1.927805068504065,8.476001115697622
1761469322223133400,1.781133544921875,-2.394764554736018,1.5275123496174812,7.625867803162336
1761469322233117700,1.79111767578125,-2.5422183847159148,0.9209593915171921,6.6864464338898655
1761469322243100400,1.801100341796875,-2.3120114527255295,0.6234932792462409,5.90248333735466
1761469322253083400,1.81108349609375,-1.8182304489329457,0.2980842441692948,5.0181514026194805
1761469322263066600,1.821066650390625,-1.3462033040478825,-0.11928966563865542,4.1146459808588025
1761469322273050600,1.831050537109375,-0.8618386556372046,-0.5794459015965462,3.1895325384020805
1761469322283033600,1.84103369140625,-0.3462377419635653,-0.9413381626792251,2.207298447841406
1761469322293016300,1.851016357421875,0.3711030108898878,-0.9605857378542423,1.1782242801725864
1761469322302999600,1.86099951171875,1.2878951997250319,-0.8465551617875695,0.24360358918011188
1761469322312983600,1.870983642578125,2.1020175799414513,-0.5810433999210596,-0.7780985884159803
1761469322322966500,1.880966552734375,2.5085046234235167,-0.3739909874163568,-1.8243232128500937
1761469322332949500,1.890949462890625,2.7941248150780797,-0.3034428485929966,-2.945743655782938
1761469322342932500,1.900932373046875,3.020686668564379,-0.3121969406738877,-4.132578527912497
1761469322352916500,1.91091650390625,3.1133076691165567,-0.5114917247891426,-5.065846635252237
1761469322362899500,1.9208994140625,3.0141093360006805,-0.7427269769139587,-5.772635891214013
1761469322372882700,1.930882568359375,2.8242198013514277,-0.946068844462931,-6.350955419129133
1761469322382866400,1.940866455078125,2.7945053388282655,-1.0113435729280114,-6.852604379817843
1761469322392849400,1.950849365234375,2.7948481609165667,-0.9798182615905999,-7.351855047193169
1761469322402832400,1.960832275390625,2.771778835496306,-0.8185852048441767,-7.767609100714325
1761469322412815600,1.970815673828125,2.616383691123128,-0.6820595961138606,-8.030511849126219
1761469322422799600,1.980799560546875,2.4110008192658423,-0.5494814098350703,-7.957147922229766
1761469322432782300,1.9907822265625,2.097732449968159,-0.26926439239829775,-7.671206243535876
1761469322442765600,2.000765625,1.8185463830143211,-0.0034323125362396237,-7.208163784617185
1761469322452748500,2.01074853515625,1.5272428850263355,0.2616213302992284,-6.442208053937554
1761469322462732500,2.020732666015625,1.1151865169793367,0.4270139909431338,-5.390851911833882
1761469322472715300,2.03071533203125,0.3940516325399279,0.5951014436289668,-4.014565311950445
1761469322482698500,2.040698486328125,-0.03609568799287081,0.6568966594152152,-2.127490751633048
1761469322492681500,2.050681396484375,-0.4808797289043665,0.6349119143612683,0.382203081575036
1761469322502665500,2.06066552734375,-1.0737784017920493,0.48315761070847507,3.1584669535309073
1761469322512648700,2.070648681640625,-1.6573256012275814,0.1524957696698606,5.640096137249469
1761469322522631400,2.08063134765625,-2.7757062380731106,-0.25605069056004287,8.014011965224146
1761469322532615400,2.090615478515625,-4.322336837397516,-1.1870230881780386,9.484894665125012
1761469322542598400,2.100598388671875,-5.252914098218083,-1.2840338481217621,10.094165796142816
1761469322552581600,2.11058154296875,-5.758992565786838,-0.9891429931662976,10.398071586072444
1761469322562564400,2.120564453125,-5.994229308637976,-0.2999615823484957,9.337472399327158
1761469322572548400,2.13054833984375,-5.875370874023437,0.9112706489346921,7.737357754835486
1761469322582531300,2.14053125,-4.955628018689155,1.8536214957877992,6.579986293077469
1761469322592514600,2.1505146484375,-3.9027962510749696,2.727513577312231,5.946964868637919
1761469322602497500,2.16049755859375,-3.250654823362827,2.9175471966072917,5.220302452948689
1761469322612481500,2.1704814453125,-2.840782813617587,2.3388471449419854,4.313526631215215
1761469322622464500,2.180464599609375,-2.211854211449623,1.5477758238367736,3.407354620593786
1761469322632447500,2.190447509765625,-1.2268652692228554,0.8494979372411966,2.2172008331745863
1761469322642431500,2.200431396484375,-0.37773090459704395,0.2767586936764419,0.9118810359179973
1761469322652414500,2.21041455078125,0.519353836466372,-0.11409954964965581,-0.3972551047563553
1761469322662397400,2.2203974609375,1.2438020832374692,-0.37158991762399673,-1.6150433335542678
1761469322672380400,2.23038037109375,1.8106228965386748,-0.5800486897952855,-2.66147546325922
1761469322682364400,2.240364501953125,2.4636586427420375,-0.6777418790452182,-3.5005180574595927
1761469322692347600,2.25034765625,3.0258722545087338,-0.7359262108579278,-4.165991552692652
1761469322702330600,2.26033056640625,3.5302860037356614,-0.6410208987608551,-5.011302559638023
1761469322712313300,2.270313232421875,3.8409921213299034,-0.6127041742064059,-5.977574526435136
1761469322722297300,2.28029736328125,3.906340791814029,-0.6210849029302596,-6.86482556348741
1761469322732280600,2.290280517578125,3.8513840437456963,-0.6509758910641074,-7.797966829577088
1761469322742263600,2.300263671875,3.5561642490968106,-0.7973563927240669,-8.782385278439522
1761469322752246300,2.310246337890625,3.126928490450978,-1.0406124836407602,-9.563921440088748
1761469322762230300,2.320230224609375,2.8529335623994467,-1.0223368222378193,-10.036986695849896
1761469322772213500,2.330213623046875,2.6259263032332063,-1.0215233138978481,-9.790744574859739
1761469322782196500,2.340196533203125,2.5900749453902243,-0.8910070285849273,-8.924322390824555
1761469322792180500,2.350180419921875,2.796186131522059,-0.7598724652431905,-7.729939003011584
1761469322802163700,2.360163818359375,2.967657381427288,-0.33308161553144455,-6.239764742663502
1761469322812146400,2.370146484375,2.7693150757312774,-0.08494827396720647,-4.566487246805429
1761469322822129200,2.380129150390625,2.195787166006863,0.09716258950456977,-2.62792390679121
1761469322832113200,2.390113037109375,1.0864271632239222,0.3181139096327126,-0.02216740814447403
1761469322842096400,2.400096435546875,-0.955711848207563,0.8767544852182269,3.365532079386711
1761469322852079000,2.4100791015625,-3.7554642939090725,1.554973626386374,6.997990171352028
1761469322862062300,2.420062255859375,-5.678774535211921,1.671000490836799,9.958038831341266
1761469322872046300,2.43004638671875,-5.817163015204668,1.4508821144014596,11.822079137551784
1761469322882029300,2.440029296875,-4.956523506224155,0.8283386832259595,12.645219229221343
1761469322892012300,2.45001220703125,-3.8261598783791064,0.3870812090054154,11.792341001892089
1761469322901996000,2.45999609375,-2.9384906159147617,0.3027751784645021,9.952179583919047
1761469322911979300,2.469979248046875,-2.9467589703053236,-0.5038455939501524,7.831631783291697
1761469322921962200,2.479962158203125,-3.1509888727352022,-1.1057171162359416,6.793126939454674
1761469322931945200,2.4899453125,-2.5543761477604505,-1.8674685270935296,6.638136868751048
1761469322941929200,2.49992919921875,-1.9166484453260897,-2.3496961634755134,6.028512686511874
1761469322951912200,2.509912109375,-1.5293787280112503,-2.607752640900016,5.176478508791327
1761469322961895200,2.519895263671875,-0.932620457085967,-2.5129098726451398,4.195940700754523
1761469322971878400,2.52987841796875,-0.3364683353602886,-2.262317155230045,3.010051000520587
1761469322981862400,2.5398623046875,0.31753216422200203,-1.9303525610297918,1.8070459148347378
1761469322991845000,2.54984521484375,1.1372276683956384,-1.6230414927013217,0.6628408086419105
1761469323001828000,2.559828125,1.9876316145658492,-1.4065516820266841,-0.5169634341984987
1761469323011811300,2.569811279296875,2.619641523875296,-1.329622756125033,-1.8083447224736213
1761469323021795300,2.57979541015625,2.8302292708992955,-1.3414496797800064,-3.2117198202908037
1761469323031778300,2.5897783203125,3.0527117461174726,-1.1821345854841172,-4.472400849875807
1761469323041761300,2.59976123046875,3.2054300724968314,-0.944008112540841,-5.456226009020209
1761469323051745300,2.609745361328125,3.416425815799832,-0.7776783171772956,-6.164415779429674
1761469323061728300,2.619728271484375,3.6833427682891484,-0.6049604282118379,-6.73431234691441
1761469323071711200,2.629711181640625,3.9021266812503335,-0.44158451421782374,-7.012786758467555
1761469323081694200,2.639694091796875,3.813017488211393,-0.37182591833695766,-7.171538812053203
1761469323091678200,2.64967822265625,3.6237153980612753,-0.34046661121621724,-7.4351757199585435
1761469323101661200,2.6596611328125,3.488337205800414,-0.1256185763992369,-7.5719263696163885
1761469323111644200,2.66964404296875,3.145541420984268,0.1861665686033666,-7.584257443401217
1761469323121627400,2.67962744140625,2.6322365092933175,0.47166181870400903,-7.659391302579641
1761469323131611400,2.689611328125,2.2151930004835125,0.6368146792426705,-7.638083726134896
1761469323141594000,2.699593994140625,1.7694889221176504,0.7731422811828553,-7.137045006299019
1761469323151577300,2.709577392578125,0.8791729445368051,0.7490646555028856,-6.154766492074728
1761469323161560300,2.719560302734375,-0.2635927765026688,0.5549691935963929,-4.79050935268104
1761469323171544300,2.72954443359375,-1.209540624934435,0.4128061635009944,-2.801054614341259
1761469323181527000,2.739527099609375,-1.774965599963069,0.46151539548188447,-0.35018823315501213
1761469323191510300,2.74951025390625,-1.7872341299057006,0.719621849527955,2.6268641686052083
1761469323201494300,2.759494384765625,-1.2160337863460182,1.068810550251603,5.633558259913325
1761469323211477200,2.769477294921875,-1.8822060774981975,1.2185498608201741,8.166845734676718
1761469323221460200,2.779460205078125,-4.127608630545437,1.1005151636786759,10.562483565115928
1761469323231443200,2.789443115234375,-6.470956594038009,-0.20554010824561117,11.750428444314002
1761469323241427200,2.79942724609375,-7.487603826332092,0.514740643582493,11.465062519681453
1761469323251410200,2.80941015625,-7.133970421159267,1.1847472522005438,10.292939478993416
1761469323261393400,2.819393310546875,-6.442305084571242,2.0511523389704522,8.994894641175865
1761469323271376100,2.829376220703125,-5.447957946890592,3.1609955952256916,8.194546811550856
1761469323281360100,2.839360107421875,-4.430027981309593,4.2420203148841855,7.361898886823654
1761469323291343000,2.849343017578125,-3.915303850470483,4.808612580126524,6.202299227622151
1761469323301326300,2.859326416015625,-3.150217011579871,4.570569839943945,5.077219677659869
1761469323311309300,2.869309326171875,-1.720322447888553,3.1919194335386156,4.101363889959455
1761469323321293300,2.879293212890625,-0.512242543156445,2.131668767970055,2.3788684819459913
1761469323331276300,2.8892763671875,0.32307956921607256,1.220768267522007,0.509040239983797
1761469323341259300,2.89925927734375,1.108080192105472,0.6087324940964579,-1.0948878253161907
1761469323351243300,2.9092431640625,1.6937641113087534,0.45164837372303007,-2.5612808125823734
1761469323361226200,2.919226318359375,2.283248007316887,0.27537206162363287,-3.9188019217193126
1761469323371209200,2.929209228515625,2.917904631742835,0.10240706602931023,-5.111835063967108
1761469323381192200,2.939192138671875,3.3275010394170876,-0.2213103626988828,-6.0945864564001555
1761469323391176200,2.94917626953125,3.5366821345135566,-0.6823673468887805,-6.948548387312889
1761469323401159200,2.9591591796875,3.4484549850061534,-0.9995502592816948,-7.764909194105863
1761469323411142400,2.969142333984375,3.005674685132503,-1.1395851913072168,-8.454646192979812
1761469323421125000,2.979125,2.6217776591211557,-1.311345048895478,-9.14028277079761
1761469323431109000,2.989109130859375,2.36717745963037,-1.4261241052418947,-9.896491014444827
1761469323441092400,2.99909228515625,2.1600597268044948,-1.6127115296058356,-10.494749168539046
1761469323451075300,3.009075439453125,2.312017882466316,-1.7630457373276351,-10.893154612374305
1761469323461058000,3.01905810546875,2.991849865658581,-1.7033533390395341,-10.884847387278079
1761469323471042000,3.0290419921875,3.6146973943471905,-1.7000627730615436,-10.335773243069648
1761469323481025300,3.039025390625,3.500462820141017,-1.8438433213561771,-9.23910847120881
1761469323491008300,3.04900830078125,2.833842785221338,-1.9177181203842162,-7.5190131100744
1761469323500992300,3.0589921875,1.9562413277849553,-1.7289542287640272,-5.557155988234281
1761469323510975200,3.068975341796875,1.0743693534225225,-1.102937714650482,-3.7290988495528694
1761469323520958200,3.078958251953125,-0.33277795640975233,-0.44384281453862784,-1.4041700475871561
1761469323530941200,3.088941162109375,-1.5159484608128666,0.13666399428769946,1.4162380865216255
1761469323540925200,3.09892529296875,-1.9939678318500518,0.6062547058060765,4.484450768631697
1761469323550908400,3.108908447265625,-2.5778257046699524,1.133540358185023,7.668942974779009
1761469323560891100,3.11889111328125,-3.459511216549575,1.6204210810698567,11.301906093657015
1761469323570874000,3.1288740234375,-3.651583063673973,0.41914661856889723,13.428093945997952
1761469323580858000,3.138858154296875,-3.798629774157703,0.4341321523852646,12.790414466619492
1761469323590841300,3.14884130859375,-3.899692439840734,0.1982885296821594,11.58586565862298
1761469323600824300,3.15882421875,-3.9035909085839986,-0.05613865132927894,10.958861887037754
1761469323610807300,3.168807373046875,-3.885768251645565,0.3780860747102648,10.95209663068652
1761469323620791300,3.178791259765625,-3.3087229814499617,0.5970750087242573,10.803986967146397
1761469323630774300,3.188774169921875,-3.0397590333029627,-0.1750485238701105,9.254377936533093
1761469323640757200,3.19875732421875,-2.8676576688006516,-0.1806760083630681,7.838000733801722
1761469323650741200,3.2087412109375,-2.172505659140646,-0.44208501108586784,6.725783003500103
1761469323660724200,3.21872412109375,-1.597810459202528,-0.5092853007860482,5.2916766673326485
1761469323670707200,3.228707275390625,-1.311759767176211,-0.5035367471966892,3.6922079195290802
1761469323680690200,3.238690185546875,-0.8878738451257348,-0.4230778205379844,2.0377339083403347
1761469323690674400,3.24867431640625,-0.2092836786881089,-0.19350706755928693,0.4595511096715927
1761469323700657200,3.2586572265625,0.616742489811778,-0.13148644551932812,-0.8799562038689851
1761469323710640000,3.26864013671875,1.381077925813198,-0.32104280269145963,-2.2121499795258046
1761469323720623400,3.278623291015625,1.675750607973337,-0.3824614402502775,-3.628318507942557
1761469323730607400,3.288607421875,1.8690099113166332,-0.29134572969451544,-4.821249358859658
1761469323740590300,3.29859033203125,2.169798738269508,-0.3957799176372587,-5.685436331188678
1761469323750573000,3.308572998046875,2.5438860256671902,-0.29890951601229604,-6.086610655215382
1761469323760557000,3.31855712890625,2.977578763721883,0.04387625886648893,-6.471157085046172
1761469323770540300,3.328540283203125,3.3925381597340105,0.17738609997220336,-7.075596558123826
1761469323780523300,3.338523193359375,3.727408412247896,0.2899999411087483,-7.578336236658692
1761469323790506200,3.34850634765625,4.0947780818283555,0.3420668860197067,-7.959067492115497
1761469323800490200,3.358490234375,4.420409965875745,0.28679252336956557,-8.296039100822806
1761469323810473200,3.36847314453125,4.487292714059353,0.23471213445514438,-8.593989197218418
1761469323820456200,3.378456298828125,4.3380639833614225,0.12345292279794812,-8.731144336023926
1761469323830439400,3.388439453125,4.081188240154087,0.05392923165149986,-8.464250472149253
1761469323840423400,3.39842333984375,3.7505683385610578,0.1943715754341334,-7.740643352377414
1761469323850406100,3.40840625,3.160006584188342,0.3493782319463789,-6.6537652305155985
1761469323860389000,3.41838916015625,2.3455893126785754,0.46031763706468043,-5.4479462564527985
1761469323870372400,3.428372314453125,1.5062082803040742,0.5135203810725361,-4.203607874381542
1761469323880356400,3.4383564453125,0.5474047496914863,0.6171515820693224,-2.4383207878679034
1761469323890339300,3.44833935546875,-0.2048313754543662,0.6618428836457431,-0.013349310916662216
1761469323900322300,3.458322265625,-0.9850959097325801,0.6828902017191052,2.7024095311939713
1761469323910306300,3.468306396484375,-1.49746003344208,0.7952436383537947,5.34604012568295
1761469323920289300,3.478289306640625,-1.8698504537940024,0.738672879217565,7.719343374717235
1761469323930272300,3.488272216796875,-3.3455642271131274,0.07138079025521873,9.477190082097053
1761469323940255200,3.498255126953125,-5.609451992660761,-1.1661094794869422,9.988720385330915
1761469323950239200,3.5082392578125,-6.835835615846515,-1.1849006891965865,9.6803307279855
1761469323960222200,3.51822216796875,-7.169653728958964,-0.5132591728530824,9.339058791735768
1761469323970205200,3.528205078125,-7.47132489170432,1.090633821133524,8.537002404627204
1761469323980188400,3.5381884765625,-6.901065920647978,2.9819623856335875,7.889830289760232
1761469323990172400,3.54817236328125,-5.60523934340179,4.07002182623446,7.420572025066614
1761469324000155100,3.558155029296875,-4.428562292671203,4.594211120033264,6.723437317156791
1761469324010138400,3.568138427734375,-3.4207989163175223,4.064721673999727,6.002797815018892
1761469324020121300,3.578121337890625,-2.497130996493995,2.8386504777640105,4.733027470049262
1761469324030105300,3.588105224609375,-1.3806965252801775,2.0511064540021122,2.8790953008770943
1761469324040088000,3.598088134765625,-0.2619739431291818,1.391130241011083,1.0755278758078812
1761469324050071300,3.6080712890625,0.7917623721092939,1.0704062950104474,-0.6568593961447476
1761469324060054300,3.61805419921875,1.5941203725129365,0.9022902007520198,-2.1722914318680764
1761469324070038300,3.628038330078125,2.0757444900438187,0.6926799204580485,-3.2995360509097575
1761469324080021500,3.638021484375,2.2998642110750076,0.43078138065263627,-4.228969110131263
1761469324090004200,3.648004150390625,2.4852763080492615,0.09748495332673192,-5.15722611131072
1761469324099988200,3.65798828125,2.7881097925722598,-0.3770378077663481,-5.98200637140274
1761469324109971200,3.66797119140625,2.954193504220247,-0.8031058961614966,-6.695242903807759
1761469324119954400,3.677954345703125,2.9287504354059695,-1.0916267776936293,-7.157969136384129
1761469324129937200,3.687937255859375,2.8072239506259558,-1.209130290567875,-7.528294733160734
1761469324139921200,3.697921142578125,2.8930072141125796,-1.1824794533990324,-7.808386516782641
1761469324149904100,3.707904052734375,3.3159365660905835,-1.079349041531235,-8.07558783917129
1761469324159887400,3.717887451171875,3.77594652544558,-1.000518958183378,-8.458805066224933
1761469324169870300,3.727870361328125,4.144580223612487,-0.88455829083696,-8.597202314046024
1761469324179854300,3.737854248046875,4.131693561771511,-0.8704762817315757,-8.483728495079278
1761469324189837300,3.74783740234375,3.6481466594845053,-0.7975780726507306,-8.13198718726337
1761469324199820300,3.7578203125,3.0232965588018295,-0.3213691120363772,-7.285098555737734
1761469324209803300,3.76780322265625,2.7358435987621545,0.16495090822577477,-6.09672229938507
1761469324219787300,3.777787353515625,2.2102722029551862,0.5232767089985311,-4.774717324787378
1761469324229770200,3.787770263671875,1.012771267643571,0.8345414833888412,-2.8505057507306337
1761469324239753200,3.797753173828125,-0.40242783121913667,1.1218899601407348,0.18495324729084966
1761469324249737200,3.8077373046875,-1.399041452527046,1.2885722222037612,4.268100512558221
1761469324259720400,3.817720458984375,-2.8762878422409295,1.1098482246913015,7.873788671019673
1761469324269703400,3.827703369140625,-4.536527577349544,0.5295797546654939,10.372682293272018
1761469324279686100,3.83768603515625,-5.10140602441132,-0.27435017122998834,11.285809529858827
1761469324289670100,3.847670166015625,-5.6593678239524365,-0.7170465922124684,11.784120286035536
1761469324299653400,3.8576533203125,-5.3104164391160005,-0.8264230588629842,11.261796201586723
1761469324309636400,3.86763623046875,-4.683177397470176,-1.495657514064759,8.77237358751297
1761469324319619000,3.877619140625,-4.385143714444339,-1.5866478446751833,7.441785493487119
1761469324329603000,3.88760302734375,-3.9100107124984262,-1.587749814567715,6.7558239214986555
1761469324339586300,3.89758642578125,-3.1114298925459383,-1.5115974259965121,6.302466405770182
1761469324349569300,3.9075693359375,-2.358714167189598,-1.3898917852573096,5.822600237822532
1761469324359552300,3.91755224609375,-1.8075725690573452,-1.1120679465673864,5.275535095348954
1761469324369536500,3.92753662109375,-1.0907961720883845,-0.8932664979495107,4.485092573666572
1761469324379519200,3.937519287109375,-0.340939927816391,-0.6901580007649958,3.5507495305716987
1761469324389502200,3.947502197265625,0.3454536058485508,-0.5905624119598418,2.3236790941655636
1761469324399486200,3.957486328125,1.0545093454375862,-0.3795579008284956,0.9545382743835449
1761469324409469400,3.967469482421875,1.7052411986127496,-0.1644806603655219,-0.3760474815547466
1761469324419452200,3.9774521484375,2.2425173529997466,-0.09023417848087846,-1.7341005056113004
1761469324429435100,3.98743505859375,2.6490426826655864,0.18101714995093643,-3.076204849907756
1761469324439419400,3.99741943359375,3.0085367965653536,0.2889303391158581,-4.266824501273036
1761469324449402400,4.00740234375,3.3369927981227634,0.49447914212457833,-5.288398668575287
1761469324459385300,4.01738525390625,3.528296583484113,0.7959170806359499,-6.110365040290356
1761469324469368300,4.027368408203125,3.38203956207335,0.9068062168717383,-6.828153244650363
1761469324479352300,4.037352294921875,3.021667788556218,0.8294789393022656,-7.34687433617115
1761469324489335300,4.047335205078125,2.637764917325973,0.7169017769142985,-7.43374481037259
1761469324499318300,4.057318359375,2.4572177960395813,0.7717550646081567,-7.449530408525466
1761469324509301200,4.06730126953125,2.5586983948737383,0.7095213112741708,-7.617938763728738
1761469324519285200,4.07728515625,2.6137007356494664,0.5827702237136662,-7.866119743826985
1761469324529268200,4.087268310546875,2.474519643974304,0.49217941381484265,-7.969425220000743
1761469324539251200,4.097251220703125,2.064192876198888,0.3546222700797021,-7.833397039398551
1761469324549235500,4.1072353515625,1.7625035932749509,0.28707126724570986,-7.38307319227755
1761469324559218200,4.11721826171875,1.3848539372205733,0.43594767737463114,-6.711027917438745
1761469324569201200,4.127201171875,0.907426102335751,0.47145723604261874,-5.814147466775775
1761469324579184400,4.137184326171875,0.3139244951188564,0.3192934748061001,-4.411991681620479
1761469324589168400,4.14716845703125,-0.3477309031307697,-0.003489157290011644,-2.024036806899309
1761469324599151400,4.1571513671875,-0.47422786979973314,-0.371122153981775,1.0920745214611292
1761469324609134000,4.167134033203125,-0.1407540400803089,-0.3566797871313989,4.75201683267951
1761469324619117300,4.177117431640625,-0.9101426678180694,-0.5768662603668868,8.258698088943957
1761469324629101300,4.187101318359375,-2.9667773837223645,-1.5968549120433628,10.781351941490172
1761469324639084300,4.197084228515625,-5.177203900456428,-1.9513357278257608,11.576233906924724
1761469324649067500,4.207067626953125,-6.4602785481572145,-1.413831317640841,11.691662951612471
1761469324659050200,4.21705029296875,-6.629913814806938,-0.37632644462659953,10.816375324076413
1761469324669034200,4.2270341796875,-6.326852074486017,1.2970033659406006,9.461247247555852
1761469324679017200,4.237017333984375,-5.5683168491959565,2.934454784527421,8.175686043736338
1761469324689000400,4.24700048828125,-4.803023381817341,3.9062835086688397,7.3028656830966465
1761469324698984400,4.256984375,-4.012052160085737,3.733772394321859,6.586888327550888
1761469324708967200,4.26696728515625,-3.02151522834301,2.9240076247930524,5.829944755366444
1761469324718950100,4.2769501953125,-2.0949694149956106,2.078555601941794,4.5590714175909755
1761469324728933400,4.286933349609375,-1.5349974446758627,1.2157660753205417,2.708517784941196
1761469324738917400,4.29691748046875,-0.9278349763751029,0.6084611298091709,0.7156231352806091
1761469324748900000,4.306900146484375,-0.28248656980395315,0.17132248908430336,-0.9836620775371789
1761469324758883300,4.31688330078125,0.35310558190643787,-0.10385054283589124,-2.1557038696825503
1761469324768866300,4.3268662109375,0.8839277378484606,-0.1647451565206051,-2.98434548137784
1761469324778850300,4.336850341796875,1.2725304573327303,-0.13697116054072975,-3.756502404785156
1761469324788833300,4.346833251953125,1.5631550331458448,-0.05783201124370098,-4.502320187321305
1761469324798816300,4.356816162109375,1.868760320469737,-0.021797113527357578,-5.189506917190552
1761469324808800300,4.36680029296875,2.1046973205447195,-0.13748027910664676,-5.661918092957139
1761469324818782500,4.376782470703125,2.217195280216634,-0.2924025452710688,-5.936951424145698
1761469324828765700,4.386765625,2.2773218321382998,-0.4277788378357887,-6.245934955731034
1761469324838748700,4.396748779296875,2.492058515535295,-0.5435987815372646,-6.562057837677002
1761469324848732700,4.406732666015625,2.85413095549047,-0.5913217789597809,-6.956834569621086
1761469324858715600,4.416715576171875,3.4830876147091385,-0.5994340660057962,-7.350362178286909
1761469324868698600,4.42669873046875,4.379135706201195,-0.5438024874158204,-7.548358447024226
1761469324878681600,4.436681640625,5.188777433872223,-0.28638635372146964,-7.624856580293178
1761469324888665600,4.44666552734375,5.384731383126974,-0.277453251811862,-7.5253113334357735
1761469324898648800,4.45664892578125,5.25556841211915,-0.17956220190227032,-7.198185995960235
1761469324908631600,4.466631591796875,4.88883470235467,0.34536636595651504,-6.3253679734081025
1761469324918614500,4.476614501953125,4.210281945317983,0.6950079250141978,-5.0646261535465715
1761469324928598500,4.4865986328125,3.060971040418744,1.0083194758664815,-3.516550908371806
1761469324938581800,4.496581787109375,1.7484639620065687,1.1944118832550943,-1.611706298086047
1761469324948564700,4.506564697265625,-0.027737901753187178,1.409138775910437,0.7290911041408776
1761469324958548500,4.516548583984375,-1.5843535962581634,1.522650588800013,3.5998616442650553
1761469324968531700,4.52653173828125,-2.8150989217847586,1.4744437533833086,5.863714923021197
1761469324978514700,4.5365146484375,-3.9483427812412377,1.3612417370952665,7.418444949910044
1761469324988497700,4.54649755859375,-4.485047857742011,0.8221706621155143,8.411258886674046
1761469324998481700,4.556481689453125,-4.475841345718503,0.5576534642443061,8.57902660588622
1761469325008464600,4.566464599609375,-4.097020307797194,0.5274927192583679,8.241372275611758
1761469325018447600,4.576447509765625,-3.9908208637475964,0.4147258795171976,8.031056039005518
1761469325028430600,4.5864306640625,-4.415364080663025,-0.683669223267585,7.757537788555026
1761469325038416600,4.596416748046875,-4.681685697607696,-1.4105384135752916,7.525949631339311
1761469325048400600,4.606400634765625,-4.23602604290545,-1.658576916462928,7.358277773717045
1761469325058383600,4.616383544921875,-3.24445772228837,-1.7082126156389712,6.951854443120956
1761469325068366800,4.626366943359375,-2.329702007716894,-1.6586992276683448,6.144007782173157
1761469325078349600,4.636349609375,-1.4184887880578636,-1.4074360636457801,4.950329327759146
1761469325088333600,4.64633349609375,-0.5177917017161846,-1.1638576089069246,3.7264573951333757
1761469325098316500,4.656316650390625,0.5523945208027958,-0.9493088492974638,2.5378268717586994
1761469325108299800,4.6662998046875,1.6492127296596764,-0.8607662041001022,1.3376841897666454
1761469325118282500,4.676282470703125,2.3216055027619005,-0.9067768446467817,0.03178162418603897
1761469325128266500,4.6862666015625,2.5308254685640335,-1.0189178075745702,-1.2899953868746756
1761469325138249700,4.696249755859375,2.612572900663316,-1.120270834506303,-2.5648376282811163
1761469325148232700,4.706232666015625,2.6942197949975726,-1.090087585427612,-3.5817759524762627
1761469325158216700,4.716216796875,2.73581437266767,-0.9079480803832412,-4.426242325291037
1761469325168199400,4.726199462890625,2.9027231369629503,-0.40131417088881133,-5.000234637656807
1761469325178182700,4.7361826171875,3.147731039983034,-0.20561887257024644,-5.57858631427586
1761469325188165600,4.74616552734375,3.096310649347305,0.03128141957893967,-6.233415665897726
1761469325198149600,4.756149658203125,3.2131594977051017,0.06335735053643583,-6.61120385363996
1761469325208132900,4.7661328125,3.3407872219696637,-0.09149725721925496,-6.888786869311332
1761469325218115600,4.776115478515625,3.3611154319882393,-0.24641776981800792,-7.096958495104312
1761469325228098600,4.7860986328125,3.3692817873090504,-0.4342839819461107,-7.270830376410484
1761469325238082600,4.79608251953125,3.2010873671174047,-0.3347654769651592,-7.217937575134634
1761469325248065800,4.806065673828125,2.8803479312866926,-0.021916794384270907,-6.739079707446694
1761469325258048800,4.816048828125,2.2987591724425553,0.18439152175486087,-6.200258077183365
1761469325268031500,4.826031494140625,1.2346084306955336,0.23957360301166772,-5.609254424262047
1761469325278015500,4.836015380859375,-0.09003332214653491,0.17272548775002358,-4.659330365675688
1761469325287998700,4.845998779296875,-1.3176952947050333,0.14793109210282562,-3.133726480028033
1761469325297981700,4.855981689453125,-1.783122602933645,0.26008769099116325,-0.99734924210608
1761469325307965700,4.865965576171875,-1.5045336250901222,0.27061317665874957,1.5686428169071673
1761469325317948700,4.87594873046875,-1.4645862301051615,0.168156426268816,3.945688759601116
1761469325327931600,4.885931640625,-2.235174296760559,0.1897660544000566,5.883872160387039
1761469325337914600,4.89591455078125,-3.3856747037053108,-0.24242796952947973,7.147476383942365
1761469325347898600,4.905898681640625,-4.159457182487845,-0.640871845678985,7.559427538049221
1761469325357881600,4.915881591796875,-4.682873153826594,-0.9027136868610978,7.288500473135709
1761469325367864600,4.925864501953125,-5.091757321578264,-0.5522948598206043,6.875743263342976
1761469325377847600,4.93584765625,-5.585963565045595,0.5812555813670158,6.667913582855463
1761469325387831800,4.945831787109375,-5.695853680306673,1.792510462873429,6.161733992999792
1761469325397814800,4.955814697265625,-5.393078355711698,2.8053678013652563,5.3975569624304764
1761469325407797500,4.965797607421875,-5.200308881711959,3.455380692616105,4.884319270756841
1761469325417780700,4.97578076171875,-4.895554365998506,3.5491947023451327,4.562454630288482
1761469325427764700,4.9857646484375,-3.724021692419052,2.885492892959714,4.1614533247411245
1761469325437747700,4.995747802734375,-2.3447774117738005,1.6161284984424709,3.040545507505536
1761469325447730400,5.00573046875,-1.6186913346678018,1.693619442141056,1.4813386274635791
1761469325457714400,5.01571435546875,-0.14529226803183554,1.211102321293205,0.01839724195599556
1761469325467697700,5.02569775390625,1.687888205012679,0.5765186159729957,-1.0410936912864446
1761469325477680600,5.0356806640625,3.010142185935378,0.45835649305954573,-1.977734489929676
1761469325487663900,5.045663818359375,3.7727345776617525,0.45973917958959937,-2.6717016737192867
1761469325497647900,5.05564794921875,4.162885403370857,0.3455868768393993,-3.2925644583314657
1761469325507630600,5.065630615234375,4.07781642563343,0.08670870776847005,-3.9640263803243636
1761469325517613600,5.075613525390625,3.985640830761194,-0.1963483553998172,-4.5831747622340915
1761469325527596800,5.0855966796875,4.187842734494805,-0.3814151460677385,-5.096739201644063
1761469325537580800,5.095580810546875,4.349677556526661,-0.46865796071290966,-5.513341396427154
1761469325547563500,5.1055634765625,4.469339708739519,-0.43152270053923125,-5.754447323572635
1761469325557546500,5.11554638671875,4.52439290291965,-0.2852764927834272,-5.775148166295886
1761469325567529700,5.12552978515625,4.628891388270259,-0.19569369088336824,-5.56202680914104
1761469325577513700,5.135513671875,4.765207738164067,-0.04087473896294832,-5.207363476398587
1761469325587496700,5.14549658203125,4.910370242336392,0.07788622662648559,-4.9450376510918135
1761469325597479700,5.155479736328125,4.903024555748701,0.16481413010358809,-4.706906940364838
1761469325607462700,5.165462646484375,4.562790145853161,0.1281615388803184,-4.317244774955511
1761469325617446700,5.17544677734375,3.9369390514343974,0.07265680154040455,-3.599600947502255
1761469325627429600,5.1854296875,3.1497032168388364,0.05538534874394536,-2.4863386765837667
1761469325637412600,5.19541259765625,1.9912714323729275,0.04305369043722748,-1.1811001278698443
1761469325647396600,5.205396728515625,0.7112064878821373,0.021401684468984602,0.0796989751368761
1761469325657379600,5.215379638671875,-0.6067769761145114,0.01489610196724534,1.3745084842950104
1761469325667362800,5.22536279296875,-2.190511563691497,-0.0807655814550817,2.5294004041969775
1761469325677345800,5.235345703125,-3.7756963500767946,-0.04619038102775812,3.5857916178584097
1761469325687329800,5.245329833984375,-4.809674071878194,0.20357275369539857,4.799388824707269
1761469325697312500,5.2553125,-5.500004944992065,0.5360480738967657,5.878826567435264
1761469325707295700,5.265295654296875,-6.145459150025248,0.5860919154822826,6.69535337844491
1761469325717278700,5.27527880859375,-6.322101080566644,0.5054100667878985,7.198828970038891
1761469325727262700,5.2852626953125,-5.949636718195676,0.3355935983523726,7.499323490220307
1761469325737245400,5.295245361328125,-4.993896666806936,0.05390753127634525,7.513595176678895
1761469325747228700,5.305228759765625,-3.801417651310563,-0.05463745298609137,7.335843823590874
1761469325757211600,5.315211669921875,-2.58321967266798,-0.2883412871815264,6.608706191605329
1761469325767195600,5.325195556640625,-1.3789748160541058,-0.42325215419158335,5.582832281282544
1761469325777179000,5.335178955078125,-0.20054770678579806,-0.6057932257741689,4.480899213629961
1761469325787161600,5.34516162109375,0.9295277517676352,-0.7673267267718911,3.0414018320739267
1761469325797145600,5.3551455078125,1.907311877182126,-0.932245486293733,1.378845636716485
1761469325807128600,5.365128662109375,2.7728718914300203,-1.043875723220408,0.018965981754660605
1761469325817112000,5.375112060546875,3.3198400032699107,-1.088587994519621,-1.4340969838172197
1761469325827095000,5.385094970703125,3.8464562319546935,-0.9632930971167981,-2.542863112360239
1761469325837079000,5.3950791015625,3.9475416939914223,-0.8643754806384444,-3.506125960469246
1761469325847061800,5.405061767578125,3.9440579435288905,-0.8018208247870207,-4.4993069769799705
1761469325857045000,5.415044921875,3.8767642764568326,-0.8573642867021262,-5.209793333894014
1761469325867028000,5.425028076171875,3.866644448980689,-0.967725380475819,-5.5740077543139455
1761469325877012000,5.435011962890625,3.764973296010494,-1.2750740043357014,-5.882653432247042
1761469325886995200,5.4449951171875,3.379226258218288,-1.6585386302791534,-6.169890995970368
1761469325896978000,5.45497802734375,2.8151994595497847,-1.7952679448880253,-6.151141287314892
1761469325906961000,5.4649609375,2.250691014844179,-1.6365933404527604,-5.8566749413818115
1761469325916945000,5.47494482421875,1.5398597900152204,-1.242144379158318,-5.428925329640507
1761469325926928100,5.48492822265625,0.32426760995686055,-0.7036302074089646,-4.710774721708893
1761469325936911000,5.4949111328125,-0.7570902871787548,-1.5432945867694914,-4.189261369121074
1761469325946894800,5.504894775390625,-1.8816098651707172,-0.11386661767661571,-3.2212475270926952
1761469325956877800,5.5148779296875,-1.350551270124316,0.8313475096531212,-1.2533335894316433
1761469325966861000,5.524861083984375,-0.6035971770346165,-0.1214342764519155,0.030406828701496122
1761469325976844000,5.534843994140625,-1.4684803149342536,1.4302327096045016,1.417827986061573
1761469325986828000,5.544828125,-1.7829297107100486,1.14246498452723,2.8614228660643097
1761469325996811000,5.55481103515625,-2.7242250571608544,0.5218348396271467,3.1287551213562486
1761469326006794000,5.5647939453125,-3.8316122985661027,0.7011722928628326,3.8103941539704795
1761469326016777000,5.57477685546875,-4.004905503201485,0.9172697432190179,5.311773698943853
1761469326026761000,5.584760986328125,-4.891938513588905,1.5779958977945148,7.04983375583589
1761469326036744000,5.594743896484375,-6.529453206670284,2.338679971681535,7.874902769741415
1761469326046727000,5.604726806640625,-7.236029112142324,2.14498081561625,7.819022477087378
1761469326056710000,5.6147099609375,-6.711737527012825,1.7377004297994076,7.00494364375174
1761469326066694100,5.624694091796875,-5.241064670470356,1.4367987901218235,5.754577087432145
1761469326076677000,5.634677001953125,-3.470764724230766,1.1506287094995378,4.282065325024724
1761469326086659800,5.644659912109375,-1.8795956027388572,1.0370303873702884,2.765535557192564
1761469326096643800,5.654643798828125,-0.7771101619005203,1.0679374206788836,1.28926005833745
1761469326106627000,5.664626953125,-0.09844517666101456,1.124645250198245,-0.08262976789176464
1761469326116610000,5.674610107421875,0.4669008879125118,0.9096806032642721,-1.3601286612868309
1761469326126592800,5.6845927734375,1.0203367344617844,0.6100628659173846,-2.4797142900079487
1761469326136576800,5.69457666015625,1.8139228148669004,0.2602032801948488,-3.2816683857858178
1761469326146560000,5.70456005859375,2.727740956327319,-0.037656069177389145,-4.0165018329709765
1761469326156543000,5.71454296875,3.179132724940777,-0.24157865922376512,-4.489937675610184
1761469326166526000,5.72452587890625,2.928566311010718,-0.23950565234199164,-4.516363910242915
1761469326176510200,5.73451025390625,2.4757085614979264,-0.22080986583083867,-4.4235190378069875
1761469326186493000,5.744492919921875,2.296948908150196,-0.09948737919032573,-4.100681168392301
1761469326196476000,5.754475830078125,2.7346085040092465,-0.1150938213840127,-3.6279128497511146
1761469326206459100,5.764459228515625,3.2016531843066214,-0.21457104450650513,-3.388095208850503
1761469326216443100,5.774443115234375,3.8654771587669847,-0.20911701688431203,-3.1853923698574302
1761469326226425900,5.78442578125,4.388765704333782,-0.1653811163365841,-2.9754052190750837
1761469326236408800,5.794408935546875,4.3772313338845965,0.050114422603696585,-2.8834043962478635
1761469326246393000,5.80439306640625,4.281145872092247,0.28424831877946855,-2.7081203100562092
1761469326256376000,5.8143759765625,4.449609172353148,0.41138482546098526,-2.5749825901985166
1761469326266359000,5.824359130859375,4.7865164836525915,0.3939394774023443,-2.2833710491746664
1761469326276342000,5.834342041015625,5.0907747402817005,0.30166794787496326,-1.9618653051465749
1761469326286326000,5.844325927734375,5.212698407685757,0.5202076768167316,-1.3559797249138354
1761469326296309000,5.85430908203125,5.293094717437029,0.6941970470227301,-0.6529983368024229
1761469326306292000,5.8642919921875,4.9542766040802,0.8760815543927252,-0.5309931285947561
1761469326316275000,5.87427490234375,4.334430887556076,1.0330291889049112,-0.06757452984005212
1761469326326259000,5.884259033203125,2.2847353232651946,1.2572418489165604,0.4498652896985411
1761469326336242000,5.894241943359375,0.8946259497344493,1.3067007302209734,1.0766557107940316
1761469326346225000,5.904224853515625,-0.5654758284330368,1.2123147658228874,1.1476394645556807
1761469326356209200,5.914209228515625,-2.0194892265975475,0.9927528542265296,1.476561037798226
1761469326366192000,5.924192138671875,-2.6845167316287752,0.7878761783257127,2.436291035605967
1761469326376174800,5.9341748046875,-3.0989111872345205,0.41431992906481024,3.662023209145665
1761469326386158000,5.944157958984375,-3.734795599889755,-0.22496143255233764,4.836392567455769
1761469326396142000,5.95414208984375,-4.724037523385882,-1.2721703918486833,5.363875057581067
1761469326406125000,5.964125,-6.766496122160554,-2.6972534636050463,5.229390599289536
1761469326416107800,5.974107666015625,-8.591081200817227,-4.049565313661098,5.274436778718233
1761469326426091000,5.984091064453125,-9.657035777115821,-4.480977247302234,5.599312875962257
1761469326436075000,5.994074951171875,-10.729729306280612,-4.101547429832816,5.297019197404384
1761469326446058000,6.00405810546875,-10.81196218380928,-3.441608772373199,4.734397004836797
1761469326456041200,6.014041259765625,-8.103051600158214,-2.9517773829892278,3.872131355959177
1761469326466025000,6.02402490234375,-5.208359501698613,-2.149511883174628,2.204960944804549
1761469326476008000,6.034008056640625,-4.021467930945754,-1.4252617893241346,0.3715601070076227
1761469326485991000,6.043990966796875,-2.4530986702829596,-0.9567787467867136,-0.8414607612580061
1761469326495974100,6.05397412109375,-0.3714116384476423,-0.7291631464637816,-1.5751929692029951
1761469326505958100,6.063958251953125,0.935789150249958,-0.6362387790508568,-2.158161784228682
1761469326515940900,6.07394091796875,2.2234324210405347,-0.4836803194083273,-2.753951502382755
1761469326525923800,6.083923828125,2.7486095568329096,-0.26048180487528444,-3.083168259179592
1761469326535908000,6.093908203125,3.4403380217850206,-0.21503771217018364,-3.106601157215237
1761469326545891000,6.10389111328125,3.862170518437028,-0.24296689871177077,-3.2546137901216743
1761469326555874000,6.1138740234375,4.276324735546112,-0.342406639368087,-3.3358266769528386
1761469326565857000,6.12385693359375,4.695687627214193,-0.44851782061234113,-3.419553592431545
1761469326575841000,6.133841064453125,4.7964352355986835,-0.396063849145174,-3.3360645773619413
1761469326585824000,6.143823974609375,4.597272261169553,-0.2481187285169959,-3.093446492087841
1761469326595807000,6.153806884765625,4.5221483388632535,-0.11814824051856994,-2.809154334166646
1761469326605790000,6.1637900390625,4.630962933847308,0.1448787187948823,-2.3902917932361363
1761469326615774000,6.17377392578125,4.708223283660412,0.49441842491328714,-1.995069655612111
1761469326625757000,6.1837568359375,4.752219077253342,0.8956880260080099,-1.8409592903524636
1761469326635740200,6.193740234375,5.184440281450748,1.0992841605789958,-2.204669852903485
1761469326645724200,6.20372412109375,5.626738058504462,1.2516902061387896,-2.305228076195717
1761469326655707000,6.213706787109375,5.477643475580215,1.3582391942784189,-1.8039415190786123
1761469326665689900,6.22368994140625,4.148659309619665,1.515689371485263,-0.9904583135485648
1761469326675673000,6.233673095703125,2.5024767414361238,1.7154036961868404,-0.1677858393907547
1761469326685657000,6.243656982421875,0.995430256742239,1.6794257893547415,0.3725193074285984
1761469326695640000,6.25364013671875,-0.34246319186091423,1.3579982251293956,0.5691349354624748
1761469326705622800,6.263622802734375,-1.5456623388141393,0.977164239950478,0.5673597424834966
1761469326715606000,6.27360595703125,-2.576167416068911,0.5848075747601688,0.7637514986336231
1761469326725590000,6.283590087890625,-3.753414375641942,0.11416457770988345,0.896120572206378
1761469326735573000,6.293572998046875,-4.557686685234308,-0.1358272512026131,1.2081383569210766
1761469326745556000,6.303555908203125,-4.8416100098431105,0.08394830314442515,1.6735077974826096
1761469326755540000,6.3135400390625,-4.698672195982933,0.267625539150089,2.0049907456457614
1761469326765523000,6.32352294921875,-4.150142826175689,0.2775594886653125,2.127546281212568
1761469326775506000,6.333505859375,-3.3565000471472737,0.2927379147052765,2.1992285386323926
1761469326785489200,6.3434892578125,-3.243383955577016,0.13091142211034892,2.4119401459425687
1761469326795473200,6.35347314453125,-4.318468763792515,0.19034853046312927,2.5721295388549565
1761469326805456000,6.363455810546875,-5.592903008919954,0.24932766591534017,2.7863988970011473
1761469326815439600,6.373439697265625,-5.508402770981192,0.2613680861905217,2.822675494518876
1761469326825423600,6.383423583984375,-4.674680495020747,0.2593994164660573,2.34843476523757
1761469326835406800,6.39340673828125,-3.06838219345808,-0.047709115027636285,1.6809575289666652
1761469326845389800,6.403389892578125,-1.3487953663676977,0.11216375928148627,0.6672913583099842
1761469326855372500,6.41337255859375,-0.0018809914410114288,0.293178936471045,-0.40104572921097276
1761469326865356800,6.423356689453125,0.4741454522132873,0.5209032578654587,-1.130163721358776
1761469326875339800,6.43333984375,-0.09364975907802581,0.7453967806451022,-1.5767337689042091
1761469326885322800,6.44332275390625,-1.1654437090545893,0.5304546378038824,-1.903572106131911
1761469326895306800,6.453306640625,-3.2711808940410614,0.5001164904244244,-2.1125550483077764
1761469326905289700,6.463289794921875,-3.982953199112415,-0.033306349535286425,-2.502599491032958
1761469326915272700,6.473272705078125,-1.7225883469939232,-0.4102041643090546,-2.910122307303548
1761469326925255700,6.483255615234375,0.1448497849613428,-0.39948797837495803,-3.0973651268362996
1761469326935239700,6.49323974609375,1.4219301606833934,-0.45105435335263605,-3.6879087610304353
1761469326945223000,6.503222900390625,2.782915146538615,-0.6967524305939674,-4.3114118310183285
1761469326955205600,6.51320556640625,3.9221833808511493,-0.8932619679048657,-4.810210662972927
1761469326965188900,6.52318896484375,4.760379002833366,-0.9476502684354782,-5.1661716343104835
1761469326975172900,6.5331728515625,5.401151772052049,-0.7161170562773943,-5.3828369476825
1761469326985155800,6.54315576171875,5.484032884356379,-0.35064942092597484,-5.41715305878222
1761469326995138600,6.553138671875,5.48475769149959,-0.1677934381753206,-5.089514511087536
1761469327005122600,6.56312255859375,5.14674446478486,-0.14463380412310362,-4.551198492258787
1761469327015105800,6.573105712890625,4.808345453622937,-0.14300766422599553,-3.912231895679235
1761469327025088800,6.5830888671875,4.434073749569058,-0.10659136597663163,-3.2586814779520035
1761469327035071700,6.59307177734375,3.75707348267138,-0.2434741175815463,-2.448410220205784
1761469327045055700,6.6030556640625,2.5824931119590997,-0.2740712081581354,-1.4611533330470323
1761469327055038700,6.613038818359375,1.100853455722332,-0.3430740172356367,-0.2070294700205326
1761469327065021700,6.623021728515625,-0.3804524385154247,-0.2270581125706434,1.1216653576046227
1761469327075005700,6.633005615234375,-1.8475170414328574,0.10572130514383316,2.616905669170618
1761469327084989000,6.642989013671875,-2.7220962284386157,0.41535687089711426,3.9775978095591067
1761469327094971600,6.6529716796875,-3.282311652125418,0.7449170343041419,4.83062625901401
1761469327104954600,6.66295458984375,-4.005379258193075,0.868667624874413,5.273647089645266
1761469327114938600,6.672938720703125,-4.794468319439888,0.6254205940470099,5.494984486481547
1761469327124921900,6.682921875,-4.888403617461026,0.2959744124084711,5.351611203813553
1761469327134904600,6.692904541015625,-4.207145985379815,0.17159020010977982,5.1575417531311505
1761469327144888600,6.702888671875,-3.4635669216811653,0.5118593890577554,5.131777197277546
1761469327154871800,6.712871826171875,-2.974240266948938,0.8217965681061148,5.324433274030685
1761469327164854800,6.722854736328125,-2.9455402421653267,0.969478653883934,5.5163318104147905
1761469327174837800,6.732837646484375,-2.7840292452603577,0.8063238352946936,5.86359743412137
1761469327184821800,6.74282177734375,-2.2336685683727264,0.4921325059331953,6.001835107466579
1761469327194804700,6.7528046875,-1.4640174903064966,-0.1932530197329819,5.3083203436195845
1761469327204787700,6.76278759765625,-0.8897826013565063,-0.5608500683285296,4.378675687474012
1761469327214771700,6.772771728515625,-0.23031623758375644,-0.822842570027709,3.2571646436482666
1761469327224754700,6.782754638671875,0.3335188379049301,-1.0751083352215587,1.8063801444023846
1761469327234737700,6.792737548828125,0.7404436882823705,-1.2498815492816269,0.3727227210462093
1761469327244721700,6.8027216796875,1.096321657511592,-1.3209272623635828,-0.8968436257839202
1761469327254704600,6.81270458984375,1.3513941506892442,-1.4357019347958266,-1.8721224903792142
1761469327264687900,6.82268798828125,1.4653981310099362,-1.3782707594379782,-2.5209838735073804
1761469327274670800,6.8326708984375,1.717263937100768,-1.086308943671733,-2.9786732809603214
1761469327284654800,6.84265478515625,2.274831768888235,-0.8541444478727876,-3.4235499685913324
1761469327294637600,6.852637451171875,2.423978081999719,-0.6110280576877296,-3.7916473679244516
1761469327304620800,6.862620849609375,2.5666315259605645,-0.3460889811426401,-4.122124938437342
1761469327314604800,6.872604736328125,3.087064682096243,-0.11291896156296133,-4.4442835934162135
1761469327324587800,6.882587890625,3.6905040382206438,0.15914762877449393,-4.766176875457167
1761469327334570800,6.89257080078125,4.262983607935905,0.1924503250479698,-5.059470670479536
1761469327344553700,6.9025537109375,4.854937108927965,0.2189157226473093,-5.4120332315504545
1761469327354537700,6.912537841796875,5.2299295284718275,0.2107458601951599,-5.741386181947589
1761469327364520700,6.922520751953125,5.223094129493832,0.25115152034163474,-5.70037203451395
1761469327374504000,6.93250390625,4.560695803922415,0.4659462175361812,-5.332737576517462
1761469327384487700,6.94248779296875,3.3169197319090364,0.647685763477534,-4.513200477775931
1761469327394470700,6.952470703125,1.7648598010122776,0.6431004815138877,-3.4605928743064402
1761469327404453600,6.96245361328125,0.003918050226569175,0.44948651951402424,-2.1992665325552223
1761469327414438000,6.97243798828125,-1.8676549895763397,0.20505466281622647,-0.6457762765944004
1761469327424420900,6.9824208984375,-3.2554438112050295,0.20845716473609208,0.9433283135831355
1761469327434403600,6.992403564453125,-3.904346695387363,0.32267113454565405,2.288962585571408
1761469327444386800,7.00238671875,-3.9739533155769107,0.5738089186228812,3.154907215222716
1761469327454370800,7.012370849609375,-3.9471442191064354,0.9239848768182098,3.670027651903033
1761469327464353800,7.022353759765625,-3.73213836337924,1.0612322239518166,3.8361312372952696
1761469327474336500,7.03233642578125,-3.482137766638398,1.095895394923538,3.749050335213542
1761469327484320800,7.04232080078125,-3.1790345252633094,1.0009060578048228,3.6847044120311736
1761469327494303700,7.0523037109375,-2.897141245177388,1.024390832158178,3.8189381104320286
1761469327504286700,7.06228662109375,-2.7968665150016543,1.2802898392878472,4.243730625933408
1761469327514270000,7.07227001953125,-2.923801288565993,1.7446093324050307,4.500443287533521
1761469327524254000,7.08225390625,-3.3609821609973904,2.222246718387306,4.452345903840661
1761469327534236700,7.092236572265625,-4.054145042666793,2.5957611743330955,4.254329176837206
1761469327544219600,7.1022197265625,-4.3962996069699525,2.728145737735927,3.732810563552379
1761469327554203600,7.11220361328125,-4.0714959904402495,2.4571532063707706,2.8950515794217586
1761469327564187000,7.122186767578125,-2.9107828170388936,2.00961358314082,1.8650895230025053
1761469327574169600,7.132169677734375,-1.4861246926963327,1.5219194980464874,0.7058487602412701
1761469327584153600,7.142153564453125,-0.09847323371171951,1.0650009288355708,-0.33881051457226274
1761469327594136800,7.15213671875,1.3175585165828465,0.5715199309028685,-1.4302911617934704
1761469327604119800,7.162119873046875,2.110129282465577,0.14096417569965122,-2.4585937605679034
1761469327614102800,7.172102783203125,2.4521570055186745,-0.12358940865918994,-3.2692870431184766
1761469327624086800,7.182086669921875,2.394716039419174,-0.22576427336782215,-3.831223591509461
1761469327634069800,7.19206982421875,2.182207261204719,-0.330991949775815,-4.173461742442846
1761469327644052700,7.202052734375,2.2373779442846775,-0.5580303347326815,-4.531100291603804
1761469327654036700,7.21203662109375,2.767424731940031,-0.6707743781201541,-5.068697933030128
1761469327664019700,7.222019775390625,3.660506959363818,-0.8374490413986146,-5.83877512755394
1761469327674002700,7.232002685546875,4.516102628958225,-0.9970375458084046,-6.415059934771061
1761469327683985700,7.241985595703125,4.96729390656352,-1.1057821442961693,-6.6112213892966505
1761469327693969700,7.2519697265625,5.105909181049466,-1.2160453306533396,-6.54949178609252
1761469327703953000,7.261952880859375,4.704337382137775,-1.3408712953701614,-6.235910989844799
1761469327713936000,7.271935791015625,4.030232836681604,-1.4660143632121383,-5.734005424046516
1761469327723919600,7.281919677734375,3.320566563978791,-1.383990890650451,-4.896261052963137
1761469327733902600,7.291902587890625,2.8027017970263954,-1.1397307372577488,-3.548478078508377
1761469327743885800,7.3018857421875,2.3080630073606967,-0.8183280152127146,-1.7417098115712404
1761469327753869800,7.311869873046875,1.4969465309619903,-0.6514040533483028,0.00846446148455143
1761469327763852800,7.321852783203125,0.3015723785459995,-0.26570655378624797,1.8080366794377565
1761469327773835800,7.331835693359375,-1.1374649842828513,0.1482312440931797,3.674604458299279
1761469327783818800,7.34181884765625,-2.6700311101585625,0.4881736853048205,4.941990538480877
1761469327793802800,7.351802734375,-3.9298300962120294,0.7456051626987755,5.689634367400408
1761469327803785700,7.36178564453125,-4.28002125197649,0.7755316605374216,5.955008474361896
1761469327813768700,7.371768798828125,-4.009471788203716,0.6675823040805756,5.789253848537802
1761469327823751700,7.381751708984375,-3.7813726421475407,0.4633035940729081,5.409928952747583
1761469327833734700,7.391734619140625,-3.608732348462939,0.2507834176816046,5.0561885800689454
1761469327843718000,7.4017177734375,-3.4330835206121204,0.02496288408190012,4.890851302874088
1761469327853702000,7.411701904296875,-3.378157752203941,0.1083477081246674,5.002255914351344
1761469327863684600,7.4216845703125,-3.387833343043923,-0.1751093141466379,5.085147548049688
1761469327873667800,7.431667724609375,-3.274480520108342,-0.7149684707641601,4.802270517623424
1761469327883651800,7.44165185546875,-2.8712282207638022,-0.9499724277727305,4.405980458506941
1761469327893634800,7.451634765625,-1.9533862306147813,-0.953750923398137,3.948091144567728
1761469327903617800,7.46161767578125,-0.9104536334633827,-0.7561188117980957,3.4036662874698638
1761469327913600800,7.471600830078125,-0.14910861144959925,-0.6919537981405853,2.721764220005274
1761469327923584800,7.481584716796875,0.3892705357432365,-0.8184329368919133,1.6744138064116239
1761469327933567700,7.491567626953125,0.7878887455463409,-1.075418277953565,0.420068409588933
1761469327943550700,7.50155078125,1.0509504839122294,-1.143547957458347,-0.5289911411225795
1761469327953534700,7.51153466796875,1.297971772581339,-1.0715870292276144,-1.2473451626718044
1761469327963517700,7.521517578125,1.4513164141654968,-0.9137794168852269,-1.8086124334990976
1761469327973500700,7.531500732421875,1.4862731612563131,-0.7514147257603705,-2.198752737814188
1761469327983484700,7.541484619140625,1.623571507924795,-0.5356231264829635,-2.564596220740676
1761469327993468000,7.551468017578125,1.7355623948574066,-0.34561391097679733,-2.994470569550991
1761469328003450600,7.56145068359375,1.9544827936798332,-0.14459230306893586,-3.490073235812783
1761469328013433600,7.57143359375,2.2801643620878456,-0.14788739909157156,-4.204486410781741
1761469328023417600,7.58141748046875,2.4333342316269873,-0.22131021656841038,-4.7888481414705515
1761469328033400800,7.59140087890625,2.72975346519351,-0.2052776579171419,-5.026044786217809
1761469328043383800,7.6013837890625,3.1769302464604374,-0.11326572917401789,-4.925576579296589
1761469328053367800,7.611367919921875,3.447993504974246,-0.018030308339744804,-4.628223864272236
1761469328063350800,7.621350830078125,3.4998061097979543,0.07853636109828949,-4.237525341552495
1761469328073333800,7.631333740234375,3.239880915892124,0.11351868102177977,-3.7276726161420344
1761469328083317800,7.64131787109375,3.104475835624337,0.0047977556705474855,-3.3299060547322035
1761469328093300700,7.65130078125,3.0239573607981205,-0.24037995095849035,-3.125919021147489
1761469328103283700,7.66128369140625,2.75655320931375,-0.6097501467064023,-3.095055680850148
1761469328113267700,7.671267822265625,0.3800228149265051,-0.147962071762979,-2.6307564998686312
1761469328123250700,7.681250732421875,0.06137187580764293,0.1309489776417613,-1.647786496248841
1761469328133233700,7.691233642578125,0.8946633591353893,0.350675139889121,-0.18254443258345127
1761469328143217000,7.701216796875,0.2907049475729465,0.5084044262982904,0.9985147787541151
1761469328153200600,7.71120068359375,-0.256822551715374,0.4925548229984939,1.7876894724577663
1761469328163183600,7.72118359375,-0.7523860550105571,0.5683557677835226,2.3706419208705425
1761469328173166800,7.731166748046875,-1.5844114639252422,0.6177602885521948,3.3965497334629293
