time,seconds_elapsed,z,y,x
1761469434247241200,0.1182412109375,-0.023435162380337715,0.3148433566093445,-0.28850066661834717
1761469434257224200,0.12822412109375,-0.012404615059494972,0.4317989945411682,-0.2001471221446991
1761469434267208200,0.138208251953125,0.041261423379182816,0.6515104174613953,-0.0700763687491417
1761469434277191200,0.148191162109375,0.15288755297660828,0.9816651940345764,0.055548664182424545
1761469434287174100,0.158174072265625,0.25772517919540405,1.1515411138534546,0.16603587567806244
1761469434297158100,0.168158203125,0.41496938467025757,1.2555564641952515,0.29758989810943604
1761469434307141400,0.178141357421875,0.5686496496200562,1.2887098789215088,0.44799020886421204
1761469434317125000,0.188125,0.7166372537612915,1.255205512046814,0.5168331861495972
1761469434327108000,0.198108154296875,0.8295688629150391,1.19712495803833,0.44520673155784607
1761469434337091300,0.20809130859375,0.9363732933998108,1.3770716190338135,0.42815902829170227
1761469434347075300,0.218075439453125,1.0324616432189941,1.6561548709869385,0.40815311670303345
1761469434357058300,0.228058349609375,1.1462630033493042,1.8110156059265137,0.35150715708732605
1761469434367041000,0.238041015625,1.2742587327957153,1.9566441774368286,0.26569849252700806
1761469434377025000,0.24802490234375,1.3500442504882812,2.0870299339294434,0.2039986252784729
1761469434387008300,0.25800830078125,1.4185062646865845,2.2749991416931152,0.12875747680664062
1761469434396992300,0.2679921875,1.497579574584961,2.41273832321167,0.01361650787293911
1761469434406975200,0.277975341796875,1.56796395778656,2.464083433151245,-0.16865870356559753
1761469434416958200,0.287958251953125,1.599897861480713,2.4254021644592285,-0.4287091791629791
1761469434426942200,0.297942138671875,1.506426453590393,2.3691084384918213,-0.8142085075378418
1761469434436925200,0.30792529296875,1.2914584875106812,2.468555212020874,-1.2171200513839722
1761469434446908200,0.317908203125,1.0415480136871338,2.5938503742218018,-1.511007308959961
1761469434456892200,0.32789208984375,0.7126995325088501,2.4689371585845947,-1.6335022449493408
1761469434466875100,0.337875244140625,0.49161455035209656,2.3077473640441895,-1.6242547035217285
1761469434476859100,0.347859130859375,0.33293864130973816,2.2174360752105713,-1.5447304248809814
1761469434486842000,0.357842041015625,0.2516196668148041,2.0844531059265137,-1.5343585014343262
1761469434496825300,0.367825439453125,0.23619918525218964,1.986271858215332,-1.6548635959625244
1761469434506809300,0.377809326171875,0.33938363194465637,1.5284336805343628,-1.7376790046691895
1761469434516792300,0.387792236328125,0.424399733543396,0.9989669322967529,-1.7425416707992554
1761469434526775000,0.397775146484375,0.5364974141120911,1.1798441410064697,-1.9527742862701416
1761469434536759000,0.407759033203125,0.5733135342597961,1.3698723316192627,-2.2352421283721924
1761469434546742300,0.4177421875,0.5528682470321655,1.7041690349578857,-2.5101981163024902
1761469434556726300,0.427726318359375,0.4747452735900879,2.1374058723449707,-2.8359837532043457
1761469434566709200,0.437709228515625,0.3482654392719269,2.5762836933135986,-3.1267528533935547
1761469434576692200,0.447692138671875,0.10756973177194595,2.881776809692383,-3.3432083129882812
1761469434586676200,0.45767626953125,-0.2073742151260376,3.0945913791656494,-3.4628522396087646
1761469434596659200,0.4676591796875,-0.4686844050884247,3.246398687362671,-3.4943687915802
1761469434606642200,0.47764208984375,-0.6226681470870972,3.205597162246704,-3.5116312503814697
1761469434616626200,0.487626220703125,-0.6451393365859985,3.116976261138916,-3.5409584045410156
1761469434626609200,0.497609130859375,-0.5406574010848999,3.178467035293579,-3.609604835510254
1761469434636593200,0.50759326171875,-0.43179774284362793,3.3315985202789307,-3.6681277751922607
1761469434646576000,0.517576171875,-0.3959830105304718,3.422428846359253,-3.640501022338867
1761469434656559000,0.52755908203125,-0.36504560708999634,3.4079012870788574,-3.526066541671753
1761469434666543400,0.53754345703125,-0.2657599449157715,3.223067045211792,-3.3587191104888916
1761469434676526300,0.5475263671875,-0.06047363579273224,2.8458495140075684,-3.1810452938079834
1761469434686509000,0.557509033203125,0.2070046365261078,2.2812726497650146,-3.0464625358581543
1761469434696493000,0.5674931640625,0.42940840125083923,1.6579610109329224,-2.9453158378601074
1761469434706476300,0.577476318359375,0.5751996636390686,1.0690631866455078,-2.7556040287017822
1761469434716460300,0.587460205078125,0.6707912087440491,0.6406922936439514,-2.4634206295013428
1761469434726443300,0.597443359375,0.7526744604110718,0.3780926465988159,-2.1147961616516113
1761469434736426200,0.60742626953125,0.7630122900009155,0.40905481576919556,-1.8487740755081177
1761469434746410200,0.61741015625,0.5474560856819153,1.352466106414795,-1.6464588642120361
1761469434756393200,0.627393310546875,-0.03345523774623871,2.7775375843048096,-1.1822853088378906
1761469434766376200,0.637376220703125,-0.3367971181869507,3.75605845451355,-0.6732977032661438
1761469434776360200,0.647360107421875,-0.26529496908187866,3.9128265380859375,-0.15757496654987335
1761469434786343200,0.65734326171875,-0.15570613741874695,3.510328769683838,0.2339048832654953
1761469434796327200,0.6673271484375,-0.04602678120136261,2.7826623916625977,0.19396944344043732
1761469434806310100,0.67731005859375,0.19533391296863556,1.7189722061157227,-0.26329025626182556
1761469434816293000,0.687293212890625,0.34905025362968445,0.7857150435447693,-0.7768702507019043
1761469434826277400,0.69727734375,0.4405071437358856,0.2774493992328644,-1.0350890159606934
1761469434836260000,0.707260009765625,0.4990308880805969,-0.007431608624756336,-1.1135032176971436
1761469434846243000,0.7172431640625,0.4813692569732666,-0.1866573542356491,-1.1298052072525024
1761469434856227000,0.72722705078125,0.38801348209381104,-0.187727153301239,-1.1336561441421509
1761469434866210300,0.737210205078125,0.3394830822944641,-0.11602478474378586,-1.1411805152893066
1761469434876194300,0.7471943359375,0.3296735882759094,-0.03796487674117088,-1.0893926620483398
1761469434886177300,0.75717724609375,0.31663262844085693,0.39796796441078186,-0.8485744595527649
1761469434896160000,0.767159912109375,0.24218450486660004,1.153022050857544,-0.1867816150188446
1761469434906144300,0.777144287109375,0.20269252359867096,1.4369162321090698,0.28121522068977356
1761469434916127200,0.787127197265625,0.3186867833137512,1.027065396308899,0.30454450845718384
1761469434926110200,0.797110107421875,0.5166851878166199,0.5198960304260254,-0.08877474814653397
1761469434936094200,0.80709423828125,0.4924432337284088,0.4840264916419983,-0.5086367726325989
1761469434946077400,0.817077392578125,0.27119550108909607,0.7691026926040649,-0.7846832871437073
1761469434956061200,0.827061279296875,0.15937386453151703,1.057136058807373,-0.9084380269050598
1761469434966044200,0.837044189453125,0.169583261013031,1.2284049987792969,-0.8883666396141052
1761469434976027100,0.847027099609375,0.190726637840271,1.3616684675216675,-0.7277936935424805
1761469434986011400,0.857011474609375,0.18774771690368652,1.3157927989959717,-0.5182321667671204
1761469434995994400,0.866994384765625,0.1176847368478775,1.337090015411377,-0.3482383191585541
1761469435005977000,0.87697705078125,-0.003743767272680998,1.3333991765975952,-0.22114652395248413
1761469435015961000,0.886961181640625,-0.1264137625694275,1.3276739120483398,-0.06470339000225067
1761469435025944300,0.8969443359375,-0.2257542908191681,1.243148684501648,0.11237066984176636
1761469435035928300,0.90692822265625,-0.24051806330680847,0.862752377986908,0.21965238451957703
1761469435045911300,0.916911376953125,-0.24261610209941864,0.4142436385154724,0.2736775577068329
1761469435055894000,0.92689404296875,-0.3006508946418762,0.26265785098075867,0.3332822918891907
1761469435065878300,0.936878173828125,-0.4371083378791809,0.3336629271507263,0.3772803544998169
1761469435075861200,0.946861328125,-0.5911183953285217,0.48197731375694275,0.5299567580223083
1761469435085844200,0.95684423828125,-0.5902913808822632,0.6090602278709412,0.859938383102417
1761469435095828200,0.966828125,-0.5443031191825867,0.7619280815124512,1.1989129781723022
1761469435105811200,0.976811279296875,-0.6180587410926819,1.0097582340240479,1.4770176410675049
1761469435115795200,0.986795166015625,-0.6575449109077454,1.1143548488616943,1.677536129951477
1761469435125778200,0.996778076171875,-0.6764286756515503,1.0996508598327637,1.8380621671676636
1761469435135761200,1.00676123046875,-0.5983287692070007,0.957421600818634,1.8220163583755493
1761469435145745200,1.0167451171875,-0.5222764611244202,0.5742028951644897,1.4732524156570435
1761469435155728400,1.026728271484375,-0.3654988408088684,0.06286000460386276,1.0639290809631348
1761469435165711000,1.036711181640625,-0.2793065011501312,-0.18214170634746552,0.6566605567932129
1761469435175695000,1.046695068359375,-0.250521719455719,-0.41661250591278076,0.2929781973361969
1761469435185678300,1.05667822265625,-0.2664525806903839,-0.681423544883728,-0.08402644097805023
1761469435195661300,1.066661376953125,-0.2847746014595032,-0.7888248562812805,-0.488172322511673
1761469435205645300,1.076645263671875,-0.21586085855960846,-0.9434047341346741,-0.9175326228141785
1761469435215628000,1.0866279296875,-0.09174662083387375,-1.3770339488983154,-1.401281476020813
1761469435225612300,1.0966123046875,-0.04226959869265556,-1.6304540634155273,-1.8538237810134888
1761469435235595300,1.10659521484375,-0.0733896940946579,-1.5367286205291748,-2.126955032348633
1761469435245578200,1.116578125,-0.14177358150482178,-0.9591199159622192,-2.086209774017334
1761469435255562200,1.126562255859375,-0.21216492354869843,-0.4986889362335205,-1.7249497175216675
1761469435265545200,1.136545166015625,-0.2746250629425049,-0.26073113083839417,-1.2882071733474731
1761469435275528200,1.146528076171875,-0.22881071269512177,-0.081906259059906,-0.7881438732147217
1761469435285512200,1.15651220703125,-0.11078260093927383,0.02042401023209095,-0.34936976432800293
1761469435295495200,1.1664951171875,-0.06706149131059647,0.16206716001033783,-0.07096555083990097
1761469435305479200,1.176479248046875,-0.016549088060855865,0.5791562795639038,0.18895015120506287
1761469435315462400,1.18646240234375,0.24634405970573425,1.3745193481445312,0.3947107493877411
1761469435325445000,1.196445068359375,0.5375718474388123,1.355514407157898,0.36469176411628723
1761469435335429000,1.20642919921875,0.6444732546806335,0.8419589400291443,0.15448234975337982
1761469435345412400,1.216412353515625,0.5979007482528687,0.3098222315311432,-0.165673166513443
1761469435355395300,1.226395263671875,0.5410653948783875,0.04464541748166084,-0.5044323205947876
1761469435365379300,1.23637939453125,0.4780946969985962,-0.015303574502468109,-0.7253004908561707
1761469435375362000,1.246362060546875,0.4043232798576355,0.005177199374884367,-0.7452549934387207
1761469435385346000,1.256345947265625,0.31719520688056946,0.01228385791182518,-0.5954034328460693
1761469435395329300,1.266329345703125,0.29725825786590576,0.2041635513305664,-0.3581237494945526
1761469435405312300,1.276312255859375,0.3068028688430786,0.4153262972831726,-0.15774016082286835
1761469435415296300,1.286296142578125,0.2961733937263489,0.5637893080711365,-0.033004630357027054
1761469435425279200,1.296279296875,0.3164880871772766,0.6270013451576233,0.008599897846579552
1761469435435263200,1.30626318359375,0.3501136898994446,0.6476392149925232,-0.011788996867835522
1761469435445246200,1.31624609375,0.3902965486049652,0.6494917273521423,-0.07625739276409149
1761469435455229200,1.326229248046875,0.41228440403938293,0.5757615566253662,-0.1959579586982727
1761469435465213200,1.336213134765625,0.37299835681915283,0.4641634523868561,-0.3634169101715088
1761469435475196200,1.346196044921875,0.3834288716316223,0.289629727602005,-0.6127482056617737
1761469435485179100,1.35617919921875,0.38998228311538696,0.13329386711120605,-0.8475858569145203
1761469435495163100,1.3661630859375,0.37345656752586365,0.05204933509230614,-0.9948576092720032
1761469435505146400,1.376146484375,0.336679607629776,0.07223261147737503,-1.02175772190094
1761469435515129300,1.38612939453125,0.32080450654029846,0.21552985906600952,-0.9135947823524475
1761469435525113300,1.39611328125,0.31013205647468567,0.3262390196323395,-0.7143003940582275
1761469435535096000,1.406095947265625,0.3550923466682434,0.2767329812049866,-0.5606253147125244
1761469435545080000,1.416080078125,0.4835617244243622,0.2036040723323822,-0.6082262396812439
1761469435555063300,1.426063232421875,0.572743833065033,-0.024072233587503433,-0.9147968292236328
1761469435565046300,1.43604638671875,0.555472195148468,-0.50250643491745,-1.3473514318466187
1761469435575030300,1.4460302734375,0.5252823233604431,-1.096117615699768,-1.6428115367889404
1761469435585013200,1.45601318359375,0.5735222697257996,-1.3903708457946777,-1.537348747253418
1761469435594996200,1.465996337890625,0.6218578219413757,-1.5888382196426392,-1.0978741645812988
1761469435604980200,1.475980224609375,0.5934438705444336,-1.6131998300552368,-0.6470968723297119
1761469435614963200,1.485963134765625,0.5152934193611145,-1.4587905406951904,-0.20102405548095703
1761469435624947200,1.495947265625,0.42514291405677795,-1.2229983806610107,0.12221366167068481
1761469435634930200,1.50593017578125,0.3293048143386841,-0.8756478428840637,0.2557184398174286
1761469435644913200,1.5159130859375,0.18551266193389893,-0.4883878529071808,0.29925960302352905
1761469435654897200,1.525897216796875,0.09210574626922607,-0.23271718621253967,0.35965636372566223
1761469435664880400,1.53588037109375,0.21726445853710175,-0.28093189001083374,0.4670124351978302
1761469435674864400,1.545864501953125,0.3494914770126343,-0.4382250905036926,0.580044686794281
1761469435684847000,1.55584716796875,0.49618932604789734,-0.6139480471611023,0.702876091003418
1761469435694830000,1.565830078125,0.5471052527427673,-0.8191525936126709,0.814728856086731
1761469435704814000,1.57581396484375,0.468214750289917,-0.9062913060188293,0.8660445809364319
1761469435714797300,1.58579736328125,0.2994939088821411,-0.8611094355583191,0.8586140871047974
1761469435724780300,1.5957802734375,0.09210223704576492,-0.7874901294708252,0.7812176942825317
1761469435734764300,1.605764404296875,0.010603118687868118,-0.801913321018219,0.7473627924919128
1761469435744747300,1.615747314453125,0.017901035025715828,-0.7841019034385681,0.7136810421943665
1761469435754731300,1.625731201171875,-0.02433483488857746,-0.7167841196060181,0.6659992337226868
1761469435764714200,1.63571435546875,-0.07846304029226303,-0.5307497382164001,0.6045956611633301
1761469435774697200,1.645697265625,-0.10226291418075562,-0.28416553139686584,0.5704541802406311
1761469435784681200,1.65568115234375,-0.15014711022377014,-0.09199193865060806,0.6081556677818298
1761469435794664200,1.665664306640625,-0.09993506968021393,0.09154220670461655,0.6176818013191223
1761469435804647200,1.675647216796875,-0.011433068662881851,0.14533108472824097,0.6096423268318176
1761469435814631200,1.685631103515625,0.0036686528474092484,0.20304444432258606,0.6206284165382385
1761469435824614400,1.695614501953125,-0.06230636686086655,0.3641805946826935,0.6432873606681824
1761469435834598400,1.705598388671875,-0.10178640484809875,0.5273786187171936,0.6219016313552856
1761469435844581000,1.7155810546875,-0.09897486120462418,0.5707340836524963,0.564550518989563
1761469435854564000,1.725564208984375,-0.13088858127593994,0.49782150983810425,0.49494054913520813
1761469435864548000,1.735548095703125,-0.1651713252067566,0.4273851811885834,0.43884098529815674
1761469435874531300,1.74553125,0.05423798784613609,0.20375050604343414,0.5331400036811829
1761469435884514300,1.755514404296875,0.2861572504043579,-0.15307964384555817,0.7994329929351807
1761469435894498300,1.765498291015625,0.2796759307384491,-0.3154619038105011,0.9954836964607239
1761469435904481300,1.775481201171875,0.09127367287874222,-0.25941866636276245,0.880264401435852
1761469435914465300,1.78546533203125,-0.05767692252993584,-0.28603217005729675,0.6369505524635315
1761469435924448800,1.79544873046875,-0.16303308308124542,-0.3908432126045227,0.3840155303478241
1761469435934431700,1.805431640625,-0.31862372159957886,-0.45646774768829346,0.13444457948207855
1761469435944415700,1.815415771484375,-0.4417109489440918,-0.5589239001274109,-0.06343832612037659
1761469435954398700,1.825398681640625,-0.477451890707016,-0.684374988079071,-0.131773442029953
1761469435964381700,1.835381591796875,-0.48753926157951355,-0.7700814008712769,-0.12953855097293854
1761469435974365700,1.84536572265625,-0.5154324173927307,-0.8013458251953125,-0.12885944545269012
1761469435984348700,1.8553486328125,-0.5606720447540283,-0.7564423084259033,-0.1480603814125061
1761469435994332700,1.865332763671875,-0.5578421950340271,-0.6939568519592285,-0.13614700734615326
1761469436004316000,1.87531591796875,-0.4739699363708496,-0.705486536026001,-0.0735224261879921
1761469436014298600,1.885298583984375,-0.3825819492340088,-0.6634714603424072,0.055329829454422
1761469436024282600,1.89528271484375,-0.3757689893245697,-0.4765091836452484,0.18121126294136047
1761469436034265900,1.905265869140625,-0.39436477422714233,-0.22066406905651093,0.27997058629989624
1761469436044248800,1.915248779296875,-0.3388601243495941,-0.03298961743712425,0.368998646736145
1761469436054232800,1.92523291015625,-0.16568432748317719,0.028666287660598755,0.4521119296550751
1761469436064215600,1.935215576171875,0.0061667500995099545,-0.12358129769563675,0.48982009291648865
1761469436074199600,1.945199462890625,0.22970929741859436,-0.35006022453308105,0.44532719254493713
1761469436084182800,1.955182861328125,0.3924156129360199,-0.5038818120956421,0.36911600828170776
1761469436094165800,1.965165771484375,0.49150463938713074,-0.5897298455238342,0.3172954320907593
1761469436104149800,1.975149658203125,0.5425587296485901,-0.6461323499679565,0.3235169053077698
1761469436114132700,1.9851328125,0.5791047811508179,-0.7265475392341614,0.36361026763916016
1761469436124115700,1.99511572265625,0.6164345145225525,-0.8359513282775879,0.4027908146381378
1761469436134099700,2.005099609375,0.6369658708572388,-0.8850903511047363,0.40945911407470703
1761469436144082700,2.015082763671875,0.6038810610771179,-0.8619644641876221,0.3324238955974579
1761469436154066700,2.025066650390625,0.5374118089675903,-0.7929292321205139,0.16883495450019836
1761469436164049700,2.035049560546875,0.4551578760147095,-0.7151361107826233,-0.0168289951980114
1761469436174032600,2.04503271484375,0.3891540765762329,-0.668982982635498,-0.12750864028930664
1761469436184016600,2.0550166015625,0.3912650942802429,-0.7232384085655212,-0.13445653021335602
1761469436194000000,2.064999755859375,0.4432726204395294,-0.8633068799972534,-0.12144140154123306
1761469436203982800,2.07498291015625,0.5285481810569763,-0.9552018642425537,-0.13733480870723724
1761469436213966800,2.084966796875,0.5774598121643066,-0.9478890895843506,-0.12018672376871109
1761469436223949600,2.094949462890625,0.5977957844734192,-0.8913173079490662,-0.10305514931678772
1761469436233933600,2.10493359375,0.5851138234138489,-0.8189200758934021,-0.11728788167238235
1761469436243916800,2.114916748046875,0.5296314358711243,-0.6780856251716614,-0.1948385238647461
1761469436253899800,2.124899658203125,0.455985426902771,-0.5351524353027344,-0.316599041223526
1761469436263883800,2.1348837890625,0.35793715715408325,-0.3959476947784424,-0.4662151336669922
1761469436273866800,2.14486669921875,0.23780035972595215,-0.2420332133769989,-0.640850305557251
1761469436283849700,2.154849609375,0.12976889312267303,-0.12414681166410446,-0.8297063708305359
1761469436293833700,2.164833740234375,0.03689620643854141,-0.030846692621707916,-0.965751051902771
1761469436303816700,2.174816650390625,-0.017732731997966766,0.056491244584321976,-1.055984377861023
1761469436313799700,2.184799560546875,-0.021386057138442993,0.011847874149680138,-1.1204259395599365
1761469436323783700,2.19478369140625,0.033392757177352905,-0.1978709101676941,-1.139092206954956
1761469436333766700,2.2047666015625,0.1407591700553894,-0.4611584544181824,-1.041491150856018
1761469436343750700,2.214750732421875,0.28446412086486816,-0.6931165456771851,-0.8855950236320496
1761469436353734000,2.22473388671875,0.3764033615589142,-0.842771053314209,-0.7759912610054016
1761469436363716900,2.234716796875,0.3719000518321991,-0.8072911500930786,-0.650244951248169
1761469436373700600,2.24470068359375,0.28899240493774414,-0.6165515780448914,-0.38351285457611084
1761469436383683600,2.25468359375,0.07205197215080261,-0.3652949035167694,-0.06965123116970062
1761469436393666800,2.264666748046875,-0.08436933159828186,-0.12268146127462387,0.16187946498394012
1761469436403650800,2.27465087890625,-0.15877707302570343,0.03917010501027107,0.3547050356864929
1761469436413633800,2.2846337890625,-0.13025301694869995,0.06164079159498215,0.536112368106842
1761469436423617800,2.29461767578125,-0.07046271115541458,-0.11408473551273346,0.6974852681159973
1761469436433600800,2.304600830078125,-0.00811544619500637,-0.3488839566707611,0.8171560168266296
1761469436443583700,2.314583740234375,0.025494012981653214,-0.5121120810508728,0.8717767000198364
1761469436453567700,2.324567626953125,0.015993718057870865,-0.5283272862434387,0.8389028906822205
1761469436463550700,2.33455078125,-0.022381676360964775,-0.47528907656669617,0.6912798285484314
1761469436473534700,2.34453466796875,-0.08808159828186035,-0.37090808153152466,0.4875224530696869
1761469436483517700,2.354517578125,-0.16777074337005615,-0.23114921152591705,0.285155326128006
1761469436493500700,2.364500732421875,-0.23869550228118896,-0.17706041038036346,0.132527694106102
1761469436503484700,2.374484619140625,-0.27199968695640564,-0.22118912637233734,0.06988589465618134
1761469436513468000,2.384468017578125,-0.2591347396373749,-0.3020341694355011,0.1023748591542244
1761469436523451000,2.394450927734375,-0.2301606684923172,-0.3179594874382019,0.2051408737897873
1761469436533434600,2.4044345703125,-0.19137731194496155,-0.273752361536026,0.3337193727493286
1761469436543417600,2.41441748046875,-0.2000323235988617,-0.1959301382303238,0.4640432596206665
1761469436553401600,2.424401611328125,-0.23871926963329315,-0.07709242403507233,0.5752001404762268
1761469436563384800,2.434384765625,-0.2844131886959076,0.03701804578304291,0.615800142288208
1761469436573367800,2.444367919921875,-0.3468318283557892,0.12228287011384964,0.6192678213119507
1761469436583351800,2.454351806640625,-0.4079006612300873,0.1701781451702118,0.6016218662261963
1761469436593334800,2.464334716796875,-0.4575427770614624,0.21934328973293304,0.6165521144866943
1761469436603317800,2.47431787109375,-0.4933188259601593,0.19938625395298004,0.6149086952209473
1761469436613301800,2.4843017578125,-0.5170718431472778,0.10225891321897507,0.5640950202941895
1761469436623284700,2.49428466796875,-0.543538510799408,-0.015461773611605167,0.4481804370880127
1761469436633267700,2.504267822265625,-0.5532675981521606,-0.08189219981431961,0.29120945930480957
1761469436643251700,2.514251708984375,-0.5627410411834717,-0.14488108456134796,0.12274669110774994
1761469436653234700,2.524234619140625,-0.5276554822921753,-0.263251930475235,-0.04742716997861862
1761469436663218700,2.53421875,-0.42812684178352356,-0.44172346591949463,-0.1538354605436325
1761469436673202000,2.544201904296875,-0.2930587828159332,-0.7034770250320435,-0.13339756429195404
1761469436683184600,2.5541845703125,-0.16511845588684082,-0.9642877578735352,0.0059588877484202385
1761469436693168600,2.564168701171875,-0.033669620752334595,-1.0413939952850342,0.26109209656715393
1761469436703151600,2.574151611328125,0.055728960782289505,-1.059277892112732,0.5141134858131409
1761469436713134800,2.584134765625,0.08523784577846527,-0.9718348979949951,0.5972430109977722
1761469436723118800,2.594118896484375,0.08141344040632248,-0.7423078417778015,0.5306513905525208
1761469436733101800,2.604101806640625,0.10687592625617981,-0.22945886850357056,0.41439884901046753
1761469436743085600,2.61408544921875,-0.11355821788311005,-0.053237251937389374,0.21702739596366882
1761469436753068800,2.62406884765625,-0.22212037444114685,0.14268723130226135,0.02890888601541519
1761469436763051800,2.6340517578125,-0.1374673843383789,0.4255438446998596,-0.04623374342918396
1761469436773035800,2.644035888671875,-0.046853333711624146,0.42781153321266174,-0.04636609926819801
1761469436783018800,2.654018798828125,0.11305758357048035,0.2675536870956421,-0.03523583337664604
1761469436793001700,2.664001708984375,0.32561299204826355,0.17518408596515656,0.02195022441446781
1761469436802985700,2.67398583984375,0.4830092489719391,0.17489777505397797,0.1421506255865097
1761469436812968700,2.68396875,0.6043787598609924,0.16909687221050262,0.23274710774421692
1761469436822952700,2.69395263671875,0.6482003927230835,0.1791549026966095,0.2609407305717468
1761469436832936000,2.70393603515625,0.5610511302947998,0.2341313362121582,0.21949447691440582
1761469436842918700,2.713918701171875,0.425306499004364,0.27666690945625305,0.094980888068676
1761469436852902700,2.723902587890625,0.26204541325569153,0.3047723174095154,-0.07856027036905289
1761469436862885600,2.7338857421875,0.11653922498226166,0.35571837425231934,-0.2457788735628128
1761469436872868900,2.743868896484375,0.009498792700469494,0.4454149603843689,-0.39118269085884094
1761469436882852900,2.753852783203125,-0.0800374373793602,0.5153452157974243,-0.524760365486145
1761469436892835600,2.763835693359375,-0.1506546139717102,0.5345175862312317,-0.6217013001441956
1761469436902819600,2.773819580078125,-0.19452500343322754,0.48655980825424194,-0.6569411754608154
1761469436912802800,2.783802734375,-0.22149190306663513,0.36541980504989624,-0.6170619130134583
1761469436922786800,2.793786865234375,-0.21322877705097198,0.19348005950450897,-0.5631304383277893
1761469436932770800,2.803770751953125,-0.19932548701763153,0.0317353755235672,-0.5206657648086548
1761469436942753800,2.81375390625,-0.2014874368906021,-0.10302510112524033,-0.48402974009513855
1761469436952736500,2.823736572265625,-0.18580861389636993,-0.18720336258411407,-0.47671589255332947
1761469436962720500,2.833720458984375,-0.1455569565296173,-0.25249478220939636,-0.5367752313613892
1761469436972703700,2.843703857421875,-0.10339857637882233,-0.31669002771377563,-0.6172080039978027
1761469436982687700,2.853687744140625,-0.06696891784667969,-0.3223685920238495,-0.6214894652366638
1761469436992670700,2.863670654296875,-0.024683242663741112,-0.2503889501094818,-0.5391442775726318
1761469437002653700,2.87365380859375,-0.00014574499800801277,-0.12440834939479828,-0.40497568249702454
1761469437012637700,2.8836376953125,-0.011855398304760456,-0.021254805848002434,-0.2600269913673401
1761469437022620700,2.89362060546875,-0.017547473311424255,0.025027260184288025,-0.1421651393175125
1761469437032603600,2.903603759765625,-0.026889577507972717,-0.01646478846669197,-0.07347820699214935
1761469437042587600,2.913587646484375,-0.05787784978747368,-0.13283467292785645,-0.08464672416448593
1761469437052570600,2.923570556640625,-0.10907366126775742,-0.3157554566860199,-0.13839544355869293
1761469437062554600,2.9335546875,-0.15809454023838043,-0.4501703083515167,-0.14727719128131866
1761469437072537600,2.94353759765625,-0.2132192999124527,-0.44887015223503113,-0.10251639038324356
1761469437082520800,2.953520751953125,-0.22689461708068848,-0.39733028411865234,0.016451111063361168
1761469437092504800,2.9635048828125,-0.1765933632850647,-0.36943739652633667,0.22042900323867798
1761469437102487800,2.97348779296875,-0.10373326390981674,-0.3453601002693176,0.44912633299827576
1761469437112470500,2.983470458984375,-0.02710559219121933,-0.334566593170166,0.6236357688903809
1761469437122454500,2.99345458984375,0.06150015443563461,-0.3631407618522644,0.7267864942550659
1761469437132437800,3.003437744140625,0.13268113136291504,-0.411584734916687,0.7661354541778564
1761469437142421800,3.013421875,0.1946355253458023,-0.48930495977401733,0.7674859166145325
1761469437152404700,3.02340478515625,0.2101559042930603,-0.5945929884910583,0.7414239645004272
1761469437162387700,3.0333876953125,0.15741345286369324,-0.6410754323005676,0.6603183746337891
1761469437172371700,3.043371826171875,0.0573587529361248,-0.5979250073432922,0.532265841960907
1761469437182354700,3.053354736328125,-0.08759523928165436,-0.5577583909034729,0.3912211060523987
1761469437192337700,3.063337646484375,-0.24377009272575378,-0.5056442022323608,0.25385531783103943
1761469437202321700,3.07332177734375,-0.36087003350257874,-0.4163200855255127,0.1366427093744278
1761469437212304600,3.0833046875,-0.40786656737327576,-0.34277477860450745,0.06389659643173218
1761469437222288600,3.09328857421875,-0.3851233422756195,-0.24078765511512756,0.027637246996164322
1761469437232271600,3.103271728515625,-0.2869563102722168,-0.004562879912555218,0.04077941179275513
1761469437242254800,3.1132548828125,-0.22442179918289185,0.21330980956554413,0.0783875584602356
1761469437252238800,3.12323876953125,-0.2282162606716156,0.09993372112512589,0.12220561504364014
1761469437262221600,3.1332216796875,-0.1644752323627472,-0.03803551569581032,0.23089651763439178
1761469437272204500,3.14320458984375,-0.11267807334661484,-0.07707585394382477,0.3708983361721039
1761469437282188500,3.1531884765625,-0.06484723091125488,-0.09885728359222412,0.46585026383399963
1761469437292171800,3.163171875,-0.02143557369709015,-0.0468851663172245,0.484538197517395
1761469437302155800,3.17315576171875,-0.09291888028383255,-0.14780722558498383,0.39424988627433777
1761469437312138800,3.183138671875,-0.15391512215137482,-0.20459221303462982,0.26879608631134033
1761469437322121700,3.193121826171875,-0.18813247978687286,-0.1554756462574005,0.13364678621292114
1761469437332105700,3.203105712890625,-0.21579447388648987,-0.05168001353740692,-0.03657341003417969
1761469437342088700,3.213088623046875,-0.21392209827899933,0.03470063954591751,-0.21096688508987427
1761469437352071700,3.22307177734375,-0.18827559053897858,0.1113394945859909,-0.28810426592826843
1761469437362055700,3.2330556640625,-0.16608905792236328,0.16990187764167786,-0.26846396923065186
1761469437372038700,3.24303857421875,-0.10264056921005249,0.14767992496490479,-0.22255535423755646
1761469437382022700,3.253022705078125,-0.028102288022637367,0.0984840840101242,-0.24272307753562927
1761469437392005600,3.263005615234375,0.06696191430091858,0.0739116296172142,-0.2775082290172577
1761469437401988900,3.27298876953125,0.09955442696809769,-0.06165582686662674,-0.21765664219856262
1761469437411972900,3.282972900390625,0.11083104461431503,-0.20883622765541077,-0.0967794805765152
1761469437421955600,3.29295556640625,0.08998756110668182,-0.2395540177822113,-0.053356148302555084
1761469437431939600,3.302939697265625,0.048887528479099274,-0.08761002868413925,-0.07683324068784714
1761469437441922600,3.312922607421875,0.028609326109290123,0.20001237094402313,-0.15855613350868225
1761469437451905800,3.32290576171875,0.01696758344769478,0.46755698323249817,-0.20619022846221924
1761469437461889800,3.332889892578125,0.04339132830500603,0.6480121612548828,-0.18103918433189392
1761469437471872800,3.342872802734375,0.09628356993198395,0.691182553768158,-0.1504245549440384
1761469437481855700,3.352855712890625,0.20485791563987732,0.6157801747322083,-0.12212512642145157
1761469437491839700,3.36283984375,0.31982043385505676,0.35256427526474,-0.047127045691013336
1761469437501822700,3.37282275390625,0.41882702708244324,0.049419865012168884,0.04508747160434723
1761469437511806700,3.382806640625,0.473873496055603,-0.1972130835056305,0.11519305408000946
1761469437521789700,3.392789794921875,0.49981337785720825,-0.38389381766319275,0.1912493258714676
1761469437531772700,3.402772705078125,0.491953045129776,-0.470258504152298,0.29425081610679626
1761469437541756700,3.412756591796875,0.4467988908290863,-0.48958373069763184,0.36957111954689026
1761469437551739600,3.42273974609375,0.41830146312713623,-0.4632596969604492,0.37995585799217224
1761469437561723000,3.432722900390625,0.37785083055496216,-0.44059765338897705,0.30405646562576294
1761469437571707000,3.442706787109375,0.3397394120693207,-0.4480084180831909,0.18700572848320007
1761469437581689600,3.452689697265625,0.3155876398086548,-0.4724622964859009,0.09239017218351364
1761469437591673600,3.462673583984375,0.3123471140861511,-0.46518146991729736,0.0012275103945285082
1761469437601656600,3.472656494140625,0.3381771743297577,-0.4012128412723541,-0.09381639957427979
1761469437611639800,3.482639892578125,0.3621927499771118,-0.31652697920799255,-0.16824057698249817
1761469437621623800,3.492623779296875,0.3553631603717804,-0.23070192337036133,-0.19801966845989227
1761469437631606500,3.5026064453125,0.31489697098731995,-0.18722182512283325,-0.19800235331058502
1761469437641589800,3.51258984375,0.2404007613658905,-0.2579950988292694,-0.2110602706670761
1761469437651573800,3.52257373046875,0.17454931139945984,-0.39609864354133606,-0.2385701835155487
1761469437661556700,3.532556640625,0.12039956450462341,-0.5750299096107483,-0.2822432816028595
1761469437671540700,3.542540771484375,0.0809118002653122,-0.7928946018218994,-0.35304608941078186
1761469437681523700,3.552523681640625,0.08517064899206161,-1.047345519065857,-0.4518100321292877
1761469437691506700,3.562506591796875,0.1136518269777298,-1.2578274011611938,-0.5336069464683533
1761469437701490700,3.57249072265625,0.11983856558799744,-1.329060435295105,-0.560591995716095
1761469437711473700,3.5824736328125,0.09485092014074326,-1.1986055374145508,-0.5224288702011108
1761469437721456600,3.59245654296875,0.06129326671361923,-0.8997875452041626,-0.46611785888671875
1761469437731441000,3.60244091796875,0.031056001782417297,-0.5482063889503479,-0.4943265914916992
1761469437741423600,3.612423583984375,0.05706053599715233,-0.42525187134742737,-0.7050715088844299
1761469437751407600,3.62240771484375,-0.01255129836499691,-0.44408202171325684,-0.8501426577568054
1761469437761390600,3.632390625,-0.01751781813800335,-0.5654584765434265,-0.9848313331604004
1761469437771373800,3.642373779296875,-0.013600841164588928,-0.7846755385398865,-1.1794135570526123
1761469437781357800,3.65235791015625,-0.05386154726147652,-0.8544146418571472,-1.325259804725647
1761469437791340500,3.662340576171875,-0.11277119815349579,-0.70313960313797,-1.3411394357681274
1761469437801323800,3.67232373046875,-0.20816607773303986,-0.4061262607574463,-1.1703637838363647
1761469437811307800,3.682307861328125,-0.35336053371429443,-0.20550234615802765,-0.7399343848228455
1761469437821290800,3.692290771484375,-0.32682666182518005,0.03429469093680382,-0.2581033408641815
1761469437831274800,3.702274658203125,-0.2584284543991089,0.37725070118904114,0.0419696606695652
1761469437841257700,3.7122578125,-0.22273485362529755,0.7946988344192505,0.18982040882110596
1761469437851240700,3.72224072265625,-0.2011251598596573,1.1383501291275024,0.2527748644351959
1761469437861224700,3.732224609375,-0.16533885896205902,1.3827695846557617,0.2277069389820099
1761469437871207700,3.742207763671875,-0.1529245227575302,1.5381152629852295,0.20441092550754547
1761469437881191700,3.752191650390625,-0.16289068758487701,1.6039940118789673,0.2770165801048279
1761469437891175000,3.7621748046875,-0.2006753534078598,1.44059419631958,0.38733693957328796
1761469437901157600,3.77215771484375,-0.2508755922317505,0.983461856842041,0.4831695854663849
1761469437911141600,3.7821416015625,-0.2717451751232147,0.407807856798172,0.5487576723098755
1761469437921124600,3.79212451171875,-0.25968900322914124,-0.2571546137332916,0.5639885663986206
1761469437931107000,3.802107177734375,-0.22889460623264313,-0.8429624438285828,0.46780046820640564
1761469437941091000,3.812091064453125,-0.16850629448890686,-1.181764006614685,0.26978611946105957
1761469437951074000,3.822073974609375,-0.14947214722633362,-1.3008652925491333,0.03744608163833618
1761469437961058000,3.83205810546875,-0.18159329891204834,-1.2444254159927368,-0.10436030477285385
1761469437971041000,3.842041015625,-0.2185118943452835,-0.8836910128593445,-0.06525550782680511
1761469437981024000,3.85202392578125,-0.33279308676719666,-0.47936442494392395,0.10331889986991882
1761469437991008000,3.862008056640625,-0.39968451857566833,-0.11548421531915665,0.30795565247535706
1761469438000991200,3.8719912109375,-0.4358070194721222,0.10608852654695511,0.4361039102077484
1761469438010974200,3.88197412109375,-0.4538573920726776,0.19285404682159424,0.45914265513420105
1761469438020958200,3.891958251953125,-0.4696081578731537,0.16922341287136078,0.43021026253700256
1761469438030941000,3.90194091796875,-0.4861445128917694,0.09465277194976807,0.4293961226940155
1761469438040925000,3.911925048828125,-0.502451479434967,-0.04294126480817795,0.4744401276111603
1761469438050908200,3.921908203125,-0.5038845539093018,-0.2363717257976532,0.5341396927833557
1761469438060891100,3.93189111328125,-0.4966484606266022,-0.3079819977283478,0.5668246746063232
1761469438070875100,3.941875244140625,-0.4762646555900574,-0.33238133788108826,0.5655900239944458
1761469438080858000,3.951858154296875,-0.4358893930912018,-0.3517954647541046,0.487679660320282
1761469438090842000,3.961842041015625,-0.41144075989723206,-0.3280949294567108,0.3685852289199829
1761469438100825000,3.9718251953125,-0.39971041679382324,-0.19511361420154572,0.26369306445121765
1761469438110808000,3.98180810546875,-0.40090885758399963,-0.04964643344283104,0.19922354817390442
1761469438120792000,3.9917919921875,-0.389828622341156,0.025694211944937706,0.18938541412353516
1761469438130775000,4.001775146484375,-0.2903965711593628,0.10787484049797058,0.2551034390926361
1761469438140756200,4.011756103515625,-0.12849301099777222,0.07607168704271317,0.4099150598049164
1761469438150739000,4.021739013671875,0.0017720507457852364,-0.12760527431964874,0.6097581386566162
1761469438160723000,4.031722900390625,0.09843090921640396,-0.29652491211891174,0.6503039598464966
1761469438170706000,4.041705810546875,0.18879541754722595,-0.2952639162540436,0.5689499378204346
1761469438180689200,4.051689208984375,0.24759194254875183,-0.20608343183994293,0.5358378291130066
1761469438190673200,4.061673095703125,0.26933664083480835,-0.10523351281881332,0.5190524458885193
1761469438200656100,4.07165625,0.26994994282722473,-0.048174891620874405,0.43644699454307556
1761469438210639000,4.08163916015625,0.24766087532043457,0.008265746757388115,0.32153213024139404
1761469438220623000,4.091623046875,0.2200177013874054,0.0908425897359848,0.22811290621757507
1761469438230606000,4.101606201171875,0.21200025081634521,0.15699869394302368,0.20973336696624756
1761469438240590000,4.111590087890625,0.21845802664756775,0.16676367819309235,0.28416669368743896
1761469438250573000,4.121572998046875,0.22769120335578918,0.12989966571331024,0.36041271686553955
1761469438260556000,4.13155615234375,0.1920565366744995,0.09279612451791763,0.3436931371688843
1761469438270540000,4.1415400390625,0.13525503873825073,-0.006502234376966953,0.2523981034755707
1761469438280523000,4.15152294921875,0.0792536586523056,-0.17154711484909058,0.10741792619228363
1761469438290507000,4.161507080078125,0.03288855776190758,-0.2895733416080475,-0.0408002994954586
1761469438300490200,4.171490234375,0.005717576015740633,-0.24646824598312378,-0.13021844625473022
1761469438310473000,4.181472900390625,-0.00926483515650034,-0.12715809047222137,-0.14748133718967438
1761469438320457000,4.19145703125,-0.0023278421722352505,0.003151960438117385,-0.10682574659585953
1761469438330440000,4.20143994140625,0.033317770808935165,0.05766553804278374,-0.06063348799943924
1761469438340424000,4.211423828125,0.07937465608119965,0.033174000680446625,-0.0478123240172863
1761469438350407200,4.2214072265625,0.11230996996164322,-0.021449830383062363,-0.06500915437936783
1761469438360390100,4.23139013671875,0.1352297067642212,-0.10122732073068619,-0.1135614737868309
1761469438370374000,4.241373779296875,0.14986483752727509,-0.18749269843101501,-0.17535746097564697
1761469438380357000,4.251357177734375,0.17660385370254517,-0.22856847941875458,-0.24458488821983337
1761469438390341000,4.261341064453125,0.188924178481102,-0.1871805638074875,-0.33649855852127075
1761469438400324000,4.271323974609375,0.19267421960830688,-0.1618296504020691,-0.3866834044456482
1761469438410307000,4.28130712890625,0.22030425071716309,-0.1292128562927246,-0.389313280582428
1761469438420291000,4.291291015625,0.25328195095062256,-0.09899938106536865,-0.3884676694869995
1761469438430274000,4.301274169921875,0.2862899899482727,-0.07628314942121506,-0.4357920289039612
1761469438440258000,4.311258056640625,0.32164841890335083,-0.0588793121278286,-0.5095550417900085
1761469438450241000,4.321240966796875,0.36032336950302124,-0.052416086196899414,-0.5683344602584839
1761469438460224300,4.331224365234375,0.3798525333404541,0.00808718428015709,-0.5843789577484131
1761469438470208300,4.341208251953125,0.3610681891441345,0.157043918967247,-0.5619373321533203
1761469438480191000,4.35119091796875,0.30343863368034363,0.2884613573551178,-0.5086115598678589
1761469438490175000,4.361175048828125,0.25146812200546265,0.4041139483451843,-0.43837204575538635
1761469438500158000,4.371157958984375,0.23653332889080048,0.5334585905075073,-0.399264395236969
1761469438510141200,4.38114111328125,0.22447426617145538,0.7168747782707214,-0.3532537519931793
1761469438520125200,4.391125244140625,0.22717033326625824,0.8570907115936279,-0.30632930994033813
1761469438530108000,4.40110791015625,0.2412312924861908,0.9314568042755127,-0.28984832763671875
1761469438540091100,4.411091064453125,0.24919135868549347,1.017281174659729,-0.26647883653640747
1761469438550075100,4.4210751953125,0.22979636490345,1.1373026371002197,-0.2388804852962494
1761469438560058000,4.43105810546875,0.17821761965751648,1.2826768159866333,-0.18576858937740326
1761469438570042000,4.4410419921875,0.10440729558467865,1.4246560335159302,-0.10317250341176987
1761469438580024800,4.45102490234375,0.030612710863351822,1.480299711227417,-0.0442439541220665
1761469438590008000,4.461008056640625,-0.02837151661515236,1.414386510848999,-0.019725028425455093
1761469438599992000,4.470991943359375,-0.04518544301390648,1.223643183708191,0.04931583255529404
1761469438609975000,4.48097509765625,-0.03995286300778389,0.9973703622817993,0.15769822895526886
1761469438619959000,4.490958984375,-0.03740324452519417,0.8066111207008362,0.2802054286003113
1761469438629942300,4.5009423828125,-0.04632856324315071,0.6989584565162659,0.4049188494682312
1761469438639925000,4.510925048828125,-0.05122429132461548,0.6690112948417664,0.497302770614624
1761469438649909000,4.520908935546875,-0.062088657170534134,0.6275370717048645,0.5597126483917236
1761469438659892000,4.53089208984375,-0.04359283298254013,0.5521333813667297,0.6047924160957336
1761469438669876200,4.540876220703125,-0.05364013835787773,0.5502787232398987,0.6409030556678772
1761469438679859200,4.550859130859375,-0.09161516278982162,0.6461957097053528,0.6364549994468689
1761469438689843200,4.56084326171875,-0.13815443217754364,0.8102245926856995,0.5973891019821167
1761469438699826000,4.570825927734375,-0.2049373984336853,0.991740345954895,0.5275824069976807
1761469438709809200,4.58080908203125,-0.2688618004322052,1.1392416954040527,0.43544313311576843
1761469438719793200,4.590793212890625,-0.32683664560317993,1.2938040494918823,0.37363573908805847
1761469438729778200,4.600778076171875,-0.38022369146347046,1.4309266805648804,0.41143956780433655
1761469438739761200,4.61076123046875,-0.4423391819000244,1.4815787076950073,0.49758899211883545
1761469438749745200,4.6207451171875,-0.4785382151603699,1.4996031522750854,0.5749306082725525
1761469438759727900,4.630727783203125,-0.4855858087539673,1.5212889909744263,0.6101434230804443
1761469438769711900,4.6407119140625,-0.48766469955444336,1.5265750885009766,0.5664907693862915
1761469438779695000,4.650695068359375,-0.4806258976459503,1.502711534500122,0.48701202869415283
1761469438789678000,4.660677978515625,-0.4584401547908783,1.4496688842773438,0.40917715430259705
1761469438799662000,4.670662109375,-0.43200257420539856,1.317649483680725,0.39355507493019104
1761469438809645000,4.68064501953125,-0.37630441784858704,1.1212024688720703,0.43326014280319214
1761469438819629000,4.690629150390625,-0.31239959597587585,0.8895169496536255,0.4183121919631958
1761469438829612000,4.700612060546875,-0.2860889136791229,0.5298149585723877,0.2781745195388794
1761469438839595000,4.710594970703125,-0.251331090927124,0.17562921345233917,0.05843188986182213
1761469438849579000,4.7205791015625,-0.22614586353302002,-0.06756186485290527,-0.1545104831457138
1761469438859562200,4.730562255859375,-0.18588340282440186,-0.10364743322134018,-0.24195696413516998
1761469438869546200,4.740546142578125,-0.14528058469295502,0.004579974338412285,-0.2467658370733261
1761469438879529000,4.750529052734375,-0.11256013810634613,0.15595807135105133,-0.20054104924201965
1761469438889512000,4.760511962890625,-0.09811541438102722,0.23971155285835266,-0.10369651764631271
1761469438899496200,4.77049609375,-0.07268479466438293,0.21015360951423645,0.04872636869549751
1761469438909479200,4.780479248046875,-0.025453099980950356,0.0824800655245781,0.15574628114700317
1761469438919463200,4.790463134765625,0.04649724066257477,-0.05318354442715645,0.19457150995731354
1761469438929446100,4.800446044921875,0.028261778876185417,-0.05079761892557144,0.19454647600650787
1761469438939430100,4.81043017578125,-0.08001528680324554,0.14947883784770966,0.19004210829734802
1761469438949413400,4.820413330078125,-0.2041313797235489,0.38748741149902344,0.17009210586547852
1761469438959396000,4.83039599609375,-0.27490347623825073,0.4674499034881592,0.1375768780708313
1761469438969380000,4.840380126953125,-0.3427163362503052,0.4431368410587311,0.10993911325931549
1761469438979363300,4.85036328125,-0.2598017156124115,0.3559098243713379,0.032994240522384644
1761469438989347300,4.860347412109375,-0.12273495644330978,0.2060292661190033,-0.04926121607422829
1761469438999330300,4.870330322265625,0.07071274518966675,0.05802963674068451,-0.07322462648153305
1761469439009313000,4.88031298828125,0.26496344804763794,-0.03234952688217163,-0.06101509556174278
1761469439019297000,4.890297119140625,0.437828004360199,-0.0584813691675663,-0.007874008268117905
1761469439029280300,4.9002802734375,0.5201894640922546,-0.05210176855325699,0.03205849230289459
1761469439039264300,4.91026416015625,0.5255311131477356,-0.017400305718183517,0.0203311238437891
1761469439049247200,4.920247314453125,0.4836307466030121,0.04408462718129158,-0.0341680683195591
1761469439059231200,4.930231201171875,0.43340814113616943,0.07932308316230774,-0.11923972517251968
1761469439069214200,4.940214111328125,0.3740540146827698,0.09974100440740585,-0.21703366935253143
1761469439079197200,4.950197265625,0.346171110868454,0.12638133764266968,-0.30815818905830383
1761469439089181200,4.96018115234375,0.3453383147716522,0.12049043923616409,-0.3719443678855896
1761469439099164200,4.9701640625,0.3463507294654846,0.12553292512893677,-0.38725632429122925
1761469439109148200,4.980148193359375,0.3300849199295044,0.12948212027549744,-0.4140322804450989
1761469439119131100,4.990131103515625,0.3208765387535095,0.0999097004532814,-0.5012491345405579
1761469439129114000,5.000114013671875,0.3573988676071167,0.07108684629201889,-0.6563934087753296
1761469439139098000,5.01009814453125,0.39600902795791626,0.03854350745677948,-0.8294324278831482
1761469439149081300,5.020081298828125,0.39581942558288574,-0.07889710366725922,-0.9552122354507446
1761469439159065300,5.0300654296875,0.3972173035144806,-0.17098483443260193,-0.9860814213752747
1761469439169048300,5.04004833984375,0.4264409840106964,-0.25491514801979065,-0.9833231568336487
1761469439179031000,5.050031005859375,0.43234333395957947,-0.37752413749694824,-1.0173888206481934
1761469439189015000,5.06001513671875,0.43671730160713196,-0.48081058263778687,-1.1075758934020996
1761469439198998300,5.069998291015625,0.4314573407173157,-0.5000486373901367,-1.1868221759796143
1761469439208982300,5.079982177734375,0.39604100584983826,-0.42168375849723816,-1.1969836950302124
1761469439218965200,5.08996533203125,0.36713406443595886,-0.28864628076553345,-1.1360231637954712
1761469439228949200,5.09994921875,0.34359171986579895,-0.1873345673084259,-1.07807195186615
1761469439238932200,5.10993212890625,0.3491385877132416,-0.1586345136165619,-1.0502156019210815
1761469439248915200,5.119915283203125,0.41166773438453674,-0.24610844254493713,-1.0004311800003052
1761469439258899200,5.129899169921875,0.5282723307609558,-0.2859163284301758,-0.8508121967315674
1761469439268882200,5.139882080078125,0.49988412857055664,-0.24849171936511993,-0.6372684836387634
1761469439278866200,5.1498662109375,0.39562010765075684,0.03200182318687439,-0.3927641212940216
1761469439288849200,5.15984912109375,0.2912074327468872,0.38488292694091797,-0.17735780775547028
1761469439298832100,5.16983203125,0.20851241052150726,0.5170390009880066,-0.04967879503965378
1761469439308816100,5.179816162109375,0.10024693608283997,0.47128430008888245,-0.0044133104383945465
1761469439318799400,5.18979931640625,0.17035646736621857,0.3365086019039154,0.04815294221043587
1761469439328783400,5.199783447265625,0.25698375701904297,0.20022371411323547,0.11367868632078171
1761469439338766000,5.20976611328125,0.3167172372341156,0.06456926465034485,0.21127724647521973
1761469439348750000,5.21975,0.3602553904056549,-0.08671506494283676,0.2775161862373352
1761469439358733000,5.229733154296875,0.38106128573417664,-0.2033519446849823,0.2744961082935333
1761469439368716300,5.23971630859375,0.3798620402812958,-0.1878046840429306,0.21286578476428986
1761469439378700300,5.2497001953125,0.32269197702407837,-0.030279388651251793,0.1566096991300583
1761469439388683000,5.25968310546875,0.20653341710567474,0.21042989194393158,0.1359158754348755
1761469439398667000,5.2696669921875,0.03709334880113602,0.4012168347835541,0.16173234581947327
1761469439408650200,5.279650146484375,-0.15811476111412048,0.5401297211647034,0.20295248925685883
1761469439418634200,5.28963427734375,-0.31317389011383057,0.6395487785339355,0.24741527438163757
1761469439428617200,5.2996171875,-0.39957454800605774,0.6599313020706177,0.29873889684677124
1761469439438600200,5.30960009765625,-0.4583802819252014,0.6307400465011597,0.35586246848106384
1761469439448584200,5.319584228515625,-0.5139117240905762,0.6122270822525024,0.41937991976737976
1761469439458567200,5.329567138671875,-0.5238828063011169,0.6786748170852661,0.4907928705215454
1761469439468551200,5.33955126953125,-0.4937960207462311,0.7543392181396484,0.5708426833152771
1761469439478534100,5.3495341796875,-0.44298744201660156,0.7681832313537598,0.6465439200401306
1761469439488518100,5.35951806640625,-0.37092068791389465,0.7272831797599792,0.7573862671852112
1761469439498501400,5.36950146484375,-0.32709014415740967,0.6528212428092957,0.8985382318496704
1761469439508484000,5.379484130859375,-0.2686886191368103,0.6030094623565674,1.0075279474258423
1761469439518468000,5.389468017578125,-0.20892179012298584,0.5406872034072876,1.0123611688613892
1761469439528451300,5.399451416015625,-0.17725014686584473,0.4110783338546753,0.8806734085083008
1761469439538435300,5.409435302734375,-0.15153276920318604,0.21727408468723297,0.6428548693656921
1761469439548418300,5.419418212890625,-0.13392582535743713,0.00850728526711464,0.38022613525390625
1761469439558402300,5.42940234375,-0.0845445841550827,-0.17329783737659454,0.18554271757602692
1761469439568385000,5.439385009765625,-0.025408564135432243,-0.4006838798522949,0.034876517951488495
1761469439578368300,5.4493681640625,0.03583119437098503,-0.6800240278244019,-0.18723134696483612
1761469439588352300,5.459352294921875,0.1292911022901535,-0.9327743053436279,-0.49768081307411194
1761469439598335200,5.469335205078125,0.19580970704555511,-1.0234097242355347,-0.6943948864936829
1761469439608319200,5.4793193359375,0.17343515157699585,-0.8316568732261658,-0.6904520392417908
1761469439618302200,5.48930224609375,0.08299167454242706,-0.49993059039115906,-0.5524969100952148
1761469439628286200,5.4992861328125,-0.06635414063930511,-0.47587186098098755,-0.3496466279029846
1761469439638269200,5.509269287109375,-0.12178385257720947,-0.7174228429794312,-0.3487105071544647
1761469439648252200,5.519252197265625,-0.13606397807598114,-0.7443085312843323,-0.4997229278087616
1761469439658236200,5.529236083984375,-0.2359696924686432,0.10224033147096634,-0.5520337820053101
1761469439668219100,5.53921923828125,-0.2665103077888489,0.703231930732727,-0.09126084297895432
1761469439678203100,5.549203125,-0.40481632947921753,0.7437953352928162,0.3777313530445099
1761469439688186000,5.55918603515625,-0.29338833689689636,0.6331588625907898,0.4517824053764343
1761469439698170000,5.569170166015625,-0.0637013167142868,0.547199010848999,0.3094857633113861
1761469439708153300,5.5791533203125,0.1329430341720581,0.4447048008441925,0.18238240480422974
1761469439718136300,5.58913623046875,0.31560805439949036,0.32057318091392517,0.1303505152463913
1761469439728120000,5.5991201171875,0.44178515672683716,0.20634327828884125,0.14152035117149353
1761469439738103000,5.60910302734375,0.49161428213119507,0.22589556872844696,0.20922991633415222
1761469439748087000,5.619087158203125,0.49695950746536255,0.3483000695705414,0.3001595437526703
1761469439758070300,5.6290703125,0.44968268275260925,0.4499835968017578,0.353667676448822
1761469439768054300,5.63905419921875,0.3725239932537079,0.4783422648906708,0.3331381678581238
1761469439778037200,5.649037353515625,0.2859920561313629,0.4568011462688446,0.29285764694213867
1761469439788020200,5.659020263671875,0.19568346440792084,0.4245353639125824,0.27187246084213257
1761469439798004200,5.669004150390625,0.10361572355031967,0.3686351478099823,0.3071906268596649
1761469439807987200,5.6789873046875,0.022758692502975464,0.28489550948143005,0.4255460202693939
1761469439817971200,5.68897119140625,-0.018366599455475807,0.2294159084558487,0.5744737386703491
1761469439827954200,5.6989541015625,-0.01591222919523716,0.22766859829425812,0.6686050295829773
1761469439837938400,5.7089384765625,0.015895597636699677,0.2368207722902298,0.7024978399276733
1761469439847921200,5.718921142578125,0.022805169224739075,0.21442784368991852,0.7028992176055908
1761469439857904000,5.728904052734375,0.01558937132358551,0.18996910750865936,0.6432750821113586
1761469439867888000,5.73888818359375,0.00035875337198376656,0.18625026941299438,0.5318138003349304
1761469439877871400,5.748871337890625,-0.0224296972155571,0.19579246640205383,0.3839271068572998
1761469439887855400,5.75885546875,-0.049115635454654694,0.19821728765964508,0.20819894969463348
1761469439897838000,5.768838134765625,-0.06981579214334488,0.18527865409851074,0.04682629555463791
1761469439907822000,5.778822021484375,-0.08582112938165665,0.1416475474834442,-0.0935814157128334
1761469439917805300,5.788805419921875,-0.07597508281469345,0.06222023442387581,-0.2192598581314087
1761469439927788500,5.79878857421875,-0.047279782593250275,-0.04441007226705551,-0.35543501377105713
1761469439937771500,5.808771484375,-0.0023581180721521378,-0.1199694275856018,-0.5052756071090698
1761469439947754500,5.81875439453125,0.03137214854359627,-0.09962420165538788,-0.6285037994384766
1761469439957738800,5.82873876953125,0.046963851898908615,-0.02819129265844822,-0.700319230556488
1761469439967721500,5.838721435546875,0.0633992850780487,-0.019724836573004723,-0.7254467010498047
1761469439977705500,5.84870556640625,0.0914144515991211,0.009286831133067608,-0.7129462361335754
1761469439987688400,5.8586884765625,0.1481562852859497,0.013459205627441406,-0.7004064917564392
1761469439997672400,5.86867236328125,0.22821597754955292,-0.1277984380722046,-0.6455711722373962
1761469440007655700,5.87865576171875,0.30086037516593933,-0.18100039660930634,-0.434161514043808
1761469440017638700,5.888638671875,0.30056464672088623,-0.052364323288202286,-0.13744309544563293
1761469440027622400,5.898622314453125,0.22565871477127075,0.1565217822790146,0.07624149322509766
1761469440037605600,5.908605712890625,0.20170828700065613,0.2727242708206177,0.20517462491989136
1761469440047589600,5.918589599609375,0.217483788728714,0.1421968638896942,0.2609976530075073
1761469440057572600,5.928572509765625,0.21809369325637817,0.00023542693816125393,0.2777996361255646
1761469440067556600,5.938556640625,0.19101279973983765,0.03562271222472191,0.31436190009117126
1761469440077539600,5.94853955078125,0.15642373263835907,0.14408621191978455,0.3496894836425781
1761469440087523600,5.958523681640625,0.1531059592962265,0.15541502833366394,0.3999989926815033
1761469440097506600,5.968506591796875,0.16123485565185547,0.06818505376577377,0.4424004554748535
1761469440107489500,5.978489501953125,0.1675790399312973,-0.07674550265073776,0.45594021677970886
1761469440117473500,5.9884736328125,0.16940373182296753,-0.20387864112854004,0.4570152759552002
1761469440127456800,5.998456787109375,0.14320169389247894,-0.2265077829360962,0.4717305898666382
1761469440137440800,6.008440673828125,0.08542007207870483,-0.16860225796699524,0.5046846866607666
1761469440147423500,6.018423583984375,0.015453770756721497,-0.09319140017032623,0.5136366486549377
1761469440157407500,6.028407470703125,-0.06301525980234146,-0.007326490245759487,0.48056867718696594
1761469440167390500,6.038390380859375,-0.15577156841754913,0.11862771958112717,0.43519505858421326
1761469440177374700,6.048374755859375,-0.27347221970558167,0.2525210380554199,0.4136810898780823
1761469440187357700,6.058357666015625,-0.38837936520576477,0.3485434353351593,0.4194532334804535
1761469440197340400,6.06834033203125,-0.4906823933124542,0.3968072831630707,0.42474859952926636
1761469440207324400,6.078324462890625,-0.5612912774085999,0.3985375463962555,0.40892675518989563
1761469440217307600,6.0883076171875,-0.5828346014022827,0.3694218397140503,0.37499868869781494
1761469440227291600,6.098291748046875,-0.5947378873825073,0.34890270233154297,0.3364688754081726
1761469440237274600,6.108274658203125,-0.5920120477676392,0.32462042570114136,0.33832865953445435
1761469440247258600,6.118258544921875,-0.5791817307472229,0.2673094570636749,0.3615277409553528
1761469440257241600,6.12824169921875,-0.5280885100364685,0.16801078617572784,0.3827941119670868
1761469440267225600,6.1382255859375,-0.46425652503967285,0.04878852143883705,0.37357690930366516
1761469440277208600,6.14820849609375,-0.393888920545578,-0.0792803093791008,0.3351138234138489
1761469440287191600,6.158191650390625,-0.3373691737651825,-0.17544573545455933,0.2933104336261749
1761469440297175600,6.168175537109375,-0.27867305278778076,-0.20974613726139069,0.27734121680259705
1761469440307158500,6.178158447265625,-0.21493297815322876,-0.27828043699264526,0.25028136372566223
1761469440317142500,6.188142578125,-0.15266196429729462,-0.42935478687286377,0.20995722711086273
1761469440327125500,6.19812548828125,-0.08256462961435318,-0.6097927689552307,0.18000200390815735
1761469440337109500,6.208109619140625,-0.007468113675713539,-0.6204430460929871,0.20425935089588165
1761469440347092700,6.2180927734375,-0.003159651532769203,-0.4736618399620056,0.26491042971611023
1761469440357076700,6.22807666015625,-0.06839746981859207,-0.3665372431278229,0.3166767358779907
1761469440367059500,6.2380595703125,-0.11107675731182098,-0.5160723924636841,0.35579749941825867
1761469440377042400,6.24804248046875,-0.09774354100227356,-0.7712185978889465,0.36294257640838623
1761469440387026400,6.2580263671875,-0.0743146538734436,-0.8934435844421387,0.30223608016967773
1761469440397009700,6.268009765625,-0.10032755881547928,-0.5467552542686462,0.2893086075782776
1761469440406993700,6.27799365234375,-0.2952752113342285,0.13244910538196564,0.41408833861351013
1761469440416976400,6.287976318359375,-0.3010977804660797,0.6332034468650818,0.4684053361415863
1761469440426960400,6.29796044921875,-0.13926813006401062,0.6905167698860168,0.3270934820175171
1761469440436943600,6.307943603515625,0.06131304055452347,0.5354397892951965,0.06146138533949852
1761469440446927600,6.317927734375,0.19985173642635345,0.35123270750045776,-0.1760406494140625
1761469440456910600,6.32791064453125,0.3351903557777405,0.21912901103496552,-0.3497198224067688
1761469440466893600,6.3378935546875,0.41685616970062256,0.14007814228534698,-0.42892569303512573
1761469440476877600,6.347877685546875,0.4743672013282776,0.12781482934951782,-0.4303973317146301
1761469440486860500,6.357860595703125,0.49412864446640015,0.1862693428993225,-0.4026162922382355
1761469440496844500,6.367844482421875,0.4388670325279236,0.30009448528289795,-0.37572044134140015
1761469440506827500,6.37782763671875,0.34274929761886597,0.4317385256290436,-0.38567987084388733
1761469440516811500,6.3878115234375,0.22430679202079773,0.5177392959594727,-0.4006742537021637
1761469440526794800,6.397794677734375,0.11982566863298416,0.5618066191673279,-0.3882133364677429
1761469440536778500,6.407778564453125,-0.010014497675001621,0.5767931938171387,-0.34097665548324585
1761469440546761500,6.417761474609375,-0.12082969397306442,0.5799543857574463,-0.27311933040618896
1761469440556745500,6.427745361328125,-0.15872859954833984,0.6121547818183899,-0.2058952897787094
1761469440566728700,6.437728759765625,-0.1368027925491333,0.6240537762641907,-0.15362648665905
1761469440576712700,6.447712646484375,-0.11116503179073334,0.5437814593315125,-0.10281041264533997
1761469440586695700,6.45769580078125,-0.08873455971479416,0.3951731026172638,-0.100164033472538
1761469440596678400,6.467678466796875,-0.04647010564804077,0.26717299222946167,-0.13887405395507812
1761469440606662400,6.477662353515625,-0.017478132620453835,0.16926398873329163,-0.17976024746894836
1761469440616645600,6.487645751953125,0.005031790118664503,0.04753227159380913,-0.21266403794288635
1761469440626629600,6.497629638671875,0.03565094992518425,-0.1021280586719513,-0.24681615829467773
1761469440636612600,6.507612548828125,0.0791250541806221,-0.2586381137371063,-0.2778934836387634
1761469440646596600,6.5175966796875,0.12111058831214905,-0.4025028944015503,-0.30947405099868774
1761469440656579600,6.52757958984375,0.13483025133609772,-0.5281851291656494,-0.3766023516654968
1761469440666563600,6.5375634765625,0.1412135809659958,-0.6236685514450073,-0.4968286454677582
1761469440676546600,6.547546630859375,0.14657485485076904,-0.6565929651260376,-0.5924389958381653
1761469440686530600,6.557530517578125,0.12182316184043884,-0.6779014468193054,-0.6185731291770935
1761469440696513500,6.567513427734375,0.12800711393356323,-0.7396695613861084,-0.6158494353294373
1761469440706496500,6.57749658203125,0.2117944210767746,-0.800391435623169,-0.5778522491455078
1761469440716480500,6.58748046875,0.33529385924339294,-0.8004346489906311,-0.505488395690918
1761469440726463500,6.59746337890625,0.4600280821323395,-0.7783557176589966,-0.39888209104537964
1761469440736447500,6.607447509765625,0.47793400287628174,-0.7093361616134644,-0.25183627009391785
1761469440746430700,6.6174306640625,0.3272867202758789,-0.46188536286354065,-0.12956388294696808
1761469440756414700,6.627414794921875,0.17047849297523499,-0.023953977972269058,-0.004225868731737137
1761469440766397400,6.6373974609375,0.11526370048522949,0.2861735224723816,0.18356719613075256
1761469440776381400,6.64738134765625,0.0662289634346962,0.36863043904304504,0.3687015175819397
1761469440786364700,6.65736474609375,0.08324415981769562,0.3024260997772217,0.4950741231441498
1761469440796348700,6.6673486328125,0.17235788702964783,0.20629805326461792,0.5456287264823914
1761469440806331600,6.67733154296875,0.28170326352119446,0.12664397060871124,0.5068871974945068
1761469440816314400,6.687314453125,0.41168639063835144,0.0023967395536601543,0.40520113706588745
1761469440826298400,6.69729833984375,0.5280591249465942,-0.18234488368034363,0.29237204790115356
1761469440836281600,6.707281494140625,0.5855543613433838,-0.3528485894203186,0.18834765255451202
1761469440846265600,6.717265625,0.5870036482810974,-0.41814905405044556,0.09441156685352325
1761469440856248600,6.72724853515625,0.515315055847168,-0.3998543322086334,0.02161913737654686
1761469440866232600,6.737232666015625,0.3884204924106598,-0.32195982336997986,-0.023793084546923637
1761469440876215600,6.747215576171875,0.24341008067131042,-0.19394293427467346,-0.056536898016929626
1761469440886199600,6.757199462890625,0.08223451673984528,-0.050380170345306396,-0.09646087884902954
1761469440896182500,6.7671826171875,-0.06389984488487244,0.08842133730649948,-0.11828869581222534
1761469440906166500,6.77716650390625,-0.17304202914237976,0.20197241008281708,-0.10982996225357056
1761469440916149500,6.7871494140625,-0.227424755692482,0.28521326184272766,-0.08090580999851227
1761469440926132700,6.7971328125,-0.2611832618713379,0.31701940298080444,-0.036974839866161346
1761469440936117500,6.807117431640625,-0.25010982155799866,0.31843605637550354,0.017694544047117233
1761469440946100200,6.817100341796875,-0.2571363151073456,0.3250865042209625,0.08842837065458298
1761469440956084200,6.827084228515625,-0.26716145873069763,0.3513384461402893,0.1579589694738388
1761469440966067200,6.837067138671875,-0.2686922550201416,0.38018926978111267,0.23357996344566345
1761469440976051500,6.847051513671875,-0.26688385009765625,0.37928417325019836,0.31016331911087036
1761469440986034400,6.857034423828125,-0.2724037766456604,0.3495190739631653,0.3756648302078247
1761469440996018400,6.867018310546875,-0.2898613214492798,0.30917754769325256,0.4341001510620117
1761469441006001200,6.877001220703125,-0.31620559096336365,0.2641671895980835,0.4795251488685608
1761469441015985200,6.886985107421875,-0.34354785084724426,0.2331077754497528,0.49844464659690857
1761469441025968400,6.896968505859375,-0.3505767285823822,0.215779110789299,0.48049628734588623
1761469441035952400,6.906952392578125,-0.349252313375473,0.19289802014827728,0.42388075590133667
1761469441045935400,6.916935302734375,-0.33009326457977295,0.13624033331871033,0.3157135248184204
1761469441055918300,6.92691845703125,-0.3019345700740814,0.03320280462503433,0.19689956307411194
1761469441065902300,6.93690234375,-0.2720687985420227,-0.07312843203544617,0.10087023675441742
1761469441075885300,6.94688525390625,-0.26859039068222046,-0.1652095913887024,-0.0009767187293618917
1761469441085869300,6.956869384765625,-0.2675994336605072,-0.2150389403104782,-0.09420040249824524
1761469441095852300,6.966852294921875,-0.22158750891685486,-0.2556411027908325,-0.15384541451931
1761469441105836300,6.976836181640625,-0.12644076347351074,-0.320499449968338,-0.15083204209804535
1761469441115819300,6.9868193359375,0.004599764943122864,-0.42483338713645935,-0.07957890629768372
1761469441125803300,6.99680322265625,0.15839092433452606,-0.5058441162109375,0.009476668201386929
1761469441135786200,7.0067861328125,0.2800046503543854,-0.5718947052955627,0.028746163472533226
1761469441145770200,7.016770263671875,0.3373395800590515,-0.5811539888381958,-0.038472019135951996
1761469441155753500,7.02675341796875,0.2751334309577942,-0.4104008972644806,-0.12840332090854645
1761469441165737500,7.036737548828125,0.07243172824382782,-0.09639238566160202,-0.09837644547224045
1761469441175720200,7.04672021484375,-0.041355911642313004,0.19244922697544098,0.002892293967306614
1761469441185704200,7.0567041015625,-0.08370016515254974,0.3211270570755005,0.011842645704746246
1761469441195687200,7.066687255859375,-0.07431381940841675,0.2914375960826874,-0.04059545695781708
1761469441205670400,7.07667041015625,-0.028025951236486435,0.1592329442501068,-0.09160777181386948
1761469441215654400,7.086654296875,0.07202430814504623,-0.053885262459516525,-0.11523019522428513
1761469441225637400,7.096637451171875,0.1892862170934677,-0.277446985244751,-0.1096266433596611
1761469441235621000,7.10662109375,0.2856566905975342,-0.3985566794872284,-0.07278018444776535
1761469441245604400,7.116604248046875,0.35187646746635437,-0.4261941611766815,-0.046862032264471054
1761469441255588400,7.12658837890625,0.3803509473800659,-0.40699076652526855,-0.029869260266423225
1761469441265571300,7.1365712890625,0.38466739654541016,-0.35882827639579773,-0.015183258801698685
1761469441275555300,7.146555419921875,0.3714189827442169,-0.3110819160938263,0.00325064267963171
1761469441285538600,7.15653857421875,0.3526029586791992,-0.26504650712013245,0.05021122470498085
1761469441295522300,7.166522216796875,0.33519166707992554,-0.2231975495815277,0.1163872629404068
1761469441305505300,7.17650537109375,0.33391866087913513,-0.201917827129364,0.1520741581916809
1761469441315489300,7.1864892578125,0.3322522044181824,-0.21466641128063202,0.12653666734695435
1761469441325472300,7.19647216796875,0.3343673050403595,-0.22369424998760223,0.050722334533929825
1761469441335456300,7.206456298828125,0.3540514409542084,-0.2212788462638855,-0.04056902974843979
1761469441345439500,7.216439453125,0.3557316064834595,-0.24261875450611115,-0.0987045019865036
1761469441355423200,7.22642333984375,0.3439892530441284,-0.2891697883605957,-0.12004653364419937
1761469441365406200,7.23640625,0.3643605709075928,-0.3459606468677521,-0.1447335183620453
1761469441375389400,7.246389404296875,0.3876992464065552,-0.37999075651168823,-0.16712337732315063
1761469441385373400,7.25637353515625,0.38999515771865845,-0.3253035545349121,-0.15060806274414062
1761469441395356400,7.2663564453125,0.3440971374511719,-0.22462624311447144,-0.10092762857675552
1761469441405340400,7.27634033203125,0.2889271080493927,-0.13367024064064026,-0.06653929501771927
1761469441415323100,7.2863232421875,0.26598313450813293,0.007250464521348476,-0.08107990026473999
1761469441425307400,7.296307373046875,0.23260413110256195,0.1346486210823059,-0.09240472316741943
1761469441435290400,7.306290283203125,0.2102079689502716,0.30681124329566956,-0.08361370861530304
1761469441445274400,7.3162744140625,0.23926891386508942,0.4767211973667145,-0.040511518716812134
1761469441455257300,7.32625732421875,0.25851601362228394,0.6031653881072998,0.08179803192615509
1761469441465241300,7.336241455078125,0.2569924294948578,0.650449275970459,0.2682017385959625
1761469441475224300,7.346224365234375,0.23322704434394836,0.6137123107910156,0.43804341554641724
1761469441485208300,7.356208251953125,0.16453266143798828,0.4918457865715027,0.5661361217498779
1761469441495191300,7.36619140625,0.05019978806376457,0.3743681013584137,0.573343813419342
1761469441505175300,7.37617529296875,-0.07104460895061493,0.4567466080188751,0.46393847465515137
1761469441515158500,7.386158447265625,-0.16913293302059174,0.5804471969604492,0.31648316979408264
1761469441525142500,7.396142578125,-0.11448857933282852,0.6062665581703186,0.12410757690668106
1761469441535125200,7.406125244140625,-0.11360511928796768,0.5195960998535156,-0.06218766048550606
1761469441545108200,7.416108154296875,-0.09584769606590271,0.3963402807712555,-0.19010062515735626
1761469441555092200,7.42609228515625,-0.05700931325554848,0.2843380272388458,-0.267161101102829
1761469441565075500,7.436075439453125,-0.020946383476257324,0.2549037039279938,-0.24819007515907288
1761469441575059500,7.4460595703125,-0.008087443187832832,0.2880345284938812,-0.18822620809078217
1761469441585042200,7.456042236328125,-0.010065639391541481,0.39235588908195496,-0.17030712962150574
1761469441595026200,7.466026123046875,-0.021577194333076477,0.4675388038158417,-0.1648394763469696
1761469441605009400,7.476009521484375,-0.03505412116646767,0.5076199173927307,-0.17819708585739136
1761469441614993400,7.485993408203125,-0.03492571413516998,0.5161579251289368,-0.14635121822357178
1761469441624976400,7.495976318359375,-0.006667977664619684,0.48914650082588196,-0.003099777502939105
1761469441634960400,7.50596044921875,-0.0040997606702148914,0.45202407240867615,0.1903049796819687
1761469441644943400,7.515943359375,-0.03799647465348244,0.44370701909065247,0.3862558603286743
1761469441654927400,7.52592724609375,-0.10693776607513428,0.41893815994262695,0.5451871156692505
1761469441664910300,7.535910400390625,-0.1658487617969513,0.3554318845272064,0.6158757209777832
1761469441674894300,7.545894287109375,-0.22217079997062683,0.2898911237716675,0.6009900569915771
1761469441684877300,7.555877197265625,-0.2604513168334961,0.23273222148418427,0.5524691343307495
1761469441694861300,7.565861328125,-0.2911125719547272,0.18837475776672363,0.510534405708313
1761469441704844300,7.57584423828125,-0.30189305543899536,0.0939963310956955,0.4990042448043823
1761469441714827300,7.5858271484375,-0.29598352313041687,-0.034630656242370605,0.5241560339927673
1761469441724811300,7.595811279296875,-0.2996392250061035,-0.14770208299160004,0.5678675174713135
1761469441734794500,7.60579443359375,-0.32249757647514343,-0.195404514670372,0.6212362051010132
1761469441744778500,7.615778564453125,-0.37115830183029175,-0.14748546481132507,0.6803014278411865
1761469441754761200,7.62576123046875,-0.41034525632858276,-0.032472163438797,0.7080318331718445
1761469441764745200,7.6357451171875,-0.44737011194229126,0.09572628140449524,0.6953461170196533
1761469441774728200,7.645728271484375,-0.4859449565410614,0.17211349308490753,0.6810570955276489
1761469441784712200,7.655712158203125,-0.5240976810455322,0.20082050561904907,0.7057965397834778
1761469441794695400,7.6656953125,-0.5373750925064087,0.15999144315719604,0.7598676085472107
1761469441804679400,7.675679443359375,-0.5379093289375305,0.07279475778341293,0.8361833691596985
1761469441814662100,7.685662109375,-0.5096602439880371,-0.008466603234410286,0.9404023289680481
1761469441824646100,7.695646240234375,-0.4853074848651886,-0.044976409524679184,1.052196741104126
1761469441834629400,7.70562939453125,-0.45596808195114136,-0.06754036992788315,1.1347256898880005
1761469441844613400,7.71561328125,-0.43114715814590454,-0.09462258964776993,1.1855472326278687
1761469441854596400,7.725596435546875,-0.3856053650379181,-0.14510010182857513,1.202714204788208
1761469441864580400,7.735580322265625,-0.33297598361968994,-0.18343549966812134,1.1763476133346558
1761469441874563300,7.745563232421875,-0.26689401268959045,-0.2003805786371231,1.1070865392684937
1761469441884547300,7.75554736328125,-0.20591029524803162,-0.27590328454971313,1.0616647005081177
1761469441894530300,7.7655302734375,-0.17647938430309296,-0.3227410912513733,1.0052886009216309
1761469441904513300,7.77551318359375,-0.17976786196231842,-0.32932281494140625,0.9613139629364014
1761469441914497300,7.785497314453125,-0.20285338163375854,-0.2584344744682312,0.9653221368789673
1761469441924480300,7.795480224609375,-0.23169808089733124,-0.13610832393169403,1.0039297342300415
1761469441934463200,7.805463134765625,-0.27407124638557434,-0.05535094439983368,1.051978588104248
1761469441944446200,7.8154462890625,-0.30022189021110535,-0.030184602364897728,1.1100934743881226
1761469441954430500,7.825430419921875,-0.2873224914073944,-0.04103904590010643,1.183198094367981
1761469441964413200,7.8354130859375,-0.25705915689468384,-0.12326254695653915,1.1974260807037354
1761469441974397200,7.845397216796875,-0.205660879611969,-0.23848235607147217,1.1240681409835815
1761469441984380200,7.855380126953125,-0.162641242146492,-0.32847800850868225,1.0086272954940796
1761469441994364200,7.8653642578125,-0.13094834983348846,-0.3491007387638092,0.8226365447044373
1761469442004347400,7.875347412109375,-0.17395547032356262,-0.29387158155441284,0.6120449304580688
1761469442014331400,7.885331298828125,-0.2747132182121277,-0.14472034573554993,0.37909695506095886
1761469442024314000,7.895314208984375,-0.41061779856681824,0.07764294743537903,0.12467639148235321
1761469442034298000,7.905298095703125,-0.5738199949264526,0.27163970470428467,-0.08498943597078323
1761469442044281300,7.91528125,-0.6919836401939392,0.3950202465057373,-0.17982113361358643
1761469442054265300,7.925265380859375,-0.7339033484458923,0.3877774477005005,-0.15932731330394745
1761469442064248300,7.935248291015625,-0.7170370221138,0.30132296681404114,-0.026799093931913376
1761469442074232300,7.945232421875,-0.6057718396186829,0.23602956533432007,0.14091557264328003
1761469442084215000,7.955215087890625,-0.46310120820999146,0.2257007509469986,0.28530922532081604
1761469442094198300,7.9651982421875,-0.3464318513870239,0.2526884377002716,0.39910078048706055
1761469442104182300,7.975182373046875,-0.2089160680770874,0.30941855907440186,0.4442876875400543
1761469442114165200,7.985165283203125,-0.13239572942256927,0.31838956475257874,0.42732203006744385
1761469442124149200,7.995149169921875,-0.0991315171122551,0.34336549043655396,0.3218800127506256
1761469442134132200,8.00513232421875,-0.11376474052667618,0.3564125597476959,0.15502212941646576
1761469442144114200,8.0151142578125,-0.17497003078460693,0.40864861011505127,0.025278514251112938
1761469442154097400,8.025097412109375,-0.24617339670658112,0.4609552025794983,-0.06876779347658157
1761469442164081400,8.035081298828125,-0.31253427267074585,0.4917261600494385,-0.141577810049057
1761469442174064000,8.045064208984375,-0.3676811158657074,0.49887096881866455,-0.20780721306800842
1761469442184048000,8.055048095703125,-0.402942955493927,0.4977479577064514,-0.29175645112991333
1761469442194031400,8.06503125,-0.3944816291332245,0.5126206278800964,-0.37422895431518555
1761469442204015400,8.075015380859375,-0.3661911189556122,0.5461050868034363,-0.4075448513031006
1761469442213998300,8.084998291015625,-0.36292627453804016,0.5578830242156982,-0.35591375827789307
1761469442223982300,8.094982421875,-0.3116191327571869,0.5399433970451355,-0.32223647832870483
1761469442233965000,8.104965087890625,-0.22768309712409973,0.4714059829711914,-0.2724112868309021
1761469442243949000,8.114948974609375,-0.12416843324899673,0.4205595850944519,-0.17307430505752563
1761469442253932300,8.124932373046875,-0.056120481342077255,0.373631089925766,-0.04729147255420685
1761469442263916300,8.134916259765625,-0.020856766030192375,0.41186821460723877,0.10260135680437088
1761469442273899300,8.144899169921874,-0.011889105662703514,0.5122098922729492,0.25461888313293457
1761469442283883300,8.15488330078125,-0.004051423165947199,0.5977399349212646,0.3991382420063019
1761469442293866200,8.1648662109375,-0.011430954560637474,0.6503744125366211,0.5635756850242615
1761469442303850200,8.174850341796875,0.0031431943643838167,0.8537110090255737,0.714603841304779
1761469442313833200,8.184833251953124,0.020174507051706314,1.09290611743927,0.7991247773170471
1761469442323817200,8.194817138671874,0.001601888332515955,1.278120756149292,0.782774031162262
1761469442333800200,8.20480029296875,-0.049256809055805206,1.523650884628296,0.7696009278297424
1761469442343784400,8.214784423828124,-0.08139637112617493,1.8182086944580078,0.8448914289474487
1761469442353767200,8.22476708984375,-0.020830808207392693,2.054334878921509,1.0338674783706665
1761469442363750100,8.234750244140624,0.11611958593130112,2.1148321628570557,1.3057639598846436
1761469442373734100,8.244734130859374,0.22714006900787354,1.9507575035095215,1.5326697826385498
1761469442383717400,8.25471728515625,0.29667359590530396,1.5425212383270264,1.5994328260421753
1761469442393701400,8.264701416015624,0.35636618733406067,0.9450144171714783,1.5071946382522583
1761469442403684000,8.27468408203125,0.3051038086414337,0.3312884271144867,1.3802984952926636
1761469442413668000,8.284668212890624,0.5003705620765686,-0.08505388349294662,1.3737021684646606
1761469442423651300,8.2946513671875,0.77725750207901,-0.24954695999622345,1.3652926683425903
1761469442433635300,8.30463525390625,0.8926246166229248,-0.4829542934894562,1.4086867570877075
1761469442443618300,8.314618408203126,0.9516136646270752,-0.682506263256073,1.395796298980713
1761469442453602300,8.324602294921876,0.9235590100288391,-0.8745520114898682,1.3904653787612915
1761469442463585000,8.3345849609375,0.806175947189331,-0.976700484752655,1.4151592254638672
1761469442473569300,8.3445693359375,0.5688090324401855,-0.9953934550285339,1.484911322593689
1761469442483552300,8.35455224609375,0.23114018142223358,-0.930018961429596,1.5658042430877686
1761469442493536300,8.364536376953126,-0.1187313124537468,-0.9885164499282837,1.6283615827560425
1761469442503519200,8.374519287109376,-0.463838130235672,-1.316270351409912,1.6763032674789429
1761469442513503200,8.384503173828126,-0.7940718531608582,-1.7707571983337402,1.5404611825942993
1761469442523486200,8.394486328125,-0.799527645111084,-1.780633807182312,1.0295743942260742
1761469442533470200,8.40447021484375,-0.46591514348983765,-1.4290658235549927,0.43982768058776855
1761469442543453200,8.414453125,-0.11279703676700592,-1.4539917707443237,0.13146479427814484
1761469442553437200,8.424437255859376,0.2352433204650879,-1.7780717611312866,0.03965238109230995
1761469442563420400,8.43442041015625,0.5809908509254456,-2.0931947231292725,0.08568458259105682
1761469442573403100,8.444403076171875,0.8474047183990479,-2.3863213062286377,0.30651789903640747
1761469442583387100,8.45438720703125,0.9083759188652039,-2.6908254623413086,0.7278664708137512
1761469442593370000,8.4643701171875,0.9010047316551208,-2.8587148189544678,1.214058756828308
1761469442603354000,8.47435400390625,0.8781750202178955,-2.8594517707824707,1.5438661575317383
1761469442613337300,8.48433740234375,0.8350713849067688,-3.0485477447509766,1.7386325597763062
1761469442623321300,8.4943212890625,0.7645910978317261,-3.299461603164673,1.9059110879898071
1761469442633304000,8.504303955078125,0.7111933827400208,-3.326524257659912,1.9762067794799805
1761469442643288000,8.5142880859375,0.7874740362167358,-2.8071885108947754,1.7944767475128174
1761469442653271300,8.524271240234375,0.7223319411277771,-2.557483434677124,1.6856861114501953
1761469442663255300,8.53425537109375,0.5542020201683044,-2.684817314147949,1.6419652700424194
1761469442673238300,8.54423828125,0.4871091842651367,-2.9083518981933594,1.533711314201355
1761469442683222300,8.55422216796875,0.5101324319839478,-2.98046875,1.4152467250823975
1761469442693205000,8.564205078125,0.15374743938446045,-1.9301882982254028,1.7759242057800293
1761469442703189200,8.574189208984375,-0.3406870663166046,-1.595744013786316,2.315000295639038
1761469442713172200,8.584172119140625,-0.7247209548950195,-1.6065638065338135,2.596653461456299
1761469442723156200,8.59415625,-0.8752172589302063,-1.6608904600143433,2.3686916828155518
1761469442733142000,8.60414208984375,-0.8221307396888733,-1.6875066757202148,2.044661045074463
1761469442743125200,8.614125244140626,-0.8308464884757996,-2.161635637283325,1.7822209596633911
1761469442753109200,8.624109130859376,-0.9294235706329346,-2.588193655014038,1.4210903644561768
1761469442763092200,8.63409228515625,-0.9638864398002625,-2.973656415939331,0.9826801419258118
1761469442773076200,8.644076171875,-0.9501613974571228,-3.4294073581695557,0.5193781852722168
1761469442783059200,8.65405908203125,-0.9488274455070496,-4.103733539581299,0.0418558344244957
1761469442793043200,8.664043212890626,-1.2178902626037598,-5.780782222747803,-0.040891390293836594
1761469442803026200,8.674026123046875,-1.5066194534301758,-7.220091819763184,-0.012332448735833168
1761469442813010200,8.68401025390625,-1.5383179187774658,-8.113018989562988,-0.06569868326187134
1761469442822993200,8.6939931640625,-1.4099000692367554,-8.166451454162598,-0.07379655539989471
1761469442832977400,8.703977294921875,-1.20212721824646,-7.731875419616699,-0.023364262655377388
1761469442842960100,8.713960205078125,-1.0113379955291748,-7.271717071533203,0.013339957222342491
1761469442852944100,8.723944091796875,-0.7336611151695251,-6.566540718078613,-0.06983111053705215
1761469442862927000,8.733927001953125,-0.171807661652565,-5.019466400146484,-0.3080817461013794
1761469442872911000,8.7439111328125,0.5008048415184021,-3.3927958011627197,-0.5672512054443359
1761469442882894300,8.753894287109375,0.9991669654846191,-2.379876136779785,-0.5182240009307861
1761469442892878300,8.76387841796875,1.2497211694717407,-1.8381273746490479,-0.11833354830741882
1761469442902861000,8.773861083984375,1.2509006261825562,-1.4285213947296143,0.4263923168182373
1761469442912844300,8.78384423828125,0.9853877425193787,-1.0731754302978516,0.9362400770187378
1761469442922828300,8.793828369140625,0.5418417453765869,-0.7549700140953064,1.297266960144043
1761469442932811800,8.803811767578125,-0.04975930601358414,-0.4597339630126953,1.1458110809326172
1761469442942795800,8.813795654296875,-0.5076792240142822,-0.6950341463088989,0.8510379791259766
1761469442952778500,8.823778564453125,-0.628695547580719,-0.9658529162406921,0.5800542831420898
1761469442962762500,8.833762451171875,-0.5109433531761169,-1.1440818309783936,0.39076507091522217
1761469442972745700,8.843745849609375,-0.32286328077316284,-1.2359346151351929,0.21867871284484863
1761469442982729700,8.853729736328125,-0.13339748978614807,-1.0957850217819214,0.049648407846689224
1761469442992712700,8.863712646484375,-0.047830067574977875,-0.7157584428787231,-0.13059429824352264
1761469443002696700,8.87369677734375,-0.026431303471326828,-0.3161308765411377,-0.1870647668838501
1761469443012679700,8.8836796875,-0.04326647147536278,-0.05218895152211189,-0.07839903235435486
1761469443022663700,8.89366357421875,-0.08849147707223892,0.04011887311935425,0.13731595873832703
1761469443032646700,8.903646728515625,-0.1771901547908783,0.0022843964397907257,0.38286879658699036
1761469443042630700,8.913630615234375,-0.2812156081199646,-0.06668321788311005,0.5644721388816833
1761469443052613600,8.923613525390625,-0.3154068887233734,-0.16834105551242828,0.6234175562858582
1761469443062597600,8.93359765625,-0.2821386754512787,-0.25823044776916504,0.5735589265823364
1761469443072580600,8.94358056640625,-0.2455778867006302,-0.3142951726913452,0.4385230243206024
1761469443082564600,8.953564697265625,-0.23686376214027405,-0.3174036145210266,0.2394392192363739
1761469443092547600,8.963547607421875,-0.21450427174568176,-0.2687792181968689,-0.009489164687693119
1761469443102531600,8.973531494140625,-0.20649375021457672,-0.16425442695617676,-0.27471470832824707
1761469443112514800,8.983514892578125,-0.15555161237716675,-0.06321627646684647,-0.505991518497467
1761469443122498800,8.993498779296875,-0.07967095077037811,0.005935629364103079,-0.6586822271347046
1761469443132481500,9.0034814453125,0.00135412672534585,0.04297319054603577,-0.7360862493515015
1761469443142465500,9.013465576171875,0.07362698763608932,0.04370369389653206,-0.7207900881767273
1761469443152448800,9.02344873046875,0.11542059481143951,-0.024888556450605392,-0.6130099892616272
1761469443162431700,9.033431640625,0.1308208554983139,-0.15866632759571075,-0.45594099164009094
1761469443172415700,9.043415771484375,0.13721124827861786,-0.31427937746047974,-0.27358680963516235
1761469443182398700,9.053398681640624,0.11798695474863052,-0.39620301127433777,-0.09286549687385559
1761469443192382500,9.063382568359375,0.047317177057266235,-0.3693886399269104,0.06062620133161545
1761469443202365700,9.07336572265625,-0.052571069449186325,-0.23637999594211578,0.17687638103961945
1761469443212349700,9.083349609375,-0.1584612876176834,-0.03842779994010925,0.24231480062007904
1761469443222332700,9.093332763671874,-0.2238118052482605,0.11958047747612,0.2572072148323059
1761469443232316700,9.103316650390624,-0.2256477028131485,0.1766778826713562,0.23445776104927063
1761469443242300000,9.1132998046875,-0.18745636940002441,0.19025254249572754,0.21689501404762268
1761469443252284000,9.123283935546874,-0.13757961988449097,0.20897430181503296,0.21113832294940948
1761469443262266600,9.1332666015625,-0.08144284784793854,0.2433280199766159,0.20248331129550934
1761469443272250600,9.143250732421874,-0.008236762136220932,0.2628670632839203,0.19110843539237976
1761469443282233600,9.153233642578124,0.0566231943666935,0.24974776804447174,0.1604144424200058
1761469443292217900,9.1632177734375,0.07053785026073456,0.17228081822395325,0.09903734922409058
1761469443302200800,9.173200927734374,-0.0006351298652589321,0.06982127577066422,-0.0057604312896728516
1761469443312184800,9.183184814453124,-0.11897051334381104,-0.047964658588171005,-0.10324838012456894
1761469443322167600,9.19316748046875,-0.22907252609729767,-0.1362718790769577,-0.14070147275924683
1761469443332151600,9.203151611328124,-0.279229998588562,-0.10069058835506439,-0.03732534870505333
1761469443342134800,9.213134765625,-0.28216588497161865,0.1577577292919159,0.4506525695323944
1761469443352118800,9.223118896484374,-0.1700967699289322,0.47949787974357605,0.5214059352874756
1761469443362101800,9.233101806640626,-0.1090318113565445,0.64302659034729,0.5233489871025085
1761469443372085800,9.243085693359374,-0.021865183487534523,0.5685824155807495,0.33905139565467834
1761469443382068700,9.25306884765625,0.06523456424474716,0.4368949830532074,0.08086671680212021
1761469443392052700,9.263052734375,0.11573578417301178,0.2576589584350586,-0.17969733476638794
1761469443402035700,9.27303564453125,0.15399475395679474,0.05967743322253227,-0.34691882133483887
1761469443412019700,9.283019775390626,0.1933257281780243,-0.11227621138095856,-0.3316478431224823
1761469443422002700,9.293002685546876,0.23972438275814056,-0.22045648097991943,-0.1816658228635788
1761469443431985700,9.302985595703126,0.27389416098594666,-0.2237202674150467,-0.03030923753976822
