time,seconds_elapsed,z,y,x
1761469375087815200,0.117815185546875,0.41342732310295105,-0.06803282350301743,-0.3384566009044647
1761469375097799400,0.12779931640625,0.36743640899658203,0.042007926851511,-0.37760722637176514
1761469375107782100,0.1377822265625,0.3169066905975342,0.13312824070453644,-0.43389326333999634
1761469375117765000,0.14776513671875,0.27498266100883484,0.17040424048900604,-0.47435012459754944
1761469375127748400,0.157748291015625,0.23369407653808594,0.13034002482891083,-0.5035905241966248
1761469375137732400,0.167732421875,0.19153596460819244,0.08095277100801468,-0.538605809211731
1761469375147715300,0.17771533203125,0.18339602649211884,0.07336876541376114,-0.5303694605827332
1761469375157698000,0.187697998046875,0.20251566171646118,0.17035870254039764,-0.44076529145240784
1761469375167682000,0.19768212890625,0.24237674474716187,0.45391637086868286,-0.3089785873889923
1761469375177665300,0.207665283203125,0.28843826055526733,0.9199938178062439,-0.1727733314037323
1761469375187648300,0.217648193359375,0.30873903632164,1.44467294216156,-0.06652006506919861
1761469375197632300,0.22763232421875,0.31448161602020264,1.8927016258239746,0.0230012908577919
1761469375207615200,0.237615234375,0.29213201999664307,2.1636931896209717,0.08123814314603806
1761469375217598200,0.24759814453125,0.23410092294216156,2.21120285987854,0.1512710154056549
1761469375227582200,0.257582275390625,0.15424098074436188,1.9386600255966187,0.2776646316051483
1761469375237565200,0.267565185546875,0.08699776977300644,1.3539180755615234,0.4285939633846283
1761469375247548400,0.27754833984375,0.0400955006480217,0.6676875948905945,0.5389642119407654
1761469375257531100,0.28753125,-0.019448522478342056,0.09883106499910355,0.584273636341095
1761469375267515100,0.29751513671875,-0.11417271941900253,-0.25927770137786865,0.54366534948349
1761469375277498400,0.307498291015625,-0.25317028164863586,-0.42471086978912354,0.4008714258670807
1761469375287481300,0.3174814453125,-0.4117165207862854,-0.41209855675697327,0.20932574570178986
1761469375297465300,0.32746533203125,-0.5474189519882202,-0.3188932538032532,0.04095190763473511
1761469375307448000,0.337447998046875,-0.6394640803337097,-0.19063372910022736,-0.09951747953891754
1761469375317431300,0.347431396484375,-0.7381797432899475,0.014669622294604778,-0.19872556626796722
1761469375327415300,0.357415283203125,-0.8245436549186707,0.25977468490600586,-0.2518356144428253
1761469375337398300,0.367398193359375,-0.8695185780525208,0.48706164956092834,-0.27070996165275574
1761469375347381200,0.37738134765625,-0.8526589870452881,0.6280145645141602,-0.22601424157619476
1761469375357364200,0.3873642578125,-0.7959946393966675,0.6985835433006287,-0.1159692332148552
1761469375367348200,0.39734814453125,-0.7087821960449219,0.7088411450386047,0.055183857679367065
1761469375377331200,0.407331298828125,-0.6109296679496765,0.6452315449714661,0.2705017626285553
1761469375387314400,0.417314453125,-0.506851315498352,0.5211568474769592,0.47525057196617126
1761469375397298400,0.42729833984375,-0.4281509518623352,0.34073829650878906,0.6342873573303223
1761469375407281200,0.43728125,-0.40592068433761597,0.13376277685165405,0.7323634028434753
1761469375417264000,0.44726416015625,-0.4240453541278839,0.011277064681053162,0.7425627708435059
1761469375427248000,0.457248046875,-0.46395447850227356,0.03947914019227028,0.6911191940307617
1761469375437231400,0.4672314453125,-0.5573818683624268,0.18587364256381989,0.6134006977081299
1761469375447214000,0.477214111328125,-0.6731732487678528,0.4195253551006317,0.512597918510437
1761469375457197300,0.487197265625,-0.7770978212356567,0.6631186008453369,0.4358491003513336
1761469375467181300,0.497181396484375,-0.8221072554588318,0.9335864782333374,0.4443366229534149
1761469375477164300,0.507164306640625,-0.7612151503562927,1.3162046670913696,0.49459314346313477
1761469375487147300,0.517147216796875,-0.6716215014457703,1.7766828536987305,0.4979504942893982
1761469375497131300,0.52713134765625,-0.6013209223747253,2.1466145515441895,0.4165392518043518
1761469375507114200,0.5371142578125,-0.46987149119377136,2.1121156215667725,0.2809671461582184
1761469375517097200,0.54709716796875,-0.26089829206466675,1.5044702291488647,0.09355942904949188
1761469375527081200,0.557081298828125,-0.00003465497866272926,0.6163170337677002,-0.013485190458595753
1761469375537064200,0.567064208984375,0.18803298473358154,-0.1363721489906311,-0.031696684658527374
1761469375547047200,0.577047119140625,0.30702948570251465,-0.48530614376068115,-0.017280900850892067
1761469375557030100,0.587030029296875,0.3117230534553528,-0.4892526865005493,-0.05731620267033577
1761469375567014100,0.59701416015625,0.2699609696865082,-0.2084319144487381,-0.19120796024799347
1761469375576997400,0.606997314453125,0.25521743297576904,0.19428651034832,-0.34870967268943787
1761469375586980400,0.61698046875,0.2275432050228119,0.45851975679397583,-0.4886508285999298
1761469375596964400,0.62696435546875,0.23026734590530396,0.4762659966945648,-0.5502769351005554
1761469375606947000,0.636947021484375,0.27918028831481934,0.2595512568950653,-0.4849252998828888
1761469375616930300,0.646930419921875,0.40163642168045044,-0.035799697041511536,-0.4148751199245453
1761469375626914300,0.656914306640625,0.5247775316238403,-0.26949602365493774,-0.3101125657558441
1761469375636897300,0.666897216796875,0.6266914010047913,-0.35850152373313904,-0.1908239871263504
1761469375646880300,0.67688037109375,0.6768503785133362,-0.29270994663238525,-0.06890013813972473
1761469375656863200,0.68686328125,0.7055031061172485,-0.13652510941028595,0.04201093316078186
1761469375666847200,0.69684716796875,0.6938747763633728,0.05084258317947388,0.12455325573682785
1761469375676830200,0.706830322265625,0.6499249339103699,0.2508707344532013,0.1364876925945282
1761469375686813400,0.7168134765625,0.5737361907958984,0.47667622566223145,0.08620703220367432
1761469375696797200,0.726797119140625,0.4771028757095337,0.748458981513977,0.006189962849020958
1761469375706780200,0.7367802734375,0.39938873052597046,1.012711763381958,-0.08092355728149414
1761469375716763100,0.74676318359375,0.35015541315078735,1.224678874015808,-0.13947848975658417
1761469375726747400,0.756747314453125,0.3001619577407837,1.332161784172058,-0.1983271837234497
1761469375736730400,0.76673046875,0.26137277483940125,1.3103615045547485,-0.24115906655788422
1761469375746713000,0.776713134765625,0.2567868232727051,1.1546128988265991,-0.2587667405605316
1761469375756696300,0.7866962890625,0.25516870617866516,0.8753952383995056,-0.29115796089172363
1761469375766680300,0.796680419921875,0.25717154145240784,0.6044142842292786,-0.35063397884368896
1761469375776663300,0.806663330078125,0.24929043650627136,0.4012047350406647,-0.4124443233013153
1761469375786646000,0.81664599609375,0.24012143909931183,0.2703040838241577,-0.5013925433158875
1761469375796630300,0.82663037109375,0.2141851782798767,0.23670992255210876,-0.6224894523620605
1761469375806613200,0.83661328125,0.15910831093788147,0.2890062928199768,-0.7462260723114014
1761469375816596200,0.84659619140625,0.11220231652259827,0.38696399331092834,-0.8537884950637817
1761469375826580200,0.856580322265625,0.10140608996152878,0.5500789880752563,-0.9306985139846802
1761469375836563500,0.8665634765625,0.1604776680469513,0.7518028020858765,-0.9828733205795288
1761469375846546200,0.876546142578125,0.3041287660598755,0.9433080554008484,-0.9985474348068237
1761469375856529200,0.886529052734375,0.4817879796028137,1.1084178686141968,-0.9473321437835693
1761469375866513200,0.89651318359375,0.6604936718940735,1.2578303813934326,-0.8345207571983337
1761469375876496600,0.90649658203125,0.7681261301040649,1.3274891376495361,-0.7106859087944031
1761469375886479600,0.916479736328125,0.7858604192733765,1.2616466283798218,-0.6422128677368164
1761469375896463600,0.926463623046875,0.6597842574119568,0.9178370833396912,-0.7279200553894043
1761469375906446600,0.936446533203125,0.5417723655700684,0.4926551580429077,-0.8851527571678162
1761469375916429600,0.9464296875,0.4954451024532318,0.20491045713424683,-0.892857551574707
1761469375926413600,0.95641357421875,0.41994038224220276,0.09787184000015259,-0.7973681092262268
1761469375936396500,0.966396484375,0.29790690541267395,0.08288729190826416,-0.54055255651474
1761469375946379800,0.9763798828125,0.24305479228496552,0.06859970092773438,-0.1681159883737564
1761469375956363800,0.98636376953125,0.21556510031223297,0.07259736955165863,0.17110681533813477
1761469375966346500,0.996346435546875,0.15211060643196106,0.13917964696884155,0.351584792137146
1761469375976329500,1.00632958984375,0.10841930657625198,0.15628460049629211,0.43859612941741943
1761469375986312700,1.016312744140625,0.06307055056095123,0.12639784812927246,0.4845927357673645
1761469375996296700,1.026296630859375,0.053099680691957474,0.08065886050462723,0.49261710047721863
1761469376006279700,1.03627978515625,0.054193880409002304,0.02617492713034153,0.46818891167640686
1761469376016262700,1.0462626953125,0.04444165155291557,-0.02732318453490734,0.4215340316295624
1761469376026246700,1.05624658203125,0.00027014873921871185,-0.048025697469711304,0.3396844267845154
1761469376036229600,1.066229736328125,-0.08223830908536911,-0.021858541294932365,0.248238667845726
1761469376046212600,1.076212646484375,-0.16564004123210907,0.06684307754039764,0.17567893862724304
1761469376056196600,1.086196533203125,-0.23961439728736877,0.17809423804283142,0.134907528758049
1761469376066179600,1.0961796875,-0.30637219548225403,0.24848350882530212,0.10956279188394547
1761469376076162600,1.10616259765625,-0.32730862498283386,0.29083016514778137,0.10383699834346771
1761469376086145500,1.1161455078125,-0.33313071727752686,0.3053745627403259,0.10076135396957397
1761469376096129500,1.126129638671875,-0.31988760828971863,0.27188560366630554,0.13519468903541565
1761469376106112800,1.13611279296875,-0.3103986978530884,0.21043451130390167,0.22307057678699493
1761469376116095500,1.146095458984375,-0.2801233232021332,0.1895766407251358,0.34187206625938416
1761469376126079500,1.15607958984375,-0.2590331733226776,0.22795335948467255,0.4573632776737213
1761469376136062700,1.166062744140625,-0.2404768168926239,0.3009764552116394,0.54021817445755
1761469376146045700,1.176045654296875,-0.22675763070583344,0.36414679884910583,0.5625772476196289
1761469376156029700,1.18602978515625,-0.20067650079727173,0.39377954602241516,0.5287918448448181
1761469376166012400,1.196012451171875,-0.16317176818847656,0.3892369866371155,0.4462715983390808
1761469376175995600,1.20599560546875,-0.09493891894817352,0.35935845971107483,0.3498947024345398
1761469376185978600,1.215978515625,-0.0024063787423074245,0.337843656539917,0.2597070336341858
1761469376195962600,1.225962646484375,0.12484851479530334,0.3453148901462555,0.16958032548427582
1761469376205945900,1.23594580078125,0.2609727084636688,0.3397010266780853,0.10535172373056412
1761469376215928600,1.245928466796875,0.396381139755249,0.2436181753873825,0.07172772288322449
1761469376225912600,1.25591259765625,0.5220968723297119,0.00670400308445096,0.05216981843113899
1761469376235895600,1.2658955078125,0.6128984093666077,-0.3818962275981903,0.04107988253235817
1761469376245878800,1.275878662109375,0.5790765285491943,-0.7752712368965149,0.06798738986253738
1761469376255862800,1.28586279296875,0.43231290578842163,-0.9176635146141052,0.07048889994621277
1761469376265845500,1.295845458984375,0.1805134117603302,-0.7452157735824585,-0.07316569238901138
1761469376275828500,1.305828369140625,-0.04704331234097481,-0.4069628417491913,-0.2506725490093231
1761469376285812700,1.315812744140625,-0.17051096260547638,-0.10498235374689102,-0.3762872815132141
1761469376295795700,1.325795654296875,-0.21017128229141235,-0.007710660807788372,-0.45753392577171326
1761469376305778400,1.3357783203125,-0.29334092140197754,-0.019912976771593094,-0.49601009488105774
1761469376315761700,1.34576171875,-0.3770139813423157,0.03882517293095589,-0.41044726967811584
1761469376325745700,1.35574560546875,-0.38090410828590393,0.2386595904827118,-0.16863738000392914
1761469376335728600,1.365728759765625,-0.2790738642215729,0.44016796350479126,0.0750913918018341
1761469376345711600,1.375711669921875,-0.15438291430473328,0.5003713369369507,0.15920300781726837
1761469376355695600,1.385695556640625,-0.0024751313030719757,0.42006102204322815,0.11161205172538757
1761469376365678600,1.3956787109375,0.1446688324213028,0.24575397372245789,-0.03702666983008385
1761469376375661600,1.40566162109375,0.26645171642303467,0.07409033924341202,-0.1944517195224762
1761469376385645600,1.4156455078125,0.3494030833244324,-0.025163279846310616,-0.27547839283943176
1761469376395628800,1.42562890625,0.4249635934829712,-0.05032269284129143,-0.30344903469085693
1761469376405611500,1.435611572265625,0.4636567533016205,-0.07830505818128586,-0.283841073513031
1761469376415594500,1.445594482421875,0.437583863735199,-0.12941351532936096,-0.2278052568435669
1761469376425578500,1.45557861328125,0.3878183662891388,-0.13488712906837463,-0.20064114034175873
1761469376435561700,1.465561767578125,0.3232899606227875,-0.09530510008335114,-0.19022712111473083
1761469376445544700,1.475544677734375,0.25140008330345154,0.011826306581497192,-0.18634052574634552
1761469376455528700,1.48552880859375,0.17050255835056305,0.18821465969085693,-0.17818380892276764
1761469376465511700,1.49551171875,0.06807289272546768,0.39691993594169617,-0.15696686506271362
1761469376475494700,1.50549462890625,-0.044546328485012054,0.6163100600242615,-0.06940106302499771
1761469376485478700,1.515478759765625,-0.14880189299583435,0.7448633909225464,0.06388401240110397
1761469376495461600,1.525461669921875,-0.2238585501909256,0.7449139952659607,0.20211486518383026
1761469376505444600,1.535444580078125,-0.31486842036247253,0.6563109159469604,0.29807841777801514
1761469376515428600,1.5454287109375,-0.39540746808052063,0.522956907749176,0.2397805005311966
1761469376525411600,1.55541162109375,-0.44329652190208435,0.4157460331916809,0.1895504593849182
1761469376535394600,1.56539453125,-0.49263131618499756,0.2744048833847046,0.08632980287075043
1761469376545377800,1.575377685546875,-0.49432769417762756,0.2047208845615387,-0.04074029251933098
1761469376555361500,1.585361572265625,-0.43938004970550537,0.2010214924812317,-0.1462954878807068
1761469376565344500,1.595344482421875,-0.3267219662666321,0.19711337983608246,-0.22952982783317566
1761469376575327700,1.60532763671875,-0.15814439952373505,0.1884961873292923,-0.28359681367874146
1761469376585311700,1.615311767578125,0.04685836657881737,0.1920132040977478,-0.3295530378818512
1761469376595294700,1.625294677734375,0.29494941234588623,0.07935883104801178,-0.3677068054676056
1761469376605277400,1.63527734375,0.5171794891357422,-0.07917969673871994,-0.32288315892219543
1761469376615261400,1.645261474609375,0.6655431389808655,-0.20031091570854187,-0.22096027433872223
1761469376625244700,1.65524462890625,0.6833411455154419,-0.3636897802352905,-0.17940668761730194
1761469376635227600,1.6652275390625,0.5980917811393738,-0.36681419610977173,-0.16093473136425018
1761469376645210600,1.675210693359375,0.47770464420318604,-0.2169412225484848,-0.10932604223489761
1761469376655194600,1.685194580078125,0.3238964378833771,-0.08510009199380875,0.04496099799871445
1761469376665177600,1.695177490234375,0.10968469828367233,-0.06166272237896919,0.32421961426734924
1761469376675160600,1.70516064453125,0.05911340191960335,-0.20810674130916595,0.6202137470245361
1761469376685144600,1.71514453125,0.0038214202504605055,-0.3593989610671997,0.8443139791488647
1761469376695127800,1.7251279296875,-0.052383795380592346,-0.3676297068595886,0.9538618326187134
1761469376705110500,1.735110595703125,-0.10713106393814087,-0.2583272457122803,0.98509281873703
1761469376715094500,1.745094482421875,-0.17492875456809998,-0.14334499835968018,0.9491497874259949
1761469376725077500,1.755077392578125,-0.2552211582660675,-0.12019840627908707,0.8636929988861084
1761469376735060700,1.765060791015625,-0.3362528681755066,-0.1614382416009903,0.7524596452713013
1761469376745044700,1.775044677734375,-0.39199408888816833,-0.18069855868816376,0.6135607361793518
1761469376755027500,1.78502734375,-0.40621164441108704,-0.13730287551879883,0.443604439496994
1761469376765010700,1.7950107421875,-0.39535292983055115,-0.03969143331050873,0.27593928575515747
1761469376774994700,1.80499462890625,-0.392751544713974,0.08092819154262543,0.12268180400133133
1761469376784977700,1.814977783203125,-0.40050172805786133,0.1594165712594986,-0.001959893386811018
1761469376794960600,1.824960693359375,-0.4167509973049164,0.2006010264158249,-0.04968800023198128
1761469376804943600,1.834943603515625,-0.4299909174442291,0.24094724655151367,-0.03407709673047066
1761469376814927600,1.844927734375,-0.4318647086620331,0.2647029161453247,0.05460004135966301
1761469376824910600,1.85491064453125,-0.40018871426582336,0.26636040210723877,0.1904066950082779
1761469376834893800,1.864893798828125,-0.32451313734054565,0.2608146369457245,0.35792481899261475
1761469376844877800,1.8748779296875,-0.2576144337654114,0.24982300400733948,0.5411016345024109
1761469376854860500,1.884860595703125,-0.24171829223632812,0.2778400182723999,0.7082035541534424
1761469376864843500,1.894843505859375,-0.22846125066280365,0.3241739869117737,0.8189719915390015
1761469376874830600,1.90483056640625,-0.23443526029586792,0.33896970748901367,0.8967621326446533
1761469376884813600,1.9148134765625,-0.24920274317264557,0.31238192319869995,0.9408103227615356
1761469376894796500,1.924796630859375,-0.26920604705810547,0.2564280927181244,0.9573796987533569
1761469376904779500,1.934779541015625,-0.27946025133132935,0.1665092408657074,0.9478556513786316
1761469376914763500,1.944763427734375,-0.28033190965652466,0.043437641113996506,0.9186370372772217
1761469376924746500,1.95474658203125,-0.2858084738254547,-0.06385007500648499,0.864970326423645
1761469376934729500,1.9647294921875,-0.30153605341911316,-0.17127612233161926,0.7702294588088989
1761469376944713500,1.97471337890625,-0.32002562284469604,-0.2778509557247162,0.6422227025032043
1761469376954696700,1.98469677734375,-0.350098580121994,-0.386096715927124,0.49797528982162476
1761469376964679400,1.994679443359375,-0.3664534389972687,-0.4829792380332947,0.32934319972991943
1761469376974663400,2.004663330078125,-0.3551464378833771,-0.46116262674331665,0.17642556130886078
1761469376984646700,2.014646728515625,-0.3291451632976532,-0.3073958456516266,0.044730473309755325
1761469376994629600,2.024629638671875,-0.34407299757003784,-0.05635562911629677,-0.0962143987417221
1761469377004613600,2.034613525390625,-0.3365615904331207,0.17433999478816986,-0.19787661731243134
1761469377014596400,2.044596435546875,-0.3340798020362854,0.1857210099697113,-0.19534847140312195
1761469377024579600,2.05457958984375,-0.4015277028083801,-0.03387945145368576,-0.12435678392648697
1761469377034562600,2.0645625,-0.29481083154678345,-0.07434272021055222,-0.14886052906513214
1761469377044546600,2.074546630859375,-0.22459007799625397,-0.29830169677734375,0.08872763812541962
1761469377054529500,2.084529541015625,-0.28732830286026,-0.3234539031982422,0.2734774947166443
1761469377064512500,2.094512451171875,-0.2824108600616455,-0.2374463826417923,0.410325288772583
1761469377074496500,2.10449658203125,-0.1898638755083084,-0.1290522664785385,0.5451850891113281
1761469377084479500,2.1144794921875,-0.06258898228406906,-0.07676241546869278,0.5515480041503906
1761469377094462700,2.124462646484375,0.10680057853460312,-0.13106666505336761,0.4360203146934509
1761469377104446700,2.13444677734375,0.31123337149620056,-0.25636106729507446,0.2938980758190155
1761469377114429400,2.144429443359375,0.49320927262306213,-0.3657938241958618,0.20560361444950104
1761469377124412400,2.154412353515625,0.6148708462715149,-0.4121291935443878,0.16171036660671234
1761469377134396700,2.164396728515625,0.727091908454895,-0.44845151901245117,0.13874299824237823
1761469377144379600,2.174379638671875,0.7970533967018127,-0.5211515426635742,0.15478873252868652
1761469377154362400,2.1843623046875,0.817730188369751,-0.5725076794624329,0.21364592015743256
1761469377164345600,2.194345703125,0.7852795720100403,-0.5499830842018127,0.24805976450443268
1761469377174329600,2.20432958984375,0.7064411640167236,-0.45783689618110657,0.2333705872297287
1761469377184312600,2.2143125,0.6241558194160461,-0.3187868893146515,0.17850010097026825
1761469377194295600,2.224295654296875,0.5272554159164429,-0.15621450543403625,0.10185325890779495
1761469377204279300,2.234279296875,0.41645294427871704,0.012351693585515022,0.03884099796414375
1761469377214262500,2.244262451171875,0.28544697165489197,0.16022130846977234,0.013689842075109482
1761469377224245500,2.25424560546875,0.15981651842594147,0.22561867535114288,0.0033404091373085976
1761469377234229500,2.2642294921875,0.07869663834571838,0.18611440062522888,-0.006355094723403454
1761469377244212700,2.274212646484375,0.0328591987490654,0.10321944206953049,-0.027252573519945145
1761469377254195500,2.284195556640625,0.034409161657094955,0.005543749779462814,-0.08105561882257462
1761469377264179500,2.294179443359375,0.04829758033156395,-0.09522920101881027,-0.18348045647144318
1761469377274162400,2.304162353515625,0.07134457677602768,-0.14054660499095917,-0.30468836426734924
1761469377284145700,2.314145751953125,0.093631811439991,-0.11150602996349335,-0.4261297881603241
1761469377294128400,2.32412841796875,0.09902631491422653,-0.059734176844358444,-0.5284247398376465
1761469377304112400,2.3341123046875,0.09621517360210419,0.02168351039290428,-0.6176314949989319
1761469377314095600,2.344095703125,0.08577771484851837,0.19648541510105133,-0.7142142057418823
1761469377324078600,2.35407861328125,0.05139954388141632,0.33662763237953186,-0.8712142109870911
1761469377334062600,2.3640625,-0.025434250012040138,0.4698285758495331,-1.0500891208648682
1761469377344045600,2.374045654296875,-0.07625211775302887,0.6466232538223267,-1.1598466634750366
1761469377354028500,2.384028564453125,0.029802676290273666,0.6979866027832031,-1.2182860374450684
1761469377364012500,2.394012451171875,0.21840402483940125,0.5682250261306763,-1.1725492477416992
1761469377373995500,2.40399560546875,0.3564460575580597,0.3540722727775574,-0.9475547671318054
1761469377383978500,2.413978515625,0.4113369584083557,0.1252763867378235,-0.6166971921920776
1761469377393962500,2.42396240234375,0.36299073696136475,-0.0004700976423919201,-0.23852862417697906
1761469377403945500,2.433945556640625,0.29056161642074585,-0.05032389983534813,0.05445326864719391
1761469377413928400,2.443928466796875,0.2883647680282593,-0.12124228477478027,0.24061354994773865
1761469377423911700,2.45391162109375,0.20871631801128387,-0.21768680214881897,0.3518519997596741
1761469377433895700,2.463895751953125,0.1899072229862213,-0.2538567781448364,0.4280863106250763
1761469377443878700,2.473878662109375,0.1981653869152069,-0.23272137343883514,0.4670964777469635
1761469377453861400,2.483861328125,0.2048475295305252,-0.21254660189151764,0.4431602358818054
1761469377463845400,2.493845458984375,0.2192816585302353,-0.23377199470996857,0.3747517764568329
1761469377473828600,2.50382861328125,0.1938021332025528,-0.27749258279800415,0.3145856559276581
1761469377483811600,2.5138115234375,0.13375508785247803,-0.3248746693134308,0.26044195890426636
1761469377493795600,2.523795654296875,0.041408129036426544,-0.3163754642009735,0.22127406299114227
1761469377503778600,2.533778564453125,-0.04927845671772957,-0.251999169588089,0.19070327281951904
1761469377513761500,2.543761474609375,-0.10640645772218704,-0.21126188337802887,0.1612580418586731
1761469377523745500,2.55374560546875,-0.11018241941928864,-0.21032385528087616,0.1292661428451538
1761469377533728500,2.563728515625,-0.09696568548679352,-0.23027358949184418,0.09606931358575821
1761469377543711500,2.57371142578125,-0.07886125892400742,-0.25485485792160034,0.0699506551027298
1761469377553694500,2.583694580078125,-0.05456550419330597,-0.2409355789422989,0.06324081867933273
1761469377563678500,2.593678466796875,-0.03626728057861328,-0.23763450980186462,0.0780915915966034
1761469377573661400,2.603661376953125,0.01175084337592125,-0.2365490049123764,0.13771790266036987
1761469377583644700,2.613644775390625,0.0460871197283268,-0.18312084674835205,0.20865637063980103
1761469377593628700,2.623628662109375,0.060759536921978,-0.12072617560625076,0.26595455408096313
1761469377603611400,2.633611328125,0.08431760221719742,-0.08676168322563171,0.30996888875961304
1761469377613594600,2.6435947265625,0.10316905379295349,-0.08482982218265533,0.355630099773407
1761469377623578600,2.65357861328125,0.10417937487363815,-0.12508471310138702,0.44048386812210083
1761469377633561600,2.6635615234375,0.08114542812108994,-0.2027488797903061,0.5525307655334473
1761469377643544300,2.67354443359375,0.07532306760549545,-0.25698789954185486,0.6034905910491943
1761469377653528600,2.683528564453125,0.06587070971727371,-0.26755663752555847,0.5570112466812134
1761469377663511600,2.693511474609375,0.024222441017627716,-0.28542596101760864,0.40360116958618164
1761469377673494500,2.70349462890625,-0.0579557903110981,-0.3056870102882385,0.17168353497982025
1761469377683477800,2.713477783203125,-0.1335783302783966,-0.25113415718078613,-0.05446694791316986
1761469377693461500,2.72346142578125,-0.2121695578098297,-0.11484024673700333,-0.2174108475446701
1761469377703444500,2.733444580078125,-0.3141075372695923,0.09548985958099365,-0.3422784209251404
1761469377713427500,2.743427490234375,-0.4123843014240265,0.28662440180778503,-0.44876277446746826
1761469377723411500,2.753411376953125,-0.4772792458534241,0.3352243900299072,-0.4520412087440491
1761469377733394700,2.763394775390625,-0.4941120147705078,0.2193979173898697,-0.3642021715641022
1761469377743377400,2.77337744140625,-0.4933055341243744,-0.003791305236518383,-0.23148877918720245
1761469377753361400,2.783361328125,-0.4288327991962433,-0.19804812967777252,-0.12531441450119019
1761469377763344600,2.7933447265625,-0.3243722915649414,-0.20993520319461823,-0.024445462971925735
1761469377773327600,2.80332763671875,-0.24706844985485077,-0.05801545828580856,0.1301071047782898
1761469377783311600,2.8133115234375,-0.1741737574338913,0.1607608050107956,0.3488043248653412
1761469377793294300,2.82329443359375,-0.049881890416145325,0.2814134657382965,0.5775744318962097
1761469377803277600,2.833277587890625,0.11840374022722244,0.2369755208492279,0.6995534896850586
1761469377813260500,2.843260498046875,0.27428096532821655,0.1267659217119217,0.6991161704063416
1761469377823244500,2.85324462890625,0.41362810134887695,0.026969127357006073,0.5867120623588562
1761469377833227500,2.8632275390625,0.5085951089859009,-0.025006189942359924,0.4067750573158264
1761469377843210500,2.87321044921875,0.5568330883979797,-0.06488040834665298,0.23548978567123413
1761469377853194500,2.883194580078125,0.5750355124473572,-0.10680921375751495,0.14328555762767792
1761469377863177500,2.893177490234375,0.6025219559669495,-0.15021556615829468,0.1184205487370491
1761469377873157600,2.90315771484375,0.6273346543312073,-0.16530051827430725,0.11671479791402817
1761469377883141600,2.9131416015625,0.6189230680465698,-0.14137254655361176,0.12039829045534134
1761469377893124900,2.923124755859375,0.5640872716903687,-0.06533396244049072,0.09843200445175171
1761469377903107600,2.933107666015625,0.4672846496105194,0.039373986423015594,0.07469293475151062
1761469377913091600,2.943091552734375,0.3520033359527588,0.17192083597183228,0.05055803433060646
1761469377923074800,2.95307470703125,0.2303076535463333,0.29599466919898987,0.03591451793909073
1761469377933057800,2.963057861328125,0.12386402487754822,0.39621445536613464,0.031734954565763474
1761469377943041800,2.973041748046875,0.021040799096226692,0.4559600055217743,0.039892829954624176
1761469377953024500,2.9830244140625,-0.07131043821573257,0.4461350739002228,0.04845276102423668
1761469377963007700,2.9930078125,-0.14444506168365479,0.39577633142471313,0.061422932893037796
1761469377972990700,3.00299072265625,-0.18973077833652496,0.3240366280078888,0.0702662318944931
1761469377982974700,3.012974609375,-0.21501654386520386,0.21522939205169678,0.07651356607675552
1761469377992958000,3.0229580078125,-0.2188432514667511,0.11643889546394348,0.06177110597491264
1761469378002940700,3.032940673828125,-0.20580478012561798,0.07091008126735687,0.04070228338241577
1761469378012924700,3.042924560546875,-0.19214357435703278,0.07315272837877274,0.009219459258019924
1761469378022907600,3.05290771484375,-0.19672459363937378,0.12862539291381836,-0.032046109437942505
1761469378032891000,3.062890869140625,-0.211894229054451,0.2647494077682495,-0.10191946476697922
1761469378042875000,3.072875,-0.25504830479621887,0.47995826601982117,-0.17066307365894318
1761469378052857600,3.082857666015625,-0.27408671379089355,0.709312915802002,-0.22838681936264038
1761469378062840600,3.092840576171875,-0.2595824599266052,0.8669959306716919,-0.25084593892097473
1761469378072824800,3.102824951171875,-0.24440298974514008,0.9911301136016846,-0.2894958555698395
1761469378082807800,3.112807861328125,-0.18092241883277893,1.1090220212936401,-0.40904074907302856
1761469378092790800,3.122790771484375,-0.0418686605989933,1.0482462644577026,-0.582135021686554
1761469378102773800,3.132773681640625,0.17689990997314453,0.8490046262741089,-0.6701809763908386
1761469378112757800,3.1427578125,0.4107169210910797,0.5094939470291138,-0.6125275492668152
1761469378122740700,3.15274072265625,0.5534421801567078,0.05412326753139496,-0.40487709641456604
1761469378132723700,3.1627236328125,0.5527287721633911,-0.3388466536998749,-0.09055058658123016
1761469378142707700,3.172707763671875,0.41136205196380615,-0.4589749276638031,0.20207446813583374
1761469378152690700,3.182690673828125,0.19644789397716522,-0.3212921619415283,0.4100226163864136
1761469378162673700,3.192673583984375,0.006785299628973007,-0.20370905101299286,0.5760719776153564
1761469378172657700,3.20265771484375,-0.19839315116405487,-0.17158493399620056,0.7218891382217407
1761469378182641000,3.212640869140625,-0.3095047175884247,-0.19309101998806,0.8224256634712219
1761469378192623900,3.222623779296875,-0.3535006642341614,-0.21871809661388397,0.8902925848960876
1761469378202607600,3.232607666015625,-0.36812612414360046,-0.25354114174842834,0.8962165713310242
1761469378212590600,3.242590576171875,-0.3942682445049286,-0.33375394344329834,0.8533942699432373
1761469378222573800,3.25257373046875,-0.455066055059433,-0.38940295577049255,0.7680618762969971
1761469378232556800,3.262556884765625,-0.4806997776031494,-0.364973783493042,0.6442989110946655
1761469378242540800,3.272540771484375,-0.4616437554359436,-0.26869910955429077,0.5035412311553955
1761469378252523800,3.282523681640625,-0.4320368468761444,-0.1631481945514679,0.38194558024406433
1761469378262506800,3.2925068359375,-0.40654417872428894,-0.09349080920219421,0.2764507234096527
1761469378272490800,3.30249072265625,-0.3866040110588074,-0.06393904238939285,0.20384682714939117
1761469378282473700,3.3124736328125,-0.38664329051971436,-0.06321737170219421,0.17904970049858093
1761469378292456700,3.322456787109375,-0.39887306094169617,-0.06866486370563507,0.19034816324710846
1761469378302440700,3.332440673828125,-0.4096037447452545,-0.07902976870536804,0.24818623065948486
1761469378312423700,3.342423583984375,-0.4168352782726288,-0.0685664713382721,0.3498881161212921
1761469378322406700,3.35240673828125,-0.4104432761669159,-0.05095050111413002,0.4547821283340454
1761469378332391000,3.362390869140625,-0.40000608563423157,-0.017024224624037743,0.5503363609313965
1761469378342374000,3.372373779296875,-0.3825458586215973,0.0498870424926281,0.6198839545249939
1761469378352356600,3.382356689453125,-0.3560766875743866,0.10818283259868622,0.6708398461341858
1761469378362340600,3.392340576171875,-0.34587404131889343,0.15152448415756226,0.7030253410339355
1761469378372323800,3.40232373046875,-0.3272004723548889,0.154457688331604,0.7246145009994507
1761469378382306800,3.412306884765625,-0.3153616189956665,0.12787827849388123,0.7213801741600037
1761469378392289500,3.42228955078125,-0.2900876998901367,0.11859877407550812,0.7079943418502808
1761469378402273500,3.4322734375,-0.28366464376449585,0.11139346659183502,0.6742845773696899
1761469378412256800,3.4422568359375,-0.294295996427536,0.11282597482204437,0.604270875453949
1761469378422239700,3.45223974609375,-0.33601927757263184,0.10131804645061493,0.5000373125076294
1761469378432223700,3.4622236328125,-0.39789673686027527,0.023483971133828163,0.35981494188308716
1761469378442207000,3.47220703125,-0.4771799147129059,-0.051045820116996765,0.25085246562957764
1761469378452189700,3.482189697265625,-0.5809007287025452,-0.016463076695799828,0.152828186750412
1761469378462173700,3.492173583984375,-0.7044656276702881,0.13252393901348114,0.023320456966757774
1761469378472156700,3.50215673828125,-0.7963212132453918,0.32988440990448,-0.135357066988945
1761469378482140000,3.512139892578125,-0.8096449971199036,0.40751269459724426,-0.3041881024837494
1761469378492124000,3.5221240234375,-0.74878990650177,0.26215335726737976,-0.4093584716320038
1761469378502106600,3.532106689453125,-0.6372785568237305,-0.053749460726976395,-0.4265907108783722
1761469378512089900,3.54208984375,-0.4936313331127167,-0.31161776185035706,-0.36732685565948486
1761469378522072800,3.55207275390625,-0.37173259258270264,-0.3141203224658966,-0.2341586798429489
1761469378532056800,3.562056884765625,-0.2870965301990509,-0.061147190630435944,-0.07091622799634933
1761469378542039600,3.57203955078125,-0.19426655769348145,0.24749046564102173,0.07030980288982391
1761469378552022800,3.582022705078125,-0.10513481497764587,0.41588613390922546,0.1557629257440567
1761469378562006800,3.5920068359375,-0.0073510329239070415,0.4380653500556946,0.15005730092525482
1761469378571989800,3.60198974609375,0.07405035197734833,0.3826340436935425,0.08580108731985092
1761469378581972700,3.61197265625,0.17907769978046417,0.26832398772239685,0.019030282273888588
1761469378591956700,3.621956787109375,0.26640835404396057,0.13950130343437195,-0.028240825980901718
1761469378601939700,3.631939697265625,0.3415968418121338,0.030324872583150864,-0.05345083028078079
1761469378611922700,3.641922607421875,0.3929654657840729,-0.06663362681865692,-0.028111914172768593
1761469378621906700,3.65190673828125,0.41923004388809204,-0.17016112804412842,0.009061991237103939
1761469378631890000,3.661889892578125,0.4173804819583893,-0.25822973251342773,0.03667817264795303
1761469378641872600,3.67187255859375,0.38903796672821045,-0.29165005683898926,0.06567563861608505
1761469378651855600,3.681855712890625,0.36204203963279724,-0.29884833097457886,0.10232499986886978
1761469378661839600,3.691839599609375,0.33513525128364563,-0.30869993567466736,0.1367437243461609
1761469378671822800,3.70182275390625,0.312024861574173,-0.30172112584114075,0.15879736840724945
1761469378681805800,3.711805908203125,0.29254159331321716,-0.281831830739975,0.15189822018146515
1761469378691789600,3.72178955078125,0.2711188793182373,-0.2773553431034088,0.10392989963293076
1761469378701772800,3.731772705078125,0.24505729973316193,-0.27533408999443054,0.04196175932884216
1761469378711755800,3.741755859375,0.20742736756801605,-0.2646428346633911,-0.03142058104276657
1761469378721739800,3.75173974609375,0.16220156848430634,-0.23327036201953888,-0.10046360641717911
1761469378731722800,3.76172265625,0.11325586587190628,-0.1881612092256546,-0.1688953936100006
1761469378741705700,3.771705810546875,0.07732377201318741,-0.13658122718334198,-0.27522650361061096
1761469378751689700,3.781689697265625,0.05045913904905319,-0.098194420337677,-0.4135977029800415
1761469378761672700,3.791672607421875,0.0069539654068648815,-0.05027338117361069,-0.553270161151886
1761469378771655700,3.80165576171875,-0.014921506866812706,0.0644417479634285,-0.6499775052070618
1761469378781640000,3.811639892578125,-0.002169013489037752,0.26128724217414856,-0.6627423763275146
1761469378791622700,3.82162255859375,0.060226719826459885,0.4453667998313904,-0.6457780003547668
1761469378801605600,3.831605712890625,0.19560305774211884,0.4995691180229187,-0.6319687962532043
1761469378811588900,3.8415888671875,0.3673337996006012,0.4589463174343109,-0.5389246344566345
1761469378821572900,3.85157275390625,0.4859830439090729,0.27946144342422485,-0.44192078709602356
1761469378831555800,3.861555908203125,0.5732079744338989,0.10071462392807007,-0.42848753929138184
1761469378841538600,3.87153857421875,0.6561806797981262,0.04045543447136879,-0.4547920227050781
1761469378851522600,3.8815224609375,0.6637557744979858,-0.0014379506465047598,-0.5112062692642212
1761469378861505800,3.891505859375,0.5864514112472534,-0.052424538880586624,-0.48271578550338745
1761469378871488300,3.90148828125,0.46094387769699097,-0.13336226344108582,-0.3180873990058899
1761469378881472300,3.91147216796875,0.28874439001083374,-0.26652154326438904,0.08026976138353348
1761469378891455200,3.921455322265625,0.19922514259815216,-0.4324018657207489,0.6001566052436829
1761469378901438200,3.931438232421875,0.10165982693433762,-0.498096764087677,0.9501661658287048
1761469378911422200,3.941422119140625,0.03806673735380173,-0.47740986943244934,1.0399922132492065
1761469378921405400,3.951405517578125,-0.06303150951862335,-0.4150831699371338,0.9814336895942688
1761469378931388200,3.96138818359375,-0.11543985456228256,-0.3065601587295532,0.8925541639328003
1761469378941372200,3.9713720703125,-0.15325959026813507,-0.28800731897354126,0.8140817880630493
1761469378951355100,3.981355224609375,-0.21204620599746704,-0.4160827398300171,0.7370480298995972
1761469378961338400,3.99133837890625,-0.29210931062698364,-0.5549695491790771,0.6250208020210266
1761469378971321300,4.0013212890625,-0.3660320043563843,-0.6157721281051636,0.43970105051994324
1761469378981305300,4.011305419921875,-0.4146477282047272,-0.5331276059150696,0.23482516407966614
1761469378991288000,4.0212880859375,-0.42674753069877625,-0.40630999207496643,0.05098075419664383
1761469379001271300,4.031271240234375,-0.42153310775756836,-0.29102563858032227,-0.07915779203176498
1761469379011255300,4.04125537109375,-0.4148951768875122,-0.21936209499835968,-0.15276943147182465
1761469379021238300,4.05123828125,-0.4126873314380646,-0.15740904211997986,-0.17677545547485352
1761469379031221200,4.06122119140625,-0.387661337852478,-0.09585168957710266,-0.16778703033924103
1761469379041205200,4.071205322265625,-0.3516227602958679,-0.05975408852100372,-0.13179922103881836
1761469379051188200,4.081188232421875,-0.3150993585586548,-0.05246049165725708,-0.060858193784952164
1761469379061171200,4.091171142578125,-0.2868029475212097,-0.02191544882953167,0.02907569333910942
1761469379071155200,4.1011552734375,-0.25060632824897766,-0.02481110207736492,0.12484616041183472
1761469379081138200,4.11113818359375,-0.23233526945114136,-0.029558761045336723,0.2209307998418808
1761469379091121200,4.12112109375,-0.22963270545005798,-0.05097750201821327,0.2910321056842804
1761469379101105200,4.131105224609375,-0.23275023698806763,-0.08778601139783859,0.3396989703178406
1761469379111088400,4.14108837890625,-0.23845979571342468,-0.1340661644935608,0.3476511538028717
1761469379121071400,4.1510712890625,-0.24594958126544952,-0.15061619877815247,0.32536667585372925
1761469379131054000,4.16105419921875,-0.25098612904548645,-0.08769261837005615,0.2621877193450928
1761469379141038000,4.1710380859375,-0.24509640038013458,0.028926508501172066,0.16711224615573883
1761469379151021300,4.181021240234375,-0.24203962087631226,0.16376474499702454,0.05151613429188728
1761469379161004300,4.19100439453125,-0.22243541479110718,0.30687031149864197,-0.0720711499452591
1761469379170988300,4.20098828125,-0.20501567423343658,0.48033395409584045,-0.16982939839363098
1761469379180971300,4.21097119140625,-0.17673926055431366,0.5916712880134583,-0.2495361864566803
1761469379190954200,4.220954345703125,-0.10775060206651688,0.5499371886253357,-0.31914612650871277
1761469379200938200,4.230938232421875,-0.025831861421465874,0.38198205828666687,-0.34841278195381165
1761469379210921200,4.240921142578125,0.04578559845685959,0.20655538141727448,-0.3554688096046448
1761469379220904400,4.250904541015625,0.09678761661052704,0.1662365049123764,-0.40139254927635193
1761469379230888200,4.26088818359375,0.12448156625032425,0.14713764190673828,-0.4752976596355438
1761469379240871200,4.27087109375,0.12895816564559937,0.0771307721734047,-0.5349515676498413
1761469379250854100,4.280854248046875,0.11864907294511795,-0.04515945538878441,-0.5653188228607178
1761469379260837400,4.29083740234375,0.08127376437187195,-0.16466309130191803,-0.5490036606788635
1761469379270821400,4.3008212890625,0.06776461750268936,-0.25704601407051086,-0.4550230801105499
1761469379280804000,4.31080419921875,0.055894430726766586,-0.2023395597934723,-0.3012903034687042
1761469379290787300,4.320787353515625,-0.006861361209303141,-0.05657863989472389,-0.11247216165065765
1761469379300771300,4.330771240234375,-0.006543070077896118,0.06894202530384064,0.03882259875535965
1761469379310754300,4.34075439453125,0.0639132484793663,0.12220364809036255,0.08631927520036697
1761469379320737300,4.3507373046875,0.157451331615448,0.08740005642175674,0.03355232626199722
1761469379330721000,4.360720947265625,0.256637841463089,-0.05751851201057434,-0.05565344914793968
1761469379340704300,4.370704345703125,0.32277029752731323,-0.2378765493631363,-0.1315138041973114
1761469379350687200,4.380687255859375,0.3604505658149719,-0.35584554076194763,-0.1763254851102829
1761469379360671200,4.390671142578125,0.3817640542984009,-0.4333497881889343,-0.18339994549751282
1761469379370654500,4.400654541015625,0.39313599467277527,-0.4973790943622589,-0.17369486391544342
1761469379380637200,4.41063720703125,0.39004290103912354,-0.5363626480102539,-0.19033975899219513
1761469379390621200,4.42062109375,0.3538249731063843,-0.54561847448349,-0.2539416253566742
1761469379400604200,4.430604248046875,0.28912222385406494,-0.5609605312347412,-0.33171167969703674
1761469379410587400,4.44058740234375,0.21888719499111176,-0.5589458346366882,-0.38356447219848633
1761469379420570000,4.450570068359375,0.14987227320671082,-0.4969826936721802,-0.4208049774169922
1761469379430554000,4.46055419921875,0.10412529855966568,-0.3387871980667114,-0.4672643542289734
1761469379440537000,4.470537109375,0.06698863208293915,-0.18399810791015625,-0.5296840071678162
1761469379450520300,4.480520263671875,0.04598800465464592,-0.0852518305182457,-0.5897119641304016
1761469379460504300,4.49050439453125,0.04562824219465256,-0.08584999293088913,-0.6245042085647583
1761469379470487300,4.5004873046875,0.05934405326843262,-0.1386261284351349,-0.6296449303627014
1761469379480470300,4.51047021484375,0.08272607624530792,-0.17476068437099457,-0.6354929208755493
1761469379490454300,4.520454345703125,0.11304749548435211,-0.15222713351249695,-0.659271776676178
1761469379500437200,4.530437255859375,0.13597248494625092,-0.057005442678928375,-0.6815414428710938
1761469379510420200,4.540420166015625,0.14073501527309418,0.07415391504764557,-0.7322080731391907
1761469379520404200,4.550404296875,0.13704155385494232,0.19653166830539703,-0.7637214064598083
1761469379530387200,4.56038720703125,0.1332998126745224,0.26075777411460876,-0.7651110887527466
1761469379540370200,4.5703701171875,0.1454564332962036,0.17634961009025574,-0.7130187749862671
1761469379550354200,4.580354248046875,0.1584547907114029,0.046640895307064056,-0.6431707143783569
1761469379560337400,4.59033740234375,0.19687889516353607,0.05136388540267944,-0.6055634021759033
1761469379570323200,4.6003232421875,0.22327055037021637,0.28299206495285034,-0.5884742140769958
1761469379580306200,4.61030615234375,0.2325824350118637,0.5034218430519104,-0.641618549823761
1761469379590290400,4.62029052734375,0.2450910359621048,0.6771994829177856,-0.7268591523170471
1761469379600273200,4.630273193359375,0.3166625499725342,0.6563209891319275,-0.8124254941940308
1761469379610256100,4.640256103515625,0.4091149866580963,0.4616420567035675,-0.8291078209877014
1761469379620239400,4.6502392578125,0.43492192029953003,0.20603419840335846,-0.7657752633094788
1761469379630223400,4.660223388671875,0.37838220596313477,-0.03747006878256798,-0.6290179491043091
1761469379640206300,4.670206298828125,0.23988541960716248,-0.29396089911460876,-0.43281325697898865
1761469379650189000,4.68018896484375,0.08385535329580307,-0.5562913417816162,-0.2096470296382904
1761469379660173000,4.690173095703125,-0.04004967585206032,-0.7214961647987366,-0.008734316565096378
1761469379670156300,4.70015625,-0.1366521120071411,-0.818138837814331,0.19316525757312775
1761469379680139300,4.71013916015625,-0.22707247734069824,-1.0903793573379517,0.49826881289482117
1761469379690123300,4.720123291015625,-0.20591473579406738,-1.0390563011169434,0.5452994704246521
1761469379700106200,4.730106201171875,-0.21568115055561066,-0.8764270544052124,0.5317710041999817
1761469379710089200,4.740089111328125,-0.22525547444820404,-0.7137454748153687,0.48108839988708496
1761469379720073200,4.7500732421875,-0.2210831195116043,-0.5704331994056702,0.3798651099205017
1761469379730056200,4.76005615234375,-0.2130259871482849,-0.4377582371234894,0.26622989773750305
1761469379740039400,4.770039306640625,-0.17709724605083466,-0.32761508226394653,0.1344761848449707
1761469379750022100,4.780022216796875,-0.1534675508737564,-0.21238328516483307,0.009149964898824692
1761469379760006100,4.790006103515625,-0.16644854843616486,-0.14802531898021698,-0.12292519956827164
1761469379769989400,4.7999892578125,-0.2153681516647339,-0.22195014357566833,-0.23351030051708221
1761469379779972400,4.809972412109375,-0.2490970641374588,-0.3627983331680298,-0.2854590117931366
1761469379789956400,4.819956298828125,-0.2093414068222046,-0.5172755122184753,-0.2704941928386688
1761469379799939000,4.82993896484375,-0.1278127282857895,-0.5766214728355408,-0.23478840291500092
1761469379809922300,4.83992236328125,-0.033072903752326965,-0.5675172209739685,-0.21708209812641144
1761469379819906300,4.84990625,0.06158743053674698,-0.5599830746650696,-0.21801063418388367
1761469379829889300,4.85988916015625,0.16845208406448364,-0.6300678849220276,-0.2168433666229248
1761469379839872300,4.869872314453125,0.2531209886074066,-0.7625360488891602,-0.2407408207654953
1761469379849856300,4.879856201171875,0.32572221755981445,-0.9036310911178589,-0.12494337558746338
1761469379859839200,4.889839111328125,0.3851407766342163,-1.065190076828003,-0.002266577910631895
1761469379869825300,4.8998251953125,0.39063727855682373,-1.255199670791626,0.10446546226739883
1761469379879809000,4.90980908203125,0.3587173819541931,-1.4668729305267334,0.1710151880979538
1761469379889792300,4.919792236328125,0.2933884263038635,-1.6705965995788574,0.23849515616893768
1761469379899775200,4.929775146484375,0.20139025151729584,-1.8348013162612915,0.3275170624256134
1761469379909758200,4.93975830078125,0.10654708743095398,-1.8982007503509521,0.3885852098464966
1761469379919742500,4.949742431640625,0.036341592669487,-1.8520159721374512,0.35966405272483826
1761469379929725200,4.95972509765625,-0.008588067255914211,-1.7140107154846191,0.2139449268579483
1761469379939708200,4.969708251953125,-0.02621230110526085,-1.5166738033294678,-0.024894461035728455
1761469379949692200,4.979692138671875,-0.06477700918912888,-1.35638427734375,-0.33149009943008423
1761469379959675400,4.98967529296875,-0.12793461978435516,-1.3474397659301758,-0.6081905961036682
1761469379969658000,4.999658203125,-0.2018890082836151,-1.5402065515518188,-0.8016106486320496
1761469379979642000,5.00964208984375,-0.28222376108169556,-1.8713194131851196,-1.1083744764328003
1761469379989625000,5.019625,-0.3234982192516327,-2.2402749061584473,-1.1964633464813232
1761469379999608300,5.0296083984375,-0.32340651750564575,-2.5246028900146484,-1.0394690036773682
1761469380009592300,5.03959228515625,-0.2747441530227661,-2.4704372882843018,-0.8537406325340271
1761469380019575300,5.0495751953125,-0.2357577085494995,-2.1436352729797363,-0.6040621399879456
1761469380029558300,5.059558349609375,-0.16103339195251465,-1.7213644981384277,-0.35647180676460266
1761469380039541200,5.069541259765625,-0.08425260335206985,-1.319998025894165,-0.19427785277366638
1761469380049525200,5.079525146484375,0.009571630507707596,-1.006122350692749,-0.04715898260474205
1761469380059508200,5.08950830078125,0.06678888946771622,-0.6324743032455444,0.04344741255044937
1761469380069491200,5.0994912109375,0.16618764400482178,-0.23340734839439392,0.10092294961214066
1761469380079475200,5.10947509765625,0.2450127750635147,0.06578406691551208,0.23183417320251465
1761469380089458200,5.119458251953125,0.290477991104126,0.18794432282447815,0.33740800619125366
1761469380099441400,5.12944140625,0.25334036350250244,0.17932267487049103,0.4073936939239502
1761469380109425400,5.13942529296875,0.17114990949630737,0.09484134614467621,0.47464704513549805
1761469380119408000,5.149408203125,0.08473598212003708,-0.03189603239297867,0.5250856876373291
1761469380129391000,5.15939111328125,0.004143399652093649,-0.12148530781269073,0.5264159440994263
1761469380139375000,5.169375,-0.05113251134753227,-0.18514904379844666,0.4792528748512268
1761469380149358300,5.1793583984375,-0.051445432007312775,-0.21363767981529236,0.4021191895008087
1761469380159341300,5.18934130859375,0.03109266795217991,-0.2099744826555252,0.3230753540992737
1761469380169325300,5.1993251953125,0.13269013166427612,-0.15329709649085999,0.24097248911857605
1761469380179308300,5.209308349609375,0.23198330402374268,-0.024733830243349075,0.16383306682109833
1761469380189291300,5.219291259765625,0.3208218216896057,0.17948482930660248,0.12894299626350403
1761469380199274200,5.229274169921875,0.367005854845047,0.43695178627967834,0.08009608834981918
1761469380209258200,5.23925830078125,0.37320274114608765,0.6975130438804626,0.0027544344775378704
1761469380219241200,5.2492412109375,0.37120380997657776,0.8657752871513367,-0.12753747403621674
1761469380229224200,5.25922412109375,0.34247201681137085,0.9328193068504333,-0.2788771986961365
1761469380239208200,5.269208251953125,0.3010788857936859,0.8413597345352173,-0.4230896234512329
1761469380249191200,5.279191162109375,0.24555116891860962,0.6549373865127563,-0.5243701934814453
1761469380259174400,5.28917431640625,0.20035681128501892,0.4726603031158447,-0.5827888250350952
1761469380269158400,5.299158447265625,0.17922835052013397,0.3545355200767517,-0.6221708655357361
1761469380279141000,5.30914111328125,0.16359013319015503,0.3001948297023773,-0.6311098337173462
1761469380289124400,5.319124267578125,0.14759410917758942,0.3411997854709625,-0.6245041489601135
1761469380299108400,5.3291083984375,0.1355394423007965,0.47487518191337585,-0.6325499415397644
1761469380309091300,5.33909130859375,0.15177486836910248,0.54654860496521,-0.6684775352478027
1761469380319074000,5.349073974609375,0.1514236330986023,0.48992785811424255,-0.7451761364936829
1761469380329058000,5.35905810546875,0.13650725781917572,0.3866504728794098,-0.8403040170669556
1761469380339041300,5.369041259765625,0.12391865998506546,0.2764297425746918,-0.9142746329307556
1761469380349024300,5.379024169921875,0.09828866273164749,0.16764894127845764,-0.971625566482544
1761469380359007200,5.38900732421875,0.07274840772151947,-0.004077162593603134,-0.9443747401237488
1761469380368991200,5.3989912109375,0.06125074625015259,-0.2888883948326111,-0.756672203540802
1761469380378974200,5.40897412109375,0.03797090798616409,-0.5871388912200928,-0.4581455588340759
1761469380388957200,5.418957275390625,0.007999690249562263,-0.8118159174919128,-0.14067305624485016
1761469380398941200,5.428941162109375,-0.024409525096416473,-0.8828256130218506,0.1028396412730217
1761469380408924400,5.43892431640625,-0.07837022840976715,-0.8143030405044556,0.22980691492557526
1761469380418907100,5.4489072265625,-0.13589206337928772,-0.648250937461853,0.26662302017211914
1761469380428891100,5.45889111328125,-0.18772943317890167,-0.46515515446662903,0.28370213508605957
1761469380438874400,5.468874267578125,-0.22336196899414062,-0.282981812953949,0.25914427638053894
1761469380448857300,5.478857421875,-0.24855895340442657,-0.15538445115089417,0.18903976678848267
1761469380458841300,5.48884130859375,-0.2540150582790375,-0.07096923887729645,0.10698238015174866
1761469380468824000,5.498823974609375,-0.2513292729854584,-0.008787352591753006,0.03552443906664848
1761469380478807300,5.508807373046875,-0.2542344927787781,0.0036522725131362677,0.0057846549898386
1761469380488791300,5.518791259765625,-0.26272812485694885,-0.04310538247227669,-0.006498110480606556
1761469380498774300,5.528774169921875,-0.2662459909915924,-0.11932870000600815,0.008788887411355972
1761469380508757200,5.53875732421875,-0.24001356959342957,-0.19747835397720337,0.04608086496591568
1761469380518740200,5.548740234375,-0.20063044130802155,-0.274320513010025,0.09719015657901764
1761469380528724200,5.55872412109375,-0.15534764528274536,-0.3275722861289978,0.14747995138168335
1761469380538707200,5.568707275390625,-0.10490844398736954,-0.3564976751804352,0.18336765468120575
1761469380548690400,5.5786904296875,-0.06373703479766846,-0.36006417870521545,0.19461818039417267
1761469380558674400,5.58867431640625,-0.0314374677836895,-0.3698844611644745,0.1837732195854187
1761469380568657200,5.5986572265625,-0.007475676015019417,-0.391177237033844,0.17612409591674805
1761469380578640100,5.60864013671875,-0.007896320894360542,-0.4320182204246521,0.18319649994373322
1761469380588624100,5.6186240234375,-0.031639464199543,-0.4798358082771301,0.20718972384929657
1761469380598607400,5.628607421875,-0.07672233879566193,-0.5297300219535828,0.24211692810058594
1761469380608590000,5.638590087890625,-0.12826302647590637,-0.5786104798316956,0.279315710067749
1761469380618574000,5.648573974609375,-0.17008422315120697,-0.6306197643280029,0.30983003973960876
1761469380628557300,5.658557373046875,-0.1968577802181244,-0.6750146150588989,0.3139009475708008
1761469380638540300,5.668540283203125,-0.19428253173828125,-0.7150145769119263,0.2837856113910675
1761469380648523300,5.678523193359375,-0.16548283398151398,-0.7855384945869446,0.22066815197467804
1761469380658507300,5.68850732421875,-0.11554265767335892,-0.8806824684143066,0.13943111896514893
1761469380668490200,5.698490234375,-0.053318701684474945,-1.0079152584075928,0.04245024546980858
1761469380678473200,5.70847314453125,0.0003883722238242626,-1.2078033685684204,-0.058604270219802856
1761469380688457200,5.718457275390625,0.01585201546549797,-1.513588786125183,-0.14836689829826355
1761469380698440200,5.728440185546875,-0.005499683320522308,-1.8546091318130493,-0.21443422138690948
1761469380708423200,5.738423095703125,-0.06330439448356628,-2.0688629150390625,-0.20065423846244812
1761469380718407200,5.7484072265625,-0.10753041505813599,-2.0492453575134277,-0.14137937128543854
1761469380728390100,5.75839013671875,-0.12574510276317596,-1.6853843927383423,-0.08510438352823257
1761469380738373400,5.768373291015625,-0.11363668739795685,-1.1987249851226807,0.10036837309598923
1761469380748357400,5.778357421875,-0.08782213181257248,-0.664081335067749,0.1186954453587532
1761469380758340400,5.78834033203125,-0.044323310256004333,-0.11650913953781128,0.08638209104537964
1761469380768323000,5.798322998046875,0.013248908333480358,0.3865726590156555,0.08141209930181503
1761469380778307000,5.80830712890625,0.056199535727500916,0.948270320892334,0.07711554318666458
1761469380788290300,5.818290283203125,0.08266975730657578,1.604216456413269,0.019205641001462936
1761469380798273300,5.828273193359375,0.06136199086904526,2.175753593444824,-0.0641426220536232
1761469380808256300,5.83825634765625,0.008791987784206867,2.497161626815796,-0.1418243646621704
1761469380818240300,5.848240234375,-0.058368947356939316,2.518155813217163,-0.1540847271680832
1761469380828223200,5.85822314453125,-0.10914824157953262,2.3129401206970215,-0.0758381262421608
1761469380838206200,5.868206298828125,-0.07480774819850922,2.0199520587921143,0.07280495017766953
1761469380848190200,5.878190185546875,0.018533116206526756,1.7503907680511475,0.25011688470840454
1761469380858173200,5.888173095703125,0.11287253350019455,1.5764915943145752,0.37138834595680237
1761469380868153300,5.8981533203125,0.16472826898097992,1.5115333795547485,0.4138875901699066
1761469380878137300,5.908137451171875,0.1683984100818634,1.5557453632354736,0.3878864049911499
1761469380888120300,5.918120361328125,0.13734833896160126,1.69596266746521,0.3301248550415039
1761469380898103600,5.928103515625,0.08256421238183975,1.8932311534881592,0.2564689517021179
1761469380908087300,5.93808740234375,0.014985435642302036,2.1341545581817627,0.1422387808561325
1761469380918070300,5.9480703125,-0.04924970120191574,2.3448660373687744,-0.01217576488852501
1761469380928053500,5.958053466796875,-0.12514767050743103,2.409700393676758,-0.2313603162765503
1761469380938037500,5.96803759765625,-0.20822793245315552,2.309701681137085,-0.43481841683387756
1761469380948020500,5.9780205078125,-0.25084519386291504,2.0851926803588867,-0.5249365568161011
1761469380958003200,5.988003173828125,-0.22862668335437775,1.7812514305114746,-0.4759085774421692
1761469380967986400,5.997986328125,-0.20330341160297394,1.538492202758789,-0.3228614032268524
1761469380977970400,6.007970458984375,-0.1450454294681549,1.4701181650161743,-0.1634823977947235
1761469380987953400,6.017953369140625,-0.09391486644744873,1.5512479543685913,-0.05596313253045082
1761469380997936400,6.027936279296875,-0.061202727258205414,1.6195642948150635,-0.049394190311431885
1761469381007920400,6.03792041015625,-0.061545468866825104,1.6345852613449097,-0.18537147343158722
1761469381017903400,6.0479033203125,-0.11936234682798386,1.552242636680603,-0.41571617126464844
1761469381027886300,6.05788623046875,-0.20829647779464722,1.30657958984375,-0.6593198180198669
1761469381037870300,6.067870361328125,-0.30218902230262756,1.030951976776123,-0.7819790244102478
1761469381047853600,6.077853515625,-0.3272392451763153,0.8649824857711792,-0.7995737195014954
1761469381057836300,6.087836181640625,-0.2596035897731781,0.7555068135261536,-0.7564950585365295
1761469381067820300,6.0978203125,-0.05534687265753746,0.5716733336448669,-0.6269988417625427
1761469381077803300,6.10780322265625,0.21218904852867126,0.24692068994045258,-0.4312654733657837
1761469381087786500,6.117786376953125,0.511923611164093,-0.09616103768348694,-0.22547024488449097
1761469381097769200,6.127769287109375,0.7370597124099731,-0.41490840911865234,-0.07658173888921738
1761469381107753200,6.137753173828125,0.8067631721496582,-0.6687979698181152,0.017519984394311905
1761469381117736400,6.147736328125,0.756354033946991,-0.8376289010047913,0.0740642100572586
1761469381127719400,6.157719482421875,0.590863049030304,-1.0385336875915527,0.1654934585094452
1761469381137703400,6.167703369140625,0.38578879833221436,-1.2578189373016357,0.24826936423778534
1761469381147686400,6.177686279296875,0.2037729173898697,-1.2963711023330688,0.3050532937049866
1761469381157669400,6.18766943359375,0.05395777150988579,-1.0384398698806763,0.3662942051887512
1761469381167653400,6.1976533203125,-0.03799505531787872,-0.605289876461029,0.39831340312957764
1761469381177636400,6.20763623046875,-0.11469435691833496,-0.1714918166399002,0.3950904309749603
1761469381187619300,6.217619384765625,-0.1750788688659668,0.17812903225421906,0.36719009280204773
1761469381197603600,6.227603515625,-0.24192436039447784,0.4228195548057556,0.35558363795280457
1761469381207586300,6.23758642578125,-0.30373549461364746,0.5245541930198669,0.3738822042942047
1761469381217569300,6.2475693359375,-0.3723229169845581,0.5020498633384705,0.3832172751426697
1761469381227553300,6.25755322265625,-0.42125555872917175,0.42694157361984253,0.3585401475429535
1761469381237536500,6.26753662109375,-0.40739715099334717,0.3555028736591339,0.30185890197753906
1761469381247519200,6.277519287109375,-0.34833863377571106,0.3028271496295929,0.2614307999610901
1761469381257502200,6.287502197265625,-0.284457802772522,0.25015679001808167,0.25420090556144714
1761469381267486200,6.297486328125,-0.23072828352451324,0.23119109869003296,0.3267153203487396
1761469381277469400,6.307469482421875,-0.1898353546857834,0.28649550676345825,0.47530436515808105
1761469381287452400,6.317452392578125,-0.15454287827014923,0.37186846137046814,0.6537153720855713
1761469381297436400,6.3274365234375,-0.13143840432167053,0.40484824776649475,0.7897655963897705
1761469381307419400,6.33741943359375,-0.12511871755123138,0.34748324751853943,0.8609044551849365
1761469381317402400,6.34740234375,-0.16153864562511444,0.20654532313346863,0.878820538520813
1761469381327386400,6.357386474609375,-0.19990894198417664,-0.019798867404460907,0.8651204109191895
1761469381337369300,6.367369384765625,-0.23806039988994598,-0.2744547128677368,0.8357748985290527
1761469381347352300,6.377352294921875,-0.2827724814414978,-0.47216033935546875,0.7948463559150696
1761469381357336300,6.38733642578125,-0.3566987216472626,-0.603835940361023,0.7438191771507263
1761469381367319300,6.3973193359375,-0.4442107379436493,-0.692452609539032,0.6791022419929504
1761469381377302500,6.407302490234375,-0.5622256398200989,-0.7650630474090576,0.6309778690338135
1761469381387285500,6.417285400390625,-0.6723782420158386,-0.7972750663757324,0.6101604700088501
1761469381397269500,6.42726953125,-0.7514370679855347,-0.8033600449562073,0.5802756547927856
1761469381407252200,6.437252197265625,-0.7579551339149475,-0.7952256798744202,0.5460913181304932
1761469381417235500,6.4472353515625,-0.7028864622116089,-0.7672855257987976,0.45062029361724854
1761469381427219500,6.457219482421875,-0.5804604291915894,-0.6857312917709351,0.30563461780548096
1761469381437202400,6.467202392578125,-0.4269121289253235,-0.686038076877594,0.13353902101516724
1761469381447185200,6.47718505859375,-0.2595657408237457,-0.8400558829307556,0.016132226213812828
1761469381457169400,6.48716943359375,-0.09624336659908295,-1.0764809846878052,-0.028186706826090813
1761469381467152400,6.49715234375,0.039524856954813004,-1.365411400794983,-0.0005561448633670807
1761469381477135400,6.50713525390625,0.09916040301322937,-1.7450108528137207,0.0318448431789875
1761469381487119400,6.517119384765625,0.08628055453300476,-2.1136817932128906,0.008471344597637653
1761469381497102300,6.527102294921875,0.03820636868476868,-2.224865198135376,-0.1033322811126709
1761469381507085300,6.537085205078125,-0.027409125119447708,-1.8578836917877197,-0.25632184743881226
1761469381517068300,6.547068359375,-0.1863548308610916,-1.067335605621338,-0.40139541029930115
1761469381527052300,6.55705224609375,-0.3610142469406128,-0.08270154893398285,-0.3962288796901703
1761469381537035500,6.567035400390625,-0.4473399519920349,0.9402972459793091,-0.15566915273666382
1761469381547018200,6.577018310546875,-0.41723665595054626,1.7339626550674438,0.1007985845208168
1761469381557002200,6.587002197265625,-0.3008182644844055,2.0563418865203857,0.14222820103168488
1761469381566985500,6.5969853515625,-0.11642768234014511,1.9614373445510864,0.04711074382066727
1761469381576968400,6.606968505859375,0.10550655424594879,1.4674807786941528,-0.053681470453739166
1761469381586952400,6.616952392578125,0.27203747630119324,0.5855969786643982,-0.16854068636894226
1761469381596935200,6.62693505859375,0.3215276300907135,-0.35285574197769165,-0.2533840239048004
1761469381606918400,6.63691845703125,0.3120933771133423,-0.9686416983604431,-0.307365745306015
1761469381616902400,6.64690234375,0.29142332077026367,-1.2393726110458374,-0.3710266947746277
1761469381626885400,6.656885498046875,0.2613375782966614,-1.2651008367538452,-0.445233017206192
1761469381636868400,6.666868408203125,0.2117592692375183,-1.0383318662643433,-0.5173771977424622
1761469381646852400,6.676852294921875,0.16583597660064697,-0.6384116411209106,-0.5903760194778442
1761469381656835300,6.68683544921875,0.14286091923713684,-0.21617436408996582,-0.622101366519928
1761469381666818300,6.696818359375,0.14077673852443695,0.08021362125873566,-0.5874723196029663
1761469381676801500,6.706801513671875,0.15023201704025269,0.2299456000328064,-0.5075625777244568
1761469381686785500,6.71678564453125,0.16856122016906738,0.32668760418891907,-0.4380881190299988
1761469381696768300,6.726768310546875,0.20143449306488037,0.3139971196651459,-0.39428767561912537
1761469381706751200,6.736751220703125,0.24406664073467255,0.1481788456439972,-0.36237794160842896
1761469381716735500,6.746735595703125,0.2847515940666199,-0.053632527589797974,-0.3473024368286133
1761469381726718500,6.756718505859375,0.2843835651874542,-0.18519480526447296,-0.3186012804508209
1761469381736701400,6.766701416015625,0.2344769537448883,-0.2531801164150238,-0.3124164640903473
1761469381746685200,6.776685302734375,0.13911129534244537,-0.33304324746131897,-0.3430822193622589
1761469381756668400,6.78666845703125,0.02550465054810047,-0.5250551104545593,-0.397838294506073
1761469381766651400,6.7966513671875,-0.0801679790019989,-0.8300858736038208,-0.4346735179424286
1761469381776635400,6.806635498046875,-0.12911079823970795,-1.1971381902694702,-0.4738670289516449
1761469381786618400,6.816618408203125,-0.10840366035699844,-1.5251059532165527,-0.4786956012248993
1761469381796601300,6.826601318359375,0.01150304451584816,-1.6261895895004272,-0.4011337459087372
1761469381806584300,6.836584228515625,0.2208581268787384,-1.4185850620269775,-0.305695116519928
1761469381816568300,6.846568359375,0.4879821240901947,-0.9262509942054749,-0.22584478557109833
1761469381826551600,6.856551513671875,0.7269177436828613,-0.5046680569648743,-0.20032797753810883
1761469381836534300,6.8665341796875,0.8260738253593445,-0.37197569012641907,-0.24786417186260223
1761469381846518300,6.876518310546875,0.7736876010894775,-0.45865628123283386,-0.34060582518577576
1761469381856501200,6.886501220703125,0.5902026891708374,-0.6299727559089661,-0.46040472388267517
1761469381866484500,6.896484375,0.3332081437110901,-0.8220905065536499,-0.5006285905838013
1761469381876468500,6.906468505859375,0.12419579923152924,-0.9099650382995605,-0.42008790373802185
1761469381886451500,6.916451416015625,0.013545453548431396,-0.8385462164878845,-0.2487129420042038
1761469381896434400,6.926434326171875,0.020535320043563843,-0.6045681238174438,0.014548898674547672
1761469381906418400,6.93641845703125,0.15554852783679962,-0.19123436510562897,0.2710112929344177
1761469381916401400,6.9464013671875,0.31917616724967957,0.2768397927284241,0.4438444674015045
1761469381926384400,6.95638427734375,0.4163500964641571,0.6906050443649292,0.5154328346252441
1761469381936368400,6.966368408203125,0.4178370535373688,0.9371874332427979,0.4794238209724426
1761469381946351400,6.976351318359375,0.3497682809829712,1.0386993885040283,0.36521655321121216
1761469381956334300,6.986334228515625,0.2574850916862488,1.080200433731079,0.2437453418970108
1761469381966317300,6.9963173828125,0.18286702036857605,1.0795702934265137,0.1723260134458542
1761469381976301300,7.00630126953125,0.1396447867155075,1.0623277425765991,0.1682608723640442
1761469381986284300,7.0162841796875,0.14839380979537964,1.0084476470947266,0.1937718242406845
1761469381996267300,7.026267333984375,0.17122256755828857,0.8903396725654602,0.205455482006073
1761469382006251300,7.036251220703125,0.1915544718503952,0.6535670757293701,0.19276098906993866
1761469382016234500,7.046234375,0.21642151474952698,0.2999594807624817,0.17510877549648285
1761469382026217500,7.056217529296875,0.24921035766601562,-0.05085419490933418,0.19222517311573029
1761469382036201500,7.066201416015625,0.28414422273635864,-0.3312779664993286,0.23719468712806702
1761469382046184200,7.07618408203125,0.29423972964286804,-0.5383861064910889,0.2736765146255493
1761469382056167400,7.08616748046875,0.2576845586299896,-0.6812790036201477,0.2727961540222168
1761469382066151400,7.0961513671875,0.19388212263584137,-0.7659065127372742,0.2539689242839813
1761469382076134400,7.106134521484375,0.09887707978487015,-0.8043811917304993,0.21618464589118958
1761469382086117400,7.116117431640625,-0.0058229658752679825,-0.8622666001319885,0.1677505373954773
1761469382096100400,7.126100341796875,-0.10911308228969574,-0.9490740299224854,0.12703587114810944
1761469382106084400,7.13608447265625,-0.20609980821609497,-1.0444719791412354,0.09125524014234543
1761469382116067300,7.1460673828125,-0.2581315338611603,-1.1547197103500366,0.03480613976716995
1761469382126050600,7.156050537109375,-0.26101255416870117,-1.2656049728393555,-0.04717607796192169
1761469382136034600,7.16603466796875,-0.22333748638629913,-1.336338996887207,-0.15154682099819183
1761469382146017300,7.176017333984375,-0.15952014923095703,-1.2996631860733032,-0.2893531322479248
1761469382156000300,7.186000244140625,-0.09688135981559753,-1.181316614151001,-0.41870325803756714
1761469382165984500,7.195984619140625,-0.09585470706224442,-1.0714396238327026,-0.5134508013725281
1761469382175967500,7.205967529296875,-0.1610826700925827,-1.0340633392333984,-0.5613027215003967
1761469382185950200,7.2159501953125,-0.25622302293777466,-1.034759521484375,-0.5526122450828552
1761469382195934200,7.225934326171875,-0.31925997138023376,-1.0073939561843872,-0.48505014181137085
1761469382205917400,7.23591748046875,-0.3275567889213562,-0.9005128145217896,-0.3835970163345337
1761469382215900400,7.245900390625,-0.25780805945396423,-0.6139522790908813,-0.28975847363471985
1761469382225884400,7.255884521484375,-0.13838711380958557,-0.13216513395309448,-0.2364576905965805
1761469382235867100,7.2658671875,-0.012426929548382759,0.4278135597705841,-0.20095469057559967
1761469382245850400,7.275850341796875,0.08337309956550598,0.9546363353729248,-0.18174691498279572
1761469382255834400,7.28583447265625,0.11092490702867508,1.377537488937378,-0.16887544095516205
1761469382265817300,7.2958173828125,0.08951708674430847,1.6797417402267456,-0.1324031949043274
1761469382275800600,7.305800537109375,0.061559367924928665,1.7909810543060303,-0.056925393640995026
1761469382285783300,7.315783203125,0.05770337954163551,1.64352548122406,0.06081268936395645
1761469382295767300,7.325767333984375,0.09297773987054825,1.2638065814971924,0.19206580519676208
1761469382305750300,7.335750244140625,0.16158662736415863,0.7547805905342102,0.34154877066612244
1761469382315733500,7.3457333984375,0.24991746246814728,0.27647507190704346,0.4805760681629181
1761469382325717500,7.355717529296875,0.31110623478889465,-0.047923773527145386,0.544878363609314
1761469382335700200,7.3657001953125,0.3364156484603882,-0.1801467388868332,0.490178644657135
1761469382345683500,7.375683349609375,0.3174174427986145,-0.11320580542087555,0.36854010820388794
1761469382355667500,7.38566748046875,0.27920934557914734,0.07767491787672043,0.2340015023946762
1761469382365650400,7.395650390625,0.21593238413333893,0.3094218671321869,0.11731083691120148
1761469382375633400,7.40563330078125,0.1529138684272766,0.5701475739479065,0.023394573479890823
1761469382385617200,7.4156171875,0.10991234332323074,0.8043030500411987,-0.03602747619152069
1761469382395600400,7.425600341796875,0.08453091233968735,0.9454200267791748,-0.04753279685974121
1761469382405583400,7.435583251953125,0.06187540292739868,0.9694973826408386,-0.02015337161719799
1761469382415567400,7.4455673828125,0.04459116607904434,0.9298696517944336,0.0446368046104908
1761469382425550300,7.45555029296875,0.0664336159825325,0.9734402894973755,0.25297990441322327
1761469382435533300,7.465533203125,0.15073390305042267,0.9407275319099426,0.48396944999694824
1761469382445516300,7.475516357421875,0.10008110851049423,0.6987774968147278,0.3308241069316864
1761469382455500300,7.485500244140625,0.12310612946748734,0.2814820408821106,0.12204015254974365
1761469382465483500,7.4954833984375,0.18661533296108246,-0.04955955222249031,0.016213858500123024
1761469382475466200,7.50546630859375,0.20677323639392853,-0.3646208643913269,-0.11719914525747299
1761469382485450200,7.5154501953125,0.20617109537124634,-0.524059534072876,-0.22684015333652496
1761469382495433200,7.52543310546875,0.20720361173152924,-0.5517078042030334,-0.31255510449409485
1761469382505416400,7.53541650390625,0.20616258680820465,-0.5599188804626465,-0.3779224157333374
1761469382515400400,7.545400390625,0.22862999141216278,-0.5746059417724609,-0.3845084607601166
