time,seconds_elapsed,z,y,x
1761469358725761800,0.12276171875,0.32278069853782654,0.7052485346794128,-0.5876352787017822
1761469358735745800,0.132745849609375,0.3409985899925232,0.7740647792816162,-0.5624191761016846
1761469358745728800,0.142728759765625,0.4172219932079315,0.6876198649406433,-0.5102100372314453
1761469358755711700,0.152711669921875,0.48824870586395264,0.5693543553352356,-0.423923134803772
1761469358765695000,0.162695068359375,0.5576589107513428,0.47815999388694763,-0.36093005537986755
1761469358775679000,0.172678955078125,0.6077559590339661,0.37882477045059204,-0.34684374928474426
1761469358785662000,0.182661865234375,0.6220456957817078,0.24092736840248108,-0.3066079318523407
1761469358795644700,0.192644775390625,0.6262133121490479,0.05122365057468414,-0.20502562820911407
1761469358805628700,0.202628662109375,0.5959550142288208,-0.19109177589416504,-0.05018652230501175
1761469358815612000,0.21261181640625,0.5352180004119873,-0.42569440603256226,0.1212061271071434
1761469358825595000,0.222594970703125,0.47887587547302246,-0.5677573084831238,0.2648168206214905
1761469358835579000,0.232578857421875,0.45181968808174133,-0.6625855565071106,0.36372703313827515
1761469358845561900,0.242561767578125,0.4345727860927582,-0.7464298605918884,0.41805577278137207
1761469358855545000,0.252545166015625,0.38358190655708313,-0.8317908644676208,0.4272875487804413
1761469358865528000,0.262528076171875,0.24853992462158203,-0.8489102125167847,0.3722762167453766
1761469358875512000,0.272511962890625,0.03886694833636284,-0.7304674386978149,0.27785524725914
1761469358885495300,0.282495361328125,-0.18979471921920776,-0.5150403380393982,0.15306484699249268
1761469358895478000,0.29247802734375,-0.3918781280517578,-0.24667854607105255,0.0356462337076664
1761469358905462000,0.3024619140625,-0.5529040098190308,0.04317377507686615,-0.05978308245539665
1761469358915445000,0.312445068359375,-0.7088428735733032,0.3332434892654419,-0.11192329972982407
1761469358925428200,0.32242822265625,-0.7944424748420715,0.6194251775741577,-0.11955592036247253
1761469358935411000,0.332410888671875,-0.852101743221283,0.8812954425811768,-0.09223004430532455
1761469358945395000,0.34239501953125,-0.8759253025054932,1.0825432538986206,-0.008935692720115185
1761469358955378200,0.352378173828125,-0.8584567308425903,1.163999319076538,0.034833766520023346
1761469358965361200,0.362361083984375,-0.8025822639465332,1.07277250289917,0.09564465284347534
1761469358975345200,0.37234521484375,-0.702147364616394,0.8989696502685547,0.19384776055812836
1761469358985328000,0.382328125,-0.5627524852752686,0.5626962780952454,0.31838729977607727
1761469358995311000,0.39231103515625,-0.4337618350982666,0.09806596487760544,0.45606279373168945
1761469359005294000,0.402294189453125,-0.3519822955131531,-0.2859986126422882,0.5042414665222168
1761469359015278000,0.412278076171875,-0.33442509174346924,-0.46962618827819824,0.5478854179382324
1761469359025261000,0.422260986328125,-0.3084677755832672,-0.5441856980323792,0.6157203912734985
1761469359035244000,0.432244140625,-0.27820831537246704,-0.5371924042701721,0.692314863204956
1761469359045228000,0.44222802734375,-0.22029630839824677,-0.4740970730781555,0.7368572950363159
1761469359055211000,0.4522109375,-0.135320782661438,-0.30050429701805115,0.7666284441947937
1761469359065194200,0.4621943359375,-0.04879041761159897,0.006459892261773348,0.7852638959884644
1761469359075177200,0.47217724609375,0.03241690620779991,0.47342416644096375,0.7486082911491394
1761469359085161000,0.482160888671875,0.06233086436986923,1.0039764642715454,0.6185315251350403
1761469359095144000,0.49214404296875,0.034304823726415634,1.3743653297424316,0.3696974217891693
1761469359105127200,0.502127197265625,0.006785847712308168,1.1288679838180542,0.06711491197347641
1761469359115111200,0.512111083984375,0.05330852419137955,0.4777539372444153,-0.20705708861351013
1761469359125094100,0.52209423828125,0.03546401113271713,-0.08874303847551346,-0.29995909333229065
1761469359135077000,0.5320771484375,-0.02714170701801777,-0.23651084303855896,-0.2840404510498047
1761469359145060000,0.54206005859375,-0.1691446453332901,-0.049117520451545715,-0.20340552926063538
1761469359155044000,0.552044189453125,-0.2714760899543762,0.2532021105289459,-0.06969723850488663
1761469359165027000,0.562027099609375,-0.28987666964530945,0.5037786364555359,0.09123412519693375
1761469359175010300,0.57201025390625,-0.2843689024448395,0.5649267435073853,0.24507521092891693
1761469359184994000,0.581994140625,-0.22074386477470398,0.48116472363471985,0.32323792576789856
1761469359194977000,0.59197705078125,-0.11408007144927979,0.3388958275318146,0.30210933089256287
1761469359204960000,0.6019599609375,0.02905125543475151,0.16034820675849915,0.23700782656669617
1761469359214943200,0.611943115234375,0.1735212206840515,-0.04922160506248474,0.1583445966243744
1761469359224927200,0.62192724609375,0.31114086508750916,-0.1941971778869629,0.09170591086149216
1761469359234910000,0.631909912109375,0.4243553876876831,-0.28018736839294434,0.05914191156625748
1761469359244893200,0.64189306640625,0.4819236099720001,-0.333597868680954,0.035666149109601974
1761469359254877200,0.651877197265625,0.48943251371383667,-0.37071681022644043,-0.008606916293501854
1761469359264860200,0.661860107421875,0.47885310649871826,-0.4130916893482208,-0.04954902455210686
1761469359274843000,0.6718427734375,0.4620698392391205,-0.41421639919281006,-0.12530985474586487
1761469359284826000,0.681826171875,0.42812174558639526,-0.3515740633010864,-0.22805966436862946
1761469359294810000,0.69181005859375,0.36695101857185364,-0.24004393815994263,-0.3255949914455414
1761469359304793000,0.70179296875,0.2876253128051758,-0.08701177686452866,-0.4008183777332306
1761469359314776000,0.711776123046875,0.18865396082401276,0.06887420266866684,-0.43391937017440796
1761469359324760300,0.72176025390625,0.11255599558353424,0.15369881689548492,-0.4343763589859009
1761469359334743000,0.731742919921875,0.06924549490213394,0.1739036589860916,-0.4283566176891327
1761469359344726000,0.74172607421875,0.056346211582422256,0.1546415537595749,-0.429415762424469
1761469359354710000,0.7517099609375,0.04906216263771057,0.13343094289302826,-0.4397190809249878
1761469359364693200,0.761693359375,0.05123477056622505,0.13829120993614197,-0.46414053440093994
1761469359374676000,0.771676025390625,0.03673407435417175,0.19666260480880737,-0.5328953862190247
1761469359384659000,0.781658935546875,0.028972558677196503,0.32354626059532166,-0.616402804851532
1761469359394643000,0.791642822265625,0.02837102860212326,0.47004181146621704,-0.6951374411582947
1761469359404626200,0.801626220703125,0.05693529546260834,0.5785379409790039,-0.7371264100074768
1761469359414609200,0.811609130859375,0.10854936391115189,0.6075130701065063,-0.7423878908157349
1761469359424593000,0.821593017578125,0.19009988009929657,0.5981121063232422,-0.723995566368103
1761469359434576100,0.831576171875,0.3027443587779999,0.6184312105178833,-0.7049135565757751
1761469359444559000,0.84155908203125,0.3853002190589905,0.7059509754180908,-0.7353199124336243
1761469359454542000,0.8515419921875,0.4590609669685364,0.6813733577728271,-0.8095734715461731
1761469359464526000,0.861526123046875,0.5638190507888794,0.48335593938827515,-0.8539412021636963
1761469359474509000,0.871509033203125,0.6964855194091797,0.2794298827648163,-0.8054419755935669
1761469359484492000,0.881491943359375,0.8160795569419861,0.16011731326580048,-0.6403512954711914
1761469359494476000,0.89147607421875,0.8481227159500122,0.13727352023124695,-0.4248063266277313
1761469359504459300,0.901459228515625,0.775067925453186,0.15553002059459686,-0.1999703049659729
1761469359514442000,0.91144189453125,0.6850470900535583,0.1153569370508194,0.09868156164884567
1761469359524425000,0.921425048828125,0.5885442495346069,0.04028855264186859,0.3927813768386841
1761469359534409000,0.931408935546875,0.4628443121910095,0.07847081869840622,0.5743407011032104
1761469359544392200,0.94139208984375,0.29920533299446106,0.23829030990600586,0.6275650858879089
1761469359554375200,0.951375244140625,0.18731120228767395,0.3939364552497864,0.5503007173538208
1761469359564359200,0.961359130859375,0.1509081870317459,0.38532885909080505,0.42335453629493713
1761469359574342000,0.971341796875,0.1339775025844574,0.26738858222961426,0.34019577503204346
1761469359584325000,0.9813251953125,0.12099245935678482,0.16599325835704803,0.2873115539550781
1761469359594308000,0.99130810546875,0.08388631790876389,0.13119620084762573,0.23485976457595825
1761469359604292000,1.0012919921875,0.015331758186221123,0.17109622061252594,0.20057076215744019
1761469359614275000,1.011275146484375,-0.05819146707653999,0.2657090127468109,0.17094366252422333
1761469359624258000,1.021258056640625,-0.13568812608718872,0.34714341163635254,0.13600192964076996
1761469359634242000,1.031241943359375,-0.21510043740272522,0.4091329872608185,0.10139995813369751
1761469359644225000,1.04122509765625,-0.2814381718635559,0.43535447120666504,0.080861397087574
1761469359654208300,1.051208251953125,-0.33826732635498047,0.4449980556964874,0.06972064077854156
1761469359664192300,1.061192138671875,-0.3730740547180176,0.43486180901527405,0.07986035943031311
1761469359674175000,1.071175048828125,-0.38635656237602234,0.37547755241394043,0.10137926787137985
1761469359684158200,1.081158203125,-0.39219900965690613,0.28957515954971313,0.1490221470594406
1761469359694141200,1.09114111328125,-0.38965657353401184,0.21831506490707397,0.22640256583690643
1761469359704125200,1.101125244140625,-0.3770771324634552,0.16150452196598053,0.32391899824142456
1761469359714108000,1.11110791015625,-0.3660779297351837,0.13169485330581665,0.42100998759269714
1761469359724091100,1.121091064453125,-0.3907393217086792,0.16782915592193604,0.5165657997131348
1761469359734074000,1.13107421875,-0.4247453510761261,0.2560625970363617,0.5925096273422241
1761469359744058000,1.14105810546875,-0.44866588711738586,0.33490467071533203,0.6191779971122742
1761469359754041000,1.151041015625,-0.45593249797821045,0.36735036969184875,0.6034817099571228
1761469359764024000,1.161024169921875,-0.44867002964019775,0.3205130994319916,0.5690329670906067
1761469359774008000,1.171008056640625,-0.4344133734703064,0.21167275309562683,0.5107802152633667
1761469359783991000,1.180990966796875,-0.39588943123817444,0.07391276210546494,0.40716835856437683
1761469359793974300,1.190974365234375,-0.34816232323646545,-0.07613196223974228,0.26981857419013977
1761469359803958300,1.200958251953125,-0.30021795630455017,-0.14575046300888062,0.11656405031681061
1761469359813941000,1.21094091796875,-0.27087029814720154,-0.09649775177240372,-0.005419787019491196
1761469359823924000,1.220924072265625,-0.2865754961967468,-0.01335732638835907,-0.0675627812743187
1761469359833907200,1.2309072265625,-0.3573869466781616,0.018106546252965927,-0.008290845900774002
1761469359843891200,1.24089111328125,-0.4127175807952881,-0.07131068408489227,0.14051808416843414
1761469359853875200,1.250875244140625,-0.40227341651916504,-0.18444868922233582,0.266537070274353
1761469359863858000,1.26085791015625,-0.3264079689979553,-0.2302902191877365,0.3503558039665222
1761469359873842000,1.270842041015625,-0.31660524010658264,-0.11713255941867828,0.39993414282798767
1761469359883825200,1.2808251953125,-0.2944280505180359,0.25691187381744385,0.4277836084365845
1761469359893808000,1.29080810546875,-0.21132412552833557,0.6555312275886536,0.4025701880455017
1761469359903791000,1.300791015625,-0.10287193953990936,0.7886427044868469,0.26501497626304626
1761469359913774800,1.31077490234375,0.043916311115026474,0.6972439289093018,0.05072113871574402
1761469359923758000,1.320758056640625,0.20300741493701935,0.5043721795082092,-0.12310338765382767
1761469359933741000,1.330740966796875,0.355205237865448,0.38923949003219604,-0.11238328367471695
1761469359943725000,1.34072509765625,0.4797362685203552,0.2910250425338745,-0.24940665066242218
1761469359953708300,1.350708251953125,0.5946215391159058,0.24209490418434143,-0.31797486543655396
1761469359963691000,1.36069091796875,0.6820648312568665,0.17836838960647583,-0.3652843236923218
1761469359973674000,1.370674072265625,0.716094434261322,0.12665802240371704,-0.44794031977653503
1761469359983658000,1.380657958984375,0.6918231248855591,0.1304524838924408,-0.4873151481151581
1761469359993641200,1.39064111328125,0.6201140880584717,0.20908144116401672,-0.4698099195957184
1761469360003624200,1.400624267578125,0.5041006803512573,0.3288176953792572,-0.466096967458725
1761469360013608000,1.41060791015625,0.3730540871620178,0.4464440643787384,-0.46433812379837036
1761469360023591200,1.420591064453125,0.2668378949165344,0.524496853351593,-0.43984395265579224
1761469360033574100,1.43057421875,0.17564480006694794,0.5298036932945251,-0.40615469217300415
1761469360043557000,1.44055712890625,0.11270233243703842,0.46728646755218506,-0.3498972952365875
1761469360053541000,1.450541015625,0.06304139643907547,0.358523428440094,-0.28728923201560974
1761469360063524000,1.460524169921875,0.03721486032009125,0.22426283359527588,-0.2452847808599472
1761469360073507000,1.470507080078125,0.015813199803233147,0.12080328911542892,-0.23206397891044617
1761469360083491000,1.480490966796875,0.00010987045243382454,0.061898957937955856,-0.2613781988620758
1761469360093474000,1.49047412109375,0.0028260014951229095,0.05242026597261429,-0.31827569007873535
1761469360103457000,1.50045703125,0.013079438358545303,0.10722465813159943,-0.41177448630332947
1761469360113440000,1.51043994140625,0.0205767173320055,0.18143053352832794,-0.5339304804801941
1761469360123424000,1.520424072265625,0.05190108343958855,0.19054014980793,-0.6488589644432068
1761469360133407200,1.5304072265625,0.1083703562617302,0.1329789161682129,-0.7283807396888733
1761469360143390200,1.54039013671875,0.17623941600322723,0.09615378081798553,-0.76994389295578
1761469360153374200,1.550374267578125,0.22652730345726013,0.12029386311769485,-0.7983114719390869
1761469360163357000,1.56035693359375,0.2606937885284424,0.2216138243675232,-0.8590296506881714
1761469360173340200,1.570340087890625,0.27418333292007446,0.33253413438796997,-0.9429119825363159
1761469360183323100,1.5803232421875,0.2983730733394623,0.3619751036167145,-1.0575443506240845
1761469360193307100,1.59030712890625,0.36743298172950745,0.2652025818824768,-1.1679234504699707
1761469360203290000,1.6002900390625,0.49752867221832275,0.05984409153461456,-1.2258665561676025
1761469360213273000,1.610273193359375,0.6268194317817688,-0.13287684321403503,-1.1811343431472778
1761469360223257000,1.620257080078125,0.6800232529640198,-0.18491020798683167,-1.0604710578918457
1761469360233240000,1.630239990234375,0.6363657712936401,-0.05840754136443138,-0.8787652254104614
1761469360243223300,1.640223388671875,0.5560504198074341,0.09038247168064117,-0.5825561881065369
1761469360253206000,1.6502060546875,0.45043063163757324,0.03719412162899971,-0.2587740123271942
1761469360263190000,1.66018994140625,0.30835631489753723,-0.08670438826084137,-0.1039479449391365
1761469360273173000,1.670173095703125,0.28732484579086304,-0.13543818891048431,-0.11847895383834839
1761469360283156200,1.68015625,0.3100826144218445,-0.1533186435699463,-0.13645023107528687
1761469360293140200,1.69014013671875,0.3309687376022339,-0.22523346543312073,-0.10866198688745499
1761469360303123000,1.700123046875,0.4090164005756378,-0.38304147124290466,-0.05646776035428047
1761469360313106200,1.710106201171875,0.4962727427482605,-0.6424143314361572,0.018585165962576866
1761469360323090200,1.720090087890625,0.5591233372688293,-0.8594555258750916,0.057569582015275955
1761469360333073200,1.7300732421875,0.5829901695251465,-0.9137598276138306,0.02875041402876377
1761469360343056100,1.74005615234375,0.5648175477981567,-0.8389380574226379,-0.05055559426546097
1761469360353039000,1.7500390625,0.5099572539329529,-0.68900465965271,-0.1506575047969818
1761469360363023000,1.760023193359375,0.4513857960700989,-0.510649561882019,-0.2696070671081543
1761469360373006000,1.770006103515625,0.3423035740852356,-0.31413647532463074,-0.338116317987442
1761469360382989000,1.779989013671875,0.21231068670749664,-0.1142401471734047,-0.41159239411354065
1761469360392973300,1.789973388671875,0.12421482056379318,0.06033705919981003,-0.5012056827545166
1761469360402956000,1.7999560546875,0.040120720863342285,0.1655646711587906,-0.5623774528503418
1761469360412939000,1.80993896484375,0.0021985091734677553,0.2087511122226715,-0.6077762246131897
1761469360422922200,1.819922119140625,0.008700616657733917,0.2101505994796753,-0.5658157467842102
1761469360432906200,1.82990625,0.024249786511063576,0.21439407765865326,-0.49798890948295593
1761469360442889000,1.839888916015625,0.04486265406012535,0.24945594370365143,-0.44110938906669617
1761469360452872000,1.849871826171875,0.08980100601911545,0.25846680998802185,-0.402205228805542
1761469360462856000,1.85985595703125,0.14639344811439514,0.18880252540111542,-0.36406344175338745
1761469360472839200,1.869839111328125,0.18243245780467987,0.09560427069664001,-0.32137182354927063
1761469360482822100,1.879822265625,0.21559493243694305,0.0018442280124872923,-0.2768371105194092
1761469360492805000,1.88980517578125,0.2656833231449127,-0.09961117058992386,-0.215462327003479
1761469360502789000,1.8997890625,0.3028773069381714,-0.23466619849205017,-0.14196066558361053
1761469360512772000,1.909772216796875,0.2986792325973511,-0.4254765510559082,-0.059311218559741974
1761469360522755000,1.919755126953125,0.29682353138923645,-0.5286950469017029,-0.0031912222038954496
1761469360532739000,1.929739013671875,0.24563175439834595,-0.35247570276260376,-0.04968675971031189
1761469360542722000,1.93972216796875,0.0907825231552124,-0.1865977644920349,-0.5228558778762817
1761469360552705000,1.949705078125,0.057493504136800766,-0.0917891189455986,-1.3216618299484253
1761469360562688000,1.95968798828125,0.0942629724740982,-0.06469012796878815,-1.743023157119751
1761469360572672300,1.96967236328125,-0.0255366712808609,-0.08686666935682297,-1.9176061153411865
1761469360582655200,1.9796552734375,-0.15916822850704193,0.10796965658664703,-1.7420539855957031
1761469360592638000,1.989637939453125,-0.23959295451641083,0.18283823132514954,-1.3531919717788696
1761469360602622000,1.9996220703125,-0.2039281576871872,0.025989219546318054,-0.9345025420188904
1761469360612605200,2.009605224609375,-0.1254349946975708,-0.21330143511295319,-0.5817242860794067
1761469360622588200,2.019588134765625,-0.05450889468193054,-0.2556707262992859,-0.3268653452396393
1761469360632571000,2.02957080078125,0.03892669454216957,-0.043041061609983444,-0.10362543910741806
1761469360642555000,2.039554931640625,0.11767423152923584,0.3063425123691559,0.03972160816192627
1761469360652538000,2.0495380859375,0.18347877264022827,0.5487990379333496,0.07954271882772446
1761469360662521000,2.05952099609375,0.2810854911804199,0.5855645537376404,0.025348981842398643
1761469360672505000,2.069505126953125,0.38957270979881287,0.4829574227333069,-0.0979708582162857
1761469360682488300,2.07948828125,0.5149927139282227,0.30209627747535706,-0.2267962098121643
1761469360692471000,2.089470947265625,0.6357094645500183,0.13692790269851685,-0.3175160884857178
1761469360702454000,2.0994541015625,0.6908645629882812,0.0747646763920784,-0.397372305393219
1761469360712438000,2.10943798828125,0.6875432133674622,0.11281800270080566,-0.481537401676178
1761469360722421200,2.119421142578125,0.6457012295722961,0.2027723789215088,-0.5623353123664856
1761469360732404000,2.129404052734375,0.5591713786125183,0.3047429621219635,-0.5920745134353638
1761469360742388000,2.139387939453125,0.45771002769470215,0.3611806631088257,-0.5563639402389526
1761469360752371200,2.14937109375,0.34256795048713684,0.36966854333877563,-0.46505647897720337
1761469360762354200,2.159354248046875,0.2292911857366562,0.38224613666534424,-0.3424610495567322
1761469360772337200,2.169337158203125,0.14514949917793274,0.38867491483688354,-0.22373750805854797
1761469360782321000,2.17932080078125,0.07841359823942184,0.365628719329834,-0.12004653364419937
1761469360792304000,2.18930419921875,0.04759307578206062,0.32793670892715454,-0.04695485159754753
1761469360802287000,2.199287109375,0.05260913819074631,0.2675764560699463,-0.021994374692440033
1761469360812271000,2.20927099609375,0.08300764858722687,0.2078884094953537,-0.01931692846119404
1761469360822254000,2.219254150390625,0.11163929104804993,0.17009255290031433,-0.04588249325752258
1761469360832237000,2.229237060546875,0.1385974884033203,0.17626647651195526,-0.1161041110754013
1761469360842220000,2.239219970703125,0.1579192578792572,0.2251346856355667,-0.21148362755775452
1761469360852203300,2.249203369140625,0.18389827013015747,0.30894723534584045,-0.3066536784172058
1761469360862186200,2.259186279296875,0.21361969411373138,0.38311946392059326,-0.37917980551719666
1761469360872169200,2.269169189453125,0.24919036030769348,0.4490351974964142,-0.40133607387542725
1761469360882153200,2.2791533203125,0.2769024074077606,0.47872278094291687,-0.35747432708740234
1761469360892136400,2.289136474609375,0.29083555936813354,0.45624396204948425,-0.2809995412826538
1761469360902119200,2.299119140625,0.25742220878601074,0.3840736150741577,-0.1947796791791916
1761469360912103200,2.309103271484375,0.23489202558994293,0.3079834580421448,-0.10058322548866272
1761469360922086100,2.319086181640625,0.28325262665748596,0.20245277881622314,-0.04260168597102165
1761469360932069400,2.3290693359375,0.3432706594467163,0.093020498752594,-0.04248502478003502
1761469360942052400,2.33905224609375,0.34483978152275085,0.016015194356441498,-0.09067678451538086
1761469360952036000,2.3490361328125,0.3168775737285614,-0.03245941922068596,-0.20113445818424225
1761469360962019300,2.359019287109375,0.24202676117420197,-0.10085313022136688,-0.3185151219367981
1761469360972002300,2.369002197265625,0.14272642135620117,-0.13295504450798035,-0.38043031096458435
1761469360981986300,2.378986328125,0.04530585557222366,-0.11585143953561783,-0.32350125908851624
1761469360991969300,2.38896923828125,-0.030930902808904648,-0.08299097418785095,-0.16302721202373505
1761469361001952300,2.3989521484375,-0.09299560636281967,-0.1060054823756218,0.06611169874668121
1761469361011935200,2.408935302734375,-0.09501086175441742,-0.23420527577400208,0.30846115946769714
1761469361021919200,2.418919189453125,-0.08393211662769318,-0.3636336028575897,0.5116747617721558
1761469361031902200,2.428902099609375,-0.0777793675661087,-0.41461896896362305,0.6606650948524475
1761469361041885200,2.43888525390625,-0.09309414029121399,-0.41234859824180603,0.8032246232032776
1761469361051869200,2.448869140625,-0.1253509372472763,-0.4361746311187744,0.9362173080444336
1761469361061852200,2.45885205078125,-0.15743803977966309,-0.4931337833404541,1.04021418094635
1761469361071835400,2.46883544921875,-0.205648735165596,-0.5231618881225586,1.1043353080749512
1761469361081818400,2.478818359375,-0.2732272446155548,-0.4905911386013031,1.1156543493270874
1761469361091802400,2.48880224609375,-0.34797996282577515,-0.3707462251186371,1.0679428577423096
1761469361101785000,2.49878515625,-0.3916771113872528,-0.18556329607963562,0.9735236763954163
1761469361111768300,2.508768310546875,-0.4125996530056,0.01257100235670805,0.8715293407440186
1761469361121752300,2.51875244140625,-0.40571698546409607,0.15361787378787994,0.7823787331581116
1761469361131735300,2.5287353515625,-0.38655009865760803,0.2344050109386444,0.7087001800537109
1761469361141718300,2.53871826171875,-0.373887300491333,0.28391504287719727,0.6462546586990356
1761469361151701200,2.548701171875,-0.37219759821891785,0.3347485363483429,0.5849416851997375
1761469361161685200,2.558685302734375,-0.39670267701148987,0.39575809240341187,0.5200580358505249
1761469361171668200,2.568668212890625,-0.42013636231422424,0.46889421343803406,0.4632391929626465
1761469361181651500,2.5786513671875,-0.4508860409259796,0.5438222289085388,0.42122143507003784
1761469361191635500,2.588635498046875,-0.4781120717525482,0.6216084957122803,0.3797397315502167
1761469361201618200,2.5986181640625,-0.49818137288093567,0.6371719837188721,0.33907991647720337
1761469361211601200,2.60860107421875,-0.5064511895179749,0.6418229937553406,0.32214289903640747
1761469361221584400,2.61858447265625,-0.49492260813713074,0.6182151436805725,0.3192000985145569
1761469361231568400,2.628568359375,-0.46545159816741943,0.5641204714775085,0.33037489652633667
1761469361241551000,2.638551025390625,-0.40376827120780945,0.5107890963554382,0.3549843728542328
1761469361251534300,2.648534423828125,-0.33586761355400085,0.4400601387023926,0.4156497120857239
1761469361261518300,2.658518310546875,-0.26539796590805054,0.36586129665374756,0.46289312839508057
1761469361271501300,2.668501220703125,-0.2514992952346802,0.22277584671974182,0.4122397005558014
1761469361281484300,2.678484375,-0.24820736050605774,0.050156932324171066,0.23228511214256287
1761469361291467300,2.68846728515625,-0.20820456743240356,-0.18534602224826813,0.06798116117715836
1761469361301451300,2.698451171875,-0.2336907535791397,-0.32059919834136963,-0.018722308799624443
1761469361311434200,2.708434326171875,-0.305569052696228,-0.23526355624198914,-0.06701056659221649
1761469361321417200,2.718417236328125,-0.39920684695243835,-0.08892285823822021,-0.11161772906780243
1761469361331401500,2.7284013671875,-0.4546566307544708,0.026682380586862564,-0.11687727272510529
1761469361341384200,2.73838427734375,-0.4903070330619812,0.10895328223705292,-0.10855089873075485
1761469361351367200,2.7483671875,-0.42223218083381653,0.1918606460094452,-0.10285050421953201
1761469361361351200,2.75835107421875,-0.23233094811439514,0.3072386384010315,-0.05606462061405182
1761469361371334400,2.76833447265625,-0.0044159842655062675,0.333538293838501,0.08059712499380112
1761469361381317000,2.778317138671875,0.20116274058818817,0.21113356947898865,0.21370404958724976
1761469361391300000,2.788300048828125,0.37889760732650757,0.020563501864671707,0.2394731193780899
1761469361401284000,2.7982841796875,0.553771436214447,-0.1205587387084961,0.19013991951942444
1761469361411267300,2.808267333984375,0.6745738983154297,-0.22637403011322021,0.09794512391090393
1761469361421250300,2.818250244140625,0.7487397789955139,-0.29636937379837036,-0.02108033373951912
1761469361431234300,2.828234375,0.7983471751213074,-0.31440219283103943,-0.13171760737895966
1761469361441217300,2.83821728515625,0.8262845873832703,-0.28049588203430176,-0.2190575748682022
1761469361451200300,2.8482001953125,0.8210341930389404,-0.23008275032043457,-0.29149025678634644
1761469361461183200,2.858183349609375,0.7721081972122192,-0.18770253658294678,-0.3438512086868286
1761469361471167200,2.868167236328125,0.7028639912605286,-0.1401679515838623,-0.3706487715244293
1761469361481150200,2.878150146484375,0.6256789565086365,-0.0631520077586174,-0.38515129685401917
1761469361491133200,2.88813330078125,0.5543733835220337,0.031268082559108734,-0.39354580640792847
1761469361501117200,2.8981171875,0.484468549489975,0.11323884129524231,-0.42800816893577576
1761469361511100400,2.908100341796875,0.40804144740104675,0.16900770366191864,-0.4798133373260498
1761469361521083400,2.91808349609375,0.3122105300426483,0.2012988030910492,-0.5000743865966797
1761469361531066000,2.928066162109375,0.2202453911304474,0.21678496897220612,-0.502713680267334
1761469361541050000,2.938050048828125,0.1496814787387848,0.18836450576782227,-0.5116906762123108
1761469361551033300,2.948033447265625,0.1171853244304657,0.1351684033870697,-0.5220232009887695
1761469361561016300,2.958016357421875,0.09266427159309387,0.0684298425912857,-0.5384613275527954
1761469361571000300,2.968000244140625,0.06834384053945541,0.012918691150844097,-0.5693245530128479
1761469361580983000,2.977983154296875,0.07230369001626968,0.0022748345509171486,-0.613091230392456
1761469361590966300,2.98796630859375,0.07841475307941437,0.013574302196502686,-0.6427791118621826
1761469361600949200,2.99794921875,0.10035493969917297,0.026750557124614716,-0.6668160557746887
1761469361610933200,3.007933349609375,0.1235269233584404,0.031253330409526825,-0.6918978691101074
1761469361620916500,3.01791650390625,0.16829092800617218,0.08075962960720062,-0.6826561689376831
1761469361630899200,3.027899169921875,0.18813589215278625,0.1400158405303955,-0.6384129524230957
1761469361640883200,3.03788330078125,0.2048213928937912,0.1874275654554367,-0.5429748296737671
1761469361650866200,3.0478662109375,0.2555588185787201,0.11342576891183853,-0.43240898847579956
1761469361660849400,3.057849365234375,0.3020128905773163,0.01768992654979229,-0.34269455075263977
1761469361670832000,3.06783203125,0.30105653405189514,0.014414237812161446,-0.2869173288345337
1761469361680816000,3.077816162109375,0.23764321208000183,0.0014086912851780653,-0.24395571649074554
1761469361690799400,3.08779931640625,0.16247646510601044,0.033991750329732895,-0.14497490227222443
1761469361700782300,3.0977822265625,0.04926122725009918,0.08427542448043823,0.031964197754859924
1761469361710766300,3.107766357421875,0.028151899576187134,0.04174777865409851,0.2757374346256256
1761469361720749000,3.1177490234375,-0.02986879087984562,-0.18377481400966644,0.5216822028160095
1761469361730732300,3.127732177734375,-0.08292121440172195,-0.3680756092071533,0.697352945804596
1761469361740715300,3.13771533203125,-0.12937740981578827,-0.39962127804756165,0.8104419708251953
1761469361750699300,3.14769921875,-0.1877526044845581,-0.36692875623703003,0.8957844972610474
1761469361760682200,3.15768212890625,-0.23944030702114105,-0.3600687086582184,0.9573615789413452
1761469361770665200,3.167665283203125,-0.283645898103714,-0.4030681550502777,1.0069993734359741
1761469361780649200,3.177649169921875,-0.3263542056083679,-0.4799914062023163,1.039294719696045
1761469361790632200,3.187632080078125,-0.36402711272239685,-0.4965108036994934,1.0337440967559814
1761469361800615400,3.197615478515625,-0.36756113171577454,-0.4646095931529999,1.0409892797470093
1761469361810599400,3.207599365234375,-0.36260274052619934,-0.46487608551979065,1.0990475416183472
1761469361820582100,3.21758203125,-0.3497636616230011,-0.4760163724422455,1.196336269378662
1761469361830565000,3.227565185546875,-0.3243071436882019,-0.44831812381744385,1.308574914932251
1761469361840548400,3.23754833984375,-0.28916990756988525,-0.40156152844429016,1.403634786605835
1761469361850532400,3.247532470703125,-0.2687417268753052,-0.363860547542572,1.4687309265136719
1761469361860515300,3.257515380859375,-0.2741769850254059,-0.3229203224182129,1.507650375366211
1761469361870498300,3.267498291015625,-0.26423338055610657,-0.3046462833881378,1.5204418897628784
1761469361880482600,3.277482666015625,-0.23410768806934357,-0.31022295355796814,1.4920387268066406
1761469361890465300,3.28746533203125,-0.24431179463863373,-0.30274033546447754,1.4176779985427856
1761469361900448300,3.2974482421875,-0.2870193123817444,-0.25192373991012573,1.2844581604003906
1761469361910431500,3.307431396484375,-0.35718008875846863,-0.16876138746738434,1.1118892431259155
1761469361920415500,3.31741552734375,-0.4536389708518982,-0.0579853318631649,0.9312340021133423
1761469361930398200,3.327398193359375,-0.5721002221107483,0.046052947640419006,0.745521605014801
1761469361940381200,3.337381103515625,-0.682245135307312,0.11032887548208237,0.5565010905265808
1761469361950365200,3.347365234375,-0.7838304042816162,0.12259740382432938,0.3742768466472626
1761469361960348400,3.357348388671875,-0.8887085914611816,0.07426556199789047,0.2173367589712143
1761469361970331400,3.367331298828125,-0.9627066254615784,-0.043884649872779846,0.07985906302928925
1761469361980314400,3.377314453125,-1.003064751625061,-0.22141416370868683,-0.07425833493471146
1761469361990298400,3.38729833984375,-0.9913966655731201,-0.3296779692173004,-0.21737447381019592
1761469362000281300,3.39728125,-0.9702937602996826,-0.2555278241634369,-0.3038598299026489
1761469362010264300,3.407264404296875,-0.9590839743614197,0.038840822875499725,-0.32178765535354614
1761469362020248300,3.417248291015625,-0.9509549140930176,0.4163319170475006,-0.2834983170032501
1761469362030231300,3.427231201171875,-0.9151121973991394,0.6126073598861694,-0.20831242203712463
1761469362040214300,3.43721435546875,-0.8614097833633423,0.5450000762939453,-0.0927799791097641
1761469362050197200,3.447197265625,-0.7572267651557922,0.3237482011318207,0.1127861812710762
1761469362060181500,3.457181396484375,-0.6343876719474792,0.13560384511947632,0.41162294149398804
1761469362070164500,3.46716455078125,-0.5041468143463135,0.053988631814718246,0.6888891458511353
1761469362080147200,3.477147216796875,-0.3528267741203308,0.030195150524377823,0.8466851711273193
1761469362090131200,3.487131103515625,-0.19214580953121185,0.021400433033704758,0.8459338545799255
1761469362100114400,3.497114501953125,-0.06334762275218964,-0.004023168236017227,0.7585992217063904
1761469362110097400,3.507097412109375,0.035017263144254684,-0.03733265772461891,0.6015251278877258
1761469362120080100,3.517080078125,0.12017609924077988,-0.015205783769488335,0.3882032632827759
1761469362130064100,3.527064208984375,0.1894599199295044,0.0577133446931839,0.17226356267929077
1761469362140047400,3.53704736328125,0.2526625990867615,0.1381530612707138,0.026354825124144554
1761469362150030300,3.5470302734375,0.29581916332244873,0.17853698134422302,-0.05152900516986847
1761469362160014300,3.557014404296875,0.3248465657234192,0.18747961521148682,-0.09319709241390228
1761469362169997600,3.56699755859375,0.33281734585762024,0.17901739478111267,-0.13037671148777008
1761469362179980300,3.576980224609375,0.3342389464378357,0.21436046063899994,-0.195296049118042
1761469362189963300,3.58696337890625,0.32900041341781616,0.26104632019996643,-0.26888805627822876
1761469362199947300,3.596947265625,0.2962541878223419,0.31788748502731323,-0.32954874634742737
1761469362209930500,3.606930419921875,0.24280375242233276,0.3607834279537201,-0.3833523690700531
1761469362219913200,3.616913330078125,0.1739940643310547,0.3991212546825409,-0.4109744131565094
1761469362229897200,3.626897216796875,0.10210868716239929,0.40634146332740784,-0.4121358096599579
1761469362239880400,3.63688037109375,0.03573738783597946,0.37887388467788696,-0.401443749666214
1761469362249863400,3.646863525390625,-0.007848221808671951,0.3258167505264282,-0.3778364360332489
1761469362259847400,3.656847412109375,-0.03415066376328468,0.23866987228393555,-0.3483981192111969
1761469362269830100,3.666830078125,-0.035243891179561615,0.15398123860359192,-0.3169845640659332
1761469362279813400,3.6768134765625,-0.00945623591542244,0.10753463953733444,-0.3058975338935852
1761469362289796400,3.68679638671875,0.02430940419435501,0.07720160484313965,-0.3085743486881256
1761469362299780400,3.6967802734375,0.07737156003713608,0.02149333246052265,-0.33044636249542236
1761469362309763300,3.706763427734375,0.15442293882369995,-0.04409526661038399,-0.3358041048049927
1761469362319746300,3.716746337890625,0.21714277565479279,-0.0772889032959938,-0.31256189942359924
1761469362329730300,3.726730224609375,0.26509997248649597,-0.03009752742946148,-0.2896900773048401
1761469362339713300,3.73671337890625,0.2619105577468872,0.10424776375293732,-0.3203537166118622
1761469362349696500,3.746696533203125,0.23651616275310516,0.19052881002426147,-0.4669097363948822
1761469362359679200,3.75667919921875,0.2690996825695038,0.1831984668970108,-0.6706649661064148
1761469362369663200,3.766663330078125,0.4068298935890198,0.056965962052345276,-0.8278233408927917
1761469362379646200,3.776646240234375,0.6070684194564819,-0.09874320775270462,-0.8211262822151184
1761469362389629400,3.78662939453125,0.7066211104393005,-0.22388046979904175,-0.6260497570037842
1761469362399613400,3.796613525390625,0.684317409992218,-0.2364085167646408,-0.3068763315677643
1761469362409596400,3.806596435546875,0.570237398147583,-0.15389396250247955,0.02789657562971115
1761469362419579400,3.816579345703125,0.3911198675632477,-0.03897802159190178,0.28406551480293274
1761469362429562400,3.826562255859375,0.22394347190856934,0.05810702219605446,0.4290741980075836
1761469362439546400,3.83654638671875,0.09727420657873154,0.06578012555837631,0.502685010433197
1761469362449529300,3.846529296875,0.04350254312157631,-0.027040772140026093,0.5710642337799072
1761469362459512300,3.85651220703125,0.013083649799227715,-0.12780332565307617,0.6635294556617737
1761469362469496300,3.866496337890625,-0.03452475368976593,-0.203644260764122,0.7594212889671326
1761469362479479300,3.876479248046875,-0.08654854446649551,-0.29276585578918457,0.8416098952293396
1761469362489462300,3.886462158203125,-0.10151040554046631,-0.35657840967178345,0.8550267219543457
1761469362499446300,3.8964462890625,-0.12101859599351883,-0.35530275106430054,0.8070176243782043
1761469362509429500,3.906429443359375,-0.1437917798757553,-0.26643410325050354,0.7051685452461243
1761469362519412200,3.916412109375,-0.15199218690395355,-0.14935488998889923,0.5749088525772095
1761469362529395500,3.9263955078125,-0.14647404849529266,-0.032162971794605255,0.4448181986808777
1761469362539379500,3.93637939453125,-0.15836374461650848,0.07574352622032166,0.3199785351753235
1761469362549362400,3.946362548828125,-0.18170200288295746,0.15358321368694305,0.2320224493741989
1761469362559345200,3.95634521484375,-0.207870751619339,0.18888980150222778,0.19719310104846954
1761469362569329200,3.9663291015625,-0.20874573290348053,0.20505112409591675,0.21571260690689087
1761469362579312400,3.9763125,-0.2108674794435501,0.21294233202934265,0.26913005113601685
1761469362589295400,3.98629541015625,-0.2106805145740509,0.1971512883901596,0.3453994393348694
1761469362599278300,3.9962783203125,-0.1900940090417862,0.18259817361831665,0.43169039487838745
1761469362609262300,4.006262451171875,-0.17842581868171692,0.1525612324476242,0.5032232403755188
1761469362619245300,4.016245361328125,-0.1733895093202591,0.10472606867551804,0.5666053891181946
1761469362629228300,4.026228271484375,-0.18701066076755524,0.05354853719472885,0.6252869963645935
1761469362639212300,4.03621240234375,-0.22036463022232056,0.019255809485912323,0.6796237826347351
1761469362649195500,4.046195556640625,-0.26774924993515015,-0.01273504551500082,0.7188453078269958
1761469362659178200,4.05617822265625,-0.32455581426620483,-0.05026484280824661,0.7502410411834717
1761469362669161200,4.0661611328125,-0.36853423714637756,-0.09034128487110138,0.7821092009544373
1761469362679145200,4.076145263671875,-0.40757429599761963,-0.1425568163394928,0.8019651770591736
1761469362689128400,4.08612841796875,-0.4311333894729614,-0.2122810184955597,0.8307206630706787
1761469362699111200,4.096111083984375,-0.43876948952674866,-0.29962605237960815,0.8394654393196106
1761469362709095200,4.10609521484375,-0.43161094188690186,-0.3526802659034729,0.8138176202774048
1761469362719078400,4.116078369140625,-0.4368232786655426,-0.34892815351486206,0.7469301819801331
1761469362729061400,4.126061279296875,-0.5131155848503113,-0.25362658500671387,0.6258862018585205
1761469362739044400,4.13604443359375,-0.60361647605896,-0.13066737353801727,0.415198415517807
1761469362749028400,4.1460283203125,-0.6563524603843689,-0.04971453547477722,0.13612748682498932
1761469362759011300,4.15601123046875,-0.6573964357376099,-0.027184724807739258,-0.1432919055223465
1761469362768994300,4.165994384765625,-0.5584050416946411,-0.07540996372699738,-0.3295397162437439
1761469362778978300,4.175978271484375,-0.4458496868610382,-0.21350738406181335,-0.3138613998889923
1761469362788961500,4.18596142578125,-0.39288488030433655,-0.24611878395080566,-0.11930420994758606
1761469362798944300,4.1959443359375,-0.39496374130249023,-0.017642207443714142,0.08127975463867188
1761469362808927200,4.20592724609375,-0.40412166714668274,0.2735821008682251,0.20249368250370026
1761469362818911200,4.2159111328125,-0.38457751274108887,0.3661402761936188,0.2218005359172821
1761469362828894500,4.22589453125,-0.34389549493789673,0.316489040851593,0.18133150041103363
1761469362838877400,4.23587744140625,-0.27577662467956543,0.242988720536232,0.12700781226158142
1761469362848861200,4.245861083984375,-0.16187125444412231,0.13315851986408234,0.10919083654880524
1761469362858844200,4.25584423828125,-0.04197681322693825,0.00041752844117581844,0.12482252717018127
1761469362868827100,4.2658271484375,0.08433487266302109,-0.12284444272518158,0.14384877681732178
1761469362878811100,4.27581103515625,0.19952164590358734,-0.20813244581222534,0.13739033043384552
1761469362888794000,4.285794189453125,0.2836504280567169,-0.2500649094581604,0.14040689170360565
1761469362898777300,4.29577734375,0.34317898750305176,-0.23124516010284424,0.1214505136013031
1761469362908760000,4.305760009765625,0.3607942461967468,-0.15703128278255463,0.05735926702618599
1761469362918744000,4.315744140625,0.3378061056137085,-0.03577302768826485,-0.04182617366313934
1761469362928727000,4.32572705078125,0.274532675743103,0.09267262369394302,-0.16942188143730164
1761469362938710300,4.335710205078125,0.21251779794692993,0.17736247181892395,-0.29236748814582825
1761469362948694300,4.3456943359375,0.13755273818969727,0.20548973977565765,-0.36891716718673706
1761469362958677000,4.355677001953125,0.07201021164655685,0.1715163290500641,-0.409346342086792
1761469362968660200,4.36566015625,0.019488368183374405,0.10478918999433517,-0.398610919713974
1761469362978643200,4.375643310546875,-0.022711284458637238,0.02352628856897354,-0.35265859961509705
1761469362988627200,4.385627197265625,-0.037863828241825104,-0.03899059444665909,-0.2910465598106384
1761469362998610000,4.39560986328125,-0.019867515191435814,-0.057796772569417953,-0.24825890362262726
1761469363008593200,4.40559326171875,0.030853839591145515,-0.054571520537137985,-0.23750701546669006
1761469363018577200,4.4155771484375,0.1059427335858345,-0.057209115475416183,-0.2410988211631775
1761469363028560100,4.42556005859375,0.1955420970916748,-0.08055821806192398,-0.2609251141548157
1761469363038543000,4.435543212890625,0.2876243591308594,-0.14751489460468292,-0.27974647283554077
1761469363048526000,4.445526123046875,0.3627060055732727,-0.24858294427394867,-0.287008672952652
1761469363058510000,4.455510009765625,0.4258285164833069,-0.3311856985092163,-0.2836810350418091
1761469363068493000,4.4654931640625,0.4542151093482971,-0.3419401943683624,-0.2537032663822174
1761469363078476300,4.475476318359375,0.41154274344444275,-0.2877430021762848,-0.22105422616004944
1761469363088460300,4.485460205078125,0.3171992003917694,-0.1551908254623413,-0.19563835859298706
1761469363098443000,4.495443115234375,0.1814086139202118,0.07990505546331406,-0.2424311637878418
1761469363108426000,4.505426025390625,0.037766531109809875,0.39088860154151917,-0.3692880868911743
1761469363118409200,4.5154091796875,-0.0762079730629921,0.5523925423622131,-0.5819260478019714
1761469363128393200,4.525393310546875,-0.09180314093828201,0.5323678851127625,-0.7959067821502686
1761469363138376200,4.535376220703125,-0.011157291010022163,0.4348352253437042,-0.9089565873146057
1761469363148359200,4.545359130859375,0.08906660974025726,0.32062026858329773,-0.8638005256652832
1761469363158343200,4.55534326171875,0.12358863651752472,0.249950110912323,-0.6736790537834167
1761469363168326100,4.565326171875,0.1552518755197525,0.1990482062101364,-0.44412875175476074
1761469363178309000,4.57530908203125,0.11119813472032547,0.11489791423082352,-0.2405623197555542
1761469363188293000,4.585293212890625,0.034816011786460876,0.03379175066947937,-0.0689048171043396
1761469363198276000,4.595276123046875,-0.007812939584255219,-0.01747756078839302,0.08112889528274536
1761469363208259000,4.605259033203125,-0.027436526492238045,-0.10360675305128098,0.2115059643983841
1761469363218242000,4.615241943359375,-0.044227488338947296,-0.1634700745344162,0.28165575861930847
1761469363228226300,4.625226318359375,-0.0746161937713623,-0.18581008911132812,0.31763723492622375
1761469363238209000,4.635208984375,-0.11327783763408661,-0.23062309622764587,0.35011768341064453
1761469363248192000,4.64519189453125,-0.14477291703224182,-0.3106533885002136,0.38924357295036316
1761469363258176000,4.655176025390625,-0.1777399182319641,-0.3935045897960663,0.4206334352493286
1761469363268159200,4.6651591796875,-0.23236627876758575,-0.43433356285095215,0.43843600153923035
1761469363278142200,4.67514208984375,-0.2882775068283081,-0.3923432528972626,0.40091630816459656
1761469363288125000,4.685125,-0.3200089931488037,-0.28233590722084045,0.3413601219654083
1761469363298109000,4.69510888671875,-0.3513922095298767,-0.18351663649082184,0.29785552620887756
1761469363308092200,4.705092041015625,-0.3837447166442871,-0.09447872638702393,0.26968181133270264
1761469363318075100,4.7150751953125,-0.4030901789665222,0.016368430107831955,0.26248809695243835
1761469363328059100,4.72505908203125,-0.4092485308647156,0.05991150066256523,0.25500553846359253
1761469363338042000,4.7350419921875,-0.3941050171852112,0.028815098106861115,0.24247722327709198
1761469363348025000,4.745025146484375,-0.36677590012550354,-0.025341840460896492,0.2554849088191986
1761469363358008000,4.755008056640625,-0.33329862356185913,-0.055982042104005814,0.2888455390930176
1761469363367992000,4.764991943359375,-0.29980841279029846,-0.04658888652920723,0.33598846197128296
1761469363377975300,4.774975341796875,-0.2611691653728485,-0.0289052315056324,0.38877442479133606
1761469363387958000,4.7849580078125,-0.21759089827537537,-0.04069950431585312,0.47435906529426575
1761469363397942000,4.79494189453125,-0.20726528763771057,-0.03795884549617767,0.5787643194198608
1761469363407925200,4.80492529296875,-0.21622052788734436,0.004261002875864506,0.6834908723831177
1761469363417908200,4.814908203125,-0.21799230575561523,0.046589020639657974,0.7795228362083435
1761469363427891000,4.824890869140625,-0.20109158754348755,0.0642322301864624,0.8614569306373596
1761469363437875000,4.834875,-0.18179352581501007,0.06102551519870758,0.8997518420219421
1761469363447858200,4.844858154296875,-0.15639056265354156,0.04122432321310043,0.9183405041694641
1761469363457841200,4.854841064453125,-0.13677877187728882,0.001782640814781189,0.9285920858383179
1761469363467825200,4.8648251953125,-0.18208162486553192,-0.08677869290113449,0.8911514282226562
1761469363477808000,4.87480810546875,-0.2682039737701416,-0.1635991781949997,0.7734277248382568
1761469363487791000,4.884791015625,-0.34404027462005615,-0.1682560294866562,0.5569382905960083
1761469363497775000,4.894775146484375,-0.4098094403743744,-0.014500558376312256,0.2819998860359192
1761469363507758000,4.904758056640625,-0.47150155901908875,0.16027337312698364,0.03728550300002098
1761469363517741300,4.9147412109375,-0.5423104763031006,0.2522384524345398,-0.15106123685836792
1761469363527724000,4.92472412109375,-0.558991551399231,0.22999568283557892,-0.25634896755218506
1761469363537708000,4.9347080078125,-0.5057193040847778,0.13310135900974274,-0.270062118768692
1761469363547691000,4.94469091796875,-0.4526926279067993,0.008838077075779438,-0.20402902364730835
1761469363557674200,4.95467431640625,-0.43919146060943604,0.036818843334913254,-0.08069909363985062
1761469363567658200,4.964658203125,-0.4571378827095032,0.20162810385227203,0.04641071334481239
1761469363577641000,4.974640869140625,-0.4381985366344452,0.3085137903690338,0.1404551863670349
1761469363587624200,4.984624267578125,-0.4057096838951111,0.29387569427490234,0.1703307032585144
1761469363597607200,4.994607177734375,-0.32997390627861023,0.24230916798114777,0.11346928030252457
1761469363607591200,5.004591064453125,-0.24733896553516388,0.18558770418167114,0.013602782040834427
1761469363617574100,5.01457421875,-0.13281184434890747,0.10683031380176544,-0.07431508600711823
1761469363627557000,5.02455712890625,0.0038852582219988108,-0.004549920558929443,-0.13482655584812164
1761469363637541000,5.034541015625,0.1546846181154251,-0.12996269762516022,-0.16982795298099518
1761469363647524000,5.044524169921875,0.3040802478790283,-0.26544398069381714,-0.18665967881679535
1761469363657507000,5.054507080078125,0.4317878782749176,-0.38505852222442627,-0.19877946376800537
1761469363667490300,5.064490234375,0.5012662410736084,-0.4618365168571472,-0.23433348536491394
1761469363677474000,5.07447412109375,0.49685415625572205,-0.4675482213497162,-0.2890174984931946
1761469363687457000,5.08445703125,0.4211219549179077,-0.39583471417427063,-0.3437664210796356
1761469363697440300,5.094440185546875,0.32758772373199463,-0.2667291760444641,-0.3885898292064667
1761469363707424300,5.10442431640625,0.24485665559768677,-0.14521032571792603,-0.43492913246154785
1761469363717407200,5.1144072265625,0.1725028157234192,-0.06875895708799362,-0.4867723286151886
1761469363727390000,5.124389892578125,0.13399572670459747,-0.043376315385103226,-0.5456278920173645
1761469363737373200,5.134373291015625,0.13119222223758698,-0.06812400370836258,-0.5906470417976379
1761469363747357200,5.144357177734375,0.15009179711341858,-0.12566885352134705,-0.6196630001068115
1761469363757340200,5.154340087890625,0.19408933818340302,-0.20005573332309723,-0.6277830004692078
1761469363767323100,5.1643232421875,0.24444949626922607,-0.27504754066467285,-0.6372358798980713
1761469363777307100,5.17430712890625,0.29714518785476685,-0.3349497616291046,-0.6529415845870972
1761469363787290000,5.1842900390625,0.34894031286239624,-0.2988201975822449,-0.676948070526123
1761469363797273000,5.194273193359375,0.3917761743068695,-0.1813071221113205,-0.7155430912971497
1761469363807257000,5.204257080078125,0.4348517060279846,-0.07363426685333252,-0.7560523748397827
1761469363817240300,5.214240234375,0.4770870506763458,-0.03896176815032959,-0.7891392111778259
1761469363827223000,5.22422314453125,0.5226659178733826,-0.052628301084041595,-0.78789883852005
1761469363837206000,5.2342060546875,0.5252611637115479,-0.003379527013748884,-0.7954726219177246
1761469363847190000,5.24418994140625,0.531205952167511,0.10242603719234467,-0.8071267604827881
1761469363857172700,5.2541728515625,0.48118436336517334,0.19783751666545868,-0.8188683986663818
1761469363867155700,5.26415576171875,0.4395773410797119,0.21936827898025513,-0.8640815615653992
1761469363877139700,5.2741396484375,0.45372486114501953,0.19946300983428955,-0.9459047913551331
1761469363887123000,5.284123046875,0.5271958708763123,0.14095069468021393,-1.0256783962249756
1761469363897106000,5.29410595703125,0.6315150856971741,0.04707559943199158,-1.0301666259765625
1761469363907088600,5.304088623046875,0.6978989839553833,0.006080553866922855,-0.9311444163322449
1761469363917073000,5.314072998046875,0.6929758787155151,0.05113484710454941,-0.7445460557937622
1761469363927056000,5.324055908203125,0.680959939956665,0.10637786239385605,-0.48300793766975403
1761469363937038800,5.334038818359375,0.6321154832839966,0.08673997968435287,-0.20958329737186432
1761469363947022800,5.34402294921875,0.5584200024604797,0.023468106985092163,-0.006473506335169077
1761469363957005800,5.354005859375,0.4607837498188019,-0.019270034506917,0.12044315785169601
1761469363966988800,5.36398876953125,0.35381990671157837,-0.03968535736203194,0.1842784583568573
1761469363976971800,5.3739716796875,0.24930918216705322,-0.04878697544336319,0.2163597047328949
1761469363986955800,5.383955810546875,0.18688367307186127,-0.09634435176849365,0.24093779921531677
1761469363996939000,5.39393896484375,0.1211286261677742,-0.2016521394252777,0.2938425540924072
1761469364006921700,5.403921630859375,0.07316220551729202,-0.32459336519241333,0.37809836864471436
1761469364016905700,5.41390576171875,0.008186934515833855,-0.38416215777397156,0.4760584831237793
1761469364026889000,5.423888916015625,-0.09004660695791245,-0.35565149784088135,0.5637114644050598
1761469364036872000,5.433871826171875,-0.20141521096229553,-0.2521589398384094,0.6036258935928345
1761469364046854700,5.443854736328125,-0.3110296130180359,-0.07804040610790253,0.6173549294471741
1761469364056838700,5.453838623046875,-0.4115447700023651,0.11011192202568054,0.6255026459693909
1761469364066822000,5.46382177734375,-0.4870014786720276,0.23209227621555328,0.6221245527267456
1761469364076804900,5.473804931640625,-0.5254184007644653,0.25845837593078613,0.6423534154891968
1761469364086788900,5.483788818359375,-0.5562495589256287,0.24617069959640503,0.682887613773346
1761469364096771800,5.493771728515625,-0.5618475079536438,0.2713831067085266,0.7369204759597778
1761469364106754800,5.5037548828125,-0.5497597455978394,0.31945696473121643,0.7886605262756348
1761469364116738800,5.51373876953125,-0.52729731798172,0.35016852617263794,0.8220381736755371
1761469364126721800,5.5237216796875,-0.4961693286895752,0.2971324026584625,0.8135330677032471
1761469364136705000,5.533705078125,-0.4585511386394501,0.1757945418357849,0.7758035063743591
1761469364146687700,5.543687744140625,-0.43175575137138367,0.019613202661275864,0.712077260017395
1761469364156671700,5.553671630859375,-0.43597498536109924,-0.13006097078323364,0.6348647475242615
1761469364166654700,5.56365478515625,-0.4611237645149231,-0.26081138849258423,0.5534026026725769
1761469364176638000,5.573637939453125,-0.47921380400657654,-0.354710191488266,0.468688040971756
1761469364186622000,5.5836220703125,-0.4949634075164795,-0.5040587782859802,0.3563218116760254
1761469364196604700,5.593604736328125,-0.48343831300735474,-0.6634896993637085,0.21346664428710938
1761469364206588000,5.603587890625,-0.4407064914703369,-0.7892209887504578,0.06337020546197891
1761469364216571000,5.61357080078125,-0.3821728527545929,-0.8091768026351929,-0.027928810566663742
1761469364226555000,5.623554931640625,-0.3112877607345581,-0.7273252606391907,-0.044579144567251205
1761469364236537900,5.633537841796875,-0.24589012563228607,-0.5453357696533203,-0.05779508128762245
1761469364246520800,5.643520751953125,-0.1830325871706009,-0.3531425893306732,-0.08680175989866257
1761469364256504800,5.6535048828125,-0.15919995307922363,-0.25703975558280945,-0.1642073392868042
1761469364266487800,5.66348779296875,-0.13184718787670135,-0.3541988134384155,-0.22445063292980194
1761469364276470800,5.673470703125,-0.11999877542257309,-0.4108258783817291,-0.21544568240642548
1761469364286453800,5.683453857421875,-0.09125550091266632,-0.16417905688285828,-0.11497337371110916
1761469364296437800,5.693437744140625,-0.06435863673686981,0.3012767732143402,0.02170405164361
1761469364306420700,5.703420654296875,-0.02327706851065159,0.6219215989112854,0.05269327014684677
1761469364316404000,5.713404052734375,0.04944933205842972,0.6190754771232605,-0.018646158277988434
1761469364326388000,5.723387939453125,0.16829097270965576,0.3784599006175995,-0.15860141813755035
1761469364336371000,5.733370849609375,0.2946806252002716,0.04720289632678032,-0.3542385697364807
1761469364346353700,5.743353759765625,0.4012508690357208,-0.21838688850402832,-0.51145339012146
1761469364356337000,5.7533369140625,0.44898509979248047,-0.3312346041202545,-0.5492132902145386
1761469364366321000,5.76332080078125,0.4674062132835388,-0.34335076808929443,-0.48194554448127747
1761469364376303900,5.773303955078125,0.4682222008705139,-0.3623175621032715,-0.39235734939575195
1761469364386286800,5.783286865234375,0.4405282139778137,-0.39809489250183105,-0.3328463137149811
1761469364396270800,5.793270751953125,0.3875374495983124,-0.4213312566280365,-0.30610576272010803
1761469364406253800,5.80325390625,0.3213431239128113,-0.3978140950202942,-0.29206469655036926
1761469364416236800,5.81323681640625,0.24258998036384583,-0.34765690565109253,-0.2773992121219635
1761469364426220000,5.823219970703125,0.19318030774593353,-0.32197341322898865,-0.2733520567417145
1761469364436203800,5.833203857421875,0.16059041023254395,-0.3081825077533722,-0.2856811583042145
1761469364446186800,5.843186767578125,0.14716817438602448,-0.3103928864002228,-0.3018767833709717
1761469364456169700,5.853169677734375,0.16251890361309052,-0.31151169538497925,-0.31771886348724365
1761469364466154000,5.863154052734375,0.1789754033088684,-0.3101309537887573,-0.3393700420856476
1761469364476137000,5.873136962890625,0.1953652948141098,-0.31218451261520386,-0.365488201379776
1761469364486119700,5.88311962890625,0.2055467963218689,-0.31592801213264465,-0.4019365608692169
1761469364496103000,5.89310302734375,0.20184525847434998,-0.30591344833374023,-0.4579108655452728
1761469364506087000,5.9030869140625,0.21151213347911835,-0.24500371515750885,-0.5128554105758667
1761469364516070000,5.91306982421875,0.2177354097366333,-0.13376933336257935,-0.5644634962081909
1761469364526052900,5.923052978515625,0.23534786701202393,0.0077306488528847694,-0.6244266033172607
1761469364536036600,5.93303662109375,0.23529914021492004,0.1535075604915619,-0.6786301732063293
1761469364546019800,5.943019775390625,0.23594042658805847,0.27178359031677246,-0.728637158870697
1761469364556002800,5.9530029296875,0.2460375428199768,0.3715421259403229,-0.7592698931694031
1761469364565986800,5.96298681640625,0.23316079378128052,0.47591432929039,-0.7605376243591309
1761469364575970000,5.972969970703125,0.2035038322210312,0.5515521168708801,-0.7491618990898132
1761469364585952800,5.982952880859375,0.15178507566452026,0.5956010818481445,-0.7375904321670532
1761469364595935700,5.992935791015625,0.10515578091144562,0.6044356226921082,-0.7529880404472351
1761469364605919700,6.002919677734375,0.09592366963624954,0.5542006492614746,-0.7702208161354065
1761469364615903000,6.012903076171875,0.135329931974411,0.389126718044281,-0.7585058212280273
1761469364625885700,6.0228857421875,0.21601733565330505,0.16123686730861664,-0.6643018126487732
1761469364635869700,6.03286962890625,0.2791672646999359,-0.0042804572731256485,-0.5429788827896118
1761469364645853000,6.04285302734375,0.29118111729621887,-0.04578084498643875,-0.4178323447704315
1761469364655836000,6.0528359375,0.2490568608045578,0.03256668895483017,-0.29740554094314575
1761469364665819000,6.06281884765625,0.16903357207775116,0.13191571831703186,-0.14381681382656097
1761469364675803000,6.072802978515625,0.08147229254245758,0.15005263686180115,0.04341752454638481
1761469364685785900,6.082785888671875,0.04492577165365219,0.06471164524555206,0.24220047891139984
1761469364695768800,6.092768798828125,0.014998231083154678,-0.073931984603405,0.41340285539627075
1761469364705752800,6.1027529296875,-0.006339585408568382,-0.1851740926504135,0.5311238169670105
1761469364715735800,6.11273583984375,-0.019825033843517303,-0.2586834728717804,0.608495831489563
1761469364725718800,6.12271875,-0.03008655644953251,-0.32633325457572937,0.6615179777145386
1761469364735701800,6.13270166015625,-0.04507456347346306,-0.40162137150764465,0.6984725594520569
1761469364745685800,6.142685791015625,-0.06937243044376373,-0.43064084649086,0.7110953330993652
1761469364755669000,6.1526689453125,-0.12158049643039703,-0.36857321858406067,0.6843859553337097
1761469364765652000,6.16265185546875,-0.1991528570652008,-0.23742060363292694,0.6283208131790161
1761469364775635700,6.1726357421875,-0.28778231143951416,-0.07493314892053604,0.5403392910957336
1761469364785618700,6.18261865234375,-0.3687509000301361,0.07196791470050812,0.4395655691623688
1761469364795602000,6.192601806640625,-0.43777310848236084,0.18146245181560516,0.35381630063056946
1761469364805585000,6.2025849609375,-0.46907633543014526,0.2391926348209381,0.30566802620887756
1761469364815569000,6.21256884765625,-0.4794647991657257,0.24366648495197296,0.2933698296546936
1761469364825552000,6.2225517578125,-0.47843632102012634,0.24826280772686005,0.2926422357559204
1761469364835534800,6.232534912109375,-0.4503503441810608,0.23942403495311737,0.2923561930656433
1761469364845518800,6.242518798828125,-0.4090524911880493,0.22285741567611694,0.3031499683856964
1761469364855501800,6.252501708984375,-0.37141111493110657,0.21734946966171265,0.31033438444137573
1761469364865484800,6.26248486328125,-0.35496512055397034,0.2220386266708374,0.3295521140098572
1761469364875467800,6.2724677734375,-0.35445326566696167,0.2403036504983902,0.3588849902153015
1761469364885451800,6.28245166015625,-0.3645753562450409,0.25647246837615967,0.38722991943359375
1761469364895434500,6.2924345703125,-0.3596644997596741,0.2374604195356369,0.40744972229003906
1761469364905417700,6.302417724609375,-0.3362640142440796,0.09048635512590408,0.4322326183319092
1761469364915401700,6.312401611328125,-0.2938947379589081,-0.1614191234111786,0.46257373690605164
1761469364925384700,6.322384765625,-0.23697806894779205,-0.4231524169445038,0.4595034718513489
1761469364935368000,6.332367919921875,-0.18792743980884552,-0.6432520151138306,0.39788565039634705
1761469364945350700,6.3423505859375,-0.16336794197559357,-0.7207300066947937,0.2757006585597992
1761469364955334700,6.352334716796875,-0.16480392217636108,-0.6539520621299744,0.055838607251644135
1761469364965317600,6.362317626953125,-0.18997177481651306,-0.5070435404777527,-0.20656652748584747
1761469364975300900,6.37230078125,-0.16428692638874054,-0.40140068531036377,-0.39432069659233093
1761469364985284900,6.382284912109375,-0.11926084756851196,-0.4286883473396301,-0.4783482551574707
1761469364995267600,6.392267578125,-0.06992392241954803,-0.6340601444244385,-0.5125856399536133
1761469365005250800,6.402250732421875,-0.013911785557866096,-0.8631605505943298,-0.5135901570320129
1761469365015233800,6.41223388671875,0.01320185698568821,-0.8537276387214661,-0.5030339360237122
1761469365025217800,6.4222177734375,0.034845706075429916,-0.574874222278595,-0.49910131096839905
1761469365035200500,6.432200439453125,0.059813641011714935,-0.19991467893123627,-0.48398175835609436
1761469365045183700,6.442183837890625,0.09008366614580154,0.022818807512521744,-0.4460296332836151
1761469365055167700,6.452167724609375,0.14646917581558228,0.034197695553302765,-0.3756566643714905
1761469365065150700,6.462150634765625,0.25190696120262146,-0.10074998438358307,-0.3373885750770569
1761469365075133700,6.4721337890625,0.37787050008773804,-0.42723220586776733,-0.410418301820755
1761469365085117700,6.48211767578125,0.4778405427932739,-0.8132991194725037,-0.5015369653701782
1761469365095100700,6.4921005859375,0.534337043762207,-0.9916286468505859,-0.508595883846283
1761469365105083600,6.502083740234375,0.5527809858322144,-0.956952691078186,-0.4515930712223053
1761469365115067000,6.51206689453125,0.5256868004798889,-0.8382284641265869,-0.3761211931705475
1761469365125051000,6.52205078125,0.48877614736557007,-0.7483323812484741,-0.2771141231060028
1761469365135033600,6.53203369140625,0.41711822152137756,-1.02372407913208,-0.07199161499738693
1761469365145016600,6.5420166015625,0.4452790915966034,-1.0335897207260132,-0.12434238195419312
1761469365155000600,6.55200048828125,0.4201766550540924,-0.8679614067077637,-0.20873689651489258
1761469365164983800,6.56198388671875,0.39519792795181274,-0.643772542476654,-0.2595663070678711
1761469365174966800,6.571966796875,0.3924756646156311,-0.4506414830684662,-0.30421900749206543
1761469365184949800,6.58194970703125,0.4245331287384033,-0.394641637802124,-0.3058207631111145
1761469365194933800,6.591933837890625,0.4682009816169739,-0.45205432176589966,-0.28264087438583374
1761469365204916700,6.601916748046875,0.5320629477500916,-0.5345264673233032,-0.26089438796043396
1761469365214899700,6.611899658203125,0.6167008876800537,-0.613138735294342,-0.2623969316482544
1761469365224883700,6.6218837890625,0.6904702186584473,-0.6721189618110657,-0.2901233434677124
1761469365234866700,6.63186669921875,0.7387938499450684,-0.6797611117362976,-0.3110225200653076
1761469365244849700,6.641849609375,0.7933637499809265,-0.5848280191421509,-0.29808759689331055
1761469365254832600,6.65183251953125,0.7387527227401733,-0.4308760166168213,-0.3079812228679657
1761469365264816600,6.661816650390625,0.6256428956985474,-0.39912450313568115,-0.4460059106349945
1761469365274799900,6.6717998046875,0.4972529709339142,-0.45642000436782837,-0.6210373640060425
1761469365284782600,6.681782470703125,0.367008775472641,-0.5211745500564575,-0.7831162810325623
1761469365294766600,6.6917666015625,0.25557705760002136,-0.5964362621307373,-0.9178503751754761
1761469365304749800,6.701749755859375,0.1535077840089798,-0.7095650434494019,-1.012014389038086
1761469365314732800,6.71173291015625,0.07326088100671768,-0.8005069494247437,-1.0553815364837646
1761469365324715500,6.721715576171875,0.014744829386472702,-0.762138843536377,-1.0495473146438599
1761469365334699500,6.731699462890625,-0.061425842344760895,-0.6353257894515991,-0.9332025647163391
1761469365344682800,6.741682861328125,-0.1200641542673111,-0.46721863746643066,-0.7669479250907898
1761469365354665700,6.751665771484375,-0.14348825812339783,-0.25655460357666016,-0.564001202583313
1761469365364649700,6.761649658203125,-0.12513534724712372,-0.05329335108399391,-0.43364742398262024
1761469365374632700,6.7716328125,-0.08096522092819214,0.05411912500858307,-0.15153400599956512
1761469365384615700,6.78161572265625,-0.01791013963520527,0.01173793151974678,0.10718997567892075
1761469365394598700,6.7915986328125,0.029453115537762642,-0.13632531464099884,0.28154924511909485
1761469365404582700,6.801582763671875,0.05864434316754341,-0.3949739933013916,0.46819931268692017
1761469365414566000,6.81156591796875,0.08148893713951111,-0.6571012139320374,0.6165072917938232
1761469365424548600,6.821548583984375,0.06492958217859268,-0.8079568147659302,0.6652800440788269
1761469365434532600,6.83153271484375,0.027282869443297386,-0.7915991544723511,0.6238614916801453
1761469365444515600,6.841515625,-0.05208200216293335,-0.6698290705680847,0.49874618649482727
1761469365454498800,6.851498779296875,-0.17162810266017914,-0.5482174158096313,0.3209293484687805
1761469365464481500,6.8614814453125,-0.3144547641277313,-0.46017831563949585,0.15768897533416748
1761469365474465500,6.871465576171875,-0.4497521221637726,-0.42391857504844666,0.05934616178274155
1761469365484448800,6.88144873046875,-0.5250377655029297,-0.4220965802669525,0.023734433576464653
1761469365494431700,6.891431640625,-0.5547780990600586,-0.3491576611995697,0.04044070839881897
1761469365504415700,6.901415771484375,-0.5338547229766846,-0.19134005904197693,0.06511750817298889
1761469365514398700,6.911398681640625,-0.4940367639064789,0.015896471217274666,0.07124650478363037
1761469365524381700,6.921381591796875,-0.44720035791397095,0.17959026992321014,0.05417638644576073
1761469365534364700,6.93136474609375,-0.40893152356147766,0.2561734616756439,0.05910269916057587
1761469365544348700,6.9413486328125,-0.35944631695747375,0.21097959578037262,0.10668542981147766
1761469365554332000,6.951331787109375,-0.3320695459842682,0.018347568809986115,0.16054706275463104
1761469365564314600,6.961314697265625,-0.30023619532585144,-0.2495059370994568,0.22036461532115936
1761469365574298600,6.971298583984375,-0.26091593503952026,-0.5288984179496765,0.319004625082016
1761469365584281600,6.981281494140625,-0.20205654203891754,-0.7885727286338806,0.4843202233314514
1761469365594264800,6.991264892578125,-0.17193353176116943,-0.9871928691864014,0.7023303508758545
1761469365604247800,7.001247802734375,-0.1732231080532074,-1.092904806137085,0.9223131537437439
1761469365614231800,7.011231689453125,-0.23723165690898895,-1.0828509330749512,1.042744755744934
1761469365624214500,7.021214599609375,-0.3511725664138794,-0.9225947856903076,0.9851409196853638
1761469365634197800,7.03119775390625,-0.4930807054042816,-0.76387619972229,0.7151184678077698
1761469365644181800,7.041181640625,-0.6323423981666565,-0.7917995452880859,0.306734561920166
1761469365654164700,7.051164794921875,-0.7107762098312378,-0.9886223077774048,-0.14028608798980713
1761469365664147700,7.061147705078125,-0.7103803753852844,-1.1958974599838257,-0.5428966879844666
1761469365674130700,7.071130615234375,-0.6794523000717163,-1.2436715364456177,-0.8517336249351501
1761469365684114700,7.08111474609375,-0.5927457213401794,-1.0850120782852173,-1.0575281381607056
1761469365694097700,7.09109765625,-0.4801408648490906,-0.7383033633232117,-1.1369353532791138
1761469365704081000,7.101080810546875,-0.3113681972026825,-0.25878626108169556,-0.9544305205345154
1761469365714064600,7.111064697265625,-0.1526038646697998,0.24870064854621887,-0.7053826451301575
1761469365724047600,7.121047607421875,-0.03809436410665512,0.6437195539474487,-0.4552311897277832
1761469365734030800,7.13103076171875,0.06883901357650757,0.8727706074714661,-0.11069858819246292
1761469365744013800,7.141013916015625,0.19012153148651123,0.9496863484382629,0.21825003623962402
1761469365753997800,7.150997802734375,0.28650081157684326,0.9245067238807678,0.3861232101917267
1761469365763980500,7.16098046875,0.34791111946105957,0.8272373080253601,0.446216881275177
1761469365773963800,7.1709638671875,0.3616514205932617,0.7389178276062012,0.41336703300476074
1761469365783947800,7.18094775390625,0.3483075499534607,0.7144912481307983,0.33820852637290955
1761469365793930800,7.1909306640625,0.32506585121154785,0.6681000590324402,0.2883104681968689
1761469365803913500,7.20091357421875,0.29598477482795715,0.5296987295150757,0.2814757823944092
1761469365813897700,7.210897705078125,0.2904911935329437,0.3655763566493988,0.2866247594356537
1761469365823880700,7.220880615234375,0.3063208758831024,0.1747536063194275,0.2785954773426056
1761469365833863700,7.23086376953125,0.3405182659626007,0.062237441539764404,0.24678242206573486
1761469365843847000,7.240846923828125,0.35909298062324524,0.0934162586927414,0.21246753633022308
1761469365853831000,7.250830810546875,0.33966362476348877,0.23121513426303864,0.16080141067504883
1761469365863814100,7.260814208984375,0.2884170413017273,0.38219884037971497,0.10855665057897568
1761469365873797000,7.270797119140625,0.2276969850063324,0.5220600366592407,0.10113868117332458
1761469365883780000,7.280780029296875,0.17935492098331451,0.55697101354599,0.10743247717618942
1761469365893764000,7.29076416015625,0.15727198123931885,0.46243810653686523,0.12317175418138504
1761469365903747000,7.3007470703125,0.16835734248161316,0.27389612793922424,0.1558295339345932
1761469365913730000,7.31072998046875,0.217924103140831,0.06031006947159767,0.21957175433635712
1761469365923714000,7.320714111328125,0.27288880944252014,-0.18394121527671814,0.26638829708099365
1761469365933697000,7.330697021484375,0.3312258720397949,-0.38582029938697815,0.2901974618434906
1761469365943680000,7.340679931640625,0.4019085764884949,-0.49985364079475403,0.2693467438220978
1761469365953663200,7.350663330078125,0.4478054940700531,-0.541366457939148,0.19019629061222076
1761469365963647200,7.360647216796875,0.4503103494644165,-0.5408381223678589,0.07806271314620972
1761469365973630200,7.370630126953125,0.4163161516189575,-0.5079257488250732,-0.033204156905412674
1761469365983613000,7.380613037109375,0.35108160972595215,-0.45385926961898804,-0.12153707444667816
1761469365993597000,7.390596923828125,0.2774777114391327,-0.4199649393558502,-0.197048619389534
1761469366003580200,7.400580078125,0.2335396409034729,-0.42155879735946655,-0.26289626955986023
1761469366013563100,7.410563232421875,0.21435528993606567,-0.4730270504951477,-0.30056455731391907
1761469366023545900,7.4205458984375,0.2133459895849228,-0.5996880531311035,-0.33945944905281067
1761469366033530000,7.430530029296875,0.238284632563591,-0.7277892827987671,-0.3357749581336975
1761469366043513000,7.44051318359375,0.2881855070590973,-0.8127474784851074,-0.2943679988384247
1761469366053496000,7.45049609375,0.35030293464660645,-0.878077507019043,-0.22050097584724426
1761469366063480000,7.46047998046875,0.42930668592453003,-1.0338910818099976,-0.12181856483221054
1761469366073463300,7.47046337890625,0.5163776874542236,-1.2477351427078247,-0.028519779443740845
1761469366083446000,7.480446044921875,0.570339560508728,-1.4331475496292114,-0.024647746235132217
1761469366093429000,7.490428955078125,0.5632688999176025,-1.5344523191452026,-0.1488163024187088
1761469366103413000,7.5004130859375,0.5041465759277344,-1.4707036018371582,-0.34487801790237427
1761469366113396200,7.510396240234375,0.4049728512763977,-1.225293755531311,-0.5370615720748901
1761469366123379000,7.52037890625,0.2762446999549866,-0.8038326501846313,-0.6666980981826782
1761469366133363000,7.530363037109375,0.1618044227361679,-0.2450956255197525,-0.690775454044342
1761469366143346200,7.54034619140625,0.05877949297428131,0.386057049036026,-0.5786055326461792
1761469366153329200,7.5503291015625,-0.02600809745490551,0.9747765064239502,-0.4054105877876282
1761469366163312000,7.56031201171875,-0.08398226648569107,1.4048575162887573,-0.1951274871826172
1761469366173295900,7.5702958984375,-0.112015500664711,1.6656930446624756,0.006116148084402084
1761469366183279000,7.580279052734375,-0.13947513699531555,1.6893436908721924,0.20215833187103271
1761469366193262000,7.590261962890625,-0.1453830897808075,1.5035344362258911,0.3695633113384247
1761469366203246000,7.60024609375,-0.12089338153600693,1.2241202592849731,0.49216198921203613
1761469366213229000,7.61022900390625,-0.11042182892560959,0.9581982493400574,0.5447841882705688
1761469366223212000,7.6202119140625,-0.12173403799533844,0.7930313348770142,0.5137494206428528
1761469366233196000,7.630196044921875,-0.13865497708320618,0.7541784644126892,0.4252552092075348
1761469366243179000,7.640178955078125,-0.14834439754486084,0.7678948640823364,0.3251144289970398
1761469366253162200,7.650162353515625,-0.14868474006652832,0.7549912929534912,0.24715812504291534
1761469366263145000,7.66014501953125,-0.12496273219585419,0.6831479072570801,0.2131686508655548
1761469366273129000,7.67012890625,-0.07070215046405792,0.5909559726715088,0.2148272693157196
1761469366283112000,7.68011181640625,-0.01336020976305008,0.4721528887748718,0.23481331765651703
1761469366293095200,7.69009521484375,0.044374458491802216,0.29216235876083374,0.2711601257324219
1761469366303079200,7.7000791015625,0.09873665869235992,0.06548947840929031,0.3275142014026642
1761469366313062100,7.710062255859375,0.13255828619003296,-0.08889104425907135,0.44392576813697815
1761469366323045000,7.720045166015625,0.07092039287090302,-0.22748170793056488,0.4772716462612152
1761469366333028000,7.730028076171875,-0.04730211943387985,-0.3433430790901184,0.3751170337200165
1761469366343012000,7.74001220703125,-0.14579246938228607,-0.375321626663208,0.2668627202510834
1761469366352995000,7.7499951171875,-0.2387397140264511,-0.33429455757141113,0.207611083984375
1761469366362978000,7.75997802734375,-0.3160998523235321,-0.29973557591438293,0.161887988448143
1761469366372962000,7.769962158203125,-0.3549031615257263,-0.2739580273628235,0.14647281169891357
1761469366382945000,7.779945068359375,-0.3496139943599701,-0.2851291298866272,0.1484261453151703
1761469366392928000,7.789927978515625,-0.32286307215690613,-0.36102601885795593,0.16644960641860962
1761469366402911200,7.7999111328125,-0.27450525760650635,-0.5678908824920654,0.1713225245475769
