time,seconds_elapsed,z,y,x
1761469601765646000,0.11564599609375,-0.3312242031097412,0.47565504908561707,0.012708349153399467
1761469601775629000,0.125629150390625,-0.18736156821250916,0.4191877543926239,0.08451462537050247
1761469601785612000,0.135612060546875,-0.020479716360569,0.05559246614575386,0.1754245012998581
1761469601795595300,0.14559521484375,0.11789626628160477,-0.5101931691169739,0.2556154727935791
1761469601805579300,0.155579345703125,0.20249703526496887,-0.9414970278739929,0.25125443935394287
1761469601815562000,0.16556201171875,0.2117435336112976,-1.0569207668304443,0.1542014181613922
1761469601825545000,0.175544921875,0.17369163036346436,-0.8939690589904785,-0.045805610716342926
1761469601835528200,0.185528076171875,0.11598970741033554,-0.583038866519928,-0.3405001163482666
1761469601845511200,0.19551123046875,0.07149295508861542,-0.19639471173286438,-0.5993503928184509
1761469601855494100,0.205494140625,0.05394884943962097,0.14841701090335846,-0.7868359088897705
1761469601865477000,0.21547705078125,0.09493129700422287,0.4088325500488281,-0.8650610446929932
1761469601875460000,0.225460205078125,0.17225751280784607,0.5320456027984619,-0.8394536972045898
1761469601885443000,0.235443115234375,0.24650007486343384,0.5138940811157227,-0.7337802052497864
1761469601895426000,0.245426025390625,0.3201839029788971,0.3383936882019043,-0.5892464518547058
1761469601905409000,0.255408935546875,0.3745429515838623,0.06105978414416313,-0.4213526248931885
1761469601915392300,0.265392333984375,0.3848634958267212,-0.22018228471279144,-0.27620822191238403
1761469601925376300,0.275376220703125,0.3501264154911041,-0.43026089668273926,-0.15831713378429413
1761469601935359000,0.28535888671875,0.29862940311431885,-0.5454130172729492,-0.09533709287643433
1761469601945342000,0.295342041015625,0.24073465168476105,-0.5419602394104004,-0.08679690957069397
1761469601955325200,0.3053251953125,0.18574650585651398,-0.38926684856414795,-0.12613393366336823
1761469601965308200,0.31530810546875,0.11751142144203186,-0.16291646659374237,-0.20606932044029236
1761469601975291600,0.325291748046875,0.05315399914979935,0.06567677110433578,-0.30231329798698425
1761469601985275000,0.33527490234375,0.014932902529835701,0.27297741174697876,-0.391144335269928
1761469601995257900,0.3452578125,-0.01781199499964714,0.40691283345222473,-0.4603625535964966
1761469602005240600,0.355240478515625,-0.022634735330939293,0.44950902462005615,-0.49238812923431396
1761469602015223800,0.365223876953125,-0.0041294945403933525,0.3575386106967926,-0.48354005813598633
1761469602025206800,0.375206787109375,0.047685083001852036,0.18487422168254852,-0.442537397146225
1761469602035189800,0.385189697265625,0.11729612201452255,0.03484637662768364,-0.3969917595386505
1761469602045173800,0.395173828125,0.2024560570716858,-0.031186969950795174,-0.37394604086875916
1761469602055156700,0.40515673828125,0.28234583139419556,-0.015861278399825096,-0.36287978291511536
1761469602065139700,0.4151396484375,0.34350118041038513,0.07328251004219055,-0.3682539761066437
1761469602075123000,0.425123046875,0.3646160364151001,0.20727334916591644,-0.3792001008987427
1761469602085106000,0.43510595703125,0.352666974067688,0.3175896108150482,-0.40626901388168335
1761469602095088600,0.445088623046875,0.3087961673736572,0.40204885601997375,-0.45033660531044006
1761469602105071900,0.45507177734375,0.24693867564201355,0.5282093286514282,-0.5087306499481201
1761469602115054800,0.465054931640625,0.18254131078720093,0.7295855283737183,-0.5808711051940918
1761469602125037800,0.475037841796875,0.14773210883140564,0.9851740002632141,-0.627225935459137
1761469602135020800,0.485020751953125,0.17178525030612946,1.2837141752243042,-0.6130720376968384
1761469602145003800,0.495003662109375,0.23896315693855286,1.5309391021728516,-0.5310957431793213
1761469602154986800,0.50498681640625,0.3033173680305481,1.578285574913025,-0.36904215812683105
1761469602164969700,0.5149697265625,0.34600207209587097,1.3595629930496216,-0.15461497008800507
1761469602174953700,0.52495361328125,0.2989557385444641,0.9759960770606995,0.0029461670201271772
1761469602184936700,0.534936767578125,0.16612863540649414,0.6103986501693726,0.06614341586828232
1761469602194920000,0.544919921875,0.08620691299438477,0.3244931101799011,0.11051833629608154
1761469602204903000,0.55490283203125,0.0678965300321579,0.14848966896533966,0.21707293391227722
1761469602214885600,0.5648857421875,0.08830912411212921,0.1010875329375267,0.38047197461128235
1761469602224868900,0.574868896484375,0.11945295333862305,0.10535261034965515,0.5204392671585083
1761469602234851800,0.584851806640625,0.16373494267463684,0.09518572688102722,0.5995367169380188
1761469602244834800,0.594834716796875,0.23106269538402557,0.0877012237906456,0.6468660235404968
1761469602254817800,0.60481787109375,0.2749294638633728,0.1046288013458252,0.669338047504425
1761469602264800800,0.61480078125,0.3117868900299072,0.12655918300151825,0.6426982283592224
1761469602274783700,0.62478369140625,0.3156532645225525,0.09364757686853409,0.5362465977668762
1761469602284767700,0.634767822265625,0.2736545205116272,0.022662412375211716,0.3566734790802002
1761469602294750700,0.644750732421875,0.20498360693454742,-0.02370801568031311,0.17361070215702057
1761469602304733700,0.654733642578125,0.12092439830303192,-0.028574565425515175,0.057806406170129776
1761469602314717000,0.664717041015625,0.030969208106398582,0.008497435599565506,-0.007769937627017498
1761469602324700000,0.674699951171875,-0.05846502259373665,0.0830492153763771,-0.01705690659582615
1761469602334682600,0.6846826171875,-0.1369774043560028,0.176463320851326,0.030208874493837357
1761469602344665900,0.694665771484375,-0.19723759591579437,0.27712732553482056,0.14285840094089508
1761469602354648800,0.70464892578125,-0.22575338184833527,0.3593670725822449,0.3023761808872223
1761469602364631800,0.7146318359375,-0.2174811214208603,0.4244127571582794,0.46888551115989685
1761469602374614800,0.72461474609375,-0.20365691184997559,0.4673183858394623,0.6007063388824463
1761469602384597800,0.73459765625,-0.18617619574069977,0.46606937050819397,0.698449432849884
1761469602394580700,0.744580810546875,-0.16729117929935455,0.4290221333503723,0.7628806233406067
1761469602404564000,0.75456396484375,-0.14805443584918976,0.31585121154785156,0.8311320543289185
1761469602414547700,0.764547607421875,-0.11605574935674667,0.1584557443857193,0.8775472640991211
1761469602424530700,0.77453076171875,-0.07837802916765213,-0.02794124186038971,0.9039629697799683
1761469602434514000,0.784513916015625,-0.06851581484079361,-0.1379508376121521,0.9183176755905151
1761469602444497000,0.794496826171875,-0.10445881634950638,-0.1563943773508072,0.9194033145904541
1761469602454479600,0.804479736328125,-0.1770153045654297,-0.08659133315086365,0.9037553668022156
1761469602464462800,0.814462890625,-0.2797480523586273,0.00733026210218668,0.834826648235321
1761469602474445800,0.82444580078125,-0.40114825963974,0.16650207340717316,0.6834174394607544
1761469602484428800,0.8344287109375,-0.5170405507087708,0.374960720539093,0.4827183783054352
1761469602494411800,0.844411865234375,-0.580687940120697,0.6292915344238281,0.2517027258872986
1761469602504394800,0.854394775390625,-0.5955548286437988,0.868078887462616,0.008337375707924366
1761469602514377700,0.864377685546875,-0.5359625816345215,1.0252312421798706,-0.193595752120018
1761469602524361000,0.87436083984375,-0.4556645154953003,1.0022917985916138,-0.3260512053966522
1761469602534344700,0.8843447265625,-0.37968453764915466,0.8106087446212769,-0.331297367811203
1761469602544327700,0.89432763671875,-0.2971700429916382,0.5585141777992249,-0.22966186702251434
1761469602554311000,0.904310791015625,-0.18798470497131348,0.30406638979911804,-0.085161954164505
1761469602564294000,0.9142939453125,-0.14405006170272827,0.1373787224292755,0.05646275356411934
1761469602574276600,0.924276611328125,-0.14867249131202698,0.26004284620285034,0.14527198672294617
1761469602584259800,0.934259765625,-0.16074343025684357,0.5210182666778564,0.18903185427188873
1761469602594242800,0.944242919921875,-0.1794324368238449,0.7328346967697144,0.17752407491207123
1761469602604225800,0.954225830078125,-0.18413831293582916,0.8347765803337097,0.1626954823732376
1761469602614208800,0.964208740234375,-0.1536339372396469,0.827643871307373,0.16414716839790344
1761469602624191700,0.974191650390625,-0.09968403726816177,0.6549376249313354,0.13591593503952026
1761469602634174700,0.9841748046875,-0.023220155388116837,0.3413800001144409,0.11265402287244797
1761469602644158000,0.994157958984375,0.09213167428970337,0.09332635253667831,0.15590210258960724
1761469602654140700,1.004140625,0.21682435274124146,-0.051153864711523056,0.23106369376182556
1761469602664124700,1.014124755859375,0.3182428181171417,-0.12342752516269684,0.28827717900276184
1761469602674108000,1.02410791015625,0.39825138449668884,-0.14908921718597412,0.28596022725105286
1761469602684091000,1.0340908203125,0.4284735321998596,-0.14677850902080536,0.21250605583190918
1761469602694073600,1.044073486328125,0.418657124042511,-0.0829119086265564,0.07931949943304062
1761469602704056800,1.054056884765625,0.38807156682014465,0.039493393152952194,-0.0980863943696022
1761469602714039800,1.064039794921875,0.3609302341938019,0.1823970228433609,-0.28842517733573914
1761469602724022800,1.074022705078125,0.32676127552986145,0.361626535654068,-0.4111519753932953
1761469602734005800,1.084005859375,0.2889590263366699,0.5431776642799377,-0.4708491265773773
1761469602743988700,1.09398876953125,0.2678566873073578,0.6602889895439148,-0.4976421296596527
1761469602753971700,1.1039716796875,0.27689918875694275,0.6595848798751831,-0.49627435207366943
1761469602763955000,1.113954833984375,0.30863019824028015,0.5893767476081848,-0.48646000027656555
1761469602773937700,1.123937744140625,0.32469332218170166,0.5152888894081116,-0.45824673771858215
1761469602783921700,1.133921630859375,0.3297067880630493,0.47455963492393494,-0.4082011282444
1761469602793905000,1.14390478515625,0.31797531247138977,0.403352290391922,-0.367673397064209
1761469602803887900,1.153887939453125,0.29293179512023926,0.24904172122478485,-0.33693385124206543
1761469602813870800,1.163870849609375,0.29618218541145325,0.004984328057616949,-0.3241384029388428
1761469602823853800,1.173853759765625,0.3128064274787903,-0.2076961100101471,-0.34034690260887146
1761469602833836800,1.1838369140625,0.38488516211509705,-0.24937164783477783,-0.36503520607948303
1761469602843819800,1.19381982421875,0.47829100489616394,-0.10955505818128586,-0.44962432980537415
1761469602853802800,1.203802734375,0.5394680500030518,0.11650177836418152,-0.6118273735046387
1761469602863785700,1.21378564453125,0.5731899738311768,0.25196337699890137,-0.8016611337661743
1761469602873768700,1.223768798828125,0.627499520778656,0.1463903784751892,-0.9109383225440979
1761469602883752000,1.233751953125,0.6730113625526428,-0.08424681425094604,-0.8712619543075562
1761469602893734700,1.243734619140625,0.6495729088783264,-0.27069976925849915,-0.7000524401664734
1761469602903717600,1.253717529296875,0.5635294914245605,-0.27843141555786133,-0.3973662853240967
1761469602913702000,1.263701904296875,0.42569699883461,-0.17685766518115997,-0.04733423888683319
1761469602923684900,1.273684814453125,0.25208353996276855,-0.043331604450941086,0.2752644121646881
1761469602933667800,1.283667724609375,0.10334867238998413,0.11093945801258087,0.5175876021385193
1761469602943650800,1.29365087890625,-0.013335753232240677,0.2499607652425766,0.6439214944839478
1761469602953633800,1.3036337890625,-0.06215016543865204,0.3126835525035858,0.6472342014312744
1761469602963616800,1.31361669921875,-0.0852147713303566,0.30892112851142883,0.6296777725219727
1761469602973599700,1.323599853515625,-0.10490965098142624,0.2990242838859558,0.6111544370651245
1761469602983582700,1.333582763671875,-0.12270801514387131,0.29295819997787476,0.59272700548172
1761469602993565400,1.3435654296875,-0.12621992826461792,0.311694860458374,0.534142255783081
1761469603003548700,1.353548583984375,-0.11281776428222656,0.31344112753868103,0.4115583300590515
1761469603013531600,1.36353173828125,-0.07383707165718079,0.27977317571640015,0.2788447439670563
1761469603023514600,1.3735146484375,-0.035476114600896835,0.18900159001350403,0.1710626482963562
1761469603033499000,1.383498779296875,-0.004821533802896738,0.08748695254325867,0.09009881317615509
1761469603043481600,1.393481689453125,0.011753574945032597,-0.024455364793539047,0.06181137263774872
1761469603053464600,1.403464599609375,0.014578389935195446,-0.1310422569513321,0.08613774925470352
1761469603063447800,1.41344775390625,0.01863252930343151,-0.2072005271911621,0.13810719549655914
1761469603073430800,1.4234306640625,0.006466143764555454,-0.27471432089805603,0.22249877452850342
1761469603083413500,1.43341357421875,-0.020268969237804413,-0.33243459463119507,0.3115560710430145
1761469603093396700,1.443396728515625,-0.07079392671585083,-0.3599056303501129,0.3841208219528198
1761469603103379700,1.453379638671875,-0.13302645087242126,-0.33738356828689575,0.45402663946151733
1761469603113362400,1.463362548828125,-0.19416597485542297,-0.26016494631767273,0.5163280367851257
1761469603123345700,1.473345703125,-0.2410489022731781,-0.16891109943389893,0.5676124691963196
1761469603133328600,1.48332861328125,-0.2600923776626587,-0.125924214720726,0.6279820799827576
1761469603143311600,1.4933115234375,-0.22453850507736206,-0.13887444138526917,0.6983913779258728
1761469603153294600,1.503294677734375,-0.14191845059394836,-0.21123625338077545,0.7518522143363953
1761469603163278600,1.513278564453125,-0.03324400633573532,-0.35336175560951233,0.7764474749565125
1761469603173261600,1.523261474609375,0.0510554276406765,-0.5356079936027527,0.752209484577179
1761469603183244800,1.533244873046875,0.08239730447530746,-0.7210564613342285,0.6675600409507751
1761469603193227800,1.543227783203125,0.05186282843351364,-0.8269631862640381,0.5297779440879822
1761469603203210500,1.55321044921875,-0.058549243956804276,-0.7767249345779419,0.3390936553478241
1761469603213193700,1.56319384765625,-0.23875097930431366,-0.5315348505973816,0.1264255940914154
1761469603223176700,1.5731767578125,-0.4862382411956787,-0.0845109075307846,-0.056984107941389084
1761469603233159700,1.58315966796875,-0.715893030166626,0.5024120211601257,-0.21179844439029694
1761469603243142700,1.593142578125,-0.8761407136917114,1.0137732028961182,-0.3236587345600128
1761469603253125600,1.603125732421875,-0.8978835940361023,1.1946306228637695,-0.3850914537906647
1761469603263108600,1.613108642578125,-0.7742711305618286,1.078405737876892,-0.380318820476532
1761469603273091600,1.623091552734375,-0.5790955424308777,0.7604354619979858,-0.2945338785648346
1761469603283074600,1.633074462890625,-0.3592979907989502,0.37975162267684937,-0.10666470229625702
1761469603293058600,1.64305859375,-0.221182182431221,0.18106916546821594,0.10346483439207077
1761469603303041800,1.653041748046875,-0.17227217555046082,0.22415006160736084,0.20704475045204163
1761469603313024800,1.663024658203125,-0.12081694602966309,0.33605971932411194,0.2088000625371933
1761469603323007500,1.673007568359375,-0.04564765468239784,0.36079123616218567,0.17857502400875092
1761469603332990700,1.68299072265625,0.016634095460176468,0.3157566487789154,0.13687817752361298
1761469603342973700,1.6929736328125,0.07229559123516083,0.22483746707439423,0.070964515209198
1761469603352956700,1.702956787109375,0.11549659073352814,0.10870765894651413,-0.0016239392571151257
1761469603362939600,1.712939697265625,0.1436096727848053,0.019553659483790398,-0.022200345993041992
1761469603372922600,1.722922607421875,0.14666084945201874,-0.05161692202091217,0.013597065582871437
1761469603382905600,1.732905517578125,0.14096762239933014,-0.11357545107603073,0.043611183762550354
1761469603392888800,1.742888916015625,0.14417485892772675,-0.14707988500595093,0.0460495762526989
1761469603402871600,1.75287158203125,0.16370004415512085,-0.1245543509721756,0.006177745293825865
1761469603412855600,1.76285546875,0.20258086919784546,-0.04782336205244064,-0.07384784519672394
1761469603422838800,1.7728388671875,0.22917339205741882,0.059750523418188095,-0.17974916100502014
1761469603432821800,1.78282177734375,0.24810980260372162,0.1454039067029953,-0.29426002502441406
1761469603442804500,1.792804443359375,0.25202205777168274,0.21974435448646545,-0.3998261094093323
1761469603452787700,1.80278759765625,0.23324009776115417,0.2673358619213104,-0.4770822823047638
1761469603462770700,1.812770751953125,0.22601425647735596,0.27697935700416565,-0.5292041897773743
1761469603472753700,1.822753662109375,0.2174101024866104,0.25400876998901367,-0.5739641785621643
1761469603482736600,1.832736572265625,0.21396537125110626,0.19930587708950043,-0.6143485903739929
1761469603492719600,1.8427197265625,0.22126030921936035,0.11625944823026657,-0.62436443567276
1761469603502702600,1.85270263671875,0.23352977633476257,0.07074352353811264,-0.6063074469566345
1761469603512685800,1.862685791015625,0.25102460384368896,0.03511042520403862,-0.57353276014328
1761469603522668500,1.87266845703125,0.2775852382183075,-0.02739669196307659,-0.533989429473877
1761469603532651800,1.88265185546875,0.3042983412742615,-0.1389666348695755,-0.5135491490364075
1761469603542635800,1.8926357421875,0.32562339305877686,-0.19817520678043365,-0.47717535495758057
1761469603552618800,1.90261865234375,0.36059868335723877,-0.19696266949176788,-0.42233768105506897
1761469603562601500,1.9126015625,0.3970666527748108,-0.1138576865196228,-0.3416968882083893
1761469603572584700,1.922584716796875,0.40925195813179016,0.05593375116586685,-0.3247013986110687
1761469603582567700,1.932567626953125,0.3899298310279846,0.26171231269836426,-0.39474692940711975
1761469603592550700,1.942550537109375,0.38559848070144653,0.37309926748275757,-0.5094985365867615
1761469603602533600,1.95253369140625,0.4189928472042084,0.2545951306819916,-0.5251106023788452
1761469603612516600,1.9625166015625,0.4259607493877411,0.05485882982611656,-0.3792324662208557
1761469603622499600,1.97249951171875,0.39543041586875916,-0.10893949121236801,-0.11770878732204437
1761469603632482800,1.98248291015625,0.36048761010169983,-0.20159511268138885,0.23801176249980927
1761469603642465500,1.992465576171875,0.34170812368392944,-0.23604492843151093,0.5425810217857361
1761469603652448800,2.00244873046875,0.2955065369606018,-0.26184430718421936,0.7500511407852173
1761469603662432800,2.012432861328125,0.20153549313545227,-0.24681386351585388,0.8358703255653381
1761469603672415700,2.022415771484375,0.10394182801246643,-0.26622432470321655,0.7897430658340454
1761469603682398500,2.0323984375,0.02604435198009014,-0.19289430975914001,0.7383988499641418
1761469603692381700,2.042381591796875,-0.020574282854795456,-0.06220526993274689,0.7092739939689636
1761469603702364700,2.05236474609375,-0.0686354711651802,-0.003274933435022831,0.6629492044448853
1761469603712347600,2.06234765625,-0.11753802746534348,-0.0005571777001023293,0.5786058306694031
1761469603722330600,2.07233056640625,-0.14941267669200897,-0.007378908805549145,0.5140395760536194
1761469603732313600,2.082313720703125,-0.19147942960262299,-0.04347912222146988,0.4682251811027527
1761469603742296600,2.092296630859375,-0.2450864464044571,-0.050651662051677704,0.4080798625946045
1761469603752279800,2.10227978515625,-0.2711728811264038,-0.03840404748916626,0.377935528755188
1761469603762262500,2.112262451171875,-0.29406866431236267,-0.019666068255901337,0.3796156942844391
1761469603772245800,2.122245849609375,-0.32359859347343445,0.07021401822566986,0.40039846301078796
1761469603782228700,2.132228759765625,-0.354693204164505,0.18928737938404083,0.43502727150917053
1761469603792212700,2.142212646484375,-0.36094576120376587,0.27395859360694885,0.4696566164493561
1761469603802195500,2.152195556640625,-0.34254881739616394,0.2863050699234009,0.5394775867462158
1761469603812178700,2.1621787109375,-0.32017797231674194,0.2505185604095459,0.6119866967201233
1761469603822161700,2.17216162109375,-0.2823745310306549,0.14226366579532623,0.6771823167800903
1761469603832144600,2.18214453125,-0.2510986328125,-0.0022892532870173454,0.7299789786338806
1761469603842127600,2.192127685546875,-0.2119341492652893,-0.10300944745540619,0.7564447522163391
1761469603852110600,2.202110595703125,-0.1759343445301056,-0.17786265909671783,0.7499309182167053
1761469603862093600,2.212093505859375,-0.16433210670948029,-0.26708126068115234,0.7312449812889099
1761469603872076800,2.222076904296875,-0.18691757321357727,-0.35215088725090027,0.6851573586463928
1761469603882059500,2.2320595703125,-0.23750264942646027,-0.3910697400569916,0.609951376914978
1761469603892042800,2.242042724609375,-0.3055029809474945,-0.3987579941749573,0.5157686471939087
1761469603902025700,2.252025634765625,-0.3680918514728546,-0.36990588903427124,0.41713154315948486
1761469603912008700,2.2620087890625,-0.41118818521499634,-0.34231847524642944,0.33248722553253174
1761469603921992700,2.27199267578125,-0.4632978141307831,-0.3146359920501709,0.2201707512140274
1761469603931975700,2.2819755859375,-0.49689170718193054,-0.1073102280497551,0.006806009914726019
1761469603941958700,2.291958740234375,-0.5225573182106018,0.3077769875526428,-0.22108112275600433
1761469603951941600,2.301941650390625,-0.49746471643447876,0.6781057715415955,-0.39976218342781067
1761469603961924600,2.311924560546875,-0.3779197931289673,0.7170296907424927,-0.4467092752456665
1761469603971907600,2.321907470703125,-0.18478895723819733,0.42299219965934753,-0.3708680272102356
1761469603981890800,2.331890869140625,-0.02929220162332058,-0.03263155743479729,-0.292471706867218
1761469603991874000,2.3418740234375,0.06961441040039062,-0.427951455116272,-0.24899612367153168
1761469604001857000,2.35185693359375,0.06041664630174637,-0.3872849941253662,-0.20161503553390503
1761469604011839700,2.36183984375,0.05752551928162575,-0.12168046832084656,-0.16928425431251526
1761469604021823000,2.371822998046875,0.0492059551179409,0.06620494276285172,-0.19549864530563354
1761469604031806000,2.381805908203125,0.06217288598418236,0.17704623937606812,-0.22811384499073029
1761469604041790000,2.3917900390625,0.14664843678474426,0.1749853938817978,-0.23341800272464752
1761469604051773200,2.401773193359375,0.2636602818965912,0.08191750198602676,-0.19454702734947205
1761469604061756000,2.411755859375,0.34678512811660767,-0.04726851359009743,-0.09790527820587158
1761469604071739000,2.42173876953125,0.39273107051849365,-0.14296068251132965,0.011441990733146667
1761469604081722000,2.43172216796875,0.40658265352249146,-0.16386425495147705,0.12987220287322998
1761469604091704800,2.441704833984375,0.40277808904647827,-0.1414489597082138,0.22640512883663177
1761469604101687800,2.451687744140625,0.395539253950119,-0.134042888879776,0.2989213466644287
1761469604111671000,2.461671142578125,0.3835821747779846,-0.13303834199905396,0.32340165972709656
1761469604121654000,2.471654052734375,0.36491334438323975,-0.13104966282844543,0.3143169581890106
1761469604131636700,2.48163671875,0.32438480854034424,-0.1388404816389084,0.2638082504272461
1761469604141620000,2.491619873046875,0.2643619775772095,-0.14699335396289825,0.1726786196231842
1761469604151603000,2.50160302734375,0.2072528749704361,-0.1436830461025238,0.06494709849357605
1761469604161586000,2.5115859375,0.15268130600452423,-0.08075516670942307,-0.04093907028436661
1761469604171570200,2.521570068359375,0.10788241028785706,0.007515041623264551,-0.12425792962312698
1761469604181553000,2.531552978515625,0.07979274541139603,0.09546942263841629,-0.1950245052576065
1761469604191535900,2.541535888671875,0.06356210261583328,0.17286166548728943,-0.25721731781959534
1761469604201519000,2.55151904296875,0.04940219596028328,0.228544682264328,-0.33168208599090576
1761469604211502000,2.561502197265625,0.025081941857933998,0.3004327416419983,-0.4054340720176697
1761469604221484800,2.57148486328125,0.0006803246214985847,0.39260172843933105,-0.47407880425453186
1761469604231468000,2.581468017578125,-0.01081228069961071,0.46232596039772034,-0.5286189913749695
1761469604241451000,2.591450927734375,-0.011880672536790371,0.46481871604919434,-0.5886015892028809
1761469604251433700,2.601433837890625,0.008995315060019493,0.4599565863609314,-0.6502093076705933
1761469604261417000,2.6114169921875,0.028586003929376602,0.4564812481403351,-0.7131741642951965
1761469604271400000,2.62139990234375,0.060363106429576874,0.42436060309410095,-0.7907411456108093
1761469604281383000,2.6313828125,0.08811986446380615,0.37088218331336975,-0.8949269652366638
1761469604291366000,2.641365966796875,0.09448907524347305,0.3717961609363556,-1.0180333852767944
1761469604301350000,2.651349853515625,0.03890546038746834,0.4873102605342865,-1.1679062843322754
1761469604311332900,2.661332763671875,-0.05589454993605614,0.6823050379753113,-1.3045618534088135
1761469604321316000,2.671316162109375,-0.14309796690940857,0.8632286190986633,-1.4436297416687012
1761469604331299000,2.681299072265625,-0.1765105128288269,0.8743347525596619,-1.549787163734436
1761469604341281800,2.69128173828125,-0.1253466010093689,0.7172905802726746,-1.4886398315429688
1761469604351265000,2.70126513671875,-0.005637781694531441,0.46447592973709106,-1.2047004699707031
1761469604361248000,2.711248046875,0.1214078813791275,0.22247812151908875,-0.780102550983429
1761469604371230700,2.721230712890625,0.22949308156967163,0.05926070362329483,-0.3506784737110138
1761469604381214000,2.7312138671875,0.31994691491127014,-0.08105867356061935,-0.07245392352342606
1761469604391197000,2.741197021484375,0.35774731636047363,-0.21079349517822266,0.07444870471954346
1761469604401180000,2.751179931640625,0.34632745385169983,-0.21278803050518036,0.19738930463790894
1761469604411163000,2.761162841796875,0.27830418944358826,-0.1403505802154541,0.31828537583351135
1761469604421145900,2.771145751953125,0.23684798181056976,-0.14464963972568512,0.42279088497161865
1761469604431129900,2.7811298828125,0.19454766809940338,-0.1949405074119568,0.505035400390625
1761469604441113000,2.791113037109375,0.16377344727516174,-0.29597994685173035,0.5668018460273743
1761469604451096000,2.801095947265625,0.12634964287281036,-0.43296870589256287,0.611063539981842
1761469604461078800,2.811078857421875,0.07338092476129532,-0.5534799695014954,0.6506322026252747
1761469604471062000,2.82106201171875,-0.018594268709421158,-0.5771223902702332,0.6551944613456726
1761469604481045000,2.831044921875,-0.09762133657932281,-0.4965674877166748,0.651531994342804
1761469604491028000,2.841028076171875,-0.17336510121822357,-0.4011914134025574,0.6374561190605164
1761469604501011000,2.851010986328125,-0.25266411900520325,-0.3041873574256897,0.6011255383491516
1761469604510994000,2.860993896484375,-0.31075406074523926,-0.171598419547081,0.570905864238739
1761469604520977000,2.870976806640625,-0.3192359209060669,-0.046694956719875336,0.5519945025444031
1761469604530960000,2.8809599609375,-0.2788344621658325,0.017829442396759987,0.5384443402290344
1761469604540942800,2.89094287109375,-0.23165467381477356,0.02686714380979538,0.5402095317840576
1761469604550926800,2.9009267578125,-0.2397453486919403,0.012645331211388111,0.5529301166534424
1761469604560910000,2.91091015625,-0.26730483770370483,0.0076287356205284595,0.5758787989616394
1761469604570893000,2.92089306640625,-0.31268614530563354,0.008364567533135414,0.6373530626296997
1761469604580875800,2.930875732421875,-0.3665716052055359,-0.02603326551616192,0.6841963529586792
1761469604590859000,2.94085888671875,-0.4036092758178711,-0.07282713800668716,0.6882531046867371
1761469604600842000,2.950842041015625,-0.42342981696128845,-0.11618538945913315,0.6454551219940186
1761469604610825000,2.960824951171875,-0.4300844967365265,-0.13978686928749084,0.570392370223999
1761469604620808000,2.970807861328125,-0.426014244556427,-0.16517937183380127,0.49888741970062256
1761469604630791000,2.980791015625,-0.42777833342552185,-0.23340049386024475,0.43379124999046326
1761469604640774000,2.99077392578125,-0.42231521010398865,-0.2646152079105377,0.37736305594444275
1761469604650757000,3.000757080078125,-0.4201149046421051,-0.31496918201446533,0.32495468854904175
1761469604660739800,3.01073974609375,-0.4240316152572632,-0.3672356903553009,0.24473470449447632
1761469604670723000,3.02072314453125,-0.4286586046218872,-0.26178252696990967,0.1175682321190834
1761469604680707000,3.03070703125,-0.430184543132782,0.07585639506578445,-0.05659395456314087
1761469604690690000,3.04068994140625,-0.4430185854434967,0.555219829082489,-0.1735679805278778
1761469604700672800,3.0506728515625,-0.4426420331001282,0.7978705167770386,-0.25595927238464355
1761469604710656000,3.060656005859375,-0.3755258321762085,0.5981339812278748,-0.21868059039115906
1761469604720639000,3.070638916015625,-0.26689955592155457,0.04505437985062599,-0.10619620233774185
1761469604730622000,3.0806220703125,-0.17248648405075073,-0.4100268483161926,0.054819315671920776
1761469604740605000,3.09060498046875,-0.1433960497379303,-0.4331092834472656,0.1517990380525589
1761469604750588000,3.100587890625,-0.11157660186290741,-0.23550353944301605,0.13508076965808868
1761469604760571000,3.11057080078125,-0.05823296308517456,-0.06900232285261154,-0.024682771414518356
1761469604770554000,3.12055419921875,0.023585468530654907,0.10420168191194534,-0.25938957929611206
1761469604780536800,3.130536865234375,0.1365719437599182,0.19975870847702026,-0.4314393699169159
1761469604790520000,3.14052001953125,0.2635597288608551,0.18660375475883484,-0.5277296900749207
1761469604800504000,3.150504150390625,0.41439566016197205,0.09585260599851608,-0.5720171332359314
1761469604810487000,3.160487060546875,0.525016725063324,0.017341814935207367,-0.542224645614624
1761469604820469800,3.1704697265625,0.5884994864463806,-0.042594797909259796,-0.4746544361114502
1761469604830453000,3.180452880859375,0.6112913489341736,-0.10165944695472717,-0.4058500826358795
1761469604840436000,3.19043603515625,0.6138099431991577,-0.15630565583705902,-0.33834320306777954
1761469604850419000,3.2004189453125,0.5862421989440918,-0.2074282318353653,-0.29047873616218567
1761469604860402000,3.21040185546875,0.5476498007774353,-0.22678515315055847,-0.2868213653564453
1761469604870385000,3.220385009765625,0.5025228261947632,-0.2142363339662552,-0.2895508408546448
1761469604880367900,3.230367919921875,0.4741211533546448,-0.2027318924665451,-0.28187790513038635
1761469604890351000,3.24035107421875,0.462965190410614,-0.2070094645023346,-0.2429070770740509
1761469604900333800,3.250333740234375,0.4402458369731903,-0.20836354792118073,-0.18404072523117065
1761469604910317000,3.260317138671875,0.40652140974998474,-0.1704462617635727,-0.1509418934583664
1761469604920300000,3.270300048828125,0.37111854553222656,-0.14694513380527496,-0.16420619189739227
1761469604930283000,3.280282958984375,0.33336421847343445,-0.14298367500305176,-0.22266151010990143
1761469604940266800,3.290266845703125,0.2841443121433258,-0.14263702929019928,-0.2919395864009857
1761469604950250000,3.30025,0.22606287896633148,-0.11988856643438339,-0.3476284146308899
1761469604960233000,3.31023291015625,0.19778244197368622,-0.08882283419370651,-0.37568220496177673
1761469604970216000,3.3202158203125,0.17255936563014984,-0.0717538371682167,-0.4135587513446808
1761469604980198700,3.33019873046875,0.17637887597084045,-0.06861836463212967,-0.4841631352901459
1761469604990181600,3.340181640625,0.18145538866519928,-0.05333208665251732,-0.5649986267089844
1761469605000164900,3.350164794921875,0.18902213871479034,0.040184371173381805,-0.6647186279296875
1761469605010147600,3.360147705078125,0.21403561532497406,0.22714227437973022,-0.7863640785217285
1761469605020130600,3.370130615234375,0.24652957916259766,0.46436983346939087,-0.9407127499580383
1761469605030113800,3.38011376953125,0.32092151045799255,0.6884710788726807,-1.1100038290023804
1761469605040096800,3.3900966796875,0.37344902753829956,0.8915234804153442,-1.260394811630249
1761469605050079500,3.40007958984375,0.4524170756340027,0.805247962474823,-1.3641126155853271
1761469605060063500,3.4100634765625,0.48229122161865234,0.5319101214408875,-1.415473461151123
1761469605070046700,3.420046630859375,0.43744945526123047,0.3711302876472473,-1.3530327081680298
1761469605080029700,3.43002978515625,0.27946940064430237,0.3483456075191498,-1.1609388589859009
1761469605090012700,3.4400126953125,0.16086632013320923,0.3750017285346985,-0.7958692908287048
1761469605099995600,3.44999560546875,0.11281004548072815,0.26003021001815796,-0.32587170600891113
1761469605109978600,3.459978515625,0.06164619326591492,0.08648080378770828,0.11666122823953629
1761469605119961900,3.4699619140625,0.007049502804875374,0.03641686215996742,0.445159912109375
1761469605129944600,3.479944580078125,-0.014872041530907154,0.05754531919956207,0.6441518664360046
1761469605139927600,3.489927490234375,-0.008612405508756638,0.09265860170125961,0.7353568077087402
1761469605149910800,3.499910888671875,0.01839977130293846,0.06704645603895187,0.7612267732620239
1761469605159893800,3.509893798828125,0.07369668036699295,-0.06782210618257523,0.7549558877944946
1761469605169876500,3.51987646484375,0.1164393499493599,-0.22658857703208923,0.7158702611923218
1761469605179859700,3.529859619140625,0.13115063309669495,-0.3176676332950592,0.6307292580604553
1761469605189843700,3.53984375,0.10632304102182388,-0.31003233790397644,0.5129895806312561
1761469605199826700,3.54982666015625,0.042203743010759354,-0.24686866998672485,0.40007075667381287
1761469605209809700,3.5598095703125,-0.03395787253975868,-0.17440618574619293,0.3236004710197449
1761469605219792600,3.569792724609375,-0.10119450092315674,-0.14491651952266693,0.30382591485977173
1761469605229775600,3.579775634765625,-0.14922620356082916,-0.18819500505924225,0.3330479860305786
1761469605239758800,3.5897587890625,-0.19230565428733826,-0.2106480449438095,0.3507426679134369
1761469605249741600,3.599741455078125,-0.21456728875637054,-0.2078418731689453,0.35572144389152527
1761469605259724500,3.609724609375,-0.2313268929719925,-0.19067305326461792,0.39526721835136414
1761469605269707800,3.619707763671875,-0.2874506115913391,-0.1298656314611435,0.45771992206573486
1761469605279690800,3.629690673828125,-0.3460713028907776,-0.09403277933597565,0.5613639950752258
1761469605289673500,3.639673583984375,-0.4310501217842102,-0.07642208784818649,0.6878210306167603
1761469605299656700,3.64965673828125,-0.4722408354282379,-0.13381503522396088,0.7922453284263611
1761469605309639700,3.6596396484375,-0.47287946939468384,-0.26982825994491577,0.8634281754493713
1761469605319623700,3.669623779296875,-0.4760914146900177,-0.3601726293563843,0.879503071308136
1761469605329606700,3.679606689453125,-0.45084652304649353,-0.440853089094162,0.8567346930503845
1761469605339589600,3.689589599609375,-0.427505761384964,-0.4961586892604828,0.7866674065589905
1761469605349572600,3.699572509765625,-0.4035000503063202,-0.5402894020080566,0.683586597442627
1761469605359555800,3.709555908203125,-0.3864583969116211,-0.5867844223976135,0.5554196238517761
1761469605369538800,3.719538818359375,-0.3476257920265198,-0.5480200052261353,0.3732631504535675
1761469605379521500,3.729521484375,-0.2732400596141815,-0.31840401887893677,0.1721557080745697
1761469605389504800,3.7395048828125,-0.20676890015602112,0.07709644734859467,0.020999472588300705
1761469605399487700,3.74948779296875,-0.14420196413993835,0.45418456196784973,-0.055247675627470016
1761469605409470500,3.759470458984375,-0.11397695541381836,0.6665538549423218,-0.09941060841083527
1761469605419453700,3.76945361328125,-0.1346319019794464,0.6642781496047974,-0.18210197985172272
1761469605429436700,3.779436767578125,-0.1741902232170105,0.4482702314853668,-0.2367101013660431
1761469605439419600,3.789419677734375,-0.22892887890338898,0.04175344109535217,-0.28236573934555054
1761469605449403600,3.799403564453125,-0.2899208664894104,-0.19213202595710754,-0.2573400139808655
1761469605459386600,3.80938671875,-0.29390600323677063,-0.04346465319395065,-0.1806546002626419
1761469605469369600,3.81936962890625,-0.219265878200531,0.13137321174144745,-0.16643598675727844
1761469605479352800,3.829352783203125,-0.12373560667037964,0.18781891465187073,-0.28280121088027954
1761469605489335800,3.839335693359375,0.03222709894180298,0.21524254977703094,-0.4580686390399933
1761469605499318500,3.849318603515625,0.21411970257759094,0.21482643485069275,-0.6058835387229919
1761469605509301800,3.8593017578125,0.3814253509044647,0.1404683142900467,-0.711757242679596
1761469605519284700,3.86928466796875,0.4682016968727112,0.05747407674789429,-0.7762751579284668
1761469605529267500,3.879267333984375,0.4972655773162842,-0.05161565914750099,-0.7641835808753967
1761469605539250700,3.889250732421875,0.5077634453773499,-0.12655757367610931,-0.7097888588905334
1761469605549233700,3.899233642578125,0.5010653138160706,-0.19105561077594757,-0.6233495473861694
1761469605559216600,3.909216552734375,0.44516780972480774,-0.2533736526966095,-0.540863573551178
1761469605569199600,3.91919970703125,0.38714125752449036,-0.3066573739051819,-0.4727362096309662
1761469605579183600,3.92918359375,0.32562515139579773,-0.33363601565361023,-0.41739630699157715
1761469605589166600,3.93916650390625,0.26417458057403564,-0.335335373878479,-0.3996066451072693
1761469605599149800,3.94914990234375,0.2034139782190323,-0.3491634726524353,-0.3997422456741333
1761469605609132800,3.9591328125,0.14538875222206116,-0.3339402973651886,-0.39061373472213745
1761469605619115500,3.969115478515625,0.08495663851499557,-0.30676430463790894,-0.3895345628261566
1761469605629098800,3.9790986328125,0.04182620719075203,-0.23873811960220337,-0.38257545232772827
1761469605639081700,3.989081787109375,0.01086488924920559,-0.14433342218399048,-0.3748948276042938
1761469605649064700,3.999064697265625,0.00039919931441545486,-0.06553715467453003,-0.3845999240875244
1761469605659045600,4.009045654296875,-0.0024980190210044384,-0.002770819468423724,-0.4150145351886749
1761469605669028900,4.01902880859375,-0.0005850708112120628,0.03690548613667488,-0.4455881416797638
1761469605679011600,4.029011474609375,0.015295748598873615,0.017096849158406258,-0.4875251352787018
1761469605688994600,4.03899462890625,0.04683796316385269,-0.05655872821807861,-0.5143436789512634
1761469605698977800,4.048977783203125,0.09901102632284164,-0.14179208874702454,-0.5264999866485596
1761469605708960800,4.058960693359375,0.17171666026115417,-0.166002094745636,-0.5382786393165588
1761469605718943500,4.068943603515625,0.2751963436603546,-0.11993623524904251,-0.5426279902458191
1761469605728926700,4.0789267578125,0.347382128238678,0.025004440918564796,-0.5883265137672424
1761469605738909700,4.08890966796875,0.38217681646347046,0.24630646407604218,-0.6191715598106384
1761469605748892700,4.098892578125,0.401449054479599,0.5110379457473755,-0.6298319101333618
1761469605758875600,4.108875732421875,0.41514575481414795,0.8012521266937256,-0.661529541015625
1761469605768858600,4.118858642578125,0.428778737783432,0.9748840928077698,-0.7890573740005493
1761469605778841900,4.128841796875,0.43061161041259766,0.8624448180198669,-0.9722314476966858
1761469605788825900,4.138825927734375,0.4111739695072174,0.5587712526321411,-1.1375077962875366
1761469605798808600,4.14880859375,0.35081446170806885,0.29321131110191345,-1.0841689109802246
1761469605808791600,4.15879150390625,0.2572328448295593,0.17906369268894196,-0.7625792026519775
1761469605818774800,4.16877490234375,0.19878748059272766,0.16542872786521912,-0.3331957459449768
1761469605828757800,4.1787578125,0.1849832534790039,0.06862282007932663,-0.006490067113190889
1761469605838740500,4.188740478515625,0.18094348907470703,-0.1668805032968521,0.20477978885173798
1761469605848723700,4.1987236328125,0.143325537443161,-0.2792653739452362,0.3796256184577942
1761469605858706700,4.208706787109375,0.13498157262802124,-0.24118375778198242,0.5557418465614319
1761469605868689700,4.218689697265625,0.1545807421207428,-0.19211189448833466,0.7052038908004761
1761469605878672600,4.228672607421875,0.16814027726650238,-0.19377858936786652,0.8199787139892578
1761469605888655600,4.238655517578125,0.16466565430164337,-0.2587226927280426,0.8958361744880676
1761469605898638800,4.248638916015625,0.12334215641021729,-0.28552690148353577,0.8987699151039124
1761469605908621600,4.25862158203125,0.03924139216542244,-0.2503071427345276,0.8680722117424011
1761469605918605600,4.26860546875,-0.06954335421323776,-0.17032450437545776,0.8176096081733704
1761469605928588500,4.278588623046875,-0.18743138015270233,-0.04314258694648743,0.7396431565284729
1761469605938571800,4.28857177734375,-0.3091238737106323,0.11721224337816238,0.641808807849884
1761469605948554800,4.2985546875,-0.39387446641921997,0.2624211013317108,0.5564014911651611
1761469605958537500,4.308537353515625,-0.44699621200561523,0.3456200063228607,0.4969281256198883
1761469605968520700,4.318520751953125,-0.46909645199775696,0.408394455909729,0.4896894097328186
1761469605978503700,4.328503662109375,-0.4522048234939575,0.45142942667007446,0.5119810700416565
1761469605988486700,4.338486572265625,-0.41953450441360474,0.4455670118331909,0.584114134311676
1761469605998469600,4.3484697265625,-0.38876014947891235,0.39954087138175964,0.6777327060699463
1761469606008452600,4.35845263671875,-0.35848933458328247,0.34227117896080017,0.7819387316703796
1761469606018435800,4.368435791015625,-0.34924930334091187,0.2679845094680786,0.8766385912895203
1761469606028418800,4.378418701171875,-0.3731354773044586,0.19331027567386627,0.9582239985466003
1761469606038402600,4.388402587890625,-0.39304280281066895,0.11764416098594666,1.0183603763580322
1761469606048385500,4.398385498046875,-0.40731388330459595,0.03780925273895264,1.0555109977722168
1761469606058368800,4.40836865234375,-0.40830785036087036,-0.0754435583949089,1.0567706823349
1761469606068351700,4.418351806640625,-0.3971899449825287,-0.2258322685956955,1.0156978368759155
1761469606078334500,4.42833447265625,-0.3877098560333252,-0.38701313734054565,0.920002281665802
1761469606088317700,4.438317626953125,-0.37947696447372437,-0.5137045383453369,0.7344403862953186
1761469606098300700,4.44830078125,-0.35322433710098267,-0.5200262069702148,0.492951363325119
1761469606108283600,4.45828369140625,-0.34957608580589294,-0.3739771246910095,0.27235960960388184
1761469606118266600,4.4682666015625,-0.3961929380893707,-0.1492626965045929,0.090461365878582
1761469606128249600,4.47824951171875,-0.41895791888237,0.08753040432929993,-0.007607674226164818
1761469606138232800,4.48823291015625,-0.4155750572681427,0.23131319880485535,-0.05068744719028473
1761469606148215800,4.4982158203125,-0.346891313791275,0.27877286076545715,-0.07350168377161026
1761469606158198500,4.508198486328125,-0.2687684893608093,0.22232559323310852,-0.10610240697860718
1761469606168181800,4.518181640625,-0.1984165757894516,0.0743531733751297,-0.13288982212543488
1761469606178165800,4.528165771484375,-0.15809760987758636,0.018737468868494034,-0.12843166291713715
1761469606188148700,4.538148681640625,-0.16205427050590515,0.2210112065076828,-0.1134609654545784
1761469606198131500,4.54813134765625,-0.14480875432491302,0.3853665590286255,-0.08409273624420166
1761469606208114700,4.55811474609375,-0.10779667645692825,0.3818773031234741,-0.04552989825606346
1761469606218097700,4.56809765625,-0.016484560444951057,0.22085382044315338,0.014944945462048054
1761469606228080600,4.57808056640625,0.11652462184429169,-0.00013768509961664677,0.06573648750782013
1761469606238063600,4.588063720703125,0.24808423221111298,-0.20685237646102905,0.10812918841838837
1761469606248046600,4.598046630859375,0.326480507850647,-0.28126829862594604,0.19452214241027832
1761469606258029800,4.60802978515625,0.39886122941970825,-0.2953032851219177,0.2807859480381012
1761469606268012800,4.6180126953125,0.4477669894695282,-0.2853936553001404,0.3602195382118225
1761469606277995500,4.62799560546875,0.47232720255851746,-0.2642894685268402,0.3998412787914276
1761469606287978800,4.637978759765625,0.45919808745384216,-0.22375056147575378,0.41706767678260803
1761469606297962800,4.647962646484375,0.42338213324546814,-0.1981179565191269,0.3972969651222229
1761469606307945700,4.65794580078125,0.3905291259288788,-0.1874421387910843,0.35236892104148865
1761469606317928400,4.667928466796875,0.3276309072971344,-0.14695286750793457,0.27614691853523254
1761469606327911700,4.67791162109375,0.24333414435386658,-0.05628422275185585,0.17696920037269592
1761469606337894700,4.687894775390625,0.1754656881093979,0.0448799692094326,0.0885869637131691
1761469606347877600,4.697877685546875,0.1240653544664383,0.11315036565065384,-0.0026321636978536844
1761469606357860600,4.707860595703125,0.08044908940792084,0.1400710493326187,-0.09842965006828308
1761469606367843600,4.717843505859375,0.04890846833586693,0.09708762168884277,-0.19643983244895935
1761469606377826800,4.727826904296875,0.009663826785981655,0.025122197344899178,-0.31143730878829956
1761469606387809800,4.737809814453125,-0.02007196471095085,-0.025882663205266,-0.4215667247772217
1761469606397792500,4.74779248046875,-0.04080574959516525,-0.04070302098989487,-0.4916406273841858
1761469606407775700,4.757775634765625,-0.0393545925617218,-0.03880232200026512,-0.5081554055213928
1761469606417758700,4.7677587890625,-0.005448014475405216,0.008140817284584045,-0.48142632842063904
1761469606427742700,4.77774267578125,0.03453002870082855,0.08600499480962753,-0.4248557388782501
1761469606437725700,4.7877255859375,0.03620369732379913,0.20518150925636292,-0.37228503823280334
1761469606447708700,4.797708740234375,0.03113889880478382,0.35824722051620483,-0.3504026532173157
1761469606457691600,4.807691650390625,0.09453454613685608,0.5412805080413818,-0.36905208230018616
1761469606467674600,4.817674560546875,0.1671871840953827,0.7574767470359802,-0.41156652569770813
1761469606477657600,4.82765771484375,0.21137423813343048,1.0441734790802002,-0.5150632262229919
1761469606487640600,4.837640625,0.2678103446960449,1.1572377681732178,-0.7106207609176636
1761469606497623800,4.847623779296875,0.32069581747055054,1.0031437873840332,-0.8437983393669128
1761469606507606800,4.857606689453125,0.3243797719478607,0.7466760277748108,-0.8173102736473083
1761469606517589500,4.867589599609375,0.248884379863739,0.49552130699157715,-0.6802154183387756
1761469606527572700,4.87757275390625,0.13863617181777954,0.2830575108528137,-0.4139650762081146
1761469606537555700,4.8875556640625,0.0667080208659172,0.07004298269748688,-0.021675964817404747
1761469606547538700,4.89753857421875,0.007332842331379652,-0.09950051456689835,0.3648640215396881
1761469606557522700,4.907522705078125,-0.06619064509868622,-0.16700074076652527,0.6539615988731384
1761469606567505700,4.917505615234375,-0.17005738615989685,-0.13820263743400574,0.8602641224861145
1761469606577488600,4.927488525390625,-0.2454243302345276,-0.039949968457221985,1.0012835264205933
1761469606587471600,4.9374716796875,-0.27761581540107727,0.02832575887441635,1.0996884107589722
1761469606597454800,4.947454833984375,-0.29253190755844116,-0.04204947128891945,1.1502296924591064
1761469606607437600,4.9574375,-0.27587518095970154,-0.2344878911972046,1.156151533126831
1761469606617420800,4.9674208984375,-0.2847851514816284,-0.4354652464389801,1.1177376508712769
1761469606627403800,4.97740380859375,-0.3351260721683502,-0.4978998601436615,1.0324467420578003
1761469606637386500,4.987386474609375,-0.3710896074771881,-0.46912744641304016,0.8973047733306885
1761469606647369700,4.99736962890625,-0.38490182161331177,-0.40345895290374756,0.7345739006996155
1761469606657352700,5.007352783203125,-0.3976229131221771,-0.3446592688560486,0.5885626077651978
1761469606667335700,5.017335693359375,-0.41540831327438354,-0.27901262044906616,0.44487467408180237
1761469606677318700,5.027318603515625,-0.4422687292098999,-0.19951504468917847,0.32470908761024475
1761469606687302700,5.037302734375,-0.47313982248306274,-0.08926443010568619,0.25656598806381226
1761469606697285600,5.04728564453125,-0.49200060963630676,0.013626262545585632,0.24419614672660828
1761469606707268600,5.0572685546875,-0.487459659576416,0.041449904441833496,0.28596436977386475
1761469606717251800,5.067251953125,-0.47982126474380493,-0.00868092942982912,0.3713747262954712
1761469606727234600,5.077234619140625,-0.4774633049964905,-0.10271794348955154,0.4877796471118927
1761469606737217800,5.0872177734375,-0.4593884348869324,-0.22166752815246582,0.5990809202194214
1761469606747200800,5.09720068359375,-0.43139514327049255,-0.33205661177635193,0.7032848000526428
1761469606757183500,5.10718359375,-0.4113936722278595,-0.37042778730392456,0.7616586685180664
1761469606767166700,5.117166748046875,-0.39312732219696045,-0.3610832989215851,0.7774722576141357
1761469606777149700,5.127149658203125,-0.3797462582588196,-0.37190863490104675,0.7727313041687012
1761469606787132700,5.137132568359375,-0.37793877720832825,-0.41288644075393677,0.7406391501426697
1761469606797115600,5.14711572265625,-0.3709724545478821,-0.4868207275867462,0.6934801936149597
1761469606807098600,5.1570986328125,-0.358388215303421,-0.555843710899353,0.6265445947647095
1761469606817081600,5.16708154296875,-0.32583826780319214,-0.5482024550437927,0.5252605676651001
1761469606827065600,5.177065673828125,-0.28537365794181824,-0.3937132656574249,0.3679974377155304
1761469606837048800,5.187048828125,-0.22836577892303467,-0.1010342538356781,0.19374917447566986
1761469606847031600,5.197031494140625,-0.15850280225276947,0.2234594076871872,0.023693818598985672
1761469606857014800,5.207014892578125,-0.09898867458105087,0.4625062942504883,-0.11135965585708618
1761469606866997800,5.216997802734375,-0.0681878849864006,0.3967651128768921,-0.1699787676334381
1761469606876980700,5.226980712890625,-0.07626904547214508,0.12689431011676788,-0.1825987547636032
1761469606886963700,5.236963623046875,-0.129567950963974,-0.019428003579378128,-0.1382770985364914
1761469606896946700,5.24694677734375,-0.16365766525268555,0.09681913256645203,-0.06738336384296417
1761469606906929700,5.2569296875,-0.16609472036361694,0.22698938846588135,-0.021174855530261993
1761469606916912600,5.26691259765625,-0.13856248557567596,0.2794013023376465,-0.07244503498077393
1761469606926895600,5.2768955078125,-0.04334036260843277,0.3378385305404663,-0.1537952870130539
1761469606936878600,5.286878662109375,0.09161829948425293,0.3410734534263611,-0.21008966863155365
1761469606946862600,5.296862548828125,0.23304733633995056,0.20998497307300568,-0.26740169525146484
1761469606956845800,5.306845703125,0.305484414100647,0.004521914757788181,-0.2815104126930237
1761469606966828500,5.31682861328125,0.32519420981407166,-0.13409002125263214,-0.22137248516082764
1761469606976811500,5.3268115234375,0.32038986682891846,-0.2032528519630432,-0.1296950727701187
1761469606986794800,5.336794677734375,0.2804589569568634,-0.21021248400211334,-0.03644502907991409
1761469606996777700,5.34677783203125,0.21875838935375214,-0.1858808696269989,0.04857379570603371
1761469607006760700,5.3567607421875,0.1565336287021637,-0.15177297592163086,0.10396141558885574
1761469607016743700,5.36674365234375,0.10197027027606964,-0.11942888051271439,0.11539974063634872
1761469607026726700,5.3767265625,0.06731829047203064,-0.09486734122037888,0.09572963416576385
1761469607036710000,5.3867099609375,0.04515422135591507,-0.09245527535676956,0.053920499980449677
1761469607046692600,5.396692626953125,0.04228333383798599,-0.09529686719179153,0.009251832962036133
1761469607056675600,5.406675537109375,0.036318305879831314,-0.09583207219839096,-0.02981787919998169
1761469607066658800,5.416658935546875,0.03673029690980911,-0.11089038103818893,-0.07592865079641342
1761469607076641500,5.4266416015625,0.04640111327171326,-0.14333470165729523,-0.12456375360488892
1761469607086624500,5.43662451171875,0.06540703028440475,-0.16913114488124847,-0.1855251044034958
1761469607096608500,5.4466083984375,0.10418875515460968,-0.18661746382713318,-0.25986409187316895
1761469607106591700,5.456591796875,0.15466950833797455,-0.19400906562805176,-0.3353854715824127
1761469607116574700,5.46657470703125,0.20655633509159088,-0.18534491956233978,-0.4126302897930145
1761469607126557700,5.4765576171875,0.26132237911224365,-0.1259998381137848,-0.47213035821914673
1761469607136540700,5.486540771484375,0.302838534116745,-0.07759242504835129,-0.5293968915939331
1761469607146523600,5.496523681640625,0.3407641053199768,-0.03040120378136635,-0.6106611490249634
1761469607156507000,5.5065068359375,0.37715622782707214,0.04664022848010063,-0.6957944631576538
1761469607166489600,5.516489501953125,0.3978005349636078,0.1179887130856514,-0.7441793084144592
1761469607176472600,5.52647265625,0.40955233573913574,0.11684718728065491,-0.7391389012336731
1761469607186455800,5.536455810546875,0.39661577343940735,0.09591127932071686,-0.6688868403434753
1761469607196438500,5.5464384765625,0.367473304271698,0.13705682754516602,-0.5635044574737549
1761469607206421500,5.55642138671875,0.3536062240600586,0.2723954916000366,-0.4737623631954193
1761469607216405500,5.566405517578125,0.3523109257221222,0.48355358839035034,-0.4902997314929962
1761469607226388700,5.576388671875,0.3679324984550476,0.696384608745575,-0.6189035177230835
1761469607236371700,5.586371826171875,0.3590955436229706,0.7688129544258118,-0.7928979992866516
1761469607246354700,5.596354736328125,0.3049955666065216,0.6920955777168274,-1.0237261056900024
1761469607256337700,5.606337646484375,0.1774776130914688,0.6023197174072266,-1.2401244640350342
1761469607266320600,5.616320556640625,0.013731560669839382,0.5352877378463745,-1.331375002861023
1761469607276304000,5.626303955078125,-0.09726979583501816,0.4617823660373688,-1.165339708328247
1761469607286286600,5.63628662109375,-0.12892119586467743,0.2792421281337738,-0.8493225574493408
1761469607296269600,5.64626953125,-0.03981182724237442,-0.1346951425075531,-0.5729604959487915
1761469607306252800,5.656252685546875,0.035981472581624985,-0.46393054723739624,-0.3685993552207947
1761469607316235800,5.66623583984375,0.11385160684585571,-0.5803627371788025,-0.19758330285549164
1761469607326218500,5.676218505859375,0.132582426071167,-0.6443707346916199,-0.015427608042955399
1761469607336201700,5.68620166015625,0.10536373406648636,-0.6986873149871826,0.13253964483737946
1761469607346184700,5.696184814453125,0.0798138976097107,-0.7714245915412903,0.23715820908546448
1761469607356168700,5.706168701171875,0.040221743285655975,-0.846760630607605,0.3062663972377777
1761469607366151700,5.716151611328125,-0.01734328269958496,-0.8842355608940125,0.32345470786094666
1761469607376134700,5.726134765625,-0.06890969723463058,-0.8551118969917297,0.3241696059703827
1761469607386117600,5.73611767578125,-0.11677335947751999,-0.8058173060417175,0.3082772195339203
1761469607396100900,5.746100830078125,-0.1759471297264099,-0.7550173997879028,0.30706313252449036
1761469607406083600,5.75608349609375,-0.19870038330554962,-0.6437572240829468,0.30797284841537476
1761469607416066600,5.766066650390625,-0.2040814608335495,-0.4886303246021271,0.32670485973358154
1761469607426049800,5.7760498046875,-0.20284974575042725,-0.36880937218666077,0.3575882017612457
1761469607436032800,5.78603271484375,-0.18604758381843567,-0.32898151874542236,0.41757407784461975
1761469607446015500,5.796015380859375,-0.16392630338668823,-0.3705103397369385,0.4784371554851532
1761469607455998700,5.805998779296875,-0.15681299567222595,-0.4700202941894531,0.5059614777565002
1761469607465981700,5.815981689453125,-0.17762693762779236,-0.5728608965873718,0.5213718414306641
1761469607475964700,5.825964599609375,-0.2236521691083908,-0.6281222701072693,0.5369817018508911
1761469607485948700,5.83594873046875,-0.2795756459236145,-0.6121363639831543,0.5345912575721741
1761469607495931600,5.845931640625,-0.3362155258655548,-0.5199857354164124,0.5412747263908386
1761469607505914600,5.85591455078125,-0.37792330980300903,-0.3946235477924347,0.5483906865119934
1761469607515897900,5.86589794921875,-0.3764144778251648,-0.3264184296131134,0.5034512281417847
1761469607525880600,5.875880615234375,-0.33578476309776306,-0.37343814969062805,0.3621913194656372
1761469607535863600,5.885863525390625,-0.2398272454738617,-0.5538463592529297,0.11529801040887833
1761469607545846800,5.8958466796875,-0.12593184411525726,-0.7033753991127014,-0.16049441695213318
1761469607555829800,5.905829833984375,-0.005639627575874329,-0.7196043729782104,-0.37336260080337524
1761469607565812500,5.9158125,0.11021613329648972,-0.577671468257904,-0.48532137274742126
1761469607575795700,5.925795654296875,0.212165966629982,-0.39876121282577515,-0.5377991795539856
1761469607585778700,5.93577880859375,0.30188629031181335,-0.33698731660842896,-0.5170725584030151
1761469607595761700,5.94576171875,0.3825157880783081,-0.5226971507072449,-0.3659564256668091
1761469607605744600,5.95574462890625,0.37619876861572266,-0.7184027433395386,-0.16686700284481049
1761469607615727600,5.9657275390625,0.25452911853790283,-0.6982689499855042,-0.06175433471798897
1761469607625711600,5.975711669921875,0.11278717964887619,-0.4422670006752014,-0.0791357234120369
1761469607635694800,5.98569482421875,-0.01736636646091938,-0.059450432658195496,-0.24431833624839783
1761469607645677600,5.995677490234375,-0.08965734392404556,0.133976012468338,-0.5735654830932617
1761469607655660500,6.00566064453125,-0.05926831066608429,0.13817250728607178,-0.8759019374847412
1761469607665643800,6.015643798828125,0.04194325953722,0.07309389859437943,-1.114409327507019
1761469607675626800,6.025626708984375,0.16339175403118134,-0.20376482605934143,-1.2491390705108643
1761469607685609500,6.035609375,0.2758309543132782,-0.5861255526542664,-1.232359528541565
1761469607695592700,6.0455927734375,0.36220473051071167,-0.9598048329353333,-1.1438064575195312
1761469607705575700,6.05557568359375,0.397789865732193,-1.2271475791931152,-0.9460610151290894
1761469607715558700,6.06555859375,0.37826013565063477,-1.3456430435180664,-0.6358527541160583
1761469607725541600,6.075541748046875,0.3237454891204834,-1.338714838027954,-0.35013502836227417
1761469607735524600,6.085524658203125,0.23367606103420258,-1.2310279607772827,-0.13106417655944824
1761469607745507800,6.0955078125,0.11551986634731293,-1.1175516843795776,0.02266600914299488
1761469607755490800,6.10549072265625,0.007124024908989668,-1.068671703338623,0.10674215108156204
1761469607765474600,6.115474609375,-0.020979780703783035,-1.044237494468689,0.15828363597393036
1761469607775457500,6.12545751953125,-0.0006534112617373466,-1.02493155002594,0.2258659452199936
1761469607785440800,6.135440673828125,0.03558262437582016,-1.0411930084228516,0.27681195735931396
1761469607795423700,6.145423828125,0.07448028028011322,-1.1186476945877075,0.26418086886405945
1761469607805406500,6.155406494140625,0.10728775709867477,-1.1772788763046265,0.17622677981853485
1761469607815389700,6.1653896484375,0.10770633071660995,-1.1451948881149292,0.03827793896198273
1761469607825372700,6.17537255859375,0.0853956937789917,-1.0360249280929565,-0.11578726023435593
1761469607835355600,6.185355712890625,0.0913887694478035,-0.8757039308547974,-0.2748164236545563
1761469607845338600,6.195338623046875,0.11972027271986008,-0.6652622222900391,-0.40302419662475586
1761469607855321600,6.205321533203125,0.16198866069316864,-0.3854667842388153,-0.48716673254966736
1761469607865304800,6.215304931640625,0.24488088488578796,-0.15598568320274353,-0.5065231323242188
1761469607875287800,6.225287841796875,0.3118627965450287,-0.03771360218524933,-0.47215089201927185
1761469607885270500,6.2352705078125,0.36421629786491394,-0.04597233235836029,-0.47479701042175293
1761469607895253800,6.245253662109375,0.3512684106826782,-0.10969706624746323,-0.49574682116508484
1761469607905237800,6.25523779296875,0.30951645970344543,-0.12638869881629944,-0.5170095562934875
1761469607915220700,6.265220703125,0.23685765266418457,0.02707447111606598,-0.5398605465888977
1761469607925203500,6.275203369140625,0.15640275180339813,0.3752782344818115,-0.5620444416999817
1761469607935186700,6.285186767578125,0.12504039704799652,0.4520207643508911,-0.6805168986320496
1761469607945169700,6.295169677734375,-0.06295667588710785,0.5765888094902039,-0.5464765429496765
1761469607955152600,6.305152587890625,-0.07689861953258514,0.6687655448913574,-0.4070904552936554
1761469607965135600,6.315135498046875,-0.0922410860657692,0.43263348937034607,-0.28538769483566284
1761469607975118600,6.32511865234375,-0.12100151926279068,0.16047827899456024,-0.22065281867980957
1761469607985101000,6.33510107421875,-0.19005994498729706,0.06661171466112137,-0.14983722567558289
1761469607995084000,6.345083984375,-0.27237918972969055,0.06187122315168381,-0.04064030945301056
1761469608005067000,6.35506689453125,-0.31716105341911316,0.07715164124965668,0.12917695939540863
1761469608015050000,6.365050048828125,-0.3329859972000122,0.10031770914793015,0.3290233314037323
1761469608025033000,6.375032958984375,-0.3269427716732025,0.17267338931560516,0.5007402300834656
1761469608035017000,6.385016845703125,-0.31673792004585266,0.18676400184631348,0.5910840630531311
1761469608045000200,6.395000244140625,-0.3000950217247009,0.11682432889938354,0.6388819813728333
1761469608054983200,6.404983154296875,-0.27741312980651855,-0.01158874575048685,0.6604490876197815
1761469608064966000,6.4149658203125,-0.2533724904060364,-0.16794505715370178,0.6431239247322083
1761469608074949000,6.42494921875,-0.2573471665382385,-0.279266893863678,0.6040580868721008
1761469608084932000,6.43493212890625,-0.26433876156806946,-0.32459232211112976,0.5410157442092896
1761469608094915000,6.4449150390625,-0.2607269585132599,-0.3333433270454407,0.44896918535232544
1761469608104898000,6.45489794921875,-0.23813244700431824,-0.31060123443603516,0.3419910669326782
1761469608114881000,6.464881103515625,-0.20784057676792145,-0.23834088444709778,0.24165089428424835
1761469608124864000,6.474864013671875,-0.20245008170604706,-0.09843598306179047,0.19080689549446106
1761469608134847000,6.484846923828125,-0.23713409900665283,0.09119904041290283,0.21146224439144135
1761469608144830000,6.494829833984375,-0.28317803144454956,0.30402714014053345,0.289402037858963
1761469608154813000,6.50481298828125,-0.3440081477165222,0.5421308875083923,0.4096818268299103
1761469608164796200,6.514796142578125,-0.4175465703010559,0.7142727971076965,0.4870043098926544
1761469608174779000,6.52477880859375,-0.528739869594574,0.7699351906776428,0.5227106213569641
1761469608184763000,6.534762939453125,-0.6144422292709351,0.7152950763702393,0.5735442638397217
1761469608194746000,6.54474609375,-0.6374971866607666,0.5382817387580872,0.6739734411239624
1761469608204729000,6.55472900390625,-0.6346803307533264,0.29606059193611145,0.8027474284172058
1761469608214712000,6.564712158203125,-0.6176086664199829,0.08673880249261856,0.8820949792861938
1761469608224695000,6.574695068359375,-0.6109300255775452,-0.07844509929418564,0.8845463991165161
1761469608234678000,6.584677978515625,-0.6339548826217651,-0.1876308172941208,0.836790144443512
1761469608244661000,6.594660888671875,-0.6490212082862854,-0.3009483218193054,0.7197548747062683
1761469608254644200,6.604644287109375,-0.6320350170135498,-0.42344990372657776,0.5589436292648315
1761469608264627000,6.614626953125,-0.5763403177261353,-0.5021481513977051,0.4215753674507141
1761469608274610000,6.62460986328125,-0.514734148979187,-0.4804207682609558,0.28808602690696716
1761469608284593200,6.63459326171875,-0.4840335547924042,-0.353318989276886,0.08955565094947815
1761469608294575900,6.644575927734375,-0.47788095474243164,-0.2437416911125183,-0.13476067781448364
1761469608304559000,6.65455908203125,-0.44879764318466187,-0.24286657571792603,-0.2751140594482422
1761469608314542000,6.6645419921875,-0.39044538140296936,-0.3251999020576477,-0.30970296263694763
1761469608324525000,6.674525146484375,-0.30973508954048157,-0.38745662569999695,-0.26230669021606445
1761469608334509000,6.684509033203125,-0.21801212430000305,-0.3954104781150818,-0.16616150736808777
1761469608344492000,6.694491943359375,-0.1390368789434433,-0.3776317536830902,-0.06525992602109909
1761469608354475000,6.70447509765625,-0.09571614116430283,-0.26908397674560547,-0.055119507014751434
1761469608364458000,6.7144580078125,-0.07216794043779373,-0.09320084750652313,-0.12009397894144058
1761469608374441200,6.724441162109375,-0.056868214160203934,0.07946326583623886,-0.212422713637352
1761469608384424000,6.734423828125,-0.013660290278494358,0.1472918540239334,-0.31412988901138306
1761469608394407000,6.744406982421875,0.041369374841451645,0.1377575695514679,-0.3736816644668579
1761469608404390100,6.75439013671875,0.11538208276033401,0.09858647733926773,-0.35265201330184937
1761469608414373000,6.764373046875,0.20453032851219177,0.08575882762670517,-0.2782619297504425
1761469608424356000,6.774356201171875,0.28200092911720276,0.05989570915699005,-0.18638180196285248
1761469608434339000,6.784339111328125,0.3289181888103485,0.025771740823984146,-0.07834207266569138
1761469608444322000,6.794322021484375,0.33184927701950073,-0.012425445020198822,0.012380106374621391
1761469608454305000,6.804304931640625,0.3167935311794281,-0.05655913054943085,0.05770381540060043
1761469608464289000,6.8142890625,0.2540428042411804,-0.2892562747001648,0.20773592591285706
1761469608474272000,6.82427197265625,0.30559322237968445,-0.3996056318283081,0.17671716213226318
1761469608484255000,6.8342548828125,0.30624568462371826,-0.33471983671188354,0.021547287702560425
1761469608494238200,6.84423828125,0.27044492959976196,-0.22913268208503723,-0.07197106629610062
1761469608504221000,6.854220947265625,0.2622983157634735,-0.17012742161750793,-0.0968087688088417
1761469608514204000,6.864203857421875,0.2807975113391876,-0.09289727360010147,-0.05879396200180054
1761469608524187100,6.874187255859375,0.28653955459594727,-0.02537628635764122,-0.012854169122874737
1761469608534170000,6.884170166015625,0.29030781984329224,-0.046341001987457275,-0.016886290162801743
1761469608544153000,6.894153076171875,0.31336626410484314,-0.12608003616333008,-0.07853633910417557
1761469608554136000,6.904135986328125,0.3733537793159485,-0.18388380110263824,-0.11201353371143341
1761469608564119000,6.914119140625,0.3816055953502655,-0.19227010011672974,-0.11238770931959152
1761469608574102000,6.92410205078125,0.3570626378059387,-0.13110224902629852,-0.07497084885835648
1761469608584085000,6.9340849609375,0.31926679611206055,-0.07643820345401764,-0.08831408619880676
1761469608594068000,6.94406787109375,0.2858075499534607,-0.0027629630640149117,-0.14646217226982117
1761469608604051200,6.95405126953125,0.2340593785047531,0.1301838904619217,-0.1918693333864212
1761469608614035200,6.96403515625,0.17522303760051727,0.25230705738067627,-0.23951853811740875
1761469608624018000,6.974017822265625,0.1142963096499443,0.3595142066478729,-0.3064616322517395
1761469608634001000,6.9840009765625,0.046825431287288666,0.4570309519767761,-0.32464197278022766
1761469608643984100,6.993984130859375,0.01553275529295206,0.4875180125236511,-0.27087780833244324
1761469608653967000,7.003967041015625,0.007090941537171602,0.4735783040523529,-0.15493987500667572
1761469608663950000,7.0139501953125,0.02650139108300209,0.4076003432273865,-0.001998252235352993
1761469608673933000,7.02393310546875,0.05662458389997482,0.26980966329574585,0.12127330154180527
1761469608683916000,7.033916015625,0.08067532628774643,0.17672845721244812,0.1672181487083435
1761469608693899300,7.043899169921875,0.07484922558069229,0.1559675633907318,0.17048461735248566
1761469608703882000,7.053882080078125,0.04192136228084564,0.09357129782438278,0.1556212455034256
1761469608713865000,7.063864990234375,-0.03655198961496353,0.022163648158311844,0.12595641613006592
1761469608723848200,7.07384814453125,-0.12556521594524384,0.027718469500541687,0.07551002502441406
1761469608733831000,7.083830810546875,-0.19139248132705688,0.13551095128059387,0.012818364426493645
1761469608743814000,7.09381396484375,-0.21415984630584717,0.2727891802787781,0.011182917281985283
1761469608753797000,7.103797119140625,-0.18044596910476685,0.32042720913887024,0.07439476251602173
1761469608763781000,7.113781005859375,-0.1286323070526123,0.27304425835609436,0.1748577356338501
1761469608773764000,7.12376416015625,-0.07233323901891708,0.153180330991745,0.2551364302635193
1761469608783747000,7.1337470703125,-0.007670886814594269,-0.016951441764831543,0.2293650209903717
1761469608793730000,7.14372998046875,0.06980736553668976,-0.18335825204849243,0.11202263832092285
1761469608803713000,7.153713134765625,0.1450403332710266,-0.2713445723056793,-0.027995450422167778
1761469608813696300,7.1636962890625,0.22419285774230957,-0.3059633672237396,-0.16237221658229828
1761469608823679000,7.173678955078125,0.29316073656082153,-0.2928350269794464,-0.27727028727531433
1761469608833662000,7.183661865234375,0.3101980984210968,-0.25267449021339417,-0.32349345088005066
1761469608843645200,7.193645263671875,0.28392255306243896,-0.16071581840515137,-0.2547175884246826
1761469608853628200,7.203628173828125,0.17518700659275055,-0.04488604888319969,-0.14783746004104614
1761469608863611000,7.21361083984375,0.03382880613207817,0.06095968931913376,-0.08217162638902664
1761469608873594000,7.223593994140625,-0.06675932556390762,0.18041151762008667,-0.01718996651470661
1761469608883577000,7.2335771484375,-0.1184518113732338,0.2444610744714737,0.06523353606462479
1761469608893559800,7.243559814453125,-0.12554138898849487,0.22786641120910645,0.1686781793832779
1761469608903544000,7.2535439453125,-0.10996589064598083,0.12007496505975723,0.2782781720161438
1761469608913527000,7.263527099609375,-0.09674431383609772,-0.005801452323794365,0.41960763931274414
1761469608923510000,7.273510009765625,-0.09535254538059235,-0.08080965280532837,0.5768702626228333
1761469608933493200,7.2834931640625,-0.13295461237430573,-0.13898460566997528,0.6812421679496765
1761469608943476000,7.29347607421875,-0.1752687692642212,-0.2114124596118927,0.6953776478767395
1761469608953459000,7.303458984375,-0.21334557235240936,-0.2915072441101074,0.62907874584198
1761469608963442200,7.313442138671875,-0.2476383000612259,-0.3593757748603821,0.4904303252696991
1761469608973425200,7.323425048828125,-0.2546353340148926,-0.3793545067310333,0.29478541016578674
1761469608983412500,7.33341259765625,-0.24929383397102356,-0.38436204195022583,0.04732871800661087
1761469608993395500,7.3433955078125,-0.21785590052604675,-0.4154032766819,-0.20778869092464447
1761469609003378400,7.35337841796875,-0.18120521306991577,-0.4465007185935974,-0.3646520674228668
1761469609013361400,7.363361328125,-0.13969938457012177,-0.43864870071411133,-0.3762853443622589
1761469609023344600,7.3733447265625,-0.0943947583436966,-0.4230726659297943,-0.3301335871219635
1761469609033327400,7.383327392578125,-0.02044633775949478,-0.3717513382434845,-0.2672010660171509
1761469609043311400,7.393311279296875,0.07485540956258774,-0.30438321828842163,-0.22072811424732208
1761469609053294300,7.40329443359375,0.18354912102222443,-0.2665121555328369,-0.21651260554790497
1761469609063277600,7.413277587890625,0.2694920003414154,-0.276968777179718,-0.25412365794181824
1761469609073260500,7.423260498046875,0.3262505829334259,-0.35201215744018555,-0.3192847967147827
1761469609083243300,7.4332431640625,0.34520241618156433,-0.410778284072876,-0.38309547305107117
1761469609093226500,7.4432265625,0.3129938244819641,-0.3687700033187866,-0.4004228711128235
1761469609103209500,7.45320947265625,0.2613902986049652,-0.24810482561588287,-0.3581848442554474
1761469609113192400,7.4631923828125,0.21314604580402374,-0.1057889461517334,-0.2747105062007904
1761469609123175400,7.473175537109375,0.18759648501873016,0.02074156142771244,-0.1522573083639145
1761469609133158400,7.483158447265625,0.22116176784038544,0.11244726926088333,0.0042597828432917595
1761469609143141600,7.4931416015625,0.3214329779148102,0.18601630628108978,0.280551016330719
1761469609153124600,7.50312451171875,0.34546470642089844,-0.030380498617887497,0.1906527280807495
1761469609163107300,7.513107421875,0.3424297869205475,-0.22028891742229462,0.0491320863366127
1761469609173090600,7.523090576171875,0.30002862215042114,-0.1489095836877823,0.07840851694345474
1761469609183074600,7.533074462890625,0.2643473148345947,-0.02113112062215805,0.10054204612970352
1761469609193057500,7.5430576171875,0.22290576994419098,0.12375088036060333,0.10478733479976654
1761469609203040300,7.553040283203125,0.15472723543643951,0.1480618119239807,0.12746521830558777
1761469609213023500,7.5630234375,0.18546998500823975,0.027110246941447258,0.10656417906284332
1761469609223006500,7.57300634765625,0.22571460902690887,-0.1834230273962021,0.033220455050468445
