time,seconds_elapsed,z,y,x
1761469320555927000,0.113927001953125,0.2662557065486908,-0.2969200611114502,-0.4382506012916565
1761469320565910000,0.123909912109375,0.291788250207901,-0.15008187294006348,-0.43588942289352417
1761469320575893200,0.133893310546875,0.34149637818336487,0.04856116697192192,-0.4503254294395447
1761469320585877200,0.143877197265625,0.41951021552085876,0.30418333411216736,-0.4935615658760071
1761469320595860000,0.15385986328125,0.48869776725769043,0.5516233444213867,-0.5398359894752502
1761469320605843000,0.163843017578125,0.5169169306755066,0.7423208951950073,-0.5758618712425232
1761469320615827200,0.1738271484375,0.4807605743408203,0.8563860058784485,-0.6102027297019958
1761469320625810200,0.18381005859375,0.40652015805244446,0.9299784302711487,-0.6181658506393433
1761469320635793200,0.193793212890625,0.3730061948299408,0.9604353308677673,-0.5551295280456543
1761469320645776100,0.203776123046875,0.4532927870750427,0.8975855112075806,-0.37573981285095215
1761469320655760100,0.213760009765625,0.616467297077179,0.7719866633415222,-0.11339149624109268
1761469320665743000,0.2237431640625,0.7503761053085327,0.7054350972175598,0.11939647793769836
1761469320675726000,0.23372607421875,0.7996104955673218,0.7400749921798706,0.1168733537197113
1761469320685709000,0.243708984375,0.7334836721420288,0.8792040944099426,-0.14687120914459229
1761469320695693000,0.253693115234375,0.5776386260986328,0.9807766079902649,-0.5207480192184448
1761469320705676000,0.263676025390625,0.40843597054481506,0.963517963886261,-0.8053126335144043
1761469320715659300,0.2736591796875,0.2506937086582184,0.8583665490150452,-0.9293065667152405
1761469320725643300,0.283643310546875,0.08603576570749283,0.7602689862251282,-0.9214291572570801
1761469320735626200,0.293626220703125,-0.06588510423898697,0.7991586327552795,-0.7976148128509521
1761469320745609000,0.30360888671875,-0.1541513204574585,0.9255935549736023,-0.5657099485397339
1761469320755592200,0.31359228515625,-0.20915637910366058,0.9908024668693542,-0.3223017156124115
1761469320765576200,0.323576171875,-0.21922312676906586,0.8988507390022278,-0.06555566936731339
1761469320775559200,0.33355908203125,-0.26543083786964417,0.6403605937957764,0.20745372772216797
1761469320785542000,0.3435419921875,-0.37940001487731934,0.3932267129421234,0.3700479567050934
1761469320795525000,0.353525146484375,-0.5589338541030884,0.3818178176879883,0.36183324456214905
1761469320805509000,0.363509033203125,-0.7229256629943848,0.46638569235801697,0.29806679487228394
1761469320815491300,0.3734912109375,-0.8507428169250488,0.6528158783912659,0.20988520979881287
1761469320825474300,0.383474365234375,-0.8818839192390442,0.8172306418418884,0.12349972128868103
1761469320835458300,0.393458251953125,-0.8839444518089294,0.8781304955482483,0.08260895311832428
1761469320845441300,0.403441162109375,-0.8762398958206177,0.914618730545044,0.06029512360692024
1761469320855424500,0.413424560546875,-0.8387328386306763,0.9774937629699707,0.05159401148557663
1761469320865407500,0.423407470703125,-0.8085387349128723,1.0882046222686768,0.057886529713869095
1761469320875391500,0.4333916015625,-0.7658974528312683,1.1651967763900757,0.08556750416755676
1761469320885374200,0.443374267578125,-0.6955868005752563,1.1304688453674316,0.1425972431898117
1761469320895357400,0.453357421875,-0.5884731411933899,1.0168033838272095,0.20320463180541992
1761469320905340400,0.46334033203125,-0.4892192780971527,0.9043777585029602,0.30611929297447205
1761469320915324400,0.473324462890625,-0.44168949127197266,0.8554772734642029,0.4472956359386444
1761469320925307400,0.483307373046875,-0.4220372438430786,0.8811480402946472,0.5901814103126526
1761469320935290400,0.493290283203125,-0.3945557475090027,0.9616973400115967,0.7289499640464783
1761469320945274400,0.5032744140625,-0.37521854043006897,1.0857125520706177,0.8067755699157715
1761469320955257300,0.51325732421875,-0.35562530159950256,1.2149451971054077,0.8490937948226929
1761469320965240600,0.523240478515625,-0.3479498028755188,1.2854119539260864,0.8509846329689026
1761469320975223300,0.533223388671875,-0.37449416518211365,1.1797302961349487,0.7531285881996155
1761469320985207300,0.543207275390625,-0.388589471578598,0.812528133392334,0.5147090554237366
1761469320995190300,0.553190185546875,-0.37038716673851013,0.4161752462387085,0.23009827733039856
1761469321005173500,0.563173583984375,-0.31871384382247925,0.09650509059429169,0.03092125803232193
1761469321015156200,0.57315625,-0.24008534848690033,-0.13143032789230347,-0.11532972753047943
1761469321025140200,0.58314013671875,-0.1972569227218628,-0.19548973441123962,-0.15171675384044647
1761469321035123500,0.59312353515625,-0.1802215278148651,-0.09168172627687454,-0.05958529934287071
1761469321045106400,0.6031064453125,-0.14920128881931305,0.00466877780854702,0.09935694932937622
1761469321055090400,0.61309033203125,-0.06196000054478645,-0.006545480340719223,0.20203715562820435
1761469321065073200,0.6230732421875,0.018950024619698524,-0.05899963155388832,0.2070862352848053
1761469321075056400,0.633056396484375,0.062053460627794266,-0.02575824037194252,0.09838684648275375
1761469321085039400,0.643039306640625,0.08524000644683838,0.14262385666370392,-0.03366412967443466
1761469321095023400,0.6530234375,0.0729406476020813,0.3554283678531647,-0.2033424824476242
1761469321105006300,0.66300634765625,0.07665681838989258,0.48243796825408936,-0.4130198061466217
1761469321114989300,0.6729892578125,0.1354854255914688,0.4534761905670166,-0.5482815504074097
1761469321124972300,0.68297216796875,0.2723388671875,0.3206060230731964,-0.5689540505409241
1761469321134956300,0.692956298828125,0.4510157108306885,0.1403605043888092,-0.5383632183074951
1761469321144939500,0.702939453125,0.6178920269012451,-0.01762833446264267,-0.5038833022117615
1761469321154922500,0.712922607421875,0.7529798746109009,-0.07623713463544846,-0.4756433069705963
1761469321164906200,0.72290625,0.8522869944572449,-0.03970522806048393,-0.4591711163520813
1761469321174889200,0.73288916015625,0.8919355869293213,0.036996833980083466,-0.47347041964530945
1761469321184872400,0.74287255859375,0.8825844526290894,0.11149690300226212,-0.5026975274085999
1761469321194855400,0.75285546875,0.8202964067459106,0.17679084837436676,-0.5383369326591492
1761469321204839400,0.76283935546875,0.7528627514839172,0.23632527887821198,-0.5756709575653076
1761469321214822400,0.772822509765625,0.6799089312553406,0.2956913113594055,-0.6165443658828735
1761469321224805400,0.782805419921875,0.6008626222610474,0.30109700560569763,-0.6789309978485107
1761469321234788400,0.792788330078125,0.5167658925056458,0.3004802167415619,-0.7679231762886047
1761469321244772400,0.8027724609375,0.428995281457901,0.2878187596797943,-0.8563733696937561
1761469321254755300,0.81275537109375,0.348066121339798,0.2665736973285675,-0.9165586829185486
1761469321264738300,0.82273828125,0.257615864276886,0.2472577840089798,-0.9672932624816895
1761469321274722300,0.832722412109375,0.19594992697238922,0.2280331403017044,-0.9981179237365723
1761469321284705300,0.842705322265625,0.15826326608657837,0.21080036461353302,-1.0238651037216187
1761469321294688500,0.8526884765625,0.15473826229572296,0.2033676952123642,-1.067331075668335
1761469321304671200,0.862671142578125,0.17918820679187775,0.18343287706375122,-1.094841480255127
1761469321314655200,0.8726552734375,0.22956514358520508,0.17490170896053314,-1.1180464029312134
1761469321324638500,0.882638427734375,0.2549535930156708,0.1946495771408081,-1.118973731994629
1761469321334621400,0.892621337890625,0.2576359212398529,0.3150019645690918,-1.0715608596801758
1761469321344604200,0.902604248046875,0.24907252192497253,0.475851833820343,-0.9727307558059692
1761469321354588200,0.912588134765625,0.3004283308982849,0.5627772212028503,-0.8265658617019653
1761469321364571400,0.9225712890625,0.336172491312027,0.49558544158935547,-0.6765699982643127
1761469321374554400,0.932554443359375,0.3523511290550232,0.31476008892059326,-0.5974835157394409
1761469321384538400,0.942538330078125,0.33324721455574036,0.15253284573554993,-0.6123237013816833
1761469321394521600,0.952521484375,0.3055400550365448,-0.014802569523453712,-0.7114331126213074
1761469321404504300,0.96250439453125,0.29600009322166443,-0.09266434609889984,-0.8208310008049011
1761469321414487300,0.9724873046875,0.3145551085472107,-0.09297114610671997,-0.8120700716972351
1761469321424471300,0.98247119140625,0.31908300518989563,-0.0653269961476326,-0.646359920501709
1761469321434454500,0.99245458984375,0.2733377516269684,-0.02533918432891369,-0.37338709831237793
1761469321444437200,1.002437255859375,0.16939802467823029,0.003145721275359392,-0.07066503167152405
1761469321454420200,1.012420166015625,0.11515578627586365,0.010909879580140114,0.19862417876720428
1761469321464404200,1.022404296875,0.07998768240213394,-0.07368196547031403,0.44858473539352417
1761469321474387500,1.032387451171875,0.05894964560866356,-0.22546768188476562,0.63191819190979
1761469321484370400,1.042370361328125,0.04116319119930267,-0.349922776222229,0.7555232048034668
1761469321494354200,1.052354248046875,0.044642478227615356,-0.4119560122489929,0.832730233669281
1761469321504337400,1.06233740234375,0.06657440215349197,-0.4328354597091675,0.8723703026771545
1761469321514320400,1.0723203125,0.08380091935396194,-0.4100138545036316,0.8321229815483093
1761469321524303400,1.082303466796875,0.06591113656759262,-0.3234688341617584,0.7231571078300476
1761469321534287400,1.092287353515625,0.025780141353607178,-0.1706809550523758,0.574408233165741
1761469321544270300,1.102270263671875,-0.006844380404800177,0.010314402170479298,0.3934187889099121
1761469321554253300,1.11225341796875,-0.020904092118144035,0.15960092842578888,0.23639601469039917
1761469321564236300,1.122236328125,-0.020231112837791443,0.24934731423854828,0.11505760997533798
1761469321574220500,1.132220458984375,-0.0014123679138720036,0.2588122487068176,0.016683388501405716
1761469321584203500,1.14220361328125,0.047646522521972656,0.20605553686618805,-0.059023890644311905
1761469321594186200,1.152186279296875,0.11470398306846619,0.11267587542533875,-0.10099093616008759
1761469321604169500,1.16216943359375,0.15261274576187134,0.05119520425796509,-0.14333973824977875
1761469321614153500,1.172153564453125,0.16275620460510254,0.11282806843519211,-0.1726432740688324
1761469321624136400,1.182136474609375,0.1498771607875824,0.23691938817501068,-0.17803218960762024
1761469321634119200,1.192119140625,0.1023968905210495,0.3070454001426697,-0.1777520328760147
1761469321644103200,1.202103271484375,0.03526179492473602,0.29279083013534546,-0.1930505633354187
1761469321654086400,1.21208642578125,-0.004248722456395626,0.23137764632701874,-0.23846858739852905
1761469321664069400,1.2220693359375,0.0006022248417139053,0.12084047496318817,-0.2881740629673004
1761469321674052400,1.23205224609375,0.01305880956351757,0.017490748316049576,-0.28732678294181824
1761469321684036400,1.242036376953125,0.010076867416501045,-0.06099580600857735,-0.21450476348400116
1761469321694019300,1.252019287109375,-0.018501654267311096,-0.12742137908935547,-0.07928498834371567
1761469321704002300,1.262002197265625,-0.07227406650781631,-0.12378589808940887,0.12750761210918427
1761469321713985500,1.271985595703125,-0.15334850549697876,-0.06633156538009644,0.29278966784477234
1761469321723969500,1.281969482421875,-0.22986963391304016,-0.07143871486186981,0.35541123151779175
1761469321733952300,1.2919521484375,-0.288896769285202,-0.21427567303180695,0.27801257371902466
1761469321743935200,1.301935302734375,-0.3448958694934845,-0.34614449739456177,0.05848795175552368
1761469321753919500,1.31191943359375,-0.4205687940120697,-0.24553224444389343,-0.2133190780878067
1761469321763902500,1.32190234375,-0.5151664018630981,0.04263456165790558,-0.43619608879089355
1761469321773885200,1.33188525390625,-0.5794674158096313,0.30263587832450867,-0.5361299514770508
1761469321783868400,1.341868408203125,-0.6044486165046692,0.36639994382858276,-0.519298255443573
1761469321793852400,1.351852294921875,-0.5604972243309021,0.23758640885353088,-0.38996800780296326
1761469321803835400,1.36183544921875,-0.4567999243736267,0.0349387601017952,-0.1793852150440216
1761469321813819400,1.3718193359375,-0.41874343156814575,-0.08744857460260391,0.04738443344831467
1761469321823802400,1.38180224609375,-0.4449992775917053,-0.033095583319664,0.15318861603736877
1761469321833786400,1.391786376953125,-0.4359506666660309,0.1072230115532875,0.1621229648590088
1761469321843769600,1.40176953125,-0.37435388565063477,0.20251092314720154,0.09803266078233719
1761469321853752300,1.41175244140625,-0.2987678647041321,0.26744726300239563,0.024401258677244186
1761469321863736300,1.421736328125,-0.17477190494537354,0.3151013255119324,-0.0436217337846756
1761469321873719600,1.431719482421875,0.0010885619558393955,0.28073614835739136,-0.11702572554349899
1761469321883702500,1.44170263671875,0.21357420086860657,0.14516927301883698,-0.17196246981620789
1761469321893685500,1.451685546875,0.4067158102989197,-0.001720934989862144,-0.2100047469139099
1761469321903669500,1.46166943359375,0.5451208353042603,-0.08352365344762802,-0.27250462770462036
1761469321913652500,1.471652587890625,0.6201310157775879,-0.06651196628808975,-0.36492666602134705
1761469321923635500,1.481635498046875,0.6413177847862244,0.016867345198988914,-0.46250197291374207
1761469321933618400,1.491618408203125,0.6194426417350769,0.08921852707862854,-0.5430268049240112
1761469321943602700,1.501602783203125,0.5592341423034668,0.10476712882518768,-0.6215173006057739
1761469321953585400,1.51158544921875,0.4787200391292572,0.07159340381622314,-0.7122864127159119
1761469321963568400,1.521568359375,0.42093876004219055,0.0072999075055122375,-0.7881481647491455
1761469321973552400,1.531552490234375,0.38565513491630554,-0.0870775580406189,-0.8145800232887268
1761469321983535600,1.54153564453125,0.3745439052581787,-0.186892569065094,-0.820547878742218
1761469321993518600,1.5515185546875,0.3949013650417328,-0.25210779905319214,-0.8033830523490906
1761469322003501300,1.561501220703125,0.41946449875831604,-0.296425461769104,-0.7836388945579529
1761469322013485300,1.5714853515625,0.4374943971633911,-0.32287129759788513,-0.7814058661460876
1761469322023468500,1.581468505859375,0.4648418426513672,-0.3617750108242035,-0.8313989639282227
1761469322033451500,1.591451416015625,0.49813976883888245,-0.416862428188324,-0.9111438989639282
1761469322043434500,1.6014345703125,0.5237458348274231,-0.4956051707267761,-0.9912126660346985
1761469322053418500,1.61141845703125,0.5498365759849548,-0.5623525977134705,-1.0529814958572388
1761469322063401500,1.6214013671875,0.591667652130127,-0.5980672240257263,-1.07979416847229
1761469322073384400,1.631384521484375,0.6688278317451477,-0.621624767780304,-1.066709280014038
1761469322083367700,1.64136767578125,0.7696250081062317,-0.6878333687782288,-1.0016610622406006
1761469322093351700,1.6513515625,0.8528478145599365,-0.7432283163070679,-0.934022068977356
1761469322103334400,1.66133447265625,0.8730843663215637,-0.7043954133987427,-0.91526859998703
1761469322113317400,1.6713173828125,0.8267213702201843,-0.6336327195167542,-0.9296092391014099
1761469322123301600,1.681301513671875,0.7404147386550903,-0.6053619384765625,-1.0543285608291626
1761469322133284600,1.69128466796875,0.6478500962257385,-0.5632789731025696,-1.2962403297424316
1761469322143267300,1.701267333984375,0.6307339668273926,-0.5503271818161011,-1.5488568544387817
1761469322153250600,1.71125048828125,0.68930584192276,-0.615441620349884,-1.639464020729065
1761469322163234600,1.721234619140625,0.7343694567680359,-0.6407677531242371,-1.475381851196289
1761469322173217500,1.731217529296875,0.7274265885353088,-0.5466154217720032,-1.1548616886138916
1761469322183200500,1.741200439453125,0.6571351289749146,-0.38188374042510986,-0.7762621641159058
1761469322193183500,1.75118359375,0.5314875841140747,-0.23580478131771088,-0.4207039475440979
1761469322203167500,1.76116748046875,0.37494486570358276,-0.06844934821128845,-0.150740385055542
1761469322213150500,1.771150390625,0.24172522127628326,0.08774275332689285,0.07891221344470978
1761469322223133400,1.781133544921875,0.2049429714679718,0.129116028547287,0.26639315485954285
1761469322233117700,1.79111767578125,0.22042196989059448,0.06156277284026146,0.3768356740474701
1761469322243100400,1.801100341796875,0.24701203405857086,-0.03291952237486839,0.45891377329826355
1761469322253083400,1.81108349609375,0.2614653706550598,-0.0957835391163826,0.5111208558082581
1761469322263066600,1.821066650390625,0.2557813823223114,-0.11637749522924423,0.5259853005409241
1761469322273050600,1.831050537109375,0.2181466966867447,-0.07813020795583725,0.5113987326622009
1761469322283033600,1.84103369140625,0.15414081513881683,-0.030753636732697487,0.5414682030677795
1761469322293016300,1.851016357421875,0.05264541134238243,0.06346239894628525,0.5890088081359863
1761469322302999600,1.86099951171875,-0.05037178471684456,0.19328750669956207,0.6377936601638794
1761469322312983600,1.870983642578125,-0.1391610950231552,0.27402636408805847,0.6392149329185486
1761469322322966500,1.880966552734375,-0.19560866057872772,0.31848543882369995,0.5852295160293579
1761469322332949500,1.890949462890625,-0.24156202375888824,0.35093608498573303,0.4907096326351166
1761469322342932500,1.900932373046875,-0.2852565050125122,0.4025827646255493,0.38484764099121094
1761469322352916500,1.91091650390625,-0.32354235649108887,0.460132360458374,0.2852862477302551
1761469322362899500,1.9208994140625,-0.3295062184333801,0.49436596035957336,0.2384721040725708
1761469322372882700,1.930882568359375,-0.3071560263633728,0.484927773475647,0.25171828269958496
1761469322382866400,1.940866455078125,-0.273512601852417,0.4277896583080292,0.3199212849140167
1761469322392849400,1.950849365234375,-0.24127081036567688,0.3365098237991333,0.4290511906147003
1761469322402832400,1.960832275390625,-0.22262123227119446,0.22875486314296722,0.5433985590934753
1761469322412815600,1.970815673828125,-0.1955728381872177,0.12271841615438461,0.5989068150520325
1761469322422799600,1.980799560546875,-0.17364516854286194,-0.02641221322119236,0.5898869633674622
1761469322432782300,1.9907822265625,-0.1433604508638382,-0.23339612782001495,0.5058706402778625
1761469322442765600,2.000765625,-0.12476972490549088,-0.44855502247810364,0.3972049057483673
1761469322452748500,2.01074853515625,-0.10567770153284073,-0.6268324255943298,0.30535203218460083
1761469322462732500,2.020732666015625,-0.10249149054288864,-0.7557294368743896,0.20403102040290833
1761469322472715300,2.03071533203125,-0.09539590030908585,-0.7375621199607849,0.04566066339612007
1761469322482698500,2.040698486328125,-0.07011211663484573,-0.5754909515380859,-0.1920783817768097
1761469322492681500,2.050681396484375,-0.026677638292312622,-0.3705313801765442,-0.4110875725746155
1761469322502665500,2.06066552734375,0.05881835147738457,-0.20019854605197906,-0.472280353307724
1761469322512648700,2.070648681640625,0.13922956585884094,-0.17002786695957184,-0.3960617184638977
1761469322522631400,2.08063134765625,0.18614248931407928,-0.2531650960445404,-0.2901238203048706
1761469322532615400,2.090615478515625,0.1158575713634491,-0.2583075761795044,-0.10525975376367569
1761469322542598400,2.100598388671875,-0.03264614939689636,0.002849436132237315,0.04080478101968765
1761469322552581600,2.11058154296875,-0.13974006474018097,0.4083489179611206,0.08368673175573349
1761469322562564400,2.120564453125,-0.20167799293994904,0.638614296913147,0.02507854998111725
1761469322572548400,2.13054833984375,-0.18063263595104218,0.646790623664856,-0.10653834789991379
1761469322582531300,2.14053125,-0.13588912785053253,0.5474004149436951,-0.2455660104751587
1761469322592514600,2.1505146484375,-0.041461337357759476,0.422918438911438,-0.3436970114707947
1761469322602497500,2.16049755859375,0.10965520888566971,0.25236961245536804,-0.3406868577003479
1761469322612481500,2.1704814453125,0.2522878050804138,0.07925458252429962,-0.28495103120803833
1761469322622464500,2.180464599609375,0.3634684085845947,0.021588357165455818,-0.22278404235839844
1761469322632447500,2.190447509765625,0.43342798948287964,0.05089800804853439,-0.18603217601776123
1761469322642431500,2.200431396484375,0.4714486002922058,0.10621665418148041,-0.19075822830200195
1761469322652414500,2.21041455078125,0.46179747581481934,0.16105349361896515,-0.22778025269508362
1761469322662397400,2.2203974609375,0.3995823264122009,0.17637306451797485,-0.2833055555820465
1761469322672380400,2.23038037109375,0.31140458583831787,0.1843012124300003,-0.32318344712257385
1761469322682364400,2.240364501953125,0.2124502956867218,0.19942663609981537,-0.3174012005329132
1761469322692347600,2.25034765625,0.09728296101093292,0.2388715147972107,-0.29204392433166504
1761469322702330600,2.26033056640625,-0.014279251918196678,0.3027828335762024,-0.28449490666389465
1761469322712313300,2.270313232421875,-0.11652492731809616,0.3821425139904022,-0.32852470874786377
1761469322722297300,2.28029736328125,-0.2017814964056015,0.46998050808906555,-0.40846508741378784
1761469322732280600,2.290280517578125,-0.2709008753299713,0.5383767485618591,-0.5120869874954224
1761469322742263600,2.300263671875,-0.30088382959365845,0.5097983479499817,-0.6410945057868958
1761469322752246300,2.310246337890625,-0.29846274852752686,0.4165102243423462,-0.7442339658737183
1761469322762230300,2.320230224609375,-0.2660347521305084,0.3238687217235565,-0.7975525856018066
1761469322772213500,2.330213623046875,-0.2249302864074707,0.264573872089386,-0.7976900339126587
1761469322782196500,2.340196533203125,-0.1516645848751068,0.2216503918170929,-0.7778772115707397
1761469322792180500,2.350180419921875,-0.05892085283994675,0.21558569371700287,-0.7480906248092651
1761469322802163700,2.360163818359375,0.04751664027571678,0.22028671205043793,-0.6950154304504395
1761469322812146400,2.370146484375,0.15652963519096375,0.24492213129997253,-0.6299786567687988
1761469322822129200,2.380129150390625,0.2607114315032959,0.22233399748802185,-0.5222764611244202
1761469322832113200,2.390113037109375,0.35544008016586304,0.062442317605018616,-0.47883838415145874
1761469322842096400,2.400096435546875,0.3826676905155182,-0.26929861307144165,-0.5530068874359131
1761469322852079000,2.4100791015625,0.3876059949398041,-0.6289823055267334,-0.6441978216171265
1761469322862062300,2.420062255859375,0.4212438464164734,-0.7317707538604736,-0.5046415328979492
1761469322872046300,2.43004638671875,0.44881272315979004,-0.5854901671409607,-0.09801243245601654
1761469322882029300,2.440029296875,0.3778946101665497,-0.3907638490200043,0.3475746512413025
1761469322892012300,2.45001220703125,0.16288678348064423,-0.24750636518001556,0.645586371421814
1761469322901996000,2.45999609375,-0.0018297252245247364,-0.19785171747207642,0.7401539087295532
1761469322911979300,2.469979248046875,-0.13891132175922394,-0.24964897334575653,0.7740044593811035
1761469322921962200,2.479962158203125,-0.2504269480705261,-0.24422891438007355,0.8660510182380676
1761469322931945200,2.4899453125,-0.3077818751335144,-0.1623159497976303,0.9926714897155762
1761469322941929200,2.49992919921875,-0.286818265914917,-0.14238564670085907,1.1149861812591553
1761469322951912200,2.509912109375,-0.25429877638816833,-0.17363935708999634,1.197001576423645
1761469322961895200,2.519895263671875,-0.2086591124534607,-0.22813695669174194,1.2037835121154785
1761469322971878400,2.52987841796875,-0.1706170290708542,-0.27628737688064575,1.1452609300613403
1761469322981862400,2.5398623046875,-0.16255377233028412,-0.25431177020072937,1.0370590686798096
1761469322991845000,2.54984521484375,-0.19939665496349335,-0.1399502456188202,0.9072721004486084
1761469323001828000,2.559828125,-0.24543018639087677,0.03093734383583069,0.7897428274154663
1761469323011811300,2.569811279296875,-0.28501540422439575,0.18579311668872833,0.710064709186554
1761469323021795300,2.57979541015625,-0.3217853903770447,0.2800154685974121,0.6756630539894104
1761469323031778300,2.5897783203125,-0.35316282510757446,0.33854854106903076,0.6722382307052612
1761469323041761300,2.59976123046875,-0.3868717849254608,0.3740553855895996,0.6560576558113098
1761469323051745300,2.609745361328125,-0.39972802996635437,0.40267181396484375,0.6254695653915405
1761469323061728300,2.619728271484375,-0.38818615674972534,0.41434526443481445,0.591447651386261
1761469323071711200,2.629711181640625,-0.3533228933811188,0.3951495885848999,0.5739341974258423
1761469323081694200,2.639694091796875,-0.29413414001464844,0.3396567702293396,0.5883259177207947
1761469323091678200,2.64967822265625,-0.2285839468240738,0.28026479482650757,0.6297702789306641
1761469323101661200,2.6596611328125,-0.1626368910074234,0.19384337961673737,0.6745741963386536
1761469323111644200,2.66964404296875,-0.0884394645690918,0.0770445317029953,0.6790059208869934
1761469323121627400,2.67962744140625,-0.041289523243904114,-0.06618666648864746,0.6061194539070129
1761469323131611400,2.689611328125,-0.030815713107585907,-0.20385590195655823,0.4739128351211548
1761469323141594000,2.699593994140625,-0.04422445967793465,-0.322485089302063,0.29427194595336914
1761469323151577300,2.709577392578125,-0.08053918927907944,-0.36796659231185913,0.11120903491973877
1761469323161560300,2.719560302734375,-0.15478332340717316,-0.279548317193985,-0.02341535873711109
1761469323171544300,2.72954443359375,-0.23443426191806793,-0.11307080835103989,-0.08519383519887924
1761469323181527000,2.739527099609375,-0.280443012714386,0.06658337265253067,-0.08939497172832489
1761469323191510300,2.74951025390625,-0.30046623945236206,0.23872996866703033,-0.06652205437421799
1761469323201494300,2.759494384765625,-0.26722732186317444,0.25636276602745056,-0.06992077827453613
1761469323211477200,2.769477294921875,-0.2281072586774826,0.12407346069812775,-0.09913872927427292
1761469323221460200,2.779460205078125,-0.1366495043039322,0.027547184377908707,-0.1420116126537323
1761469323231443200,2.789443115234375,-0.13144035637378693,0.15640199184417725,-0.01604122295975685
1761469323241427200,2.79942724609375,-0.1079757884144783,0.4313584566116333,0.1726522594690323
1761469323251410200,2.80941015625,-0.0338444784283638,0.5562677979469299,0.2688044607639313
1761469323261393400,2.819393310546875,-0.0006298022344708443,0.510979175567627,0.24209801852703094
1761469323271376100,2.829376220703125,0.024671562016010284,0.4624764919281006,0.15707339346408844
1761469323281360100,2.839360107421875,0.06529409438371658,0.3219473361968994,0.07912001013755798
1761469323291343000,2.849343017578125,0.13169246912002563,0.04937675595283508,0.04809272289276123
1761469323301326300,2.859326416015625,0.16602514684200287,-0.11984795331954956,0.06353932619094849
1761469323311309300,2.869309326171875,0.17458254098892212,-0.09664032608270645,0.12677732110023499
1761469323321293300,2.879293212890625,0.16954809427261353,-0.003106378484517336,0.2240561991930008
1761469323331276300,2.8892763671875,0.1593293696641922,0.09008830785751343,0.2865159809589386
1761469323341259300,2.89925927734375,0.14156155288219452,0.15960773825645447,0.2889751195907593
1761469323351243300,2.9092431640625,0.10242041200399399,0.1999334990978241,0.2316502183675766
1761469323361226200,2.919226318359375,0.04068620502948761,0.22923892736434937,0.14484821259975433
1761469323371209200,2.929209228515625,-0.05176994949579239,0.2481166422367096,0.054432522505521774
1761469323381192200,2.939192138671875,-0.11253929883241653,0.27287551760673523,-0.018088817596435547
1761469323391176200,2.94917626953125,-0.12900464236736298,0.3178332448005676,-0.034858353435993195
1761469323401159200,2.9591591796875,-0.10670012980699539,0.2968565821647644,-0.004725481849163771
1761469323411142400,2.969142333984375,-0.06336113810539246,0.18744142353534698,0.0325857475399971
1761469323421125000,2.979125,-0.019592881202697754,0.0901244580745697,0.05346812680363655
1761469323431109000,2.989109130859375,0.007948027923703194,0.008316482417285442,0.023540619760751724
1761469323441092400,2.99909228515625,0.017271755263209343,-0.06968323886394501,-0.06726837158203125
1761469323451075300,3.009075439453125,0.018874213099479675,-0.10316279530525208,-0.17368684709072113
1761469323461058000,3.01905810546875,0.011759578250348568,-0.07916185259819031,-0.254108726978302
1761469323471042000,3.0290419921875,0.038977619260549545,-0.08303089439868927,-0.3181023597717285
1761469323481025300,3.039025390625,0.09016676247119904,-0.19806532561779022,-0.3586857318878174
1761469323491008300,3.04900830078125,0.19243553280830383,-0.3908877968788147,-0.3857552707195282
1761469323500992300,3.0589921875,0.33680495619773865,-0.5756981372833252,-0.4128388464450836
1761469323510975200,3.068975341796875,0.4366782009601593,-0.7336398959159851,-0.4877224564552307
1761469323520958200,3.078958251953125,0.542395830154419,-0.8262611627578735,-0.5910709500312805
1761469323530941200,3.088941162109375,0.6676974296569824,-0.817097544670105,-0.6270920038223267
1761469323540925200,3.09892529296875,0.7654336094856262,-0.7850695848464966,-0.6222282648086548
1761469323550908400,3.108908447265625,0.7156682014465332,-0.7265781164169312,-0.7046684622764587
1761469323560891100,3.11889111328125,0.6368247270584106,-0.5268284678459167,-0.6981104016304016
1761469323570874000,3.1288740234375,0.5930620431900024,-0.32433274388313293,-0.38142678141593933
1761469323580858000,3.138858154296875,0.49264228343963623,-0.22254884243011475,0.056706611067056656
1761469323590841300,3.14884130859375,0.3620864152908325,-0.1772022545337677,0.3389013409614563
1761469323600824300,3.15882421875,0.179006889462471,-0.11373433470726013,0.4246964156627655
1761469323610807300,3.168807373046875,-0.0053779915906488895,0.05478791147470474,0.4406651258468628
1761469323620791300,3.178791259765625,-0.05180727690458298,0.1768970489501953,0.4569692611694336
1761469323630774300,3.188774169921875,-0.04711172357201576,0.05362642928957939,0.5509776473045349
1761469323640757200,3.19875732421875,-0.01307279895991087,-0.14965985715389252,0.602088987827301
1761469323650741200,3.2087412109375,0.024944275617599487,-0.2833353877067566,0.6262882351875305
1761469323660724200,3.21872412109375,0.02584974840283394,-0.3549877405166626,0.6383076310157776
1761469323670707200,3.228707275390625,0.003074483945965767,-0.3314354717731476,0.6082957983016968
1761469323680690200,3.238690185546875,-0.04841586947441101,-0.22994880378246307,0.5452404022216797
1761469323690674400,3.24867431640625,-0.10350917279720306,-0.07982268929481506,0.4540892243385315
1761469323700657200,3.2586572265625,-0.1257268637418747,0.07851208746433258,0.3407280445098877
1761469323710640000,3.26864013671875,-0.11861441284418106,0.14351943135261536,0.24612267315387726
1761469323720623400,3.278623291015625,-0.12670855224132538,0.10457149147987366,0.2218538224697113
1761469323730607400,3.288607421875,-0.13958768546581268,0.012093717232346535,0.24115073680877686
1761469323740590300,3.29859033203125,-0.11294116824865341,-0.09788578003644943,0.27431029081344604
1761469323750573000,3.308572998046875,-0.05599860101938248,-0.20166254043579102,0.3338107764720917
1761469323760557000,3.31855712890625,0.020516412332654,-0.3058869540691376,0.4227803349494934
1761469323770540300,3.328540283203125,0.06752120703458786,-0.40046340227127075,0.49584680795669556
1761469323780523300,3.338523193359375,0.07353115826845169,-0.4432353675365448,0.5114628076553345
1761469323790506200,3.34850634765625,0.01651936210691929,-0.41005828976631165,0.461005300283432
1761469323800490200,3.358490234375,-0.09248728305101395,-0.3301442861557007,0.3618054687976837
1761469323810473200,3.36847314453125,-0.21725007891654968,-0.24114656448364258,0.25573673844337463
1761469323820456200,3.378456298828125,-0.318647563457489,-0.2017328441143036,0.1989070177078247
1761469323830439400,3.388439453125,-0.38401904702186584,-0.2413865029811859,0.21136802434921265
1761469323840423400,3.39842333984375,-0.3937734067440033,-0.3824877142906189,0.26433002948760986
1761469323850406100,3.40840625,-0.3526219427585602,-0.5501754283905029,0.29878923296928406
1761469323860389000,3.41838916015625,-0.2851632833480835,-0.5760717391967773,0.18914875388145447
1761469323870372400,3.428372314453125,-0.22593297064304352,-0.4346313178539276,-0.04510418698191643
1761469323880356400,3.4383564453125,-0.1514134556055069,-0.17347055673599243,-0.36346060037612915
1761469323890339300,3.44833935546875,-0.05848150700330734,0.06553159654140472,-0.6384787559509277
1761469323900322300,3.458322265625,-0.020118143409490585,0.13394899666309357,-0.7895963191986084
1761469323910306300,3.468306396484375,0.025898126885294914,0.03239429369568825,-0.8372418880462646
1761469323920289300,3.478289306640625,0.10134654492139816,-0.0779106467962265,-0.9043324589729309
1761469323930272300,3.488272216796875,0.12139668315649033,-0.04441206902265549,-1.0205384492874146
1761469323940255200,3.498255126953125,0.02714155614376068,0.2654653489589691,-1.096139669418335
1761469323950239200,3.5082392578125,-0.06806858628988266,0.7439693212509155,-1.0675888061523438
1761469323960222200,3.51822216796875,-0.06506107747554779,0.8925084471702576,-0.9519899487495422
1761469323970205200,3.528205078125,0.013346381485462189,0.6567372679710388,-0.7904200553894043
1761469323980188400,3.5381884765625,0.13282617926597595,0.36743566393852234,-0.6594348549842834
1761469323990172400,3.54817236328125,0.27093279361724854,0.16882465779781342,-0.584039032459259
1761469324000155100,3.558155029296875,0.39510267972946167,0.06733797490596771,-0.5099786520004272
1761469324010138400,3.568138427734375,0.47543230652809143,-0.025236472487449646,-0.4128543436527252
1761469324020121300,3.578121337890625,0.47619369626045227,-0.08857683092355728,-0.2677522897720337
1761469324030105300,3.588105224609375,0.4157993793487549,-0.10655304044485092,-0.12736444175243378
1761469324040088000,3.598088134765625,0.34070008993148804,-0.06526897847652435,-0.027897773310542107
1761469324050071300,3.6080712890625,0.2654098570346832,0.017766784876585007,0.008540662005543709
1761469324060054300,3.61805419921875,0.1886162906885147,0.08109568804502487,-0.013184074312448502
1761469324070038300,3.628038330078125,0.11132008582353592,0.09990927577018738,-0.09610141813755035
1761469324080021500,3.638021484375,0.027406273409724236,0.0710723027586937,-0.1995103657245636
1761469324090004200,3.648004150390625,-0.04319599270820618,0.06503506004810333,-0.28119832277297974
1761469324099988200,3.65798828125,-0.0938759446144104,0.09830619394779205,-0.3306431174278259
1761469324109971200,3.66797119140625,-0.11253387480974197,0.13765808939933777,-0.36006900668144226
1761469324119954400,3.677954345703125,-0.08514965325593948,0.14606648683547974,-0.3782291114330292
1761469324129937200,3.687937255859375,-0.028737200424075127,0.11282879114151001,-0.37459835410118103
1761469324139921200,3.697921142578125,0.04529574513435364,0.07091808319091797,-0.3786921501159668
1761469324149904100,3.707904052734375,0.12294389307498932,0.045515116304159164,-0.37798887491226196
1761469324159887400,3.717887451171875,0.17059077322483063,0.03110342100262642,-0.37564530968666077
1761469324169870300,3.727870361328125,0.2156061977148056,0.01582113653421402,-0.37053123116493225
1761469324179854300,3.737854248046875,0.2533024251461029,-0.030053678900003433,-0.3620903491973877
1761469324189837300,3.74783740234375,0.265349805355072,-0.1471244990825653,-0.38628116250038147
1761469324199820300,3.7578203125,0.27043187618255615,-0.2680349349975586,-0.45769888162612915
1761469324209803300,3.76780322265625,0.28543177247047424,-0.3090760409832001,-0.5587829351425171
1761469324219787300,3.777787353515625,0.2660365104675293,-0.25988906621932983,-0.6805689930915833
1761469324229770200,3.787770263671875,0.22151637077331543,-0.20257161557674408,-0.8380773067474365
1761469324239753200,3.797753173828125,0.1519026756286621,-0.09000591933727264,-1.0299358367919922
1761469324249737200,3.8077373046875,0.1524292528629303,-0.014030827209353447,-1.1651500463485718
1761469324259720400,3.817720458984375,0.2151389718055725,-0.15007229149341583,-1.1519333124160767
1761469324269703400,3.827703369140625,0.3778570890426636,-0.36094602942466736,-0.8689354062080383
1761469324279686100,3.83768603515625,0.47886839509010315,-0.6275343298912048,-0.4108264446258545
1761469324289670100,3.847670166015625,0.35863667726516724,-0.67753005027771,0.01844329759478569
1761469324299653400,3.8576533203125,0.2296440601348877,-0.5118178129196167,0.35275283455848694
1761469324309636400,3.86763623046875,0.0865221917629242,-0.3372199237346649,0.5593783259391785
1761469324319619000,3.877619140625,-0.024593411013484,-0.23504267632961273,0.6576129794120789
1761469324329603000,3.88760302734375,-0.06530942022800446,-0.13051161170005798,0.7224534749984741
1761469324339586300,3.89758642578125,-0.050550177693367004,-0.033942464739084244,0.7652376890182495
1761469324349569300,3.9075693359375,-0.03489686921238899,-0.03345680609345436,0.7922935485839844
1761469324359552300,3.91755224609375,-0.009700704365968704,-0.1306145191192627,0.776319682598114
1761469324369536500,3.92753662109375,0.014988617971539497,-0.21241459250450134,0.7009308934211731
1761469324379519200,3.937519287109375,0.018289607018232346,-0.22259213030338287,0.5854479670524597
1761469324389502200,3.947502197265625,-0.01574235036969185,-0.1050911694765091,0.4472205936908722
1761469324399486200,3.957486328125,-0.10140692442655563,0.09646564722061157,0.30062371492385864
1761469324409469400,3.967469482421875,-0.1751307249069214,0.3199352025985718,0.15793871879577637
1761469324419452200,3.9774521484375,-0.24261575937271118,0.5169813632965088,0.07270478457212448
1761469324429435100,3.98743505859375,-0.31057465076446533,0.652449369430542,0.041209861636161804
1761469324439419400,3.99741943359375,-0.35658928751945496,0.7297361493110657,0.05987568944692612
1761469324449402400,4.00740234375,-0.39436107873916626,0.7501474022865295,0.13033422827720642
1761469324459385300,4.01738525390625,-0.41407138109207153,0.7007372379302979,0.24787738919258118
1761469324469368300,4.027368408203125,-0.38282862305641174,0.6162050366401672,0.3778842091560364
1761469324479352300,4.037352294921875,-0.33026716113090515,0.4900580048561096,0.49717891216278076
1761469324489335300,4.047335205078125,-0.2898741662502289,0.3018124997615814,0.580599308013916
1761469324499318300,4.057318359375,-0.25457876920700073,0.12818370759487152,0.6340798735618591
1761469324509301200,4.06730126953125,-0.23255041241645813,-0.0037748736795037985,0.67332923412323
1761469324519285200,4.07728515625,-0.22048524022102356,-0.09378332644701004,0.71022629737854
1761469324529268200,4.087268310546875,-0.23748716711997986,-0.19814583659172058,0.7141221761703491
1761469324539251200,4.097251220703125,-0.24981333315372467,-0.3621837794780731,0.657486617565155
1761469324549235500,4.1072353515625,-0.2497691959142685,-0.5513635873794556,0.5447245836257935
1761469324559218200,4.11721826171875,-0.21563971042633057,-0.675882875919342,0.42528367042541504
1761469324569201200,4.127201171875,-0.21640922129154205,-0.6782240867614746,0.2868061065673828
1761469324579184400,4.137184326171875,-0.2384229153394699,-0.5956985950469971,0.0833887904882431
1761469324589168400,4.14716845703125,-0.22657403349876404,-0.44011813402175903,-0.13812869787216187
1761469324599151400,4.1571513671875,-0.20989225804805756,-0.23705501854419708,-0.2429371327161789
1761469324609134000,4.167134033203125,-0.19487394392490387,-0.14093568921089172,-0.2714170515537262
1761469324619117300,4.177117431640625,-0.2046799659729004,-0.11081001907587051,-0.26508405804634094
1761469324629101300,4.187101318359375,-0.252533882856369,0.026648588478565216,-0.21141430735588074
1761469324639084300,4.197084228515625,-0.3229050040245056,0.31643298268318176,-0.1065233126282692
1761469324649067500,4.207067626953125,-0.3064049184322357,0.6608076691627502,-0.013332161121070385
1761469324659050200,4.21705029296875,-0.24873681366443634,0.7908423542976379,0.03197113797068596
1761469324669034200,4.2270341796875,-0.1847909390926361,0.6757326126098633,0.045436300337314606
1761469324679017200,4.237017333984375,-0.05447421595454216,0.38164588809013367,0.03293409198522568
1761469324689000400,4.24700048828125,0.1522589921951294,0.03722353279590607,-0.0781589075922966
1761469324698984400,4.256984375,0.32178863883018494,-0.2099979817867279,-0.2019791156053543
1761469324708967200,4.26696728515625,0.4085536301136017,-0.2662443518638611,-0.22941581904888153
1761469324718950100,4.2769501953125,0.44693082571029663,-0.24277494847774506,-0.1961904913187027
1761469324728933400,4.286933349609375,0.43023961782455444,-0.21312139928340912,-0.16890892386436462
1761469324738917400,4.29691748046875,0.36381933093070984,-0.19292424619197845,-0.13757364451885223
1761469324748900000,4.306900146484375,0.2746236026287079,-0.1864730268716812,-0.10553239285945892
1761469324758883300,4.31688330078125,0.18689297139644623,-0.20993466675281525,-0.09076197445392609
1761469324768866300,4.3268662109375,0.11403907835483551,-0.2537727952003479,-0.11296280473470688
1761469324778850300,4.336850341796875,0.08152773976325989,-0.30739206075668335,-0.17144234478473663
1761469324788833300,4.346833251953125,0.0626818835735321,-0.34829917550086975,-0.2583111822605133
1761469324798816300,4.356816162109375,0.06672003120183945,-0.3785918354988098,-0.34621548652648926
1761469324808800300,4.36680029296875,0.0951940193772316,-0.3998351991176605,-0.39211374521255493
1761469324818782500,4.376782470703125,0.14602471888065338,-0.42833074927330017,-0.38732513785362244
1761469324828765700,4.386765625,0.21124587953090668,-0.45877358317375183,-0.34872332215309143
1761469324838748700,4.396748779296875,0.2813221514225006,-0.4810165762901306,-0.29386165738105774
1761469324848732700,4.406732666015625,0.3388863801956177,-0.4968140125274658,-0.24846303462982178
1761469324858715600,4.416715576171875,0.37734508514404297,-0.4934310019016266,-0.21563956141471863
1761469324868698600,4.42669873046875,0.3936747908592224,-0.4715299606323242,-0.19363680481910706
1761469324878681600,4.436681640625,0.39686766266822815,-0.48766234517097473,-0.2052854597568512
1761469324888665600,4.44666552734375,0.3886622488498688,-0.511939287185669,-0.2526122033596039
1761469324898648800,4.45664892578125,0.3171830177307129,-0.48712873458862305,-0.32435962557792664
1761469324908631600,4.466631591796875,0.2435464709997177,-0.41987890005111694,-0.43514859676361084
1761469324918614500,4.476614501953125,0.14190852642059326,-0.32565414905548096,-0.5734052658081055
1761469324928598500,4.4865986328125,0.01398980338126421,-0.12958115339279175,-0.7585930824279785
1761469324938581800,4.496581787109375,-0.1267547905445099,0.1389392465353012,-0.9278604388237
1761469324948564700,4.506564697265625,-0.2384124994277954,0.36831802129745483,-1.005014419555664
1761469324958548500,4.516548583984375,-0.225591778755188,0.4814682900905609,-0.9570892453193665
1761469324968531700,4.52653173828125,-0.11478504538536072,0.38146382570266724,-0.7468110918998718
1761469324978514700,4.5365146484375,0.012165714055299759,0.09978900849819183,-0.40920352935791016
1761469324988497700,4.54649755859375,0.10224943608045578,-0.21553385257720947,0.021506793797016144
1761469324998481700,4.556481689453125,0.1048678606748581,-0.4142477512359619,0.4408324360847473
1761469325008464600,4.566464599609375,0.019052915275096893,-0.48231300711631775,0.7154814004898071
1761469325018447600,4.576447509765625,-0.09760579466819763,-0.4495755732059479,0.8272920846939087
1761469325028430600,4.5864306640625,-0.1858949512243271,-0.3913068175315857,0.8998622894287109
1761469325038416600,4.596416748046875,-0.24339686334133148,-0.38268139958381653,1.0244479179382324
1761469325048400600,4.606400634765625,-0.2866692841053009,-0.41785115003585815,1.142594814300537
1761469325058383600,4.616383544921875,-0.3238848149776459,-0.4636841416358948,1.1935884952545166
1761469325068366800,4.626366943359375,-0.3588593304157257,-0.4771941900253296,1.1975070238113403
1761469325078349600,4.636349609375,-0.4020227789878845,-0.46842145919799805,1.1017106771469116
1761469325088333600,4.64633349609375,-0.44957372546195984,-0.45141345262527466,0.9385935068130493
1761469325098316500,4.656316650390625,-0.48306670784950256,-0.4160916805267334,0.7574657797813416
1761469325108299800,4.6662998046875,-0.48281583189964294,-0.3452766239643097,0.5915217995643616
1761469325118282500,4.676282470703125,-0.47433552145957947,-0.27894502878189087,0.4717603027820587
1761469325128266500,4.6862666015625,-0.4516473412513733,-0.22156870365142822,0.4318385720252991
1761469325138249700,4.696249755859375,-0.433847576379776,-0.14154072105884552,0.46164414286613464
1761469325148232700,4.706232666015625,-0.40772536396980286,-0.08616490662097931,0.5274645090103149
1761469325158216700,4.716216796875,-0.41587331891059875,-0.054682351648807526,0.6003844738006592
1761469325168199400,4.726199462890625,-0.4290873408317566,-0.016883015632629395,0.6565453410148621
1761469325178182700,4.7361826171875,-0.4175976514816284,-0.03474190831184387,0.7221893668174744
1761469325188165600,4.74616552734375,-0.41728392243385315,-0.10939735174179077,0.7978256940841675
1761469325198149600,4.756149658203125,-0.41389742493629456,-0.19452235102653503,0.8515267372131348
1761469325208132900,4.7661328125,-0.419520765542984,-0.2861350178718567,0.8951629400253296
1761469325218115600,4.776115478515625,-0.444297194480896,-0.3562144935131073,0.938766360282898
1761469325228098600,4.7860986328125,-0.4807678461074829,-0.406410276889801,0.9621875882148743
1761469325238082600,4.79608251953125,-0.5265214443206787,-0.4437533915042877,0.911623477935791
1761469325248065800,4.806065673828125,-0.5584417581558228,-0.4599246084690094,0.7979702353477478
1761469325258048800,4.816048828125,-0.5909775495529175,-0.46887919306755066,0.664880096912384
1761469325268031500,4.826031494140625,-0.6418889164924622,-0.46376657485961914,0.5304741263389587
1761469325278015500,4.836015380859375,-0.7119241952896118,-0.47202610969543457,0.38593345880508423
1761469325287998700,4.845998779296875,-0.779693067073822,-0.4831762909889221,0.23897014558315277
1761469325297981700,4.855981689453125,-0.825203537940979,-0.5208512544631958,0.10104289650917053
1761469325307965700,4.865965576171875,-0.7888772487640381,-0.5961343050003052,0.00357949105091393
1761469325317948700,4.87594873046875,-0.7305628061294556,-0.7031081318855286,-0.05110718682408333
1761469325327931600,4.885931640625,-0.6708067655563354,-0.8173567056655884,-0.09038002789020538
1761469325337914600,4.89591455078125,-0.6382312774658203,-0.8053157329559326,-0.11962313205003738
1761469325347898600,4.905898681640625,-0.6198543906211853,-0.5709071159362793,-0.09054669737815857
1761469325357881600,4.915881591796875,-0.5936148166656494,-0.2088594287633896,0.01643301546573639
1761469325367864600,4.925864501953125,-0.5114409923553467,0.04915006831288338,0.15685038268566132
1761469325377847600,4.93584765625,-0.419966459274292,0.09835835546255112,0.22974829375743866
1761469325387831800,4.945831787109375,-0.32664361596107483,0.029797859489917755,0.22300498187541962
1761469325397814800,4.955814697265625,-0.2333294004201889,-0.12595205008983612,0.15477000176906586
1761469325407797500,4.965797607421875,-0.10983369499444962,-0.39947858452796936,0.08788534998893738
1761469325417780700,4.97578076171875,0.017612677067518234,-0.740688145160675,0.06593344360589981
1761469325427764700,4.9857646484375,0.16752010583877563,-0.9730833172798157,0.1321137547492981
1761469325437747700,4.995747802734375,0.19956833124160767,-1.1914644241333008,0.28600266575813293
1761469325447730400,5.00573046875,0.20114602148532867,-1.29779851436615,0.5099886655807495
1761469325457714400,5.01571435546875,0.2074233591556549,-1.2491955757141113,0.66498863697052
1761469325467697700,5.02569775390625,0.1954629272222519,-1.1265199184417725,0.6719658970832825
1761469325477680600,5.0356806640625,0.16630291938781738,-0.9948311448097229,0.5993737578392029
1761469325487663900,5.045663818359375,0.1448574960231781,-0.8418720960617065,0.48661890625953674
1761469325497647900,5.05564794921875,0.11631080508232117,-0.7171429395675659,0.35860422253608704
1761469325507630600,5.065630615234375,0.0856691375374794,-0.6322882771492004,0.24693240225315094
1761469325517613600,5.075613525390625,0.04798407852649689,-0.5041513442993164,0.1698264330625534
1761469325527596800,5.0855966796875,0.02182997763156891,-0.3219943344593048,0.10753507167100906
1761469325537580800,5.095580810546875,0.004813976585865021,-0.16571073234081268,0.03916347399353981
1761469325547563500,5.1055634765625,-0.0040303440764546394,-0.07677806168794632,-0.03196786344051361
1761469325557546500,5.11554638671875,0.017221149057149887,-0.02732635661959648,-0.09035740792751312
1761469325567529700,5.12552978515625,0.0494416281580925,0.007652520202100277,-0.13090090453624725
1761469325577513700,5.135513671875,0.07341087609529495,0.07410211116075516,-0.17058627307415009
1761469325587496700,5.14549658203125,0.050145938992500305,0.1773320436477661,-0.21677778661251068
1761469325597479700,5.155479736328125,-0.020324762910604477,0.30475735664367676,-0.27185675501823425
1761469325607462700,5.165462646484375,-0.11006991565227509,0.4320152997970581,-0.3098963797092438
1761469325617446700,5.17544677734375,-0.2036275565624237,0.5261553525924683,-0.3530379831790924
1761469325627429600,5.1854296875,-0.3180930018424988,0.5597596168518066,-0.43616706132888794
1761469325637412600,5.19541259765625,-0.39250147342681885,0.5568886995315552,-0.5482432842254639
1761469325647396600,5.205396728515625,-0.44774261116981506,0.5983390808105469,-0.6284083724021912
1761469325657379600,5.215379638671875,-0.46059104800224304,0.7027280926704407,-0.6582246422767639
1761469325667362800,5.22536279296875,-0.4576607346534729,0.778350830078125,-0.6132068037986755
1761469325677345800,5.235345703125,-0.4369986057281494,0.79277104139328,-0.4698280394077301
1761469325687329800,5.245329833984375,-0.4133308529853821,0.8040308356285095,-0.27671748399734497
1761469325697312500,5.2553125,-0.40874701738357544,0.7759294509887695,-0.0514364168047905
1761469325707295700,5.265295654296875,-0.40208864212036133,0.6422111392021179,0.24252110719680786
1761469325717278700,5.27527880859375,-0.38916563987731934,0.40729188919067383,0.5591731071472168
1761469325727262700,5.2852626953125,-0.338886559009552,0.15006710588932037,0.8170329928398132
1761469325737245400,5.295245361328125,-0.278471976518631,-0.06297300010919571,0.9976637363433838
1761469325747228700,5.305228759765625,-0.20595316588878632,-0.24681799113750458,1.0826005935668945
1761469325757211600,5.315211669921875,-0.15476268529891968,-0.37354904413223267,1.1051889657974243
1761469325767195600,5.325195556640625,-0.13236111402511597,-0.41984447836875916,1.063529372215271
1761469325777179000,5.335178955078125,-0.14882130920886993,-0.36626219749450684,0.9558401703834534
1761469325787161600,5.34516162109375,-0.20644745230674744,-0.2508610785007477,0.7961617112159729
1761469325797145600,5.3551455078125,-0.3137483298778534,-0.09831973910331726,0.6262823939323425
1761469325807128600,5.365128662109375,-0.3888179361820221,0.040348973125219345,0.466610312461853
1761469325817112000,5.375112060546875,-0.4664869010448456,0.1474922001361847,0.31311875581741333
1761469325827095000,5.385094970703125,-0.509066641330719,0.22371314465999603,0.18056116998195648
1761469325837079000,5.3950791015625,-0.5136832594871521,0.29195770621299744,0.09765004366636276
1761469325847061800,5.405061767578125,-0.4944159984588623,0.3586863577365875,0.045203667134046555
1761469325857045000,5.415044921875,-0.485992968082428,0.4081660211086273,0.033647410571575165
1761469325867028000,5.425028076171875,-0.480302631855011,0.48715758323669434,0.06906494498252869
1761469325877012000,5.435011962890625,-0.5162718296051025,0.5931327939033508,0.1305229812860489
1761469325886995200,5.4449951171875,-0.589796245098114,0.676067054271698,0.21865616738796234
1761469325896978000,5.45497802734375,-0.6380841732025146,0.7487766742706299,0.29708626866340637
1761469325906961000,5.4649609375,-0.621178150177002,0.729839563369751,0.34302473068237305
1761469325916945000,5.47494482421875,-0.536575973033905,0.4598493278026581,0.36216726899147034
1761469325926928100,5.48492822265625,-0.28306764364242554,-0.11662420630455017,0.37633249163627625
1761469325936911000,5.4949111328125,0.009233701974153519,-0.6936302781105042,0.21650874614715576
1761469325946894800,5.504894775390625,0.09873495995998383,-1.0643866062164307,0.14248521625995636
1761469325956877800,5.5148779296875,0.22074022889137268,-1.0778930187225342,0.014315523207187653
1761469325966861000,5.524861083984375,0.17684485018253326,-1.0319944620132446,0.027489274740219116
1761469325976844000,5.534843994140625,0.07699043303728104,-0.9849970936775208,-0.010511372238397598
1761469325986828000,5.544828125,0.11518175899982452,-0.8280963897705078,-0.1457003653049469
1761469325996811000,5.55481103515625,0.2117876559495926,-0.6953884363174438,-0.17132635414600372
1761469326006794000,5.5647939453125,0.33284568786621094,-0.49313321709632874,-0.050638992339372635
1761469326016777000,5.57477685546875,0.45874691009521484,-0.3909194767475128,0.09877154231071472
1761469326026761000,5.584760986328125,0.5746937990188599,-0.49705252051353455,0.28247910737991333
1761469326036744000,5.594743896484375,0.6850565671920776,-0.798086941242218,0.447061151266098
1761469326046727000,5.604726806640625,0.7045736312866211,-1.070660948753357,0.5349224209785461
1761469326056710000,5.6147099609375,0.591529369354248,-1.1220802068710327,0.5475080013275146
1761469326066694100,5.624694091796875,0.40314429998397827,-0.9557461142539978,0.5453532338142395
1761469326076677000,5.634677001953125,0.24274104833602905,-0.6887761950492859,0.5729824304580688
1761469326086659800,5.644659912109375,0.14465603232383728,-0.4426809549331665,0.5880772471427917
1761469326096643800,5.654643798828125,0.12290199846029282,-0.34243425726890564,0.5333271622657776
1761469326106627000,5.664626953125,0.11901381611824036,-0.4235581159591675,0.40624094009399414
1761469326116610000,5.674610107421875,0.11443530768156052,-0.5975499153137207,0.3162743151187897
1761469326126592800,5.6845927734375,0.1340828835964203,-0.7490149736404419,0.31746983528137207
1761469326136576800,5.69457666015625,0.1791936308145523,-0.8143758773803711,0.3379673659801483
1761469326146560000,5.70456005859375,0.2321741133928299,-0.8359244465827942,0.3732493221759796
1761469326156543000,5.71454296875,0.278694212436676,-0.9441758394241333,0.42103123664855957
1761469326166526000,5.72452587890625,0.32783931493759155,-1.1467056274414062,0.3944703936576843
1761469326176510200,5.73451025390625,0.4086284339427948,-1.402848482131958,0.31736230850219727
1761469326186493000,5.744492919921875,0.4562602937221527,-1.6143903732299805,0.23203830420970917
1761469326196476000,5.754475830078125,0.46808791160583496,-1.7234513759613037,0.1435135006904602
1761469326206459100,5.764459228515625,0.463398277759552,-1.7259031534194946,0.050609488040208817
1761469326216443100,5.774443115234375,0.43558263778686523,-1.645925521850586,-0.047721076756715775
1761469326226425900,5.78442578125,0.3978685736656189,-1.6552830934524536,-0.16274455189704895
1761469326236408800,5.794408935546875,0.358224481344223,-1.8049108982086182,-0.30188751220703125
1761469326246393000,5.80439306640625,0.32220587134361267,-2.0607821941375732,-0.425552099943161
1761469326256376000,5.8143759765625,0.2943417429924011,-2.3434855937957764,-0.5035603642463684
1761469326266359000,5.824359130859375,0.2633173167705536,-2.599029779434204,-0.5379294753074646
1761469326276342000,5.834342041015625,0.26058119535446167,-2.7820558547973633,-0.559198796749115
1761469326286326000,5.844325927734375,0.29929229617118835,-2.866241931915283,-0.5634095668792725
1761469326296309000,5.85430908203125,0.3397699296474457,-2.8263492584228516,-0.5177823901176453
1761469326306292000,5.8642919921875,0.39184868335723877,-2.579686403274536,-0.4596231281757355
1761469326316275000,5.87427490234375,0.3215385675430298,-2.4138669967651367,-0.3703630268573761
1761469326326259000,5.884259033203125,0.2251700758934021,-2.264592170715332,-0.40888717770576477
1761469326336242000,5.894241943359375,0.11473092436790466,-1.9665775299072266,-0.6620738506317139
1761469326346225000,5.904224853515625,0.03543778881430626,-1.462937593460083,-0.9965870976448059
1761469326356209200,5.914209228515625,0.036799199879169464,-0.788179874420166,-1.2871043682098389
1761469326366192000,5.924192138671875,0.07581828534603119,-0.10320229083299637,-1.3270267248153687
1761469326376174800,5.9341748046875,0.1449960172176361,0.5422643423080444,-0.9784559607505798
1761469326386158000,5.944157958984375,0.1523941606283188,1.331060528755188,-0.43332725763320923
1761469326396142000,5.95414208984375,0.0325271338224411,2.22304368019104,0.07470238953828812
1761469326406125000,5.964125,-0.1774280071258545,2.8893039226531982,0.5135167241096497
1761469326416107800,5.974107666015625,-0.3579586446285248,3.177436590194702,0.8546327948570251
1761469326426091000,5.984091064453125,-0.4384458661079407,3.014979124069214,1.0367240905761719
1761469326436075000,5.994074951171875,-0.49885833263397217,2.481311082839966,1.0929511785507202
1761469326446058000,6.00405810546875,-0.5262961983680725,2.172762393951416,0.9370454549789429
1761469326456041200,6.014041259765625,-0.5008962750434875,2.236586093902588,0.6099826693534851
1761469326466025000,6.02402490234375,-0.4109514355659485,2.2053802013397217,0.16660873591899872
1761469326476008000,6.034008056640625,-0.2952914237976074,1.8674908876419067,-0.23907670378684998
1761469326485991000,6.043990966796875,-0.2173643261194229,1.337601661682129,-0.5056633353233337
1761469326495974100,6.05397412109375,-0.1318419724702835,0.6459571123123169,-0.6073529720306396
1761469326505958100,6.063958251953125,-0.05813637748360634,0.08821211010217667,-0.5492928624153137
1761469326515940900,6.07394091796875,0.008611231110990047,-0.31921371817588806,-0.4392601251602173
1761469326525923800,6.083923828125,0.04935666546225548,-0.4749341309070587,-0.33668994903564453
1761469326535908000,6.093908203125,0.07239886373281479,-0.4693923592567444,-0.2343502640724182
1761469326545891000,6.10389111328125,0.06535178422927856,-0.3901911973953247,-0.1118428036570549
1761469326555874000,6.1138740234375,0.03619256988167763,-0.28977084159851074,0.04130387306213379
1761469326565857000,6.12385693359375,0.006149182096123695,-0.2771679759025574,0.20749710500240326
1761469326575841000,6.133841064453125,-0.011165626347064972,-0.4112914204597473,0.38041242957115173
1761469326585824000,6.143823974609375,-0.022970635443925858,-0.6420111060142517,0.5424154996871948
1761469326595807000,6.153806884765625,-0.03746222332119942,-0.9117472171783447,0.6514056324958801
1761469326605790000,6.1637900390625,-0.0593804232776165,-1.1907464265823364,0.6646434664726257
1761469326615774000,6.17377392578125,-0.10022878646850586,-1.4174025058746338,0.5700207948684692
1761469326625757000,6.1837568359375,-0.17158707976341248,-1.405937910079956,0.32457464933395386
1761469326635740200,6.193740234375,-0.25300177931785583,-1.0852768421173096,-0.04971028491854668
1761469326645724200,6.20372412109375,-0.32566121220588684,-0.5780905485153198,-0.4358668923377991
1761469326655707000,6.213706787109375,-0.3870081901550293,-0.14399953186511993,-0.698429524898529
1761469326665689900,6.22368994140625,-0.4491608738899231,0.11696849763393402,-0.8051618933677673
1761469326675673000,6.233673095703125,-0.5088066458702087,0.3089597821235657,-0.8054479360580444
1761469326685657000,6.243656982421875,-0.5443941354751587,0.4986249506473541,-0.7608376145362854
1761469326695640000,6.25364013671875,-0.5806251168251038,0.7026633024215698,-0.6951528787612915
1761469326705622800,6.263622802734375,-0.6135267019271851,0.9579412341117859,-0.6184983849525452
1761469326715606000,6.27360595703125,-0.617334246635437,1.194061279296875,-0.47662195563316345
1761469326725590000,6.283590087890625,-0.5969876050949097,1.4167869091033936,-0.2864476144313812
1761469326735573000,6.293572998046875,-0.568352997303009,1.6607463359832764,-0.07723447680473328
1761469326745556000,6.303555908203125,-0.5291071534156799,1.9899168014526367,0.06515507400035858
1761469326755540000,6.3135400390625,-0.4683913290500641,2.4591784477233887,0.08778368681669235
1761469326765523000,6.32352294921875,-0.40277570486068726,2.9750750064849854,0.03694756701588631
1761469326775506000,6.333505859375,-0.29673394560813904,3.346776247024536,-0.018983345478773117
1761469326785489200,6.3434892578125,-0.12517420947551727,3.4055566787719727,0.017268531024456024
1761469326795473200,6.35347314453125,0.06687512248754501,3.039341926574707,0.15651190280914307
1761469326805456000,6.363455810546875,0.22488662600517273,2.5087890625,0.27798840403556824
1761469326815439600,6.373439697265625,0.28270331025123596,2.093214750289917,0.37827080488204956
1761469326825423600,6.383423583984375,0.31271451711654663,1.8321335315704346,0.3768635392189026
1761469326835406800,6.39340673828125,0.278694212436676,1.7611345052719116,0.28415703773498535
1761469326845389800,6.403389892578125,0.2011403739452362,1.892059326171875,0.15204547345638275
1761469326855372500,6.41337255859375,0.13428090512752533,2.124324321746826,-0.0009544652421027422
1761469326865356800,6.423356689453125,0.046210356056690216,2.212413787841797,-0.1673259735107422
1761469326875339800,6.43333984375,-0.014836752787232399,2.0851356983184814,-0.35928234457969666
1761469326885322800,6.44332275390625,-0.030666014179587364,1.5630680322647095,-0.5818101167678833
1761469326895306800,6.453306640625,0.014390409924089909,0.7178705334663391,-0.791029155254364
1761469326905289700,6.463289794921875,0.09942688792943954,0.15098267793655396,-0.8300862312316895
1761469326915272700,6.473272705078125,0.1394941508769989,-0.07126690447330475,-0.7394924163818359
1761469326925255700,6.483255615234375,0.17049865424633026,-0.10985852777957916,-0.681229293346405
1761469326935239700,6.49323974609375,0.20152021944522858,0.016579043120145798,-0.6571583151817322
1761469326945223000,6.503222900390625,0.22863377630710602,0.2699136734008789,-0.6290096044540405
1761469326955205600,6.51320556640625,0.20816153287887573,0.5548830628395081,-0.6571978330612183
1761469326965188900,6.52318896484375,0.15422677993774414,0.8766469359397888,-0.7589266896247864
1761469326975172900,6.5331728515625,0.09606014937162399,1.1402887105941772,-0.9274853467941284
1761469326985155800,6.54315576171875,0.06110426411032677,1.3241095542907715,-1.097531795501709
1761469326995138600,6.553138671875,0.020524881780147552,1.3833733797073364,-1.2048252820968628
1761469327005122600,6.56312255859375,-0.026343561708927155,1.3236509561538696,-1.241605281829834
1761469327015105800,6.573105712890625,-0.06414180994033813,1.2838298082351685,-1.213137149810791
1761469327025088800,6.5830888671875,-0.05448967218399048,1.3001939058303833,-1.1445680856704712
1761469327035071700,6.59307177734375,-0.030821096152067184,1.3116687536239624,-1.0387578010559082
1761469327045055700,6.6030556640625,0.004227356985211372,1.2172192335128784,-0.8492769598960876
1761469327055038700,6.613038818359375,0.06100994348526001,1.0756546258926392,-0.6707195043563843
1761469327065021700,6.623021728515625,0.11390621215105057,0.8823713660240173,-0.5254415273666382
1761469327075005700,6.633005615234375,0.171436607837677,0.7065593600273132,-0.4226829409599304
1761469327084989000,6.642989013671875,0.2366468608379364,0.6373125910758972,-0.35100385546684265
1761469327094971600,6.6529716796875,0.2931692600250244,0.5967792868614197,-0.3167420029640198
1761469327104954600,6.66295458984375,0.34104952216148376,0.4671757221221924,-0.25251853466033936
1761469327114938600,6.672938720703125,0.3995024561882019,0.2123919129371643,-0.04086805880069733
1761469327124921900,6.682921875,0.48713362216949463,-0.09616612643003464,0.25390300154685974
1761469327134904600,6.692904541015625,0.5807656049728394,-0.32831573486328125,0.5320864319801331
1761469327144888600,6.702888671875,0.6467006206512451,-0.42986515164375305,0.6662861108779907
1761469327154871800,6.712871826171875,0.6640686988830566,-0.45456066727638245,0.6845460534095764
1761469327164854800,6.722854736328125,0.6406106948852539,-0.45099112391471863,0.673686146736145
1761469327174837800,6.732837646484375,0.5604402422904968,-0.4282437264919281,0.6527070999145508
1761469327184821800,6.74282177734375,0.46487677097320557,-0.3953220844268799,0.6440523266792297
1761469327194804700,6.7528046875,0.35889387130737305,-0.4326084554195404,0.6626313328742981
1761469327204787700,6.76278759765625,0.25180360674858093,-0.5070638060569763,0.6655025482177734
1761469327214771700,6.772771728515625,0.156788170337677,-0.5646170973777771,0.6545777320861816
1761469327224754700,6.782754638671875,0.11783811450004578,-0.6214610934257507,0.6442509889602661
1761469327234737700,6.792737548828125,0.12083204090595245,-0.699582040309906,0.6231111288070679
1761469327244721700,6.8027216796875,0.15879249572753906,-0.8005014061927795,0.591637372970581
1761469327254704600,6.81270458984375,0.24097099900245667,-0.9211269021034241,0.5685323476791382
1761469327264687900,6.82268798828125,0.32618120312690735,-1.0482646226882935,0.5609414577484131
1761469327274670800,6.8326708984375,0.35161519050598145,-1.1036266088485718,0.5651889443397522
1761469327284654800,6.84265478515625,0.30896225571632385,-1.1367241144180298,0.5684430599212646
1761469327294637600,6.852637451171875,0.21280737221240997,-1.2016512155532837,0.5981485843658447
1761469327304620800,6.862620849609375,0.11075320839881897,-1.2450957298278809,0.6535483002662659
1761469327314604800,6.872604736328125,0.016122041270136833,-1.2136025428771973,0.7249303460121155
1761469327324587800,6.882587890625,-0.059517208486795425,-1.1274622678756714,0.7383168935775757
1761469327334570800,6.89257080078125,-0.12563709914684296,-1.005009651184082,0.6979798674583435
1761469327344553700,6.9025537109375,-0.16496190428733826,-0.882361888885498,0.6206583380699158
1761469327354537700,6.912537841796875,-0.18634283542633057,-0.7507320046424866,0.525309681892395
1761469327364520700,6.922520751953125,-0.2141609638929367,-0.5557291507720947,0.4188021123409271
1761469327374504000,6.93250390625,-0.23436637222766876,-0.32741233706474304,0.28065356612205505
1761469327384487700,6.94248779296875,-0.20693664252758026,-0.07842596620321274,0.13809846341609955
1761469327394470700,6.952470703125,-0.14333929121494293,0.10650846362113953,0.06459362059831619
1761469327404453600,6.96245361328125,-0.04225361347198486,0.09417390823364258,0.08019082993268967
1761469327414438000,6.97243798828125,0.053045742213726044,-0.12238076329231262,0.14930544793605804
1761469327424420900,6.9824208984375,0.11931651085615158,-0.4268471300601959,0.21046535670757294
1761469327434403600,6.992403564453125,0.1504504531621933,-0.6728300452232361,0.25282877683639526
1761469327444386800,7.00238671875,0.1435094177722931,-0.7764210104942322,0.2334987074136734
1761469327454370800,7.012370849609375,0.10983774811029434,-0.6846332550048828,0.10854878276586533
1761469327464353800,7.022353759765625,0.07394286245107651,-0.390228807926178,-0.09518756717443466
1761469327474336500,7.03233642578125,0.023118026554584503,0.0635639876127243,-0.2918758690357208
1761469327484320800,7.04232080078125,-0.04902207851409912,0.5643277168273926,-0.4030318260192871
1761469327494303700,7.0523037109375,-0.10700681805610657,1.0037423372268677,-0.4217272102832794
1761469327504286700,7.06228662109375,-0.13177630305290222,1.3333417177200317,-0.376213937997818
1761469327514270000,7.07227001953125,-0.10748907923698425,1.4735949039459229,-0.3249531686306
1761469327524254000,7.08225390625,-0.07347890734672546,1.3417294025421143,-0.30987173318862915
1761469327534236700,7.092236572265625,-0.04244428873062134,0.9617263078689575,-0.3119199872016907
1761469327544219600,7.1022197265625,-0.011628685519099236,0.4475841224193573,-0.3396829664707184
1761469327554203600,7.11220361328125,0.003782228333875537,-0.021464062854647636,-0.3123173713684082
1761469327564187000,7.122186767578125,0.027602173388004303,-0.34465962648391724,-0.22447456419467926
1761469327574169600,7.132169677734375,0.07111023366451263,-0.5176076889038086,-0.12956295907497406
1761469327584153600,7.142153564453125,0.10181084275245667,-0.4729647934436798,-0.04462970048189163
1761469327594136800,7.15213671875,0.11460839211940765,-0.3108813464641571,-0.016415374353528023
1761469327604119800,7.162119873046875,0.10662472248077393,-0.1211903914809227,-0.035891637206077576
1761469327614102800,7.172102783203125,0.08105012029409409,0.024282652884721756,-0.11252941936254501
1761469327624086800,7.182086669921875,0.06267324090003967,0.035523321479558945,-0.21493834257125854
1761469327634069800,7.19206982421875,0.08859378844499588,-0.05560871586203575,-0.29183340072631836
1761469327644052700,7.202052734375,0.14513364434242249,-0.12810905277729034,-0.30692383646965027
1761469327654036700,7.21203662109375,0.22337119281291962,-0.11834298819303513,-0.2861383855342865
1761469327664019700,7.222019775390625,0.3021813631057739,0.02600688487291336,-0.2715516686439514
1761469327674002700,7.232002685546875,0.3450414836406708,0.22858715057373047,-0.2758859694004059
1761469327683985700,7.241985595703125,0.32468751072883606,0.4245772063732147,-0.3146468997001648
1761469327693969700,7.2519697265625,0.24061550199985504,0.5249594449996948,-0.36509808897972107
1761469327703953000,7.261952880859375,0.1426464170217514,0.45225200057029724,-0.389264315366745
1761469327713936000,7.271935791015625,0.07522743195295334,0.23288902640342712,-0.38049983978271484
1761469327723919600,7.281919677734375,0.045172952115535736,-0.005204176530241966,-0.36124247312545776
1761469327733902600,7.291902587890625,0.038662053644657135,-0.1295468956232071,-0.34152814745903015
1761469327743885800,7.3018857421875,0.050253771245479584,-0.11908292770385742,-0.3359130918979645
1761469327753869800,7.311869873046875,0.06065421551465988,-0.015014585107564926,-0.30537834763526917
1761469327763852800,7.321852783203125,0.07994846999645233,0.10692314058542252,-0.25830522179603577
1761469327773835800,7.331835693359375,0.11092262715101242,0.17467954754829407,-0.2223549336194992
1761469327783818800,7.34181884765625,0.12833262979984283,0.12459870427846909,-0.2472744733095169
1761469327793802800,7.351802734375,0.1329399049282074,0.014354491606354713,-0.24899540841579437
1761469327803785700,7.36178564453125,0.1368691772222519,-0.046367812901735306,-0.17955851554870605
1761469327813768700,7.371768798828125,0.1481838822364807,-0.08578632771968842,-0.02146982029080391
1761469327823751700,7.381751708984375,0.15719082951545715,-0.11108119785785675,0.19967064261436462
1761469327833734700,7.391734619140625,0.1601751744747162,-0.11292730271816254,0.46002471446990967
1761469327843718000,7.4017177734375,0.14405761659145355,-0.09056323766708374,0.6690061688423157
1761469327853702000,7.411701904296875,0.10681330412626266,-0.1006837785243988,0.7589962482452393
1761469327863684600,7.4216845703125,0.07336223870515823,-0.15330509841442108,0.7632200717926025
1761469327873667800,7.431667724609375,0.04350687563419342,-0.2078181505203247,0.7397419214248657
1761469327883651800,7.44165185546875,0.010710032656788826,-0.20418989658355713,0.681890070438385
1761469327893634800,7.451634765625,-0.048382315784692764,-0.1271587610244751,0.5832868218421936
1761469327903617800,7.46161767578125,-0.13302499055862427,-0.021550552919507027,0.45839688181877136
1761469327913600800,7.471600830078125,-0.19323639571666718,0.07960296422243118,0.34880194067955017
1761469327923584800,7.481584716796875,-0.20275327563285828,0.13279680907726288,0.2988182306289673
1761469327933567700,7.491567626953125,-0.18455243110656738,0.11374669522047043,0.2909480333328247
1761469327943550700,7.50155078125,-0.141069233417511,0.08766455203294754,0.29261699318885803
1761469327953534700,7.51153466796875,-0.10921649634838104,0.10550001263618469,0.3084588050842285
1761469327963517700,7.521517578125,-0.0765121728181839,0.10938044637441635,0.33484774827957153
1761469327973500700,7.531500732421875,-0.06270474940538406,0.12166880816221237,0.37026965618133545
1761469327983484700,7.541484619140625,-0.0748247504234314,0.12091168016195297,0.40112030506134033
1761469327993468000,7.551468017578125,-0.10313441604375839,0.07842307537794113,0.41018810868263245
1761469328003450600,7.56145068359375,-0.14783060550689697,0.020033089444041252,0.4100114405155182
1761469328013433600,7.57143359375,-0.1691872924566269,-0.06414783746004105,0.436733603477478
1761469328023417600,7.58141748046875,-0.18447169661521912,-0.17016039788722992,0.49426236748695374
1761469328033400800,7.59140087890625,-0.19982083141803741,-0.2114495187997818,0.5618443489074707
1761469328043383800,7.6013837890625,-0.19879285991191864,-0.17038865387439728,0.634288489818573
1761469328053367800,7.611367919921875,-0.18461045622825623,-0.08021216839551926,0.6589991450309753
1761469328063350800,7.621350830078125,-0.17933504283428192,-0.0270786602050066,0.6353899240493774
1761469328073333800,7.631333740234375,-0.17859575152397156,-0.023070868104696274,0.6110537052154541
1761469328083317800,7.64131787109375,-0.1693994253873825,-0.04742404446005821,0.6065872311592102
1761469328093300700,7.65130078125,-0.146760955452919,-0.031793951988220215,0.6798846125602722
1761469328103283700,7.66128369140625,-0.1794620007276535,-0.17163552343845367,0.4857666790485382
1761469328113267700,7.671267822265625,-0.21219463646411896,-0.3131777346134186,0.24793735146522522
1761469328123250700,7.681250732421875,-0.26728346943855286,-0.1656389981508255,0.1305534541606903
1761469328133233700,7.691233642578125,-0.30035513639450073,-0.027039308100938797,0.04838667809963226
1761469328143217000,7.701216796875,-0.2709544599056244,0.06116155534982681,-0.028229009360074997
1761469328153200600,7.71120068359375,-0.13517026603221893,0.0969933271408081,-0.12682242691516876
1761469328163183600,7.72118359375,-0.0005985475145280361,0.039855796843767166,-0.2254166603088379
1761469328173166800,7.731166748046875,0.07162158191204071,0.0005470060277730227,-0.3517988324165344
