time,seconds_elapsed,z,y,x
1761469591588254200,0.118254150390625,0.09271764010190964,-0.09293031692504883,-0.0061812624335289
1761469591598237200,0.1282373046875,0.10461413115262985,-0.13130386173725128,-0.03635631129145622
1761469591608220200,0.13822021484375,0.10371425002813339,-0.21420353651046753,-0.051883868873119354
1761469591618203100,0.148203125,0.11283877491950989,-0.2940102219581604,-0.038776855915784836
1761469591628186000,0.15818603515625,0.10452544689178467,-0.3484622836112976,-0.03430034965276718
1761469591638170400,0.16817041015625,0.09140466153621674,-0.32078003883361816,-0.010214360430836678
1761469591648153300,0.1781533203125,0.07348717749118805,-0.2764386832714081,0.002626869361847639
1761469591658136000,0.188135986328125,0.06503027677536011,-0.23590709269046783,0.0175788551568985
1761469591668119300,0.198119384765625,0.07188072055578232,-0.1808347851037979,0.03732699155807495
1761469591678102300,0.208102294921875,0.09658747911453247,-0.12104399502277374,0.05922015383839607
1761469591688085000,0.2180849609375,0.11803924292325974,-0.08184253424406052,0.07420550286769867
1761469591698068200,0.228068115234375,0.1449439376592636,-0.06450287252664566,0.08552665263414383
1761469591708051200,0.23805126953125,0.16251468658447266,-0.08352316170930862,0.07610998302698135
1761469591718034200,0.2480341796875,0.16325964033603668,-0.10947725176811218,0.04717749357223511
1761469591728017200,0.25801708984375,0.13903845846652985,-0.13951824605464935,0.028506871312856674
1761469591738000100,0.268000244140625,0.11716856807470322,-0.12539269030094147,0.023035649210214615
1761469591747983000,0.277983154296875,0.10415662825107574,-0.08012615144252777,0.027748646214604378
1761469591757967400,0.28796728515625,0.09377997368574142,0.0349126011133194,0.05073554813861847
1761469591767950300,0.297950439453125,0.08922916650772095,0.058611270040273666,0.059434231370687485
1761469591777933000,0.30793310546875,0.24079269170761108,0.08248748630285263,0.08356578648090363
1761469591787916300,0.317916259765625,0.23196113109588623,0.11986415088176727,0.10844184458255768
1761469591797899300,0.327899169921875,0.24499839544296265,0.27730467915534973,0.13408835232257843
1761469591807882200,0.33788232421875,0.24916037917137146,0.4626052975654602,0.169928640127182
1761469591817865200,0.347865234375,0.2316596359014511,0.658501386642456,0.20878706872463226
1761469591827848200,0.35784814453125,0.21313495934009552,0.8833227753639221,0.25212839245796204
1761469591837831200,0.3678310546875,0.20083105564117432,1.0831940174102783,0.30697211623191833
1761469591847814100,0.377814208984375,0.1797473430633545,1.2009116411209106,0.35306185483932495
1761469591857797000,0.387797119140625,0.1634063571691513,1.2840553522109985,0.41125020384788513
1761469591867781000,0.397781005859375,0.18727493286132812,1.3792649507522583,0.464237779378891
1761469591877764400,0.407764404296875,0.2611270248889923,1.4769841432571411,0.5147517919540405
1761469591887747300,0.417747314453125,0.2960011065006256,1.4699736833572388,0.5067607164382935
1761469591897730000,0.42772998046875,0.23518995940685272,1.1948304176330566,0.32070907950401306
1761469591907713300,0.43771337890625,0.12558916211128235,0.769121527671814,0.01139359176158905
1761469591917696300,0.4476962890625,0.11412527412176132,0.45827069878578186,-0.2402288317680359
1761469591927679200,0.45767919921875,0.17734499275684357,0.32183322310447693,-0.3388051986694336
1761469591937662200,0.467662109375,0.19429738819599152,0.2960365116596222,-0.32752344012260437
1761469591947645200,0.477645263671875,0.20798523724079132,0.47436657547950745,-0.23388004302978516
1761469591957628200,0.487628173828125,0.17733590304851532,0.748345673084259,-0.09220719337463379
1761469591967611100,0.497611083984375,0.10737864673137665,1.0699236392974854,0.019129445776343346
1761469591977597200,0.50759716796875,0.006954778917133808,1.386032223701477,0.06865537911653519
1761469591987581200,0.517581298828125,-0.1062290295958519,1.647374153137207,0.0505746491253376
1761469591997564200,0.527564208984375,-0.20845474302768707,1.8891689777374268,-0.04059119150042534
1761469592007547100,0.537547119140625,-0.2816477417945862,2.114645481109619,-0.21326176822185516
1761469592017530000,0.547530029296875,-0.36394602060317993,2.1883914470672607,-0.3768458366394043
1761469592027513300,0.557513427734375,-0.4170758128166199,2.0719175338745117,-0.45832788944244385
1761469592037496000,0.56749609375,-0.41553252935409546,1.7855905294418335,-0.48157763481140137
1761469592047479000,0.57747900390625,-0.30809953808784485,1.4589005708694458,-0.5079138875007629
1761469592057462300,0.587462158203125,-0.18114793300628662,1.1500953435897827,-0.519359290599823
1761469592067445200,0.5974453125,-0.11062049120664597,0.8111060857772827,-0.4664348065853119
1761469592077428200,0.60742822265625,-0.08163366466760635,0.5687047243118286,-0.4008566439151764
1761469592087411200,0.6174111328125,-0.022508028894662857,0.43504974246025085,-0.3396340310573578
1761469592097394200,0.627394287109375,0.07415106147527695,0.3543606102466583,-0.29120272397994995
1761469592107377400,0.63737744140625,0.20360438525676727,0.3078990876674652,-0.27567756175994873
1761469592117361400,0.647361328125,0.31401172280311584,0.35907551646232605,-0.3176501393318176
1761469592127344000,0.65734423828125,0.37403059005737305,0.5851688385009766,-0.4149511456489563
1761469592137327000,0.6673271484375,0.3241121172904968,0.8109379410743713,-0.49455082416534424
1761469592147310300,0.677310302734375,0.2335531860589981,0.914523184299469,-0.49403098225593567
1761469592157293000,0.68729296875,0.17872098088264465,0.9214831590652466,-0.461902379989624
1761469592167276000,0.697276123046875,0.16215266287326813,0.8878749012947083,-0.4423508048057556
1761469592177259300,0.70725927734375,0.17024727165699005,0.7539649605751038,-0.4262771010398865
1761469592187242200,0.7172421875,0.1694035828113556,0.5143857002258301,-0.38765648007392883
1761469592197225200,0.72722509765625,0.22459596395492554,0.36725571751594543,-0.2932966947555542
1761469592207208200,0.737208251953125,0.09940183162689209,0.1842518150806427,-0.11841356009244919
1761469592217191200,0.747191162109375,0.06118658185005188,0.14834900200366974,0.0717230960726738
1761469592227175200,0.757175048828125,-0.02366812340915203,0.07410085946321487,0.26929235458374023
1761469592237158400,0.767158447265625,-0.0646214634180069,0.11184530705213547,0.4558832049369812
1761469592247141000,0.77714111328125,-0.01859644614160061,0.16498282551765442,0.6230820417404175
1761469592257124000,0.7871240234375,0.037470944225788116,0.11649376153945923,0.8058751821517944
1761469592267107300,0.797107421875,0.073597252368927,0.034119267016649246,0.9144759178161621
1761469592277090300,0.80709033203125,0.09433791041374207,-0.019751446321606636,0.9587603211402893
1761469592287073000,0.817072998046875,0.0947917103767395,-0.14201050996780396,0.9972411394119263
1761469592297056300,0.82705615234375,0.09448932856321335,-0.2883091866970062,1.0465160608291626
1761469592307039200,0.837039306640625,0.12826007604599,-0.3707609176635742,1.1290473937988281
1761469592317022200,0.847022216796875,0.1508995145559311,-0.4151286780834198,1.251624345779419
1761469592327005200,0.857005126953125,0.1897965669631958,-0.5102788805961609,1.3809198141098022
1761469592336988200,0.86698828125,0.2935803234577179,-0.6047908067703247,1.4522749185562134
1761469592346972200,0.87697216796875,0.3532058596611023,-0.8058475255966187,1.439387321472168
1761469592356955400,0.886955322265625,0.37154048681259155,-1.0079357624053955,1.4530080556869507
1761469592366938000,0.896938232421875,0.4235682487487793,-1.172874927520752,1.5513184070587158
1761469592376921000,0.906921142578125,0.44598838686943054,-1.3252027034759521,1.666622281074524
1761469592386904300,0.916904296875,0.42303434014320374,-1.4546606540679932,1.6563538312911987
1761469592396887300,0.92688720703125,0.3647935688495636,-1.4814996719360352,1.4602102041244507
1761469592406870000,0.9368701171875,0.3285149037837982,-1.3150079250335693,1.0955220460891724
1761469592416853200,0.946853271484375,0.24587589502334595,-1.1002063751220703,0.6045639514923096
1761469592426836200,0.956836181640625,0.11755521595478058,-1.0426604747772217,0.13789507746696472
1761469592436819200,0.966819091796875,0.007348000071942806,-1.0129610300064087,-0.24791337549686432
1761469592446802200,0.97680224609375,-0.06613500416278839,-0.9224463701248169,-0.5000768899917603
1761469592456785200,0.98678515625,-0.12618091702461243,-0.6355288028717041,-0.5845050811767578
1761469592466769200,0.99676904296875,-0.1697683334350586,-0.3868395984172821,-0.56424880027771
1761469592476752400,1.00675244140625,-0.17971324920654297,-0.1282990574836731,-0.5601117014884949
1761469592486735000,1.016735107421875,-0.2071097195148468,0.22513730823993683,-0.7124402523040771
1761469592496718000,1.026718017578125,-0.20868892967700958,0.670981764793396,-1.1327568292617798
1761469592506701300,1.036701416015625,-0.25086140632629395,0.9046949148178101,-1.3592571020126343
1761469592516684300,1.046684326171875,-0.30224308371543884,0.978896975517273,-1.2146735191345215
1761469592526667000,1.0566669921875,-0.2708532214164734,1.0181025266647339,-1.058172345161438
1761469592536650200,1.066650146484375,-0.23488807678222656,0.9484084844589233,-0.8917434811592102
1761469592546633200,1.07663330078125,-0.14189556241035461,0.7152228951454163,-0.7312632203102112
1761469592556616200,1.0866162109375,0.020463258028030396,0.40304872393608093,-0.5477469563484192
1761469592566599200,1.09659912109375,0.3029356896877289,0.1283697485923767,-0.4067442715167999
1761469592576582100,1.10658203125,0.3870587944984436,-0.40958064794540405,-0.322024941444397
1761469592586566100,1.116566162109375,0.4749535024166107,-0.638520359992981,-0.22314894199371338
1761469592596549400,1.12654931640625,0.5009446740150452,-0.7532123327255249,-0.1381436288356781
1761469592606532000,1.136531982421875,0.4478521943092346,-0.7552131414413452,-0.08958195894956589
1761469592616515000,1.14651513671875,0.320295125246048,-0.6988744139671326,-0.11041230708360672
1761469592626498300,1.156498291015625,0.16200615465641022,-0.5635434985160828,-0.2290358990430832
1761469592636481300,1.166481201171875,-0.016226917505264282,-0.43969208002090454,-0.3730170726776123
1761469592646464000,1.176464111328125,-0.16426458954811096,-0.35100749135017395,-0.5251235365867615
1761469592656447200,1.186447265625,-0.24140986800193787,-0.3425484597682953,-0.6782549023628235
1761469592666430200,1.19643017578125,-0.2270415872335434,-0.40169835090637207,-0.767217755317688
1761469592676413200,1.2064130859375,-0.1904604136943817,-0.5196648240089417,-0.8333925008773804
1761469592686396200,1.216396240234375,-0.16525359451770782,-0.6009583473205566,-0.8892331123352051
1761469592696379100,1.226379150390625,-0.09149443358182907,-0.5958063006401062,-0.9331955909729004
1761469592706363100,1.236363037109375,-0.01705189421772957,-0.4489401578903198,-0.9193710684776306
1761469592716346400,1.246346435546875,0.04430602863430977,-0.2556476593017578,-0.9031095504760742
1761469592726329000,1.2563291015625,0.0825042873620987,-0.09518235921859741,-0.8842333555221558
1761469592736312000,1.26631201171875,0.1449926346540451,0.05381602793931961,-0.8452345728874207
1761469592746295300,1.27629541015625,0.17229855060577393,0.1398097574710846,-0.8175467848777771
1761469592756278300,1.2862783203125,0.19364789128303528,0.1116212010383606,-0.8437469005584717
1761469592766261000,1.296260986328125,0.22780053317546844,0.08729216456413269,-0.8973329067230225
1761469592776244200,1.306244140625,0.2810489535331726,0.021776823326945305,-0.9687147736549377
1761469592786227200,1.316227294921875,0.3633054792881012,-0.06096572428941727,-1.0007143020629883
1761469592796210200,1.326210205078125,0.3934822976589203,-0.0934300422668457,-1.0422347784042358
1761469592806193200,1.336193115234375,0.4132256507873535,-0.07318389415740967,-1.0647650957107544
1761469592816176000,1.346176025390625,0.37787267565727234,-0.10578048974275589,-1.0917961597442627
1761469592826160000,1.35616015625,0.3962692618370056,-0.10770142823457718,-1.117788314819336
1761469592836143400,1.366143310546875,0.49068012833595276,-0.004079985432326794,-1.0735760927200317
1761469592846126000,1.3761259765625,0.580001950263977,0.2518830895423889,-0.9609112739562988
1761469592856109000,1.386109130859375,0.6660052537918091,0.5773684978485107,-0.8366203308105469
1761469592866092300,1.39609228515625,0.7010750770568848,0.7883235812187195,-0.7158424854278564
1761469592876075300,1.4060751953125,0.7154185175895691,0.6971709728240967,-0.5918758511543274
1761469592886058000,1.41605810546875,0.6576015949249268,0.4005955457687378,-0.3662526309490204
1761469592896041200,1.426041259765625,0.5440764427185059,0.16922689974308014,-0.0689755529165268
1761469592906024200,1.436024169921875,0.4410967528820038,0.05184222385287285,0.06871333718299866
1761469592916007200,1.446007080078125,0.3398284614086151,0.07241714000701904,0.12250760942697525
1761469592925990100,1.455990234375,0.18659791350364685,0.20344306528568268,0.2054365873336792
1761469592935973000,1.46597314453125,0.0405457504093647,0.4367472231388092,0.34619271755218506
1761469592945957000,1.47595703125,-0.07288201153278351,0.6301265358924866,0.5313873887062073
1761469592955940400,1.4859404296875,-0.11502183973789215,0.6735268235206604,0.7251266241073608
1761469592965923300,1.49592333984375,-0.1518232673406601,0.5859642028808594,0.924021303653717
1761469592975903500,1.505903564453125,-0.22163806855678558,0.5451523065567017,1.0595327615737915
1761469592985886200,1.51588623046875,-0.3116731643676758,0.5527679324150085,1.101335883140564
1761469592995869400,1.525869384765625,-0.400898814201355,0.6887227296829224,1.1212550401687622
1761469593005852400,1.535852294921875,-0.474608451128006,0.736193835735321,1.096701741218567
1761469593015835400,1.54583544921875,-0.5660658478736877,0.6474539637565613,1.1029324531555176
1761469593025818400,1.555818359375,-0.5831244587898254,0.4701763391494751,1.0505083799362183
1761469593035801300,1.56580126953125,-0.5762221813201904,0.27355390787124634,0.9152124524116516
1761469593045784600,1.57578466796875,-0.5569086670875549,0.07912981510162354,0.7858701944351196
1761469593055767300,1.585767333984375,-0.5375164747238159,-0.1283772587776184,0.6964658498764038
1761469593065750300,1.595750244140625,-0.564860999584198,-0.25993287563323975,0.6499468088150024
1761469593075734300,1.605734375,-0.6291800737380981,-0.22506758570671082,0.6740196347236633
1761469593085717500,1.615717529296875,-0.7090891003608704,0.014633294194936752,0.7503108978271484
1761469593095700500,1.625700439453125,-0.7742947936058044,0.3069540560245514,0.7959867715835571
1761469593105683200,1.63568310546875,-0.7923163771629333,0.479539155960083,0.7495630383491516
1761469593115666400,1.64566650390625,-0.7692732214927673,0.4948860704898834,0.6220625042915344
1761469593125649400,1.6556494140625,-0.732003927230835,0.39885836839675903,0.46854618191719055
1761469593135632600,1.665632568359375,-0.6873745322227478,0.23915927112102509,0.3302571177482605
1761469593145615400,1.675615478515625,-0.6310095191001892,0.07430481165647507,0.21067826449871063
1761469593155598300,1.685598388671875,-0.5691738128662109,-0.0015233282465487719,0.13249212503433228
1761469593165581600,1.69558154296875,-0.46706926822662354,0.07533016800880432,0.12332898378372192
1761469593175564300,1.705564208984375,-0.3103727698326111,0.25840896368026733,0.11183222383260727
1761469593185547300,1.71554736328125,-0.17016321420669556,0.2127341479063034,0.034220777451992035
1761469593195531300,1.72553125,-0.10681317746639252,0.2866363823413849,0.1614917516708374
1761469593205514500,1.735514404296875,-0.032505396753549576,0.24369370937347412,0.23730608820915222
1761469593215497500,1.74549755859375,0.024123957380652428,0.16550949215888977,0.30189940333366394
1761469593225480200,1.755480224609375,0.079158715903759,0.05491586774587631,0.29709291458129883
1761469593235463400,1.76546337890625,0.08785071223974228,-0.047719962894916534,0.17834144830703735
1761469593245446400,1.7754462890625,0.0969531312584877,-0.040390145033597946,-0.03572264313697815
1761469593255429600,1.7854296875,0.12510715425014496,0.06639456003904343,-0.26685768365859985
1761469593265412400,1.795412353515625,0.16837020218372345,0.23254811763763428,-0.4412936568260193
1761469593275395300,1.805395263671875,0.22470664978027344,0.42745834589004517,-0.531017541885376
1761469593285378600,1.815378662109375,0.26349693536758423,0.5594608187675476,-0.6017111539840698
1761469593295361500,1.825361572265625,0.2970544993877411,0.5640561580657959,-0.6356028914451599
1761469593305344300,1.83534423828125,0.38500937819480896,0.3845471441745758,-0.6695957183837891
1761469593315328300,1.845328369140625,0.4612046778202057,0.12963765859603882,-0.6763560175895691
1761469593325311500,1.8553115234375,0.529350996017456,-0.07087599486112595,-0.6194599866867065
1761469593335294500,1.86529443359375,0.5962651968002319,-0.15686193108558655,-0.5376637578010559
1761469593345277200,1.875277099609375,0.6566225290298462,-0.18043088912963867,-0.45030730962753296
1761469593355260400,1.885260498046875,0.6693828701972961,-0.19318008422851562,-0.3599451780319214
1761469593365243400,1.895243408203125,0.6530973315238953,-0.198452889919281,-0.2717452645301819
1761469593375226600,1.9052265625,0.6005979776382446,-0.21804144978523254,-0.2093244194984436
1761469593385209300,1.915209228515625,0.5468157529830933,-0.23348724842071533,-0.1586069017648697
1761469593395192300,1.9251923828125,0.5130109190940857,-0.19968415796756744,-0.13878639042377472
1761469593405175600,1.935175537109375,0.4881255030632019,-0.11433755606412888,-0.16781698167324066
1761469593415158500,1.945158447265625,0.44888967275619507,-0.021872898563742638,-0.22252382338047028
1761469593425141200,1.955141357421875,0.4164870083332062,0.04235668480396271,-0.30442744493484497
1761469593435125200,1.965125244140625,0.40432971715927124,0.042025305330753326,-0.41747522354125977
1761469593445108500,1.9751083984375,0.41244250535964966,-0.053840238600969315,-0.5033986568450928
1761469593455091500,1.985091552734375,0.4551687240600586,-0.20169852674007416,-0.557503879070282
1761469593465074200,1.99507421875,0.4771922826766968,-0.32651156187057495,-0.5956685543060303
1761469593475057400,2.005057373046875,0.4601512551307678,-0.4581332206726074,-0.6191331148147583
1761469593485040400,2.015040283203125,0.45160624384880066,-0.5508908629417419,-0.6307942867279053
1761469593495023600,2.025023681640625,0.4290565848350525,-0.5561020374298096,-0.6169664859771729
1761469593505006300,2.03500634765625,0.3975207805633545,-0.4454682469367981,-0.5792949795722961
1761469593514989300,2.0449892578125,0.3796446919441223,-0.11069987714290619,-0.6142430305480957
1761469593524972500,2.05497265625,0.3896355628967285,0.41840124130249023,-0.6630311012268066
1761469593534955500,2.06495556640625,0.3768678605556488,0.9502180218696594,-0.5988768339157104
1761469593544938200,2.074938232421875,0.39585086703300476,1.4870423078536987,-0.5562633275985718
1761469593554922200,2.084922119140625,0.4096636474132538,1.9222228527069092,-0.6121937036514282
1761469593564905500,2.094905517578125,0.3722715377807617,2.246180295944214,-0.7744225263595581
1761469593574888400,2.104888427734375,0.28721094131469727,2.23909330368042,-1.059077501296997
1761469593584871200,2.11487109375,0.20447318255901337,1.847712516784668,-1.2854472398757935
1761469593594854400,2.1248544921875,0.18318118155002594,1.2001672983169556,-1.2118308544158936
1761469593604837400,2.13483740234375,0.18809285759925842,0.578499436378479,-0.86922287940979
1761469593614820600,2.144820556640625,0.2242947816848755,0.14809586107730865,-0.3919338583946228
1761469593624803300,2.15480322265625,0.2169247418642044,-0.06054417043924332,0.041086822748184204
1761469593634786300,2.164786376953125,0.1783771961927414,-0.15548914670944214,0.40499618649482727
1761469593644769500,2.17476953125,0.12287691235542297,-0.24564993381500244,0.664470911026001
1761469593654752500,2.18475244140625,0.050535593181848526,-0.30488383769989014,0.8437767028808594
1761469593664736500,2.194736572265625,-0.033181142061948776,-0.27533525228500366,0.9979870915412903
1761469593674719200,2.20471923828125,-0.1069059893488884,-0.24601306021213531,1.0957058668136597
1761469593684702500,2.214702392578125,-0.16955231130123138,-0.3349418640136719,1.1376725435256958
1761469593694685400,2.224685546875,-0.2041923850774765,-0.5037164688110352,1.1363033056259155
1761469593704668200,2.234668212890625,-0.2019265592098236,-0.7098866701126099,1.087180256843567
1761469593714651400,2.2446513671875,-0.2064211368560791,-0.9134791493415833,0.98052978515625
1761469593724634400,2.25463427734375,-0.29231953620910645,-0.9948651194572449,0.8733745217323303
1761469593734617300,2.264617431640625,-0.3945232033729553,-0.9885783195495605,0.7877269983291626
1761469593744600300,2.274600341796875,-0.5004898309707642,-0.9482303857803345,0.729953944683075
1761469593754583300,2.284583251953125,-0.56339430809021,-0.9414028525352478,0.6897358894348145
1761469593764566500,2.29456640625,-0.4670155942440033,-0.9273504018783569,0.5841053128242493
1761469593774549500,2.304549560546875,-0.3851919174194336,-1.0439122915267944,0.4179433584213257
1761469593784532200,2.3145322265625,-0.4113364517688751,-1.1708420515060425,0.2772184908390045
1761469593794516200,2.32451611328125,-0.44623807072639465,-1.2567003965377808,0.14497141540050507
1761469593804499500,2.33449951171875,-0.5166387557983398,-1.2876076698303223,0.06608884036540985
1761469593814482400,2.344482421875,-0.5868863463401794,-1.1381995677947998,-0.012169085443019867
1761469593824465400,2.35446533203125,-0.6193130016326904,-0.996751606464386,-0.09652470797300339
1761469593834448400,2.364448486328125,-0.6276664733886719,-0.9691967964172363,-0.13910610973834991
1761469593844431400,2.374431396484375,-0.6112342476844788,-0.997840940952301,-0.16054348647594452
1761469593854414300,2.384414306640625,-0.5706133246421814,-0.90400230884552,-0.1997804194688797
1761469593864397300,2.394397216796875,-0.5242623090744019,-0.6843831539154053,-0.30005374550819397
1761469593874380300,2.40438037109375,-0.5302479267120361,-0.4291161000728607,-0.41959071159362793
1761469593884363500,2.414363525390625,-0.5529356598854065,-0.20863109827041626,-0.4794210195541382
1761469593894346500,2.424346435546875,-0.37762120366096497,0.1191701740026474,-0.48410770297050476
1761469593904330500,2.43433056640625,-0.043028295040130615,-0.039583250880241394,-0.5914728045463562
1761469593914313200,2.444313232421875,-0.20351453125476837,-0.10468044877052307,-0.499780535697937
1761469593924296400,2.45429638671875,-0.5239577889442444,-0.05343057960271835,-0.2194056212902069
1761469593934279400,2.464279541015625,-0.7973231077194214,-0.07540303468704224,0.036390867084264755
1761469593944262400,2.474262451171875,-0.8648390173912048,-0.2614051103591919,0.22512111067771912
1761469593954245400,2.484245361328125,-0.5655050873756409,-0.5979852676391602,0.30950871109962463
1761469593964228400,2.494228271484375,-0.39406299591064453,-0.7139989733695984,0.3832170367240906
1761469593974210800,2.5042109375,-0.2569485902786255,-0.4682430028915405,0.46265482902526855
1761469593984193800,2.51419384765625,-0.09116256237030029,-0.10339394211769104,0.4850307106971741
1761469593994176800,2.5241767578125,0.00512325344607234,0.1176375225186348,0.4537705183029175
1761469594004159700,2.53415966796875,0.0880783274769783,0.18063406646251678,0.37271374464035034
1761469594014142700,2.544142822265625,0.12463890016078949,0.18001294136047363,0.3153095245361328
1761469594024126700,2.554126708984375,0.1492888480424881,0.16499139368534088,0.31881052255630493
1761469594034110000,2.56410986328125,0.1520286202430725,0.16023975610733032,0.33696144819259644
1761469594044093000,2.574093017578125,0.14671161770820618,0.10601566731929779,0.36512836813926697
1761469594054075600,2.58407568359375,0.13519898056983948,0.021347876638174057,0.40623101592063904
1761469594064059000,2.594058837890625,0.1632186323404312,-0.02984686754643917,0.4301898777484894
1761469594074041900,2.604041748046875,0.18882305920124054,-0.0462878942489624,0.41469132900238037
1761469594084024600,2.614024658203125,0.19975879788398743,-0.03628985583782196,0.38940462470054626
1761469594094007800,2.6240078125,0.22550997138023376,-0.05193885415792465,0.322070837020874
1761469594103990800,2.63399072265625,0.22566603124141693,-0.06832528859376907,0.23540598154067993
1761469594113973800,2.643973876953125,0.20411482453346252,-0.06634675711393356,0.13658000528812408
1761469594123956700,2.653956787109375,0.17495374381542206,-0.00813511572778225,0.003261356148868799
1761469594133939700,2.663939697265625,0.15436218678951263,0.06699693948030472,-0.15533311665058136
1761469594143923700,2.673923828125,0.10926420986652374,0.14491011202335358,-0.28850582242012024
1761469594153907000,2.683906982421875,0.07629586011171341,0.2298850268125534,-0.3560619652271271
1761469594163890000,2.693889892578125,0.0856185257434845,0.2767889201641083,-0.4051362872123718
1761469594173872600,2.70387255859375,0.1273016631603241,0.29014208912849426,-0.4430183172225952
1761469594183855900,2.71385595703125,0.17324277758598328,0.2573452591896057,-0.5021181106567383
1761469594193838800,2.7238388671875,0.23960137367248535,0.1975577026605606,-0.5572353601455688
1761469594203821600,2.733821533203125,0.30063891410827637,0.23048502206802368,-0.5760199427604675
1761469594213804800,2.7438046875,0.355673223733902,0.3904101550579071,-0.5470667481422424
1761469594223787800,2.753787841796875,0.40170034766197205,0.6587774753570557,-0.4605183005332947
1761469594233770800,2.763770751953125,0.4576990306377411,0.9861524105072021,-0.35670629143714905
1761469594243753700,2.773753662109375,0.4910961389541626,1.1869583129882812,-0.298058420419693
1761469594253736700,2.78373681640625,0.46701404452323914,1.0820977687835693,-0.3418676257133484
1761469594263720700,2.793720703125,0.3850129246711731,0.6001596450805664,-0.3956072926521301
1761469594273704000,2.803703857421875,0.25453948974609375,0.038541242480278015,-0.3298661708831787
1761469594283687000,2.81368701171875,0.17677944898605347,-0.3259730637073517,-0.09216149151325226
1761469594293669600,2.823669677734375,0.1668589562177658,-0.4660728871822357,0.24993304908275604
1761469594303652900,2.83365283203125,0.16836071014404297,-0.43334290385246277,0.5332548022270203
1761469594313635800,2.8436357421875,0.12078580260276794,-0.2631584703922272,0.7080420851707458
1761469594323618800,2.853618896484375,0.0632261112332344,-0.011801887303590775,0.766914427280426
1761469594333601800,2.863601806640625,0.051494576036930084,0.12594211101531982,0.6990879774093628
1761469594343584800,2.873584716796875,0.07912992686033249,0.06224595382809639,0.5709694623947144
1761469594353567700,2.883567626953125,0.10007528960704803,-0.08738994598388672,0.5120337605476379
1761469594363550700,2.89355078125,0.10967971384525299,-0.24208657443523407,0.501183271408081
1761469594373533700,2.90353369140625,0.08970366418361664,-0.3203282356262207,0.47978323698043823
1761469594383517700,2.913517578125,0.03489607572555542,-0.3056398332118988,0.431491881608963
1761469594393501000,2.9235009765625,-0.03783058002591133,-0.24432255327701569,0.3753090500831604
1761469594403484000,2.93348388671875,-0.11933529376983643,-0.17374904453754425,0.3369390070438385
1761469594413466600,2.943466552734375,-0.21609903872013092,-0.09275481849908829,0.2822721600532532
1761469594423449900,2.953449951171875,-0.27446407079696655,-0.027646386995911598,0.19719240069389343
1761469594433432800,2.963432861328125,-0.29337430000305176,-0.005943021737039089,0.08174946904182434
1761469594443415800,2.973415771484375,-0.2940022647380829,-0.02692180685698986,-0.037008874118328094
1761469594453398800,2.983398681640625,-0.277637779712677,-0.0699835941195488,-0.11306694149971008
1761469594463381800,2.9933818359375,-0.2494300901889801,-0.08872585743665695,-0.15360957384109497
1761469594473364700,3.00336474609375,-0.22741609811782837,-0.09118938446044922,-0.1837487518787384
1761469594483348000,3.013347900390625,-0.20252832770347595,-0.08921598643064499,-0.20495206117630005
1761469594493330700,3.02333056640625,-0.18961113691329956,-0.03410584107041359,-0.22225801646709442
1761469594503314700,3.033314697265625,-0.21952882409095764,0.05790850520133972,-0.24921853840351105
1761469594513298000,3.0432978515625,-0.2769111394882202,0.18410468101501465,-0.2772030532360077
1761469594523281000,3.053281005859375,-0.3352793753147125,0.31712424755096436,-0.2914504408836365
1761469594533263600,3.063263671875,-0.381348580121994,0.4278861880302429,-0.2802501916885376
1761469594543246800,3.073246826171875,-0.42582815885543823,0.48494282364845276,-0.21649251878261566
1761469594553229800,3.083229736328125,-0.4682021141052246,0.48196786642074585,-0.17883504927158356
1761469594563212800,3.093212890625,-0.4649389386177063,0.4759800136089325,-0.16245847940444946
1761469594573195800,3.10319580078125,-0.3953443467617035,0.4790187180042267,-0.16037845611572266
1761469594583178800,3.1131787109375,-0.2943948209285736,0.5068814754486084,-0.2208133041858673
1761469594593161700,3.12316162109375,-0.16274838149547577,0.5752196907997131,-0.286369651556015
1761469594603145000,3.13314501953125,-0.007152923382818699,0.6583036780357361,-0.29389041662216187
1761469594613127700,3.143127685546875,0.15745598077774048,0.47970259189605713,-0.2727014720439911
1761469594623111700,3.153111572265625,0.2952577769756317,0.07785901427268982,-0.22157306969165802
1761469594633095000,3.163094970703125,0.3483465313911438,-0.2635349631309509,-0.2572879493236542
1761469594643078000,3.173077880859375,0.2960902452468872,-0.39132967591285706,-0.39369717240333557
1761469594653060600,3.183060546875,0.16629372537136078,-0.21451979875564575,-0.46207195520401
1761469594663043800,3.1930439453125,0.019992977380752563,0.13581877946853638,-0.43341314792633057
1761469594673026800,3.20302685546875,-0.07085292041301727,0.41585955023765564,-0.3730735182762146
1761469594683009800,3.213009765625,-0.10021773725748062,0.528924286365509,-0.34304744005203247
1761469594692992800,3.22299267578125,-0.07387721538543701,0.39336687326431274,-0.3080926835536957
1761469594702975700,3.232975830078125,0.03832042217254639,0.06686307489871979,-0.2845420837402344
1761469594712958700,3.242958740234375,0.22447340190410614,-0.27719902992248535,-0.25147610902786255
1761469594722942000,3.25294189453125,0.37988775968551636,-0.498428076505661,-0.17305880784988403
1761469594732926000,3.262926025390625,0.4956507980823517,-0.6012643575668335,-0.05740867182612419
1761469594742908700,3.27290869140625,0.5284244418144226,-0.6293740272521973,0.08869021385908127
1761469594752892000,3.282891845703125,0.4672383666038513,-0.6080309152603149,0.21261908113956451
1761469594762875000,3.292875,0.3473058342933655,-0.5181729197502136,0.2550309896469116
1761469594772857600,3.302857666015625,0.19408228993415833,-0.3745962381362915,0.216812863945961
1761469594782840800,3.3128408203125,0.03807884454727173,-0.20318028330802917,0.1333339512348175
1761469594792823800,3.32282373046875,-0.08299465477466583,-0.06848057359457016,0.01343439519405365
1761469594802806800,3.332806884765625,-0.13318726420402527,-0.004885347560048103,-0.1139422059059143
1761469594812789800,3.342789794921875,-0.15229842066764832,-0.03252061828970909,-0.20059296488761902
1761469594822772700,3.352772705078125,-0.13055264949798584,-0.08132490515708923,-0.23880986869335175
1761469594832755700,3.362755615234375,-0.07813441008329391,-0.11959756910800934,-0.259213387966156
1761469594842739000,3.372739013671875,-0.036324646323919296,-0.13264918327331543,-0.2781308889389038
1761469594852723000,3.382722900390625,0.013611766509711742,-0.13271401822566986,-0.3120577037334442
1761469594862705700,3.39270556640625,0.06764118373394012,-0.15069860219955444,-0.3564765751361847
1761469594872689000,3.40268896484375,0.12497887015342712,-0.1354832500219345,-0.3875148296356201
1761469594882671900,3.412671875,0.17061187326908112,-0.07908280938863754,-0.4001060128211975
1761469594892654600,3.422654541015625,0.22061188519001007,-0.015239961445331573,-0.39712217450141907
1761469594902637800,3.432637939453125,0.23808221518993378,0.04646547883749008,-0.4169696569442749
1761469594912620800,3.442620849609375,0.24091368913650513,0.15595442056655884,-0.4455576241016388
1761469594922603800,3.452603759765625,0.26056355237960815,0.2964140772819519,-0.4551181197166443
1761469594932586800,3.462586669921875,0.3001580238342285,0.4925345480442047,-0.41966623067855835
1761469594942569700,3.47256982421875,0.3572215735912323,0.752661406993866,-0.364177942276001
1761469594952552700,3.482552734375,0.44561871886253357,1.0281702280044556,-0.30618423223495483
1761469594962536000,3.492535888671875,0.6124444603919983,1.0562729835510254,-0.26582324504852295
1761469594972520400,3.5025205078125,0.6861021518707275,0.7499424815177917,-0.39055633544921875
1761469594982503400,3.51250341796875,0.6407932639122009,0.29246652126312256,-0.5295565724372864
1761469594992486100,3.522486083984375,0.5318102836608887,-0.03307180106639862,-0.5067301392555237
1761469595002469400,3.532469482421875,0.43968939781188965,-0.13861526548862457,-0.3265153765678406
1761469595012452400,3.542452392578125,0.37447449564933777,-0.3229239583015442,-0.1695595532655716
1761469595022435300,3.552435302734375,0.42235735058784485,-0.4968198537826538,-0.03819194808602333
1761469595032418300,3.562418212890625,0.4127127230167389,-0.4063701033592224,0.12977451086044312
1761469595042401300,3.5724013671875,0.3668088912963867,-0.11837346851825714,0.2652442157268524
1761469595052384300,3.58238427734375,0.3912747800350189,0.05010446533560753,0.31232163310050964
1761469595062367200,3.5923671875,0.42706021666526794,-0.0023534134961664677,0.2903186082839966
1761469595072350200,3.60235009765625,0.4587755799293518,-0.159410759806633,0.24845054745674133
1761469595082334200,3.612334228515625,0.47322139143943787,-0.3306208550930023,0.19769655168056488
1761469595092317400,3.6223173828125,0.4392419755458832,-0.44133520126342773,0.13561123609542847
1761469595102300400,3.632300537109375,0.3563665449619293,-0.43694818019866943,0.07143279165029526
1761469595112283100,3.642283203125,0.26816537976264954,-0.355062335729599,0.022267157211899757
1761469595122266400,3.652266357421875,0.19034379720687866,-0.2589842677116394,-0.0073796845972537994
1761469595132249300,3.662249267578125,0.13317371904850006,-0.18530233204364777,-0.022147180512547493
1761469595142232300,3.672232421875,0.11803045123815536,-0.1127610132098198,-0.029905766248703003
1761469595152215300,3.68221533203125,0.09674732387065887,-0.026893222704529762,-0.038828641176223755
1761469595162198300,3.6921982421875,0.07530540227890015,0.0745319351553917,-0.04844504967331886
1761469595172181200,3.70218115234375,0.062327977269887924,0.16004464030265808,-0.057423729449510574
1761469595182164500,3.71216455078125,0.051142435520887375,0.19706523418426514,-0.06731604039669037
1761469595192147200,3.722147216796875,0.06778798997402191,0.18023142218589783,-0.0754387229681015
1761469595202130400,3.73213037109375,0.08656593412160873,0.10941291600465775,-0.09834803640842438
1761469595212114400,3.742114501953125,0.085994191467762,-0.009827064350247383,-0.1367507427930832
1761469595222097400,3.752097412109375,0.05828293785452843,-0.10755549371242523,-0.15904246270656586
1761469595232080100,3.762080078125,0.013225781731307507,-0.11236458271741867,-0.1426573246717453
1761469595242063400,3.7720634765625,-0.027316583320498466,-0.0018521844176575541,-0.10438822954893112
1761469595252046300,3.78204638671875,-0.08460400253534317,0.22341947257518768,-0.047003913670778275
1761469595262029300,3.792029296875,-0.16801874339580536,0.5714895725250244,0.023259062319993973
1761469595272012300,3.80201220703125,-0.2501786947250366,0.9737771153450012,0.08676259219646454
1761469595281995300,3.811995361328125,-0.3232113718986511,1.3451142311096191,0.08511143177747726
1761469595291978200,3.821978271484375,-0.36629718542099,1.5711209774017334,0.004746919497847557
1761469595301961500,3.83196142578125,-0.4053463041782379,1.3122292757034302,-0.12790194153785706
1761469595311944200,3.841944091796875,-0.39660897850990295,0.714238166809082,-0.2360600382089615
1761469595321928200,3.85192822265625,-0.39883139729499817,0.2979717552661896,-0.19775791466236115
1761469595331911400,3.861911376953125,-0.3972611129283905,0.1839558482170105,-0.09757718443870544
1761469595341894400,3.871894287109375,-0.37006253004074097,0.09859061986207962,0.044431354850530624
1761469595351877000,3.881877197265625,-0.30059441924095154,-0.05504520982503891,0.16164906322956085
1761469595361860400,3.8918603515625,-0.18488620221614838,-0.2209652066230774,0.242277592420578
1761469595371843300,3.90184326171875,-0.06751635670661926,-0.3275710940361023,0.35050803422927856
1761469595381826300,3.911826416015625,0.02516990900039673,-0.29523950815200806,0.3900567591190338
1761469595391809300,3.921809326171875,0.08640709519386292,-0.17023345828056335,0.35125070810317993
1761469595401792300,3.931792236328125,0.08697354793548584,0.04067505896091461,0.2849734425544739
1761469595411775200,3.941775146484375,0.08891855925321579,0.2374759167432785,0.23565098643302917
1761469595421758500,3.951758544921875,0.11797098815441132,0.20626312494277954,0.1984034925699234
1761469595431742500,3.961742431640625,0.18928295373916626,-0.043790802359580994,0.16527055203914642
1761469595441725200,3.97172509765625,0.295246958732605,-0.33721229434013367,0.18750661611557007
1761469595451708400,3.98170849609375,0.40266016125679016,-0.5758621692657471,0.21446174383163452
1761469595461691400,3.99169140625,0.44023868441581726,-0.6982554197311401,0.22365231812000275
1761469595471673300,4.00167333984375,0.43380528688430786,-0.7595270276069641,0.21974754333496094
1761469595481656300,4.01165625,0.3850822150707245,-0.7822049260139465,0.21441936492919922
1761469595491639300,4.021639404296875,0.3274851441383362,-0.7235777974128723,0.2208646684885025
1761469595501622300,4.031622314453125,0.28368306159973145,-0.6272696256637573,0.1981140822172165
1761469595511605200,4.041605224609375,0.24799825251102448,-0.5132894515991211,0.12848570942878723
1761469595521588200,4.051588134765625,0.20995260775089264,-0.39162904024124146,-0.0038422374054789543
1761469595531572200,4.061572265625,0.17924131453037262,-0.33100658655166626,-0.15956972539424896
1761469595541555500,4.071555419921875,0.14205612242221832,-0.3454688787460327,-0.31516462564468384
1761469595551538200,4.0815380859375,0.09558460116386414,-0.3616171181201935,-0.46973875164985657
1761469595561521400,4.091521484375,0.023989513516426086,-0.345366507768631,-0.612012505531311
1761469595571504400,4.10150439453125,-0.06817224621772766,-0.29832160472869873,-0.7148551344871521
1761469595581487400,4.1114873046875,-0.15259791910648346,-0.24793565273284912,-0.7965435981750488
1761469595591470300,4.12147021484375,-0.2248237282037735,-0.14372381567955017,-0.8591631650924683
1761469595601453300,4.131453369140625,-0.24790853261947632,0.022285928949713707,-0.8729516863822937
1761469595611436300,4.141436279296875,-0.22520236670970917,0.25586119294166565,-0.8177333474159241
1761469595621419500,4.15141943359375,-0.18264319002628326,0.5108823180198669,-0.7221477031707764
1761469595631402200,4.16140234375,-0.11321590840816498,0.7237372994422913,-0.5929068922996521
1761469595641386200,4.17138623046875,-0.03892426937818527,0.850236177444458,-0.4720035493373871
1761469595651369200,4.181369140625,0.04995278641581535,0.957423985004425,-0.42810487747192383
1761469595661352400,4.1913525390625,0.17656905949115753,1.1255725622177124,-0.4061225950717926
1761469595671335200,4.201335205078125,0.2853999137878418,1.2620779275894165,-0.3959634602069855
1761469595681318400,4.211318359375,0.40301015973091125,1.135558009147644,-0.4520283341407776
1761469595691301400,4.22130126953125,0.48966681957244873,0.6731964945793152,-0.5773712992668152
1761469595701284400,4.231284423828125,0.5161631107330322,0.07940854132175446,-0.6364937424659729
1761469595711267300,4.241267333984375,0.46389079093933105,-0.4084432125091553,-0.5492857098579407
1761469595721250300,4.251250244140625,0.42594367265701294,-0.6837850213050842,-0.34891343116760254
1761469595731233300,4.2612333984375,0.33069348335266113,-0.7208310961723328,-0.11008579283952713
1761469595741216500,4.271216552734375,0.14628370106220245,-0.5468446612358093,0.12162359803915024
1761469595751199200,4.28119921875,-0.01116439700126648,-0.2467348575592041,0.34046366810798645
1761469595761183200,4.291183349609375,-0.1150367334485054,-0.06764580309391022,0.5048686265945435
1761469595771166200,4.301166259765625,-0.1454213559627533,-0.03516273945569992,0.6467267870903015
1761469595781149400,4.3111494140625,-0.17625278234481812,-0.10538896173238754,0.7812766432762146
1761469595791132200,4.321132080078125,-0.19783122837543488,-0.2171812206506729,0.8722982406616211
1761469595801115400,4.331115478515625,-0.23284967243671417,-0.2940336763858795,0.9103214740753174
1761469595811098400,4.341098388671875,-0.2808649241924286,-0.2885132133960724,0.9237381815910339
1761469595821081300,4.351081298828125,-0.3259432017803192,-0.23286913335323334,0.9283968210220337
1761469595831064300,4.361064208984375,-0.38204309344291687,-0.19825266301631927,0.9302353858947754
1761469595841047300,4.37104736328125,-0.44306010007858276,-0.18914251029491425,0.891710638999939
1761469595851030300,4.3810302734375,-0.5002095103263855,-0.18729157745838165,0.8019116520881653
1761469595861013500,4.391013427734375,-0.5456451773643494,-0.15027736127376556,0.6844524145126343
1761469595870997500,4.40099755859375,-0.6052408218383789,-0.097847118973732,0.5639068484306335
1761469595880980200,4.410980224609375,-0.6528895497322083,-0.05242370441555977,0.4584839940071106
1761469595890963200,4.420963134765625,-0.6829953193664551,-0.03753066435456276,0.3755398690700531
1761469595900946400,4.430946533203125,-0.6876150965690613,-0.04813563823699951,0.3030608892440796
1761469595910929200,4.44092919921875,-0.6723961234092712,-0.047642797231674194,0.23152148723602295
1761469595920912400,4.450912353515625,-0.6719503402709961,-0.020890280604362488,0.15264157950878143
1761469595930895400,4.460895263671875,-0.7387416362762451,0.08629793673753738,0.07446683198213577
1761469595940878300,4.47087841796875,-0.8199933767318726,0.2953962981700897,0.008187409490346909
1761469595950861300,4.480861328125,-0.9062798023223877,0.5690820217132568,-0.03079512156546116
1761469595960844300,4.49084423828125,-0.9544702172279358,0.8383015394210815,-0.05825843662023544
1761469595970827300,4.5008271484375,-0.9706873297691345,0.9593048095703125,-0.07302598655223846
1761469595980811300,4.510811279296875,-0.9179130792617798,0.9334367513656616,-0.09377813339233398
1761469595990794200,4.520794189453125,-0.7737748622894287,0.8736177682876587,-0.08011671900749207
1761469596000777200,4.530777099609375,-0.5779331922531128,0.8056213855743408,0.01859201304614544
1761469596010760200,4.54076025390625,-0.38328856229782104,0.7005300521850586,0.17709136009216309
1761469596020743400,4.550743408203125,-0.21021001040935516,0.7977641820907593,0.34471070766448975
1761469596030726100,4.56072607421875,-0.1256852000951767,0.884648859500885,0.4265478849411011
1761469596040709400,4.57070947265625,-0.10674454271793365,0.6232801079750061,0.353366881608963
1761469596050695200,4.580695068359375,-0.11437638849020004,0.1529669612646103,0.2029525339603424
1761469596060678100,4.59067822265625,-0.1264929622411728,-0.12598265707492828,-0.03676524758338928
1761469596070661400,4.600661376953125,-0.07130333036184311,-0.06187404319643974,-0.2699810266494751
1761469596080644400,4.610644287109375,-0.023194923996925354,0.16955411434173584,-0.3173528015613556
1761469596090627000,4.620626953125,0.03773648664355278,0.41142505407333374,-0.3247557282447815
1761469596100610300,4.6306103515625,0.11505870521068573,0.5572818517684937,-0.43084755539894104
1761469596110593300,4.64059326171875,0.1271687150001526,0.5212499499320984,-0.5346036553382874
1761469596120576300,4.650576171875,0.1821099817752838,0.3579963147640228,-0.5684638619422913
1761469596130560300,4.660560302734375,0.3259216547012329,0.17237114906311035,-0.5086771249771118
1761469596140543200,4.670543212890625,0.5010934472084045,0.026767875999212265,-0.4189392328262329
1761469596150526200,4.680526123046875,0.6499242186546326,-0.04698757082223892,-0.32231518626213074
1761469596160509400,4.690509521484375,0.7255499958992004,-0.09577188640832901,-0.16779589653015137
1761469596170492200,4.7004921875,0.7180313467979431,-0.15320366621017456,0.027639081701636314
1761469596180475100,4.71047509765625,0.6526094675064087,-0.18625350296497345,0.19746513664722443
1761469596190458400,4.720458251953125,0.5578112006187439,-0.14343774318695068,0.3060452938079834
1761469596200441300,4.73044140625,0.4539892077445984,-0.06788279861211777,0.3532402217388153
1761469596210424000,4.740424072265625,0.3555818498134613,-0.0007039634510874748,0.3530060052871704
1761469596220407300,4.7504072265625,0.26454299688339233,0.06299272179603577,0.33042001724243164
1761469596230390300,4.760390380859375,0.21239139139652252,0.07890766113996506,0.29645323753356934
1761469596240374300,4.770374267578125,0.19822977483272552,0.027824508026242256,0.24918481707572937
1761469596250357500,4.780357421875,0.20426423847675323,-0.07674840092658997,0.18956546485424042
1761469596260340200,4.79034033203125,0.2329281121492386,-0.19000917673110962,0.10329423099756241
1761469596270323200,4.8003232421875,0.25604915618896484,-0.2610234320163727,0.00000859750434756279
1761469596280306400,4.810306396484375,0.26931196451187134,-0.28829073905944824,-0.10356786847114563
1761469596290289200,4.8202890625,0.287241131067276,-0.2622494101524353,-0.20419596135616302
1761469596300272000,4.830272216796875,0.3051588833332062,-0.2041967660188675,-0.3073787987232208
1761469596310255400,4.84025537109375,0.3151422441005707,-0.1345970630645752,-0.3856009244918823
1761469596320238300,4.85023828125,0.33673301339149475,-0.10597075521945953,-0.4015093147754669
1761469596330221000,4.860220947265625,0.3859935700893402,-0.1094040796160698,-0.3817770779132843
1761469596340204300,4.870204345703125,0.44689369201660156,-0.12316782772541046,-0.3573625385761261
1761469596350188300,4.880188232421875,0.4854832887649536,-0.12257052212953568,-0.34513401985168457
1761469596360171300,4.890171142578125,0.5190010070800781,-0.09491758793592453,-0.33828145265579224
1761469596370154500,4.900154541015625,0.5845252871513367,-0.0016376457642763853,-0.3528759479522705
1761469596380137200,4.91013720703125,0.6830952763557434,0.24543152749538422,-0.4025433659553528
1761469596390120200,4.9201201171875,0.7698225975036621,0.5981598496437073,-0.47215744853019714
1761469596400103400,4.930103515625,0.841051459312439,0.788934051990509,-0.627899706363678
1761469596410086400,4.94008642578125,0.8809291124343872,0.5993360280990601,-0.8479780554771423
1761469596420069000,4.950069091796875,0.8777934908866882,0.22323346138000488,-0.9940716624259949
1761469596430052400,4.96005224609375,0.8456003665924072,-0.14197926223278046,-0.9880968332290649
1761469596440035300,4.970035400390625,0.8148288726806641,-0.35200387239456177,-0.8286818265914917
1761469596450018000,4.98001806640625,0.7498106956481934,-0.42315664887428284,-0.6289737820625305
1761469596460001300,4.990001220703125,0.6491613388061523,-0.406037300825119,-0.4316256046295166
1761469596469985300,4.9999853515625,0.513899564743042,-0.23224516212940216,-0.21159128844738007
1761469596479968300,5.00996826171875,0.3693045973777771,-0.06938433647155762,-0.0361718013882637
1761469596489951500,5.019951416015625,0.30245277285575867,-0.05710721015930176,0.09740910679101944
1761469596499934200,5.029934326171875,0.29760050773620605,-0.16064824163913727,0.24034683406352997
1761469596509917200,5.039917236328125,0.3116855323314667,-0.26274314522743225,0.3404325246810913
1761469596519900400,5.049900390625,0.2735208570957184,-0.2857949435710907,0.3434365689754486
1761469596529883400,5.05988330078125,0.18747998774051666,-0.22994175553321838,0.28951767086982727
1761469596539866000,5.0698662109375,0.07016108185052872,-0.14083105325698853,0.24993032217025757
1761469596549849300,5.079849365234375,-0.008373184129595757,-0.05279497429728508,0.21788311004638672
1761469596559832300,5.089832275390625,-0.05304398387670517,-0.005675663240253925,0.20590394735336304
1761469596569815000,5.09981494140625,-0.08920471370220184,0.029245920479297638,0.21766816079616547
1761469596579799300,5.10979931640625,-0.11210736632347107,0.05175016447901726,0.2363065630197525
1761469596589782300,5.1197822265625,-0.1352260261774063,0.11806167662143707,0.258306086063385
1761469596599765200,5.12976513671875,-0.14273907244205475,0.2043749988079071,0.2573191225528717
1761469596609748500,5.13974853515625,-0.16206865012645721,0.26198017597198486,0.24388447403907776
1761469596619731200,5.149731201171875,-0.20175854861736298,0.2566138803958893,0.21717536449432373
1761469596629714200,5.159714111328125,-0.2096768021583557,0.20824283361434937,0.1712583303451538
1761469596639697400,5.169697509765625,-0.19874104857444763,0.09361238777637482,0.1420178860425949
1761469596649680400,5.179680419921875,-0.19149558246135712,-0.0694330707192421,0.13109900057315826
1761469596659663000,5.1896630859375,-0.19220265746116638,-0.21006529033184052,0.1126086637377739
1761469596669646300,5.199646240234375,-0.20747867226600647,-0.2892058193683624,0.07030419260263443
1761469596679629300,5.20962939453125,-0.2728499472141266,-0.2410883605480194,0.02697882056236267
1761469596689613300,5.21961328125,-0.3404269516468048,-0.16286936402320862,0.0037860767915844917
1761469596699596300,5.22959619140625,-0.3983736038208008,-0.1468275487422943,-0.007908929139375687
1761469596709579300,5.239579345703125,-0.4010339081287384,-0.2394530326128006,0.003610807005316019
1761469596719562200,5.249562255859375,-0.33690792322158813,-0.3694046437740326,0.045814983546733856
1761469596729545500,5.25954541015625,-0.23719701170921326,-0.45683684945106506,0.07319652289152145
1761469596739528200,5.269528076171875,-0.13622087240219116,-0.5014532804489136,0.04125457629561424
1761469596749511200,5.27951123046875,-0.06642863899469376,-0.4701307415962219,-0.07502693682909012
1761469596759494400,5.289494384765625,-0.03929049149155617,-0.1504904329776764,-0.16909882426261902
1761469596769477400,5.299477294921875,-0.06356462091207504,0.25152280926704407,-0.25519850850105286
1761469596779460000,5.309460205078125,-0.11108314245939255,0.3921473026275635,-0.33649417757987976
1761469596789444000,5.319444091796875,-0.08200076222419739,0.2275971621274948,-0.39904290437698364
1761469596799427300,5.32942724609375,0.0054723587818443775,-0.14238834381103516,-0.4189436435699463
1761469596809410300,5.339410400390625,0.011696116998791695,-0.3560599088668823,-0.31804659962654114
1761469596819393300,5.349393310546875,0.07970952242612839,-0.15444213151931763,-0.10342592000961304
1761469596829376300,5.359376220703125,0.19749337434768677,0.1820589005947113,0.09143539518117905
1761469596839359200,5.369359130859375,0.3403743505477905,0.3236682415008545,0.15086516737937927
1761469596849342500,5.379342529296875,0.4451351463794708,0.30324822664260864,0.07356030493974686
1761469596859325200,5.3893251953125,0.5491156578063965,0.1544579267501831,-0.08898013830184937
1761469596869308200,5.39930810546875,0.6267990469932556,-0.07925065606832504,-0.2526574432849884
1761469596879291400,5.40929150390625,0.6416522860527039,-0.28902867436408997,-0.3477940857410431
1761469596889274400,5.4192744140625,0.6053292751312256,-0.35510095953941345,-0.3757374882698059
1761469596899258400,5.42925830078125,0.5363997220993042,-0.2985963821411133,-0.2847985327243805
1761469596909241000,5.439240966796875,0.43608808517456055,-0.19593669474124908,-0.15706364810466766
1761469596919224300,5.449224365234375,0.31161460280418396,-0.10670643299818039,-0.0402803048491478
1761469596929207300,5.459207275390625,0.17178046703338623,-0.049367018043994904,0.06157565489411354
1761469596939190300,5.469190185546875,0.060500018298625946,-0.00894236285239458,0.13662779331207275
1761469596949173200,5.47917333984375,-0.035757988691329956,0.009737067855894566,0.1808859407901764
1761469596959156200,5.48915625,-0.11863822489976883,0.015052204951643944,0.20192836225032806
1761469596969139500,5.499139404296875,-0.15599755942821503,0.05412453040480614,0.2193893939256668
1761469596979122400,5.509122314453125,-0.15498767793178558,0.09267325699329376,0.21666498482227325
1761469596989105200,5.519105224609375,-0.15068167448043823,0.09582255035638809,0.1773824840784073
1761469596999088400,5.52908837890625,-0.14836819469928741,0.07937407493591309,0.12901175022125244
1761469597009072400,5.539072265625,-0.129266619682312,0.07117142528295517,0.09194190800189972
1761469597019055400,5.549055419921875,-0.10246217995882034,0.04922777786850929,0.10631579160690308
1761469597029038300,5.559038330078125,-0.05112040787935257,-0.022623777389526367,0.165201798081398
1761469597039021300,5.569021240234375,0.038023583590984344,-0.18711206316947937,0.24047523736953735
1761469597049004300,5.57900439453125,0.13877364993095398,-0.3920135200023651,0.26937931776046753
1761469597058987300,5.5889873046875,0.2298564314842224,-0.5519738793373108,0.22720018029212952
1761469597068970200,5.59897021484375,0.2902491092681885,-0.5920441150665283,0.1234913095831871
1761469597078953200,5.608953125,0.36065348982810974,-0.4816531836986542,-0.031492941081523895
1761469597088936400,5.6189365234375,0.38878133893013,-0.2417803704738617,-0.2763809263706207
1761469597098919400,5.62891943359375,0.3449704647064209,0.15576885640621185,-0.5978013277053833
1761469597108902100,5.638902099609375,0.30116671323776245,0.5028344988822937,-1.0002005100250244
1761469597118885400,5.648885498046875,0.2817482650279999,0.6194875836372375,-1.5186330080032349
1761469597128869400,5.658869384765625,0.25727880001068115,0.40607476234436035,-1.975212812423706
1761469597138852400,5.668852294921875,0.24948666989803314,0.1545245498418808,-2.111591100692749
1761469597148835300,5.67883544921875,0.25379565358161926,0.032641809433698654,-1.8734592199325562
1761469597158818300,5.688818359375,0.31938719749450684,0.017953144386410713,-1.3478156328201294
1761469597168801300,5.69880126953125,0.4142661988735199,-0.06302206963300705,-0.7089243531227112
1761469597178784300,5.7087841796875,0.4369469881057739,-0.15074020624160767,-0.12865859270095825
1761469597188767500,5.718767578125,0.41073232889175415,-0.21965980529785156,0.30054807662963867
1761469597198750200,5.728750244140625,0.35553351044654846,-0.25609028339385986,0.5239154100418091
1761469597208733400,5.7387333984375,0.2993955910205841,-0.2804226577281952,0.5670640468597412
1761469597218716400,5.74871630859375,0.25388163328170776,-0.36162295937538147,0.5508294105529785
1761469597228699100,5.75869921875,0.20764616131782532,-0.4407675862312317,0.5653723478317261
1761469597238683100,5.76868310546875,0.12515342235565186,-0.45176246762275696,0.6089850664138794
1761469597248666400,5.778666259765625,0.017110195010900497,-0.3642086088657379,0.6646850109100342
1761469597258649300,5.7886494140625,-0.0936698466539383,-0.23596274852752686,0.7230731844902039
1761469597268632300,5.79863232421875,-0.16518346965312958,-0.12174216657876968,0.7879472970962524
1761469597278615300,5.808615234375,-0.218185693025589,-0.07373176515102386,0.8634593486785889
1761469597288598300,5.818598388671875,-0.2455901950597763,-0.10132838040590286,0.897472620010376
1761469597298581200,5.828581298828125,-0.2659974694252014,-0.13938361406326294,0.8753289580345154
1761469597308564500,5.838564453125,-0.3043045401573181,-0.1446894407272339,0.8159651756286621
1761469597318547200,5.848547119140625,-0.3482309877872467,-0.09340840578079224,0.7191650867462158
1761469597328530400,5.858530517578125,-0.38728001713752747,-0.03494313359260559,0.5893961787223816
1761469597338513400,5.868513427734375,-0.4229397475719452,0.022324945777654648,0.45296216011047363
1761469597348497400,5.878497314453125,-0.4627055525779724,0.06923692673444748,0.3266652226448059
1761469597358480100,5.888480224609375,-0.5011762380599976,0.10944213718175888,0.2257407307624817
1761469597368463400,5.89846337890625,-0.5341625809669495,0.12034913897514343,0.1514277458190918
1761469597378446300,5.9084462890625,-0.5499471426010132,0.10714332014322281,0.09248986840248108
1761469597388429300,5.91842919921875,-0.561708390712738,0.06918229162693024,0.049876924604177475
1761469597398412300,5.928412353515625,-0.5597354769706726,0.00986277312040329,0.053792569786310196
1761469597408395300,5.938395263671875,-0.5214083194732666,-0.10761392116546631,0.10822369903326035
1761469597418378200,5.948378173828125,-0.45716461539268494,-0.26600515842437744,0.2006862610578537
1761469597428361500,5.958361572265625,-0.3941885828971863,-0.40177589654922485,0.2554224729537964
1761469597438344200,5.96834423828125,-0.3706931173801422,-0.44218748807907104,0.22859589755535126
1761469597448327400,5.978327392578125,-0.36481717228889465,-0.24295979738235474,0.15081025660037994
1761469597458311400,5.9883115234375,-0.39329221844673157,0.1942548304796219,0.053893834352493286
1761469597468294400,5.99829443359375,-0.4269733130931854,0.5276498198509216,-0.01840180903673172
1761469597478277000,6.008277099609375,-0.4347185790538788,0.5112007856369019,-0.013985754922032356
1761469597488260400,6.01826025390625,-0.42390385270118713,0.24484071135520935,0.021878942847251892
1761469597498243300,6.028243408203125,-0.4203155040740967,-0.08121809363365173,0.011430295184254646
1761469597508226300,6.038226318359375,-0.3794482946395874,-0.2685595154762268,-0.05564732477068901
1761469597518209300,6.048209228515625,-0.2847822308540344,-0.19161148369312286,-0.1610933244228363
1761469597528192300,6.058192138671875,-0.15727238357067108,0.023730428889393806,-0.2726125717163086
1761469597538175200,6.06817529296875,-0.04576689377427101,0.16601194441318512,-0.39043161273002625
1761469597548158500,6.078158447265625,0.04727303236722946,0.23714736104011536,-0.4885709583759308
1761469597558141200,6.08814111328125,0.13755258917808533,0.26200583577156067,-0.5797019600868225
1761469597568125200,6.098125244140625,0.22067014873027802,0.1902814656496048,-0.6783900856971741
1761469597578108400,6.1081083984375,0.3208971619606018,0.013702427968382835,-0.7221415638923645
1761469597588091400,6.11809130859375,0.3956930637359619,-0.1388399749994278,-0.6763325929641724
1761469597598074400,6.128074462890625,0.4118824303150177,-0.19002778828144073,-0.5586520433425903
1761469597608057300,6.138057373046875,0.4098755717277527,-0.1964174509048462,-0.3970886468887329
1761469597618040300,6.148040283203125,0.3872525691986084,-0.21424704790115356,-0.2407725304365158
1761469597628023300,6.158023193359375,0.35057395696640015,-0.25753071904182434,-0.1260668784379959
1761469597638006300,6.16800634765625,0.307881623506546,-0.33227553963661194,-0.05711683630943298
1761469597647989200,6.1779892578125,0.25194084644317627,-0.41579198837280273,-0.038039594888687134
1761469597657972200,6.18797216796875,0.1798538714647293,-0.4456465542316437,-0.055910468101501465
1761469597667955500,6.19795556640625,0.11064377427101135,-0.42535120248794556,-0.08317258954048157
1761469597677938200,6.207938232421875,0.055848170071840286,-0.36644500494003296,-0.14929674565792084
1761469597687922200,6.217922119140625,0.02735316939651966,-0.28099560737609863,-0.2438354641199112
1761469597697905400,6.227905517578125,-0.002692348789423704,-0.2170722931623459,-0.34406670928001404
1761469597707888400,6.237888427734375,-0.018771855160593987,-0.19742196798324585,-0.4270557761192322
1761469597717871400,6.247871337890625,-0.030680447816848755,-0.24550801515579224,-0.48962831497192383
1761469597727854300,6.257854248046875,-0.032225601375103,-0.30007073283195496,-0.5203148722648621
1761469597737837300,6.26783740234375,-0.034140147268772125,-0.2821044921875,-0.5113565325737
1761469597747820300,6.2778203125,-0.007822733372449875,-0.23248326778411865,-0.49046048521995544
1761469597757803300,6.28780322265625,0.04688898101449013,-0.1842707395553589,-0.48073941469192505
1761469597767786200,6.2977861328125,0.05705775320529938,-0.14134721457958221,-0.4813807010650635
1761469597777769200,6.307769287109375,0.08458871394395828,-0.07178197801113129,-0.47449907660484314
1761469597787752400,6.31775244140625,0.09261894226074219,0.10791484266519547,-0.44757136702537537
1761469597797736400,6.327736328125,0.12618888914585114,0.45253002643585205,-0.4369828999042511
1761469597807719200,6.33771923828125,0.1854580193758011,0.9217749238014221,-0.496907502412796
1761469597817702400,6.347702392578125,0.2961943745613098,1.2386142015457153,-0.652798056602478
1761469597827685400,6.357685302734375,0.4124729335308075,1.091429352760315,-0.7991049885749817
1761469597837668400,6.36766845703125,0.4863138794898987,0.5431345105171204,-0.8362952470779419
1761469597847651300,6.3776513671875,0.5013007521629333,-0.038560912013053894,-0.6932055354118347
1761469597857634300,6.38763427734375,0.5017217993736267,-0.39753931760787964,-0.33868181705474854
1761469597867617300,6.3976171875,0.50522381067276,-0.5894734263420105,0.11753735691308975
1761469597877600500,6.4076005859375,0.45295822620391846,-0.6262136101722717,0.4393867552280426
1761469597887583200,6.417583251953125,0.35478782653808594,-0.4766027629375458,0.5944523811340332
1761469597897567200,6.427567138671875,0.24232254922389984,-0.21392638981342316,0.5763378143310547
1761469597907550200,6.43755029296875,0.18212710320949554,0.047650743275880814,0.44716140627861023
1761469597917533400,6.447533447265625,0.18252258002758026,0.11855047941207886,0.32062265276908875
1761469597927516200,6.45751611328125,0.20558679103851318,0.037114545702934265,0.24817314743995667
1761469597937499400,6.46749951171875,0.20540276169776917,-0.08950091898441315,0.21957610547542572
1761469597947482400,6.477482421875,0.19619233906269073,-0.18140479922294617,0.2147338092327118
1761469597957465300,6.48746533203125,0.1585666686296463,-0.20235136151313782,0.2233475297689438
1761469597967448300,6.4974482421875,0.09086007624864578,-0.16628536581993103,0.2444690465927124
1761469597977432000,6.50743212890625,0.01569155603647232,-0.11006070673465729,0.2667112350463867
1761469597987414800,6.517414794921875,-0.04255169630050659,-0.06148846074938774,0.29467689990997314
1761469597997398000,6.52739794921875,-0.0817454382777214,-0.0022387197241187096,0.31840673089027405
1761469598007382000,6.537382080078125,-0.1387883871793747,0.08539796620607376,0.3529551923274994
1761469598017365000,6.547364990234375,-0.21143436431884766,0.18350562453269958,0.3919063210487366
1761469598027348000,6.557347900390625,-0.2804638743400574,0.25990548729896545,0.43442896008491516
1761469598037331000,6.5673310546875,-0.3290513753890991,0.3539542257785797,0.4556881785392761
1761469598047314000,6.57731396484375,-0.34977391362190247,0.4545367956161499,0.4551180601119995
1761469598057297000,6.587296875,-0.3405788242816925,0.4707184433937073,0.45108896493911743
1761469598067280100,6.597280029296875,-0.3320453464984894,0.37375056743621826,0.46300679445266724
1761469598077262800,6.607262939453125,-0.3007473349571228,0.16405700147151947,0.5070061683654785
1761469598087245800,6.617245849609375,-0.2731029689311981,-0.128699392080307,0.6049755811691284
1761469598097229000,6.62722900390625,-0.26985684037208557,-0.4497879147529602,0.7230590581893921
1761469598107211800,6.637211669921875,-0.27040088176727295,-0.74109947681427,0.8041097521781921
1761469598117195000,6.647195068359375,-0.25751572847366333,-0.9598238468170166,0.830488920211792
1761469598127179000,6.657178955078125,-0.21172663569450378,-1.0623749494552612,0.8004380464553833
1761469598137162000,6.667161865234375,-0.1694265753030777,-0.8877416849136353,0.7055464386940002
1761469598147145000,6.67714501953125,-0.14778642356395721,-0.3508383631706238,0.5053703188896179
1761469598157128000,6.6871279296875,-0.1265983134508133,0.2568047344684601,0.2283235639333725
1761469598167111000,6.69711083984375,-0.1610831469297409,0.3419947922229767,0.02372106909751892
1761469598177094000,6.707093994140625,-0.2214420884847641,-0.09920230507850647,-0.05540064722299576
1761469598187077000,6.7170771484375,-0.2623884379863739,-0.6526876091957092,-0.10794401913881302
1761469598197059800,6.727059814453125,-0.24422429502010345,-0.8303418159484863,-0.120977982878685
1761469598207042800,6.737042724609375,-0.17558419704437256,-0.5063897371292114,-0.0872543528676033
1761469598217026000,6.747026123046875,-0.07794499397277832,0.02937491051852703,-0.04198567196726799
1761469598227009000,6.757009033203125,0.04910877346992493,0.2757594883441925,-0.08719929307699203
1761469598236992800,6.76699267578125,0.20046447217464447,0.23632314801216125,-0.19465596973896027
1761469598246976000,6.77697607421875,0.31041765213012695,0.0584128201007843,-0.3722118139266968
1761469598256959000,6.786958984375,0.4048472046852112,-0.122342050075531,-0.5891417264938354
1761469598266942000,6.79694189453125,0.4598483145236969,-0.23667095601558685,-0.7282863259315491
1761469598276925000,6.806925048828125,0.4765157103538513,-0.26002606749534607,-0.7281398177146912
1761469598286908000,6.816907958984375,0.4593620002269745,-0.2391522377729416,-0.5848701000213623
1761469598296891000,6.826890869140625,0.41981884837150574,-0.1948084831237793,-0.3522821366786957
1761469598306874000,6.8368740234375,0.3743826150894165,-0.18857045471668243,-0.09389271587133408
1761469598316856800,6.84685693359375,0.30009132623672485,-0.17953887581825256,0.12619756162166595
1761469598326839800,6.85683984375,0.17765069007873535,-0.14332114160060883,0.26139241456985474
1761469598336823000,6.866822998046875,0.03293932229280472,-0.09743461012840271,0.31258901953697205
1761469598346807000,6.87680712890625,-0.08330444246530533,-0.06872256100177765,0.3096838593482971
1761469598356789800,6.886789794921875,-0.15841171145439148,-0.028189783915877342,0.27197378873825073
1761469598366773000,6.89677294921875,-0.17050494253635406,0.030384691432118416,0.2318238466978073
1761469598376756000,6.906755859375,-0.14172548055648804,0.07225597649812698,0.2212415188550949
1761469598386739000,6.916739013671875,-0.09270504117012024,0.0977165475487709,0.2061450183391571
1761469598396722000,6.926721923828125,-0.04702303558588028,0.10247454792261124,0.1750800460577011
1761469598406705000,6.936704833984375,-0.011621210724115372,0.1281387209892273,0.1174272745847702
1761469598416687900,6.94668798828125,-0.0007456592284142971,0.17606817185878754,0.029595427215099335
1761469598426671000,6.956671142578125,-0.017613545060157776,0.23436689376831055,-0.07928409427404404
1761469598436653800,6.96665380859375,-0.05686694383621216,0.2612919807434082,-0.16461443901062012
1761469598446636800,6.97663671875,-0.11354939639568329,0.2747127413749695,-0.20474033057689667
1761469598456621000,6.98662109375,-0.14448601007461548,0.33401626348495483,-0.2012830227613449
1761469598466604000,6.99660400390625,-0.12960931658744812,0.38133251667022705,-0.21635404229164124
1761469598476587000,7.0065869140625,-0.08012405037879944,0.4847275912761688,-0.2730599045753479
1761469598486570000,7.016570068359375,-0.010058908723294735,0.7134272456169128,-0.354492723941803
1761469598496553000,7.026552978515625,0.055933427065610886,0.9296618103981018,-0.4727725088596344
1761469598506536000,7.036535888671875,0.12156990170478821,0.859593391418457,-0.6165278553962708
1761469598516519000,7.046518798828125,0.15186922252178192,0.5131861567497253,-0.7147787809371948
1761469598526502000,7.056501953125,0.11039907485246658,0.2714625298976898,-0.6546744108200073
1761469598536484900,7.06648486328125,-0.0018885834142565727,0.17818768322467804,-0.4563477337360382
1761469598546468000,7.076468017578125,-0.041545432060956955,0.14408615231513977,-0.09392204135656357
1761469598556450800,7.086450927734375,-0.02287374436855316,0.09408184140920639,0.2513783574104309
1761469598566434800,7.096434814453125,-0.04690156504511833,-0.03590768948197365,0.5009735822677612
1761469598576418000,7.10641796875,-0.10002709925174713,-0.18630971014499664,0.6621152758598328
1761469598586401000,7.116401123046875,-0.13807819783687592,-0.19164606928825378,0.743524432182312
1761469598596384000,7.126384033203125,-0.11699662357568741,-0.08919079601764679,0.7779996395111084
1761469598606367000,7.136366943359375,-0.09795098751783371,-0.05333985760807991,0.8133436441421509
1761469598616350000,7.146349853515625,-0.08784801512956619,-0.11490707844495773,0.826419472694397
1761469598626333000,7.1563330078125,-0.10374338179826736,-0.20014341175556183,0.7978668808937073
1761469598636316200,7.166316162109375,-0.1575528085231781,-0.24247010052204132,0.7508567571640015
1761469598646299000,7.176298828125,-0.23285441100597382,-0.2010420858860016,0.6996873617172241
1761469598656281900,7.18628173828125,-0.3112669289112091,-0.08875122666358948,0.6450534462928772
1761469598666265000,7.19626513671875,-0.39735233783721924,0.042332231998443604,0.5844497084617615
1761469598676247800,7.206247802734375,-0.4742252826690674,0.15495891869068146,0.5382185578346252
1761469598686231800,7.216231689453125,-0.5273908972740173,0.1839500069618225,0.509950578212738
1761469598696215000,7.226215087890625,-0.5485992431640625,0.19130699336528778,0.4980398118495941
1761469598706198000,7.236197998046875,-0.5384441018104553,0.2408827841281891,0.5142784714698792
1761469598716181000,7.246180908203125,-0.5029920935630798,0.3033144772052765,0.5536884665489197
1761469598726164000,7.2561640625,-0.45697399973869324,0.312280535697937,0.5694493055343628
1761469598736147000,7.26614697265625,-0.4009256362915039,0.27134987711906433,0.5340854525566101
1761469598746130000,7.2761298828125,-0.37437906861305237,0.19495227932929993,0.49469611048698425
1761469598756113200,7.286113037109375,-0.3797232508659363,0.10947839915752411,0.4787485897541046
1761469598766096000,7.296095947265625,-0.40629690885543823,0.0385410450398922,0.487165629863739
1761469598776078800,7.306078857421875,-0.46502333879470825,-0.015191160142421722,0.4962770938873291
1761469598786062000,7.31606201171875,-0.5171511769294739,-0.06551196426153183,0.46749743819236755
1761469598796046000,7.326046142578125,-0.5497259497642517,-0.1309005618095398,0.42172807455062866
1761469598806028800,7.33602880859375,-0.5238677859306335,-0.22960588335990906,0.3779051601886749
1761469598816012000,7.346011962890625,-0.44732746481895447,-0.3555600941181183,0.35631808638572693
1761469598825995000,7.3559951171875,-0.33293092250823975,-0.458205908536911,0.34852108359336853
1761469598835978000,7.36597802734375,-0.20784997940063477,-0.4638771116733551,0.3303053379058838
1761469598845961000,7.3759609375,-0.11016794294118881,-0.2390976995229721,0.2133355587720871
1761469598855944000,7.38594384765625,-0.03261163458228111,0.24369904398918152,0.016368689015507698
1761469598865927000,7.395927001953125,0.025300566107034683,0.6977784633636475,-0.18529024720191956
1761469598875910100,7.40591015625,0.07931879162788391,0.723365843296051,-0.2604057788848877
1761469598885892900,7.415892822265625,0.09849394112825394,0.2749769389629364,-0.20643670856952667
1761469598895875800,7.425875732421875,0.0632677748799324,-0.18566496670246124,-0.25772520899772644
1761469598905859000,7.435859130859375,0.05424632504582405,-0.3224423825740814,-0.3881196677684784
1761469598915843000,7.445843017578125,-0.006401576101779938,-0.23619697988033295,-0.5147526860237122
1761469598925825800,7.45582568359375,-0.016428550705313683,0.06509420275688171,-0.6727070808410645
1761469598935809000,7.46580908203125,-0.07357413321733475,0.27845999598503113,-0.8774693012237549
1761469598945792000,7.4757919921875,-0.14450521767139435,0.5060194730758667,-1.0535629987716675
1761469598955775000,7.48577490234375,-0.15891985595226288,0.6615965366363525,-1.1419410705566406
1761469598965758000,7.495758056640625,-0.09297818690538406,0.5960749983787537,-1.0721272230148315
1761469598975740400,7.505740478515625,0.051557157188653946,0.32841184735298157,-0.8664799928665161
1761469598985723400,7.515723388671875,0.21482069790363312,0.06358980387449265,-0.5633105635643005
1761469598995706600,7.52570654296875,0.36236539483070374,-0.14294631779193878,-0.26495710015296936
1761469599005689600,7.535689697265625,0.4370706081390381,-0.30148613452911377,-0.058512281626462936
1761469599015672300,7.54567236328125,0.4656907916069031,-0.39637935161590576,0.05613413825631142
1761469599025656600,7.555656494140625,0.4314572513103485,-0.42890146374702454,0.08030931651592255
1761469599035639600,7.5656396484375,0.36227259039878845,-0.3853473365306854,0.023276928812265396
1761469599045622500,7.57562255859375,0.2806277275085449,-0.3274771571159363,-0.08684505522251129
1761469599055605500,7.58560546875,0.1864069402217865,-0.26023393869400024,-0.2266855090856552
1761469599065588500,7.59558837890625,0.11490298062562943,-0.16594453155994415,-0.369907408952713
1761469599075571500,7.605571533203125,0.05517040565609932,-0.08706890046596527,-0.4741959869861603
1761469599085554700,7.6155546875,-0.003557983785867691,-0.01983107626438141,-0.5584959983825684
1761469599095537400,7.625537353515625,-0.03244129568338394,0.002688880078494549,-0.6329982280731201
1761469599105520400,7.635520263671875,-0.053744763135910034,-0.03764122724533081,-0.7037984132766724
1761469599115503600,7.645503662109375,-0.06671036779880524,-0.10614039748907089,-0.7509941458702087
1761469599125486600,7.655486572265625,-0.05273355916142464,-0.14918240904808044,-0.734164297580719
1761469599135470600,7.665470703125,-0.004500519018620253,-0.16890311241149902,-0.6640123724937439
1761469599145453600,7.67545361328125,0.03616861253976822,-0.23185041546821594,-0.5919491052627563
1761469599155436500,7.6854365234375,0.048176806420087814,-0.25377461314201355,-0.5211138129234314
1761469599165419500,7.69541943359375,0.058542605489492416,-0.23269569873809814,-0.4301612973213196
1761469599175402800,7.70540283203125,0.10461129993200302,-0.24452918767929077,-0.28963321447372437
1761469599185385500,7.715385498046875,0.18171629309654236,-0.21666686236858368,-0.144216850399971
1761469599195368400,7.725368408203125,0.31772127747535706,-0.08512028306722641,-0.03692607209086418
1761469599205351700,7.7353515625,0.4928373098373413,0.06735546886920929,-0.0252628605812788
1761469599215334400,7.74533447265625,0.5925623178482056,0.07943210750818253,-0.16362527012825012
1761469599225317400,7.7553173828125,0.5908933281898499,-0.05528058856725693,-0.3981815576553345
1761469599235300600,7.765300537109375,0.4638961851596832,-0.17818386852741241,-0.6179815530776978
1761469599245284600,7.77528466796875,0.3254844546318054,-0.18069897592067719,-0.6520589590072632
1761469599255267600,7.785267578125,0.2634386420249939,-0.14889338612556458,-0.33816173672676086
1761469599265250600,7.79525048828125,0.22509600222110748,-0.23109522461891174,0.09191692620515823
1761469599275233500,7.805233642578125,0.1688132882118225,-0.31048405170440674,0.47826090455055237
1761469599285216500,7.815216552734375,0.1336933672428131,-0.3588804602622986,0.7272230386734009
1761469599295199700,7.82519970703125,0.13830862939357758,-0.3641361892223358,0.8096179962158203
1761469599305182500,7.835182373046875,0.15895913541316986,-0.3668764531612396,0.7308764457702637
1761469599315165400,7.84516552734375,0.17154203355312347,-0.3812662959098816,0.5606647729873657
1761469599325148700,7.855148681640625,0.16674712300300598,-0.4190863370895386,0.30904725193977356
1761469599335131600,7.865131591796875,0.12605136632919312,-0.46421998739242554,0.05514654144644737
1761469599345114400,7.8751142578125,0.03899680823087692,-0.4827352464199066,-0.12355483323335648
1761469599355097600,7.88509765625,-0.07118748873472214,-0.44488561153411865,-0.2062060385942459
1761469599365081600,7.89508154296875,-0.15848961472511292,-0.39194849133491516,-0.20741751790046692
1761469599375064600,7.905064697265625,-0.189715176820755,-0.4137706756591797,-0.2019234150648117
1761469599385047600,7.915047607421875,-0.17100220918655396,-0.5044358968734741,-0.20486558973789215
1761469599395030500,7.925030517578125,-0.11591523885726929,-0.633944034576416,-0.20539475977420807
1761469599405013500,7.935013427734375,-0.08057890087366104,-0.7908954620361328,-0.17729641497135162
1761469599414996700,7.944996826171875,-0.08341490477323532,-0.9467524290084839,-0.12396261841058731
1761469599424979500,7.9549794921875,-0.08846572786569595,-1.1287147998809814,-0.03807927295565605
1761469599434962400,7.96496240234375,-0.1392519474029541,-1.286907434463501,0.10043945908546448
1761469599444945700,7.974945556640625,-0.19444206357002258,-1.4245514869689941,0.2534882724285126
1761469599454928600,7.9849287109375,-0.241128608584404,-1.5554901361465454,0.3989386558532715
1761469599464911400,7.994911376953125,-0.2597332298755646,-1.6948515176773071,0.5327478647232056
1761469599474892500,8.004892578125,-0.2337503582239151,-1.8109523057937622,0.6504185795783997
1761469599484875500,8.01487548828125,-0.2009531855583191,-1.8797101974487305,0.7041836380958557
1761469599494858500,8.0248583984375,-0.17415592074394226,-1.9137259721755981,0.6311736106872559
1761469599504841500,8.034841552734376,-0.192779541015625,-1.8603240251541138,0.44676369428634644
1761469599514824700,8.04482470703125,-0.2414727807044983,-1.6843737363815308,0.20140241086483002
1761469599524807400,8.054807373046875,-0.2856387197971344,-1.436901569366455,-0.08114603161811829
1761469599534790400,8.064790283203125,-0.3200022876262665,-1.1600497961044312,-0.36933228373527527
1761469599544774700,8.074774658203125,-0.3827766180038452,-0.7984447479248047,-0.6380752325057983
1761469599554757600,8.084757568359375,-0.43363288044929504,-0.27297088503837585,-0.8254863619804382
1761469599564740400,8.094740234375,-0.4270670413970947,0.30298006534576416,-0.934090256690979
1761469599574723600,8.1047236328125,-0.3769817650318146,0.7540791034698486,-1.0025156736373901
1761469599584706600,8.11470654296875,-0.2698986828327179,0.9995915293693542,-0.9904763102531433
1761469599594689500,8.124689453125,-0.14417004585266113,0.8866599202156067,-0.8793132901191711
1761469599604672500,8.134672607421875,-0.0724257156252861,0.3726218044757843,-0.7122163772583008
1761469599614655500,8.144655517578125,-0.04475787281990051,-0.13435615599155426,-0.4882711172103882
1761469599624638500,8.154638427734374,-0.020276011899113655,-0.34763118624687195,-0.20655477046966553
1761469599634621700,8.16462158203125,-0.014994164928793907,-0.2734384536743164,0.07137617468833923
1761469599644604400,8.1746044921875,-0.04040176048874855,-0.062199149280786514,0.23908497393131256
1761469599654587400,8.18458740234375,-0.05797649174928665,0.1579848825931549,0.3206922113895416
1761469599664571600,8.194571533203124,-0.04816696047782898,0.27426329255104065,0.3370931148529053
1761469599674554600,8.2045546875,-0.013374626636505127,0.23949278891086578,0.28951603174209595
1761469599684537300,8.214537353515626,0.06277681887149811,0.10430512577295303,0.29119986295700073
1761469599694520600,8.2245205078125,0.10222649574279785,-0.17296962440013885,0.2890586853027344
1761469599704503600,8.234503662109375,0.10041753947734833,-0.5058525204658508,0.2823004722595215
1761469599714486500,8.244486572265625,0.07161891460418701,-0.7682668566703796,0.2961803376674652
1761469599724469500,8.254469482421875,0.048564229160547256,-0.8831326365470886,0.3230932354927063
1761469599734452500,8.264452392578125,0.02072913385927677,-0.8737327456474304,0.29045674204826355
1761469599744435500,8.274435546875,0.010306088253855705,-0.7218413352966309,0.21735647320747375
1761469599754418700,8.284418701171875,-0.002960714977234602,-0.49768194556236267,0.1302037239074707
1761469599764401400,8.2944013671875,-0.008245167322456837,-0.2503284811973572,0.019490323960781097
1761469599774384400,8.30438427734375,0.006553219631314278,-0.04275050386786461,-0.0770532563328743
1761469599784368600,8.31436865234375,-0.003220479004085064,0.04592973738908768,-0.163882315158844
1761469599794351600,8.3243515625,-0.0022127386182546616,-0.012882977724075317,-0.2366931438446045
1761469599804334600,8.33433447265625,0.015027793124318123,-0.2004491090774536,-0.27682963013648987
1761469599814317600,8.344317626953124,0.04179761931300163,-0.3653011918067932,-0.2637290060520172
1761469599824300500,8.354300537109374,0.06182233244180679,-0.44067496061325073,-0.1789465993642807
1761469599834283500,8.364283447265626,0.07357753068208694,-0.4346495568752289,-0.08796502649784088
1761469599844266500,8.3742666015625,0.06803302466869354,-0.3341299295425415,-0.003724277950823307
1761469599854249500,8.38424951171875,0.06664817780256271,-0.17252369225025177,0.07523471862077713
1761469599864232400,8.394232421875,0.07053324580192566,-0.0521400086581707,0.1321372091770172
1761469599874215700,8.404215576171875,0.07368216663599014,0.041999805718660355,0.13500888645648956
1761469599884198400,8.414198486328125,0.06670591235160828,0.02227836102247238,0.039278287440538406
1761469599894182400,8.424182373046875,0.050331465899944305,-0.023600980639457703,-0.09965882450342178
1761469599904165600,8.43416552734375,0.03143493831157684,0.07173297554254532,-0.21863830089569092
1761469599914148600,8.444148681640625,0.041620731353759766,0.22321437299251556,-0.2746107578277588
1761469599924131600,8.454131591796875,0.09047448635101318,0.3934265375137329,-0.2285490483045578
1761469599934114600,8.464114501953125,0.15198737382888794,0.49000102281570435,-0.15086250007152557
1761469599944097500,8.47409765625,0.20356681942939758,0.37759867310523987,-0.09917337447404861
1761469599954080500,8.48408056640625,0.21242183446884155,-0.03700224682688713,-0.11856038868427277
1761469599964063700,8.494063720703124,0.1770879626274109,-0.4814012050628662,-0.17476147413253784
1761469599974046500,8.50404638671875,0.1383245885372162,-0.6997865438461304,-0.19399935007095337
1761469599984029000,8.51402880859375,0.13534443080425262,-0.6763446927070618,-0.1126193180680275
1761469599994012000,8.524011962890626,0.11390198767185211,-0.554924488067627,0.04040485620498657
1761469600003996000,8.533995849609376,0.0712745189666748,-0.40886828303337097,0.20507173240184784
1761469600013979000,8.543978759765626,0.05172931030392647,-0.27397996187210083,0.3167159855365753
1761469600023961900,8.5539619140625,0.05571751296520233,-0.14602777361869812,0.3711220324039459
1761469600033944800,8.56394482421875,0.07417801022529602,-0.012084625661373138,0.3833470344543457
1761469600043927800,8.573927734375,0.06519133597612381,0.1481812745332718,0.381918728351593
1761469600053911000,8.5839111328125,0.03576420247554779,0.2999127507209778,0.3667839765548706
1761469600063896800,8.593896728515626,0.00797190610319376,0.41998758912086487,0.36148178577423096
1761469600073880000,8.603880126953126,-0.027607392519712448,0.508709192276001,0.3866044580936432
1761469600083863000,8.613863037109375,-0.06092960387468338,0.5726428627967834,0.4133913218975067
1761469600093845800,8.623845703125,-0.08307485282421112,0.6598469614982605,0.44150203466415405
1761469600103829000,8.6338291015625,-0.10091947764158249,0.7494468092918396,0.4420490264892578
1761469600113812000,8.64381201171875,-0.09803713858127594,0.7953360080718994,0.4113784432411194
1761469600123794700,8.653794677734375,-0.10310151427984238,0.7982853055000305,0.3656744658946991
1761469600133778000,8.66377783203125,-0.1008298322558403,0.7663984298706055,0.29815319180488586
1761469600143761000,8.673760986328125,-0.11419011652469635,0.658905565738678,0.25530219078063965
1761469600153744000,8.683743896484375,-0.15054412186145782,0.5528092384338379,0.2685636579990387
1761469600163728000,8.693727783203125,-0.18663664162158966,0.5007803440093994,0.31421202421188354
1761469600173710800,8.7037109375,-0.23619060218334198,0.43549564480781555,0.3471907675266266
1761469600183693800,8.71369384765625,-0.3225024342536926,0.35360535979270935,0.35082054138183594
1761469600193677000,8.723677001953124,-0.4080146849155426,0.26068952679634094,0.3165035843849182
1761469600203660000,8.733659912109376,-0.4651949405670166,0.13253994286060333,0.29882121086120605
1761469600213642800,8.743642822265626,-0.49838221073150635,-0.0011970915365964174,0.299571692943573
1761469600223626000,8.7536259765625,-0.579922080039978,-0.3163661062717438,0.32090941071510315
1761469600233609000,8.76360888671875,-0.4822336435317993,-0.5578969717025757,0.15784619748592377
1761469600243591700,8.773591796875,-0.45348235964775085,-0.7452616691589355,0.07060851901769638
1761469600253575000,8.783574951171875,-0.4553455114364624,-0.751425564289093,0.07420272380113602
1761469600263558000,8.793557861328125,-0.41613397002220154,-0.5461117029190063,0.15188097953796387
1761469600273540900,8.803540771484375,-0.3312888741493225,-0.18981564044952393,0.28107544779777527
1761469600283524900,8.81352490234375,-0.23882216215133667,0.08384061604738235,0.295108824968338
1761469600293507800,8.8235078125,-0.10619062930345535,0.22513702511787415,0.1812664121389389
1761469600303490800,8.83349072265625,-0.02169038914144039,0.28162264823913574,0.09655845910310745
1761469600313474000,8.84347412109375,-0.0019001741893589497,0.255601704120636,0.11451508849859238
1761469600323457000,8.85345703125,-0.004048013594001532,0.22677168250083923,0.22838865220546722
1761469600333439700,8.863439697265624,0.0002713673748075962,0.31004470586776733,0.24617616832256317
1761469600343423000,8.873423095703124,-0.021269459277391434,0.5780057907104492,0.1461498737335205
1761469600353406000,8.883406005859374,-0.06055827438831329,0.8894302845001221,-0.03560740128159523
1761469600363389000,8.893388916015626,-0.09872321039438248,1.1537063121795654,-0.22960776090621948
1761469600373372000,8.903371826171876,-0.0631905198097229,1.1482343673706055,-0.3614265024662018
1761469600383355000,8.91335498046875,0.057308394461870193,0.8449565172195435,-0.4003364145755768
1761469600393337900,8.923337890625,0.2428974211215973,0.45689693093299866,-0.36725887656211853
1761469600403321900,8.93332177734375,0.42285633087158203,0.11836203932762146,-0.2461571842432022
1761469600413304800,8.943304931640625,0.5479964017868042,-0.11810162663459778,-0.05340317636728287
1761469600423287800,8.953287841796875,0.5800278782844543,-0.25957271456718445,0.12299800664186478
1761469600433271000,8.96327099609375,0.4968768060207367,-0.3385540843009949,0.20883329212665558
1761469600443254000,8.97325390625,0.3522772490978241,-0.2681458294391632,0.17470137774944305
1761469600453236700,8.98323681640625,0.19808529317378998,-0.044708747416734695,0.060939934104681015
1761469600463220000,8.993219970703125,0.06478474289178848,0.30503806471824646,-0.026911402121186256
1761469600473203000,9.003202880859375,-0.03880156949162483,0.7045431137084961,-0.09458339214324951
1761469600483186000,9.01318603515625,-0.10696469992399216,1.0258562564849854,-0.11719072610139847
1761469600493169000,9.0231689453125,-0.10239525139331818,1.1855074167251587,-0.0909775048494339
1761469600503151900,9.03315185546875,-0.06667480617761612,1.0995012521743774,-0.06782188266515732
1761469600513134800,9.043134765625,0.00892567913979292,0.7241896390914917,-0.09624580293893814
1761469600523118800,9.053118896484374,0.10094335675239563,0.23127582669258118,-0.1705927848815918
1761469600533101800,9.063101806640624,0.16231510043144226,-0.1656065434217453,-0.2506955862045288
1761469600543084800,9.073084716796876,0.17021918296813965,-0.3100675046443939,-0.2731931805610657
1761469600553068000,9.083068115234376,0.13023847341537476,-0.28335121273994446,-0.2764448821544647
1761469600563051000,9.093051025390626,0.0755421444773674,-0.17687368392944336,-0.2879739999771118
1761469600573033700,9.10303369140625,0.012573827058076859,-0.03193700686097145,-0.27334126830101013
1761469600583017000,9.113016845703125,-0.03564491495490074,0.04376556724309921,-0.33485719561576843
1761469600593000000,9.123,-0.04286394640803337,0.08213825523853302,-0.3816044330596924
1761469600602983000,9.13298291015625,-0.021749870851635933,0.09132218360900879,-0.3821016848087311
1761469600612966000,9.1429658203125,0.049066513776779175,0.05620361864566803,-0.33548012375831604
1761469600622948900,9.152948974609375,0.16532979905605316,0.05822964012622833,-0.24951374530792236
1761469600632931800,9.162931884765625,0.2751676142215729,0.14710783958435059,-0.1967402845621109
1761469600642915800,9.172915771484375,0.32386648654937744,0.2493227869272232,-0.207956925034523
1761469600652898800,9.18289892578125,0.3154999017715454,0.27533814311027527,-0.25659501552581787
1761469600662881800,9.1928818359375,0.2548745274543762,0.17091073095798492,-0.2725629210472107
1761469600672865000,9.202864990234374,0.16443704068660736,0.009420109912753105,-0.2843196988105774
1761469600682848000,9.212847900390624,0.04711368307471275,-0.09594088792800903,-0.2669750154018402
1761469600692830700,9.222830810546874,-0.06620541214942932,-0.10472425818443298,-0.15365219116210938
1761469600702814000,9.23281396484375,-0.11663521826267242,-0.08004004508256912,0.08065705746412277
1761469600712797000,9.242796875,-0.12637200951576233,-0.04283488541841507,0.3656221926212311
1761469600722780000,9.25277978515625,-0.09179053455591202,-0.044527944177389145,0.5801494121551514
1761469600732763000,9.262762939453125,-0.032851848751306534,-0.11903014034032822,0.6856686472892761
1761469600742745900,9.272745849609375,0.04384931921958923,-0.20649127662181854,0.714127242565155
1761469600752728800,9.282728759765625,0.1097324788570404,-0.2550962269306183,0.6744035482406616
1761469600762712000,9.292712158203125,0.1477687954902649,-0.2614158093929291,0.5398223400115967
1761469600772696000,9.302696044921875,0.12759242951869965,-0.21766752004623413,0.3618616461753845
1761469600782678800,9.3126787109375,0.06506175547838211,-0.1511845886707306,0.20080654323101044
1761469600792662000,9.322662109375,0.009495167061686516,-0.05250222235918045,0.08746879547834396
1761469600802645000,9.33264501953125,-0.01936444267630577,0.05618513002991676,0.02639101631939411
1761469600812627700,9.342627685546875,-0.014533733949065208,0.11780428886413574,-0.01960070990025997
1761469600822611000,9.35261083984375,0.02801724523305893,0.13946926593780518,-0.040553055703639984
1761469600832594000,9.362593994140624,0.09149289131164551,0.16045629978179932,-0.039906442165374756
1761469600842577000,9.372576904296874,0.13606062531471252,0.18458721041679382,0.09650333225727081
1761469600852560000,9.382559814453124,0.12242736667394638,0.0993034616112709,0.09618294984102249
1761469600862542800,9.39254296875,0.06236714497208595,-0.05761924758553505,-0.005052355583757162
1761469600872525800,9.40252587890625,-0.012409891001880169,-0.10846005380153656,-0.06475483626127243
1761469600882509000,9.412509033203126,-0.08646285533905029,-0.06411495804786682,-0.022153133526444435
1761469600892493000,9.4224931640625,-0.11057058721780777,-0.06196179240942001,0.05380687490105629
1761469600902475800,9.432475830078126,-0.09228558093309402,-0.056895531713962555,0.18418194353580475
1761469600912459000,9.442458984375,-0.0576397180557251,-0.04977690055966377,0.3782300055027008
