time,seconds_elapsed,z,y,x
1761469350789326800,0.118326904296875,-0.6506831645965576,-0.02378145419061184,0.44212573766708374
1761469350799310000,0.12831005859375,-0.613745927810669,-0.13594448566436768,0.5390917062759399
1761469350809293800,0.1382939453125,-0.6017991304397583,-0.2861916124820709,0.6018337607383728
1761469350819276800,0.14827685546875,-0.6254171133041382,-0.4616057872772217,0.6264925003051758
1761469350829259800,0.158259765625,-0.6836804151535034,-0.6305186152458191,0.6258447766304016
1761469350839243000,0.168242919921875,-0.7534976005554199,-0.8051953911781311,0.6025429368019104
1761469350849226000,0.17822607421875,-0.8304882645606995,-0.9322377443313599,0.5609486103057861
1761469350859209000,0.188208984375,-0.8984816670417786,-1.0129314661026,0.4996384084224701
1761469350869192200,0.198192138671875,-0.9373769164085388,-1.0538511276245117,0.4047374725341797
1761469350879176200,0.20817626953125,-0.9467131495475769,-0.938526451587677,0.2898803949356079
1761469350889159000,0.218158935546875,-0.891110897064209,-0.6277830600738525,0.12185879051685333
1761469350899142100,0.22814208984375,-0.7951841354370117,-0.16395148634910583,-0.10286220163106918
1761469350909126100,0.238126220703125,-0.657188355922699,0.3236258327960968,-0.3121207356452942
1761469350919109000,0.248109130859375,-0.5523231625556946,0.668241560459137,-0.418425589799881
1761469350929091800,0.258091796875,-0.5250474810600281,0.8107731342315674,-0.4166634678840637
1761469350939075800,0.268075927734375,-0.5608366131782532,0.8279145956039429,-0.32878822088241577
1761469350949059000,0.27805908203125,-0.6359983682632446,0.9227955937385559,-0.17710618674755096
1761469350959042000,0.2880419921875,-0.7183960676193237,1.1432774066925049,-0.04554656147956848
1761469350969025000,0.29802490234375,-0.7865427136421204,1.447797179222107,-0.030975479632616043
1761469350979009000,0.308009033203125,-0.7798592448234558,1.7374862432479858,0.13162915408611298
1761469350988992000,0.317991943359375,-0.6617485880851746,1.999113917350769,0.2584022581577301
1761469350998975000,0.32797509765625,-0.48161348700523376,2.297515392303467,0.28433504700660706
1761469351008959000,0.337958984375,-0.3101870119571686,2.453782796859741,0.3212284743785858
1761469351018942200,0.347942138671875,-0.16166730225086212,2.348438024520874,0.36290135979652405
1761469351028925000,0.357925048828125,-0.002971181645989418,2.015749454498291,0.3694409728050232
1761469351038908000,0.367907958984375,0.14701884984970093,1.514068365097046,0.33605054020881653
1761469351048892000,0.377891845703125,0.3004789650440216,0.8867656588554382,0.2562592625617981
1761469351058875100,0.387875244140625,0.39038676023483276,0.1847686916589737,0.23931652307510376
1761469351068857900,0.39785791015625,0.38427308201789856,-0.37540483474731445,0.2520495057106018
1761469351078841900,0.407841796875,0.30611249804496765,-0.5405746102333069,0.06258103251457214
1761469351088825000,0.4178251953125,0.2217116802930832,-0.6374108195304871,-0.09608304500579834
1761469351098808000,0.42780810546875,0.15834975242614746,-0.5715575218200684,-0.21556924283504486
1761469351108791000,0.437791015625,0.07451765984296799,-0.45396286249160767,-0.2781061828136444
1761469351118775000,0.447775146484375,-0.0044661047868430614,-0.2887022793292999,-0.27126237750053406
1761469351128758000,0.457758056640625,-0.04531308636069298,-0.08971722424030304,-0.2246389389038086
1761469351138741000,0.467740966796875,-0.05261760205030441,0.11660399287939072,-0.15622232854366302
1761469351148725000,0.47772509765625,-0.03862239420413971,0.3207280933856964,-0.10188283026218414
1761469351158708000,0.4877080078125,-0.020784808322787285,0.45480918884277344,-0.06306751817464828
1761469351168691000,0.49769091796875,0.005757507402449846,0.4903563857078552,-0.04646151140332222
1761469351178675000,0.507675048828125,0.04421594738960266,0.44193345308303833,-0.037768155336380005
1761469351188658000,0.517657958984375,0.0857032909989357,0.33737286925315857,-0.055435191839933395
1761469351198641200,0.52764111328125,0.11741781234741211,0.26799726486206055,-0.10936073958873749
1761469351208624000,0.5376240234375,0.14577895402908325,0.2985638380050659,-0.18721547722816467
1761469351218607900,0.54760791015625,0.16908694803714752,0.375140905380249,-0.2784695029258728
1761469351228590800,0.5575908203125,0.20620915293693542,0.426370769739151,-0.3626018762588501
1761469351238574000,0.567573974609375,0.2436971366405487,0.46512988209724426,-0.41901054978370667
1761469351248558000,0.57755810546875,0.2628732919692993,0.5381131172180176,-0.4207670986652374
1761469351258541000,0.587541015625,0.26061251759529114,0.6603647470474243,-0.4197023808956146
1761469351268524000,0.59752392578125,0.24230124056339264,0.7543200850486755,-0.4468905031681061
1761469351278507000,0.607507080078125,0.2386319488286972,0.7778893113136292,-0.518298327922821
1761469351288491000,0.617490966796875,0.2828548550605774,0.7103904485702515,-0.6011218428611755
1761469351298474000,0.627473876953125,0.3104015290737152,0.535889208316803,-0.670722484588623
1761469351308457200,0.637457275390625,0.30520492792129517,0.4257994592189789,-0.7396583557128906
1761469351318441000,0.64744091796875,0.2584480941295624,0.49655595421791077,-0.786025881767273
1761469351328424000,0.657423828125,0.18364138901233673,0.6507378816604614,-0.7920457720756531
1761469351338407000,0.667406982421875,0.11179570108652115,0.7753418684005737,-0.7459019422531128
1761469351348390100,0.67739013671875,0.041083671152591705,0.8068386316299438,-0.6348668336868286
1761469351358374100,0.6873740234375,-0.01419876143336296,0.7629290223121643,-0.4374600052833557
1761469351368356900,0.69735693359375,-0.057329531759023666,0.7393224239349365,-0.1638815850019455
1761469351378340000,0.707340087890625,-0.05217711627483368,0.7341756224632263,-0.004397384822368622
1761469351388324000,0.717323974609375,-0.01591894030570984,0.6762235760688782,0.051794324070215225
1761469351398307000,0.72730712890625,0.04833754524588585,0.5334432721138,0.05608787387609482
1761469351408289800,0.737289794921875,0.11817491054534912,0.3913126587867737,0.05166134238243103
1761469351418274000,0.747274169921875,0.17218995094299316,0.2693718373775482,0.05599883198738098
1761469351428257000,0.757257080078125,0.1921471357345581,0.16870689392089844,0.07615521550178528
1761469351438240000,0.767239990234375,0.15878598392009735,0.1202530711889267,0.10734003782272339
1761469351448223200,0.77722314453125,0.07354241609573364,0.17205990850925446,0.12777897715568542
1761469351458207200,0.787207275390625,-0.019626673310995102,0.3272111713886261,0.13793572783470154
1761469351468190000,0.79718994140625,-0.11046648770570755,0.48306015133857727,0.14726945757865906
1761469351478173000,0.8071728515625,-0.19237813353538513,0.5772348046302795,0.15449833869934082
1761469351488157000,0.817156982421875,-0.25177815556526184,0.6447829604148865,0.1689714640378952
1761469351498140200,0.82714013671875,-0.2791557312011719,0.6881898641586304,0.18948659300804138
1761469351508123000,0.837122802734375,-0.2679179012775421,0.6788132786750793,0.22148403525352478
1761469351518105900,0.84710595703125,-0.2446325421333313,0.5939966440200806,0.2638690173625946
1761469351528090000,0.857090087890625,-0.20036067068576813,0.477511465549469,0.2894899249076843
1761469351538073000,0.867072998046875,-0.15388213098049164,0.34955909848213196,0.31055501103401184
1761469351548056000,0.87705615234375,-0.09597080945968628,0.18344739079475403,0.344577819108963
1761469351558039800,0.887039794921875,-0.056291572749614716,0.017172930762171745,0.37922340631484985
1761469351568023000,0.89702294921875,-0.04832196235656738,-0.09737381339073181,0.4159817099571228
1761469351578006000,0.907006103515625,-0.07082833349704742,-0.17108717560768127,0.427919864654541
1761469351587989000,0.916989013671875,-0.09640956670045853,-0.1937863826751709,0.4182353913784027
1761469351597973000,0.926972900390625,-0.12931664288043976,-0.199907124042511,0.3992832899093628
1761469351607956000,0.9369560546875,-0.16312392055988312,-0.19343605637550354,0.3704278767108917
1761469351617939000,0.94693896484375,-0.16058486700057983,-0.1895584911108017,0.3795212209224701
1761469351627923000,0.9569228515625,-0.15537022054195404,-0.18750765919685364,0.4378904402256012
1761469351637906200,0.96690625,-0.15791061520576477,-0.13282842934131622,0.5162984728813171
1761469351647889200,0.97688916015625,-0.18618258833885193,-0.02654103934764862,0.5088552236557007
1761469351657872000,0.986871826171875,-0.22195683419704437,-0.019832270219922066,0.3683668375015259
1761469351667856000,0.99685595703125,-0.25923585891723633,-0.03733261674642563,0.11757823079824448
1761469351677839000,1.006839111328125,-0.3211844265460968,0.054399166256189346,-0.1204276755452156
1761469351687822000,1.016822021484375,-0.3587638735771179,0.23075759410858154,-0.31693726778030396
1761469351697806000,1.02680615234375,-0.3707962930202484,0.3332565426826477,-0.4171355366706848
1761469351707789000,1.0367890625,-0.30185961723327637,0.30213457345962524,-0.4249056279659271
1761469351717772000,1.04677197265625,-0.1906484067440033,0.1830766201019287,-0.35348284244537354
1761469351727756000,1.056756103515625,-0.1299237459897995,0.11845000833272934,-0.21903982758522034
1761469351737739000,1.066739013671875,-0.05076847970485687,0.14961007237434387,-0.09711472690105438
1761469351747722000,1.076721923828125,0.03368941321969032,0.1672043800354004,-0.06158763915300369
1761469351757705000,1.086705078125,0.10556040704250336,0.16546106338500977,-0.10373962670564651
1761469351767689000,1.09668896484375,0.16143271327018738,0.18140698969364166,-0.10734015703201294
1761469351777672000,1.106671875,0.2483399212360382,0.11111576855182648,-0.22089120745658875
1761469351787655200,1.1166552734375,0.28923818469047546,0.014474138617515564,-0.23175449669361115
1761469351797639200,1.12663916015625,0.34638428688049316,-0.05126252770423889,-0.10514462739229202
1761469351807622000,1.136621826171875,0.3829870820045471,-0.08501943945884705,0.06882248818874359
1761469351817605000,1.146605224609375,0.3945145606994629,-0.08419252932071686,0.2005472183227539
1761469351827588000,1.156588134765625,0.38609078526496887,-0.06387016177177429,0.25533270835876465
1761469351837572000,1.166572021484375,0.3563515245914459,-0.022603945806622505,0.2258954495191574
1761469351847556400,1.176556396484375,0.2824833393096924,0.007120460271835327,0.12347394227981567
1761469351857539300,1.186539306640625,0.2007296085357666,-0.002329234965145588,-0.004703461192548275
1761469351867523300,1.1965234375,0.126335009932518,-0.025024160742759705,-0.13536959886550903
1761469351877506600,1.206506591796875,0.04681408777832985,-0.03240085020661354,-0.2616332471370697
1761469351887489300,1.2164892578125,-0.016514502465724945,-0.013791175559163094,-0.3739193081855774
1761469351897472300,1.22647216796875,-0.052618179470300674,0.015933696180582047,-0.471683144569397
1761469351907456500,1.23645654296875,-0.056549180299043655,0.042742058634757996,-0.5420704483985901
1761469351917439500,1.246439453125,-0.028123129159212112,0.06190802901983261,-0.5884557962417603
1761469351927422200,1.256422119140625,0.014823004603385925,0.09432509541511536,-0.6004988551139832
1761469351937406200,1.26640625,0.05769430473446846,0.17847779393196106,-0.6019060611724854
1761469351947389400,1.276389404296875,0.09698399901390076,0.2687942385673523,-0.6153170466423035
1761469351957372400,1.286372314453125,0.12349576503038406,0.25582146644592285,-0.6565819382667542
1761469351967356400,1.2963564453125,0.14816907048225403,0.15425100922584534,-0.6803635954856873
1761469351977339400,1.30633935546875,0.17408375442028046,0.02736310102045536,-0.6836224794387817
1761469351987322400,1.316322265625,0.19374006986618042,0.004701078403741121,-0.6724797487258911
1761469351997305300,1.326305419921875,0.22471049427986145,0.10494831949472427,-0.6656016111373901
1761469352007289300,1.336289306640625,0.24939031898975372,0.2156466394662857,-0.6836847066879272
1761469352017272600,1.3462724609375,0.2864847183227539,0.2538169324398041,-0.7250723838806152
1761469352027255300,1.35625537109375,0.3715856671333313,0.22611187398433685,-0.7759533524513245
1761469352037239300,1.3662392578125,0.4889320135116577,0.10457105189561844,-0.8100186586380005
1761469352047222300,1.37622216796875,0.6009414792060852,-0.0913134515285492,-0.7929224967956543
1761469352057205500,1.38620556640625,0.6465765833854675,-0.22728274762630463,-0.7024946212768555
1761469352067188500,1.3961884765625,0.6208413243293762,-0.21267414093017578,-0.5314509868621826
1761469352077172200,1.406172119140625,0.5497404932975769,-0.1430540531873703,-0.2540009915828705
1761469352087155500,1.416155517578125,0.4898568093776703,-0.15652772784233093,0.0861160159111023
1761469352097138400,1.426138427734375,0.42299601435661316,-0.24797429144382477,0.3861791789531708
1761469352107122400,1.436122314453125,0.3475790023803711,-0.3044582009315491,0.6096878051757812
1761469352117105400,1.44610546875,0.24248771369457245,-0.27367740869522095,0.7230167388916016
1761469352127088400,1.45608837890625,0.12008532881736755,-0.20935234427452087,0.7033402323722839
1761469352137071400,1.4660712890625,0.08371960371732712,-0.190217524766922,0.6069204807281494
1761469352147055400,1.476055419921875,0.0627494752407074,-0.2607437074184418,0.5496194362640381
1761469352157038300,1.486038330078125,0.022232670336961746,-0.29624122381210327,0.5259476900100708
1761469352167021600,1.496021484375,-0.031456030905246735,-0.24608387053012848,0.4890933334827423
1761469352177005300,1.50600537109375,-0.09190100431442261,-0.15270012617111206,0.4173579216003418
1761469352186988300,1.51598828125,-0.15381528437137604,-0.02739362046122551,0.34209081530570984
1761469352196971500,1.525971435546875,-0.21194276213645935,0.09269443899393082,0.2734196186065674
1761469352206954500,1.53595458984375,-0.2627248167991638,0.18907605111598969,0.2456948608160019
1761469352216938500,1.5459384765625,-0.2921530306339264,0.24097919464111328,0.25526148080825806
1761469352226921200,1.555921142578125,-0.32038646936416626,0.2414294183254242,0.306520015001297
1761469352236904400,1.565904541015625,-0.33169931173324585,0.219852477312088,0.3822174370288849
1761469352246888400,1.575888427734375,-0.3343639671802521,0.19062143564224243,0.4650591015815735
1761469352256871400,1.585871337890625,-0.33579781651496887,0.14613385498523712,0.5378917455673218
1761469352266854400,1.5958544921875,-0.33177900314331055,0.07242186367511749,0.6011419892311096
1761469352276837400,1.60583740234375,-0.3234720528125763,-0.0012845804449170828,0.6580947637557983
1761469352286821400,1.6158212890625,-0.31359171867370605,-0.05964985489845276,0.7062393426895142
1761469352296804400,1.625804443359375,-0.3029678165912628,-0.1386738419532776,0.769758403301239
1761469352306787600,1.63578759765625,-0.29245156049728394,-0.21206659078598022,0.842666745185852
1761469352316771600,1.645771484375,-0.28330838680267334,-0.22188858687877655,0.8701252937316895
1761469352326754300,1.65575439453125,-0.2816011607646942,-0.2062084823846817,0.8414193987846375
1761469352336737300,1.6657373046875,-0.3015146851539612,-0.15658234059810638,0.7672058939933777
1761469352346721500,1.675721435546875,-0.3459227681159973,-0.06635785102844238,0.6310628652572632
1761469352356704500,1.68570458984375,-0.40650781989097595,0.019168764352798462,0.4094599187374115
1761469352366687200,1.695687255859375,-0.44666752219200134,0.018706152215600014,0.13238219916820526
1761469352376670500,1.70567041015625,-0.5012143850326538,-0.052951257675886154,-0.16547611355781555
1761469352386654500,1.715654541015625,-0.5718035697937012,-0.12291464954614639,-0.4322797358036041
1761469352396637400,1.725637451171875,-0.6236454844474792,-0.20648357272148132,-0.6182740926742554
1761469352406620400,1.735620361328125,-0.6288849115371704,-0.2740791141986847,-0.6631132364273071
1761469352416604200,1.745604248046875,-0.5584341883659363,-0.2602432072162628,-0.5585348606109619
1761469352426587400,1.75558740234375,-0.4251183867454529,-0.15141502022743225,-0.3698548972606659
1761469352436570400,1.7655703125,-0.23269407451152802,0.03757593780755997,-0.14724846184253693
1761469352446553300,1.77555322265625,-0.04627999663352966,0.20350176095962524,0.028003806248307228
1761469352456537600,1.78553759765625,0.055760085582733154,0.31843554973602295,0.13018131256103516
1761469352466520300,1.795520263671875,0.15929776430130005,0.3140469789505005,0.13841745257377625
1761469352476503300,1.80550341796875,0.3002764582633972,0.1198175922036171,0.07062456756830215
1761469352486487300,1.8154873046875,0.4281817674636841,-0.15154266357421875,-0.011761779896914959
1761469352496470500,1.825470458984375,0.5184075236320496,-0.40558505058288574,-0.12509925663471222
1761469352506453500,1.83545361328125,0.5730001330375671,-0.6189702749252319,-0.25941750407218933
1761469352516436200,1.845436279296875,0.6173462867736816,-0.8033124208450317,-0.3388444185256958
1761469352526420500,1.85542041015625,0.6354356408119202,-0.9534076452255249,-0.3695460557937622
1761469352536403500,1.865403564453125,0.6399185061454773,-1.059117078781128,-0.3982035219669342
1761469352546386400,1.875386474609375,0.6219981908798218,-1.0832836627960205,-0.4004325568675995
1761469352556370400,1.885370361328125,0.5671885013580322,-0.9833792448043823,-0.35652846097946167
1761469352566353400,1.895353515625,0.4814152717590332,-0.7748470306396484,-0.30805066227912903
1761469352576336400,1.90533642578125,0.36417093873023987,-0.4534218907356262,-0.2660461962223053
1761469352586319400,1.9153193359375,0.23045919835567474,-0.0797785297036171,-0.24252542853355408
1761469352596303400,1.925303466796875,0.09272609651088715,0.24571461975574493,-0.26873254776000977
1761469352606286300,1.935286376953125,0.01287307869642973,0.39969101548194885,-0.3735944926738739
1761469352616269300,1.945269287109375,-0.03697623312473297,0.35937049984931946,-0.5326771140098572
1761469352626253300,1.95525341796875,-0.05259820446372032,0.2623485326766968,-0.6853389739990234
1761469352636236500,1.965236572265625,-0.04313253238797188,0.1910703480243683,-0.763971209526062
1761469352646219500,1.975219482421875,-0.02751793898642063,0.15589994192123413,-0.76861971616745
1761469352656202200,1.9852021484375,-0.00951736606657505,0.14155562222003937,-0.7069204449653625
1761469352666186200,1.995186279296875,0.021602751687169075,0.09902458637952805,-0.6192282438278198
1761469352676169500,2.00516943359375,0.0557980053126812,0.05579402297735214,-0.562580406665802
1761469352686152400,2.01515234375,0.09266547113656998,0.03293982148170471,-0.5306916236877441
1761469352696136400,2.025136474609375,0.13161419332027435,0.03118480183184147,-0.5284167528152466
1761469352706119400,2.035119384765625,0.1662854105234146,0.026337867602705956,-0.5447368621826172
1761469352716102400,2.045102294921875,0.19973124563694,0.042936816811561584,-0.5678563117980957
1761469352726085400,2.05508544921875,0.23694878816604614,0.11408814787864685,-0.5667586922645569
1761469352736069400,2.0650693359375,0.2765209674835205,0.26602548360824585,-0.567796528339386
1761469352746052600,2.075052490234375,0.3258123993873596,0.4005950391292572,-0.5910820364952087
1761469352756035300,2.085035400390625,0.3946862816810608,0.4441656768321991,-0.6010883450508118
1761469352766019300,2.095019287109375,0.480879545211792,0.29276221990585327,-0.5822269320487976
1761469352776002300,2.105002197265625,0.6190094947814941,-0.05270756036043167,-0.5325403809547424
1761469352785985500,2.114985595703125,0.7709071040153503,-0.37639734148979187,-0.44656902551651
1761469352795969500,2.124969482421875,0.834288477897644,-0.580115556716919,-0.3469332456588745
1761469352805952300,2.1349521484375,0.7668836712837219,-0.612359344959259,-0.2362154722213745
1761469352815935500,2.144935546875,0.6167743802070618,-0.4550517797470093,-0.1259976178407669
1761469352825918500,2.15491845703125,0.4603992700576782,-0.21951346099376678,-0.04046095535159111
1761469352835902500,2.16490234375,0.3299664258956909,0.02305976301431656,0.05045776441693306
1761469352845884400,2.174884521484375,0.25432854890823364,0.2047266960144043,0.16104379296302795
1761469352855867400,2.184867431640625,0.2323814183473587,0.2385626882314682,0.2611059546470642
1761469352865851100,2.19485107421875,0.2866978645324707,0.06854700297117233,0.32861462235450745
1761469352875834000,2.204834228515625,0.3217693269252777,-0.25064536929130554,0.3402843475341797
1761469352885817300,2.2148173828125,0.31125307083129883,-0.5621966123580933,0.3083469867706299
1761469352895800300,2.22480029296875,0.24882085621356964,-0.7032586336135864,0.28397610783576965
1761469352905784300,2.234784423828125,0.11995688080787659,-0.7025265097618103,0.2703668177127838
1761469352915767300,2.244767333984375,-0.0327298678457737,-0.6157756447792053,0.26736971735954285
1761469352925750300,2.254750244140625,-0.19132372736930847,-0.45331722497940063,0.24885094165802002
1761469352935734300,2.264734375,-0.3195253610610962,-0.2869604825973511,0.20818714797496796
1761469352945717200,2.27471728515625,-0.39723312854766846,-0.1643747240304947,0.17657363414764404
1761469352955700200,2.2847001953125,-0.4394937753677368,-0.12514476478099823,0.1607041209936142
1761469352965683200,2.29468310546875,-0.4595823585987091,-0.13212910294532776,0.1718217134475708
1761469352975667200,2.304667236328125,-0.45721349120140076,-0.1228431910276413,0.18828724324703217
1761469352985650200,2.314650146484375,-0.43823495507240295,-0.08789809048175812,0.19752337038516998
1761469352995633400,2.32463330078125,-0.4168604016304016,-0.040647491812705994,0.2126181721687317
1761469353005617400,2.334617431640625,-0.3853873312473297,-0.02345711924135685,0.21840155124664307
1761469353015600000,2.34460009765625,-0.34217193722724915,-0.09975481778383255,0.2186465561389923
1761469353025583400,2.354583251953125,-0.3025819659233093,-0.2668263912200928,0.2172127366065979
1761469353035566300,2.36456640625,-0.28340694308280945,-0.4919646978378296,0.1933758407831192
1761469353045550300,2.37455029296875,-0.2833110988140106,-0.7547654509544373,0.18595542013645172
1761469353055533000,2.384532958984375,-0.29556456208229065,-0.9669466614723206,0.2145628184080124
1761469353065516300,2.394516357421875,-0.3248717188835144,-1.040257453918457,0.24667242169380188
1761469353075500300,2.404500244140625,-0.3835446238517761,-1.0031261444091797,0.2740025818347931
1761469353085483300,2.414483154296875,-0.4356980323791504,-0.8639004826545715,0.2977581024169922
1761469353095466500,2.424466552734375,-0.47734585404396057,-0.6400359272956848,0.27567702531814575
1761469353105449200,2.43444921875,-0.48208335041999817,-0.3128659725189209,0.19499017298221588
1761469353115433200,2.44443310546875,-0.47543638944625854,0.07918703556060791,-0.011678844690322876
1761469353125416200,2.454416259765625,-0.4235920011997223,0.3320994973182678,-0.27945324778556824
1761469353135399400,2.4643994140625,-0.3621542155742645,0.299282431602478,-0.4578235149383545
1761469353145383400,2.474383544921875,-0.29728537797927856,-0.016511818394064903,-0.4897613823413849
1761469353155366100,2.4843662109375,-0.20592162013053894,-0.4413459300994873,-0.41534894704818726
1761469353165349000,2.49434912109375,-0.10365180671215057,-0.755427896976471,-0.2790050208568573
1761469353175332400,2.504332275390625,-0.0056831627152860165,-0.7360411882400513,-0.15810123085975647
1761469353185316400,2.51431640625,0.012951100245118141,-0.3326912522315979,-0.09285442531108856
1761469353195299300,2.52429931640625,-0.048959940671920776,0.3242488205432892,-0.07114460319280624
1761469353205282300,2.5342822265625,-0.10773508995771408,0.9410474896430969,-0.04974298179149628
1761469353215266300,2.544266357421875,-0.12671862542629242,1.2834205627441406,0.022080345079302788
1761469353225249300,2.554249267578125,-0.071980781853199,1.2520302534103394,0.12259586155414581
1761469353235232300,2.564232177734375,0.035413846373558044,0.98270183801651,0.19663332402706146
1761469353245215200,2.57421533203125,0.19149461388587952,0.6354901790618896,0.23451529443264008
1761469353255199200,2.58419921875,0.3479126989841461,0.31226494908332825,0.2360178381204605
1761469353265182200,2.59418212890625,0.4799565076828003,0.12039549648761749,0.23524075746536255
1761469353275165400,2.60416552734375,0.5719277262687683,0.03095056861639023,0.25469115376472473
1761469353285149400,2.6141494140625,0.6064556837081909,0.03491847217082977,0.25596633553504944
1761469353295132200,2.624132080078125,0.5947225689888,0.12894538044929504,0.2008703351020813
1761469353305115100,2.634115234375,0.5488826036453247,0.2747824490070343,0.12234051525592804
1761469353315098400,2.644098388671875,0.4574589431285858,0.4201010465621948,0.02140963450074196
1761469353325082400,2.654082275390625,0.332883358001709,0.5533869862556458,-0.09472983330488205
1761469353335065300,2.6640654296875,0.2044590711593628,0.6502296924591064,-0.220341295003891
1761469353345048000,2.674048095703125,0.11004041135311127,0.6830250024795532,-0.3328123986721039
1761469353355032300,2.6840322265625,0.057018209248781204,0.619982898235321,-0.4110371470451355
1761469353365015300,2.694015380859375,0.04267109930515289,0.49275004863739014,-0.44411513209342957
1761469353374998300,2.703998291015625,0.06413590908050537,0.3428034484386444,-0.4612334072589874
1761469353384982300,2.713982177734375,0.1003580093383789,0.22911705076694489,-0.4816245138645172
1761469353394965200,2.72396533203125,0.14032433927059174,0.17015813291072845,-0.5127081274986267
1761469353404948200,2.7339482421875,0.17090438306331635,0.1582317054271698,-0.5434384942054749
1761469353414931200,2.74393115234375,0.18967673182487488,0.17773430049419403,-0.5860573649406433
1761469353424915200,2.753915283203125,0.1923695057630539,0.24166297912597656,-0.6208240389823914
1761469353434898400,2.7638984375,0.18988902866840363,0.3529370427131653,-0.6453155279159546
1761469353444881200,2.773881103515625,0.1967795193195343,0.46486997604370117,-0.654251217842102
1761469353454865200,2.783865234375,0.22259193658828735,0.5401972532272339,-0.6348141431808472
1761469353464848400,2.793848388671875,0.24124650657176971,0.5766491293907166,-0.6012557148933411
1761469353474831400,2.803831298828125,0.2442135363817215,0.6034303903579712,-0.5614297389984131
1761469353484814000,2.81381396484375,0.25210097432136536,0.6455779671669006,-0.5172505974769592
1761469353494798000,2.823798095703125,0.2840873897075653,0.6880026459693909,-0.49970462918281555
1761469353504781300,2.83378125,0.3386290669441223,0.6761308312416077,-0.5082293748855591
1761469353514764300,2.843764404296875,0.38254514336586,0.539298951625824,-0.5014755725860596
1761469353524748300,2.853748291015625,0.4834975004196167,0.3338184654712677,-0.44401365518569946
1761469353534731300,2.863731201171875,0.5436694622039795,0.143527090549469,-0.369698703289032
1761469353544714200,2.87371435546875,0.5433439016342163,0.06291630864143372,-0.3117716312408447
1761469353554697200,2.883697265625,0.4842073321342468,0.062052108347415924,-0.2636706829071045
1761469353564681200,2.89368115234375,0.38499608635902405,0.058193616569042206,-0.15894369781017303
1761469353574664400,2.90366455078125,0.2924160659313202,-0.0446840263903141,0.017741864547133446
1761469353584647200,2.913647216796875,0.21969588100910187,-0.18144731223583221,0.24637141823768616
1761469353594631200,2.923631103515625,0.15619494020938873,-0.2921743392944336,0.479949027299881
1761469353604614100,2.9336142578125,0.09351279586553574,-0.29458868503570557,0.63237464427948
1761469353614597400,2.943597412109375,0.06558742374181747,-0.22102364897727966,0.6921972036361694
1761469353624580400,2.953580322265625,0.050780508667230606,-0.1802714616060257,0.6884272694587708
1761469353634564000,2.963564208984375,0.018506724387407303,-0.20131522417068481,0.6549790501594543
1761469353644547300,2.97354736328125,-0.03511704504489899,-0.22003322839736938,0.6176221370697021
1761469353654530300,2.9835302734375,-0.12404052913188934,-0.17774808406829834,0.5396237373352051
1761469353664514300,2.993514404296875,-0.21627241373062134,-0.07072240114212036,0.43130820989608765
1761469353674497300,3.003497314453125,-0.30200353264808655,0.05928405746817589,0.3078342080116272
1761469353684480300,3.013480224609375,-0.36313581466674805,0.17792978882789612,0.1993812471628189
1761469353694463200,3.023463134765625,-0.40407633781433105,0.29793235659599304,0.12655578553676605
1761469353704447200,3.033447265625,-0.42811307311058044,0.37947404384613037,0.10331909358501434
1761469353714430200,3.04343017578125,-0.4342585802078247,0.4034219980239868,0.11767220497131348
1761469353724413200,3.0534130859375,-0.41857483983039856,0.375667542219162,0.17272186279296875
1761469353734397200,3.063397216796875,-0.3787315785884857,0.30657103657722473,0.25936809182167053
1761469353744380200,3.073380126953125,-0.34310343861579895,0.2316986471414566,0.35258910059928894
1761469353754363400,3.08336328125,-0.29847604036331177,0.16144898533821106,0.4351936876773834
1761469353764346400,3.093346435546875,-0.2667503356933594,0.11821282655000687,0.4910180866718292
1761469353774330400,3.103330322265625,-0.23903000354766846,0.09633868932723999,0.5198768973350525
1761469353784313000,3.11331298828125,-0.20032116770744324,0.07963595539331436,0.5260489583015442
1761469353794296300,3.12329638671875,-0.1850375533103943,0.057334110140800476,0.5097506642341614
1761469353804280300,3.1332802734375,-0.1582750529050827,0.059779200702905655,0.4442243278026581
1761469353814263300,3.14326318359375,-0.14199168980121613,0.07328809052705765,0.3640996515750885
1761469353824246300,3.153246337890625,-0.14767985045909882,0.08168637007474899,0.28041476011276245
1761469353834230300,3.163230224609375,-0.1471879631280899,0.09297444671392441,0.19019222259521484
1761469353844214300,3.17321435546875,-0.17415979504585266,0.10008493065834045,0.07005200535058975
1761469353854197000,3.183197021484375,-0.2085649073123932,0.10980547219514847,-0.10761811584234238
1761469353864180000,3.193179931640625,-0.23327021300792694,0.0771910548210144,-0.2913287281990051
1761469353874164200,3.203164306640625,-0.26982051134109497,0.03533495217561722,-0.4347844123840332
1761469353884147200,3.213147216796875,-0.2777186334133148,-0.004333205055445433,-0.49526646733283997
1761469353894130000,3.2231298828125,-0.2705762982368469,-0.05723423883318901,-0.4119505286216736
1761469353904114000,3.233114013671875,-0.27431803941726685,-0.127528116106987,-0.21307706832885742
1761469353914097200,3.24309716796875,-0.2585907280445099,-0.16385336220264435,0.006590300239622593
1761469353924080000,3.253080078125,-0.20142829418182373,-0.12479592859745026,0.1649554967880249
1761469353934063000,3.26306298828125,-0.1273263692855835,-0.014266220852732658,0.23966090381145477
1761469353944047000,3.273047119140625,-0.0532039999961853,0.1648576706647873,0.26059043407440186
1761469353954030000,3.283030029296875,0.031687457114458084,0.35928839445114136,0.2580934464931488
1761469353964013000,3.293012939453125,0.13707323372364044,0.46841755509376526,0.24849505722522736
1761469353973997000,3.3029970703125,0.24736937880516052,0.4399622082710266,0.2286430448293686
1761469353983980300,3.312980224609375,0.3617970049381256,0.3332675099372864,0.22480745613574982
1761469353993963000,3.322962890625,0.44934630393981934,0.16852809488773346,0.22646288573741913
1761469354003946000,3.332946044921875,0.5055540800094604,0.07884727418422699,0.24893610179424286
1761469354013930000,3.342929931640625,0.5482043027877808,0.04251137375831604,0.24497278034687042
1761469354023913200,3.352913330078125,0.5615139603614807,-0.04004502668976784,0.20039886236190796
1761469354033896200,3.362896240234375,0.544529139995575,-0.13406312465667725,0.24721910059452057
1761469354043880000,3.3728798828125,0.49921488761901855,-0.19358637928962708,0.3638647496700287
1761469354053863200,3.38286328125,0.4243326485157013,-0.21401628851890564,0.44518089294433594
1761469354063846100,3.39284619140625,0.31487908959388733,-0.18597069382667542,0.47507166862487793
1761469354073829000,3.4028291015625,0.19935861229896545,-0.1556743085384369,0.4478360414505005
1761469354083813000,3.412813232421875,0.10474853962659836,-0.1609918177127838,0.398703932762146
1761469354093796000,3.422796142578125,0.036141782999038696,-0.1470099538564682,0.3465118408203125
1761469354103779000,3.432779052734375,-0.012217322364449501,-0.14123082160949707,0.2912461459636688
1761469354113763000,3.44276318359375,-0.060070063918828964,-0.12928228080272675,0.22794732451438904
1761469354123746000,3.45274609375,-0.09057577699422836,-0.11967386305332184,0.13971947133541107
1761469354133729300,3.462729248046875,-0.10832121968269348,-0.11527378857135773,0.03330593928694725
1761469354143713000,3.472713134765625,-0.10019942373037338,-0.14225150644779205,-0.08424016833305359
1761469354153696000,3.482696044921875,-0.07443733513355255,-0.16425082087516785,-0.2023622691631317
1761469354163679200,3.49267919921875,-0.04777895659208298,-0.13523520529270172,-0.32570698857307434
1761469354173662200,3.502662109375,0.009328536689281464,-0.060957517474889755,-0.43296554684638977
1761469354183646200,3.512646240234375,0.0920928344130516,0.04500548541545868,-0.49382951855659485
1761469354193629000,3.52262890625,0.1866678148508072,0.14610067009925842,-0.5038032531738281
1761469354203612200,3.532612060546875,0.25614187121391296,0.25978073477745056,-0.45979493856430054
1761469354213596200,3.54259619140625,0.3044643998146057,0.3766860365867615,-0.4399266839027405
1761469354223579100,3.5525791015625,0.32524746656417847,0.5028843879699707,-0.5059987306594849
1761469354233562000,3.56256201171875,0.3060375452041626,0.6546890735626221,-0.5925048589706421
1761469354243545000,3.572545166015625,0.2882179915904999,0.8101362586021423,-0.634772777557373
1761469354253529000,3.582529052734375,0.2499653846025467,0.89145827293396,-0.6510169506072998
1761469354263512000,3.592511962890625,0.2278047800064087,0.837763249874115,-0.6362248063087463
1761469354273495300,3.602495361328125,0.2115112990140915,0.7327191233634949,-0.5993688106536865
1761469354283479300,3.612479248046875,0.16704487800598145,0.5881657600402832,-0.5216664671897888
1761469354293462000,3.6224619140625,0.1350874900817871,0.4005489647388458,-0.3936839699745178
1761469354303445000,3.632445068359375,0.10631358623504639,0.1972082108259201,-0.18373022973537445
1761469354313428200,3.64242822265625,0.10281258821487427,-0.006455433089286089,0.12216204404830933
1761469354323412200,3.652412109375,0.07393759489059448,-0.15395694971084595,0.4260233938694
1761469354333395000,3.66239501953125,0.037115663290023804,-0.20333167910575867,0.6414925456047058
1761469354343378200,3.672378173828125,0.004260363057255745,-0.13745439052581787,0.7363401651382446
1761469354353362200,3.682362060546875,-0.013748730532824993,-0.06245576962828636,0.7884409427642822
1761469354363345200,3.69234521484375,-0.020701264962553978,-0.0718395859003067,0.8381175398826599
1761469354373328100,3.702328125,-0.02294817380607128,-0.1602240353822708,0.8921608328819275
1761469354383311000,3.71231103515625,-0.0256295595318079,-0.2506352961063385,0.9123106002807617
1761469354393295000,3.722295166015625,-0.018137557432055473,-0.30051180720329285,0.8890811800956726
1761469354403278000,3.732278076171875,0.004802322946488857,-0.32936176657676697,0.8385480046272278
1761469354413261000,3.742260986328125,-0.005104636773467064,-0.3303023874759674,0.7454639077186584
1761469354423245300,3.752245361328125,-0.02737261727452278,-0.28086838126182556,0.6319373250007629
1761469354433228000,3.76222802734375,-0.07137230038642883,-0.21251675486564636,0.528061032295227
1761469354443211000,3.7722109375,-0.12310175597667694,-0.1523434966802597,0.4311073422431946
1761469354453195000,3.782195068359375,-0.15824349224567413,-0.12861312925815582,0.36668866872787476
1761469354463178200,3.79217822265625,-0.19454053044319153,-0.12800796329975128,0.33662667870521545
1761469354473161200,3.8021611328125,-0.19989241659641266,-0.16856470704078674,0.3390709161758423
1761469354483144000,3.81214404296875,-0.19506599009037018,-0.22376669943332672,0.3639753758907318
1761469354493128000,3.8221279296875,-0.1766750067472458,-0.26278868317604065,0.4026615023612976
1761469354503111200,3.832111083984375,-0.16069333255290985,-0.281037300825119,0.4386845529079437
1761469354513094100,3.84209423828125,-0.17538653314113617,-0.2672674357891083,0.469820111989975
1761469354523078100,3.852078125,-0.2018757462501526,-0.21311156451702118,0.46743303537368774
1761469354533061000,3.86206103515625,-0.22395548224449158,-0.15200373530387878,0.44561296701431274
1761469354543044000,3.872044189453125,-0.23717808723449707,-0.10798369348049164,0.4133557081222534
1761469354553027000,3.882027099609375,-0.23514823615550995,-0.07378870993852615,0.3804031014442444
1761469354563011000,3.892010986328125,-0.20430700480937958,-0.041450779885053635,0.3562529981136322
1761469354572994000,3.901994140625,-0.18787476420402527,-0.031776051968336105,0.33385980129241943
1761469354582977000,3.91197705078125,-0.17351388931274414,-0.02349315583705902,0.3072122037410736
1761469354592961000,3.9219609375,-0.20384010672569275,-0.05544682592153549,0.23701871931552887
1761469354602944300,3.9319443359375,-0.2607995569705963,-0.1106889545917511,0.08386857807636261
1761469354612927200,3.94192724609375,-0.32529306411743164,-0.12470890581607819,-0.13595698773860931
1761469354622910000,3.951909912109375,-0.3843371272087097,-0.06747632473707199,-0.3623279929161072
1761469354632894000,3.96189404296875,-0.4401058554649353,0.015468895435333252,-0.50892573595047
1761469354642877200,3.971877197265625,-0.46445655822753906,0.08532264828681946,-0.49874749779701233
1761469354652860200,3.981860107421875,-0.45989376306533813,0.08046131581068039,-0.3347702622413635
1761469354662844200,3.99184423828125,-0.45340245962142944,0.0362936295568943,-0.12629038095474243
1761469354672825000,4.0018251953125,-0.4281005561351776,0.034265365451574326,0.05086150020360947
1761469354682808000,4.01180810546875,-0.4329596757888794,0.14486464858055115,0.17044176161289215
1761469354692792000,4.0217919921875,-0.37605857849121094,0.3359408676624298,0.2529352903366089
1761469354702775000,4.031775146484375,-0.26663702726364136,0.445587694644928,0.29556503891944885
1761469354712758000,4.041758056640625,-0.10828416049480438,0.4287527799606323,0.299174964427948
1761469354722742000,4.051741943359375,0.04924622178077698,0.32499581575393677,0.2459363490343094
1761469354732725200,4.061725341796875,0.2027902454137802,0.1514805108308792,0.1420179307460785
1761469354742708200,4.071708251953125,0.35088425874710083,-0.0330774150788784,0.03498036414384842
1761469354752691000,4.08169091796875,0.47419875860214233,-0.17664389312267303,-0.03464718535542488
1761469354762675000,4.091675048828125,0.5581759214401245,-0.27428364753723145,-0.0795435979962349
1761469354772658200,4.101658203125,0.5767602324485779,-0.3448196053504944,-0.12381599098443985
1761469354782641200,4.11164111328125,0.5370147824287415,-0.3703535497188568,-0.1660214066505432
1761469354792625200,4.121625244140625,0.45446717739105225,-0.3138143718242645,-0.20670412480831146
1761469354802608000,4.131608154296875,0.3322560489177704,-0.1741877645254135,-0.24989500641822815
1761469354812591000,4.141591064453125,0.2063111513853073,-0.011204710230231285,-0.285765677690506
1761469354822574000,4.151573974609375,0.09644955396652222,0.11314889788627625,-0.305503785610199
1761469354832558000,4.16155810546875,0.027461960911750793,0.16820921003818512,-0.301656574010849
1761469354842541300,4.171541259765625,-0.008459774777293205,0.1542581468820572,-0.27026480436325073
1761469354852527400,4.18152734375,-0.009356994181871414,0.05705249309539795,-0.22935011982917786
1761469354862511400,4.191511474609375,0.0100181195884943,-0.09985466301441193,-0.1766926497220993
1761469354872494300,4.201494384765625,0.05062440037727356,-0.21510109305381775,-0.15326562523841858
1761469354882477300,4.211477294921875,0.09848473966121674,-0.2436976283788681,-0.18081273138523102
1761469354892460300,4.221460205078125,0.1453651636838913,-0.18137753009796143,-0.24934785068035126
1761469354902444300,4.2314443359375,0.19921515882015228,-0.09068171679973602,-0.34592166543006897
1761469354912427500,4.241427490234375,0.2563391625881195,-0.018389403820037842,-0.4567086100578308
1761469354922410200,4.25141015625,0.3164651393890381,0.01280851848423481,-0.5643381476402283
1761469354932394200,4.261394287109375,0.38601091504096985,0.010275052860379219,-0.6368640065193176
1761469354942377200,4.271377197265625,0.4530186653137207,0.0004273026715964079,-0.6719607710838318
1761469354952360400,4.2813603515625,0.48942381143569946,-0.004361859988421202,-0.6843439340591431
1761469354962344400,4.291344482421875,0.4756356179714203,0.006822922267019749,-0.702968180179596
1761469354972327400,4.301327392578125,0.42122164368629456,0.06287234276533127,-0.7551072835922241
1761469354982310400,4.311310302734375,0.3887551426887512,0.1998138576745987,-0.820904016494751
1761469354992293400,4.32129345703125,0.3890850841999054,0.3644813597202301,-0.8914969563484192
1761469355002277400,4.33127734375,0.41129055619239807,0.5041691064834595,-0.9366224408149719
1761469355012260400,4.34126025390625,0.46387627720832825,0.5447868704795837,-0.9435855150222778
1761469355022243300,4.351243408203125,0.5167136788368225,0.4765337407588959,-0.8830038905143738
1761469355032227300,4.361227294921875,0.5154944658279419,0.4259805679321289,-0.7701862454414368
1761469355042210300,4.371210205078125,0.45454704761505127,0.42646369338035583,-0.6249000430107117
1761469355052193300,4.381193359375,0.38226911425590515,0.38874879479408264,-0.4103405773639679
1761469355062176500,4.391176513671875,0.299586683511734,0.22920626401901245,-0.12103833258152008
1761469355072160300,4.40116015625,0.23178713023662567,0.04292426258325577,0.17769163846969604
1761469355082143200,4.411143310546875,0.17586994171142578,-0.09679695963859558,0.39870086312294006
1761469355092126500,4.42112646484375,0.11427474766969681,-0.15140295028686523,0.5151683688163757
1761469355102110500,4.4311103515625,0.03268003091216087,-0.12660929560661316,0.5763446092605591
1761469355112093400,4.441093505859375,0.016134075820446014,-0.19057869911193848,0.6234021186828613
1761469355122076200,4.451076171875,-0.006106787361204624,-0.32670432329177856,0.6933572292327881
1761469355132059400,4.461059326171875,-0.034002333879470825,-0.40300098061561584,0.7541481852531433
1761469355142043400,4.47104345703125,-0.07233422249555588,-0.41401147842407227,0.7690917253494263
1761469355152026400,4.4810263671875,-0.1377534419298172,-0.3686125874519348,0.7315049767494202
1761469355162009300,4.49100927734375,-0.2503388226032257,-0.24211029708385468,0.6538083553314209
1761469355171993300,4.500993408203125,-0.38994625210762024,-0.052030373364686966,0.5685427188873291
1761469355181976300,4.510976318359375,-0.4759509265422821,0.07451131939888,0.475020170211792
1761469355191959300,4.520959228515625,-0.5489916205406189,0.09622672945261002,0.390251487493515
1761469355201943300,4.530943359375,-0.6085604429244995,0.11974293738603592,0.3303488790988922
1761469355211926500,4.540926513671875,-0.6437283158302307,0.16182062029838562,0.30924707651138306
1761469355221909200,4.5509091796875,-0.6469743847846985,0.18765918910503387,0.32456356287002563
1761469355231892200,4.560892333984375,-0.602042555809021,0.1914970576763153,0.3805384039878845
1761469355241876500,4.57087646484375,-0.5142964124679565,0.17138488590717316,0.4604928493499756
1761469355251859500,4.580859375,-0.444466233253479,0.11873525381088257,0.5641723275184631
1761469355261842200,4.59084228515625,-0.3903687000274658,0.06828855723142624,0.6592341661453247
1761469355271826200,4.600826171875,-0.3477559983730316,0.03019043803215027,0.7562054395675659
1761469355281809400,4.610809326171875,-0.31553247570991516,-0.025718076154589653,0.8253638744354248
1761469355291792400,4.62079248046875,-0.2892515957355499,-0.08870796859264374,0.8708533048629761
1761469355301775400,4.630775390625,-0.27321070432662964,-0.13345496356487274,0.8843747973442078
1761469355311759400,4.64075927734375,-0.2676508128643036,-0.14864644408226013,0.8605184555053711
1761469355321742300,4.650742431640625,-0.26938924193382263,-0.13644671440124512,0.7992874383926392
1761469355331725300,4.660725341796875,-0.2842203676700592,-0.11242714524269104,0.7229471206665039
1761469355341709300,4.670709228515625,-0.2940267026424408,-0.07931116223335266,0.6134286522865295
1761469355351692500,4.680692626953125,-0.3080437183380127,-0.011201082728803158,0.40512314438819885
1761469355361675300,4.69067529296875,-0.33050885796546936,0.09831047058105469,0.0031872978433966637
1761469355371658200,4.700658203125,-0.30214646458625793,0.1971941739320755,-0.41245409846305847
1761469355381642200,4.710642333984375,-0.2688775658607483,0.2871726155281067,-0.6654446125030518
1761469355391625500,4.72062548828125,-0.2636681795120239,0.29243022203445435,-0.7444577217102051
1761469355401608400,4.7306083984375,-0.25203827023506165,0.2503723204135895,-0.6152290105819702
1761469355411592200,4.74059228515625,-0.23509523272514343,0.13404545187950134,-0.31482523679733276
1761469355421575400,4.750575439453125,-0.19012407958507538,-0.017334509640932083,-0.008015007711946964
1761469355431558400,4.760558349609375,-0.14083881676197052,-0.003128674579784274,0.18433846533298492
1761469355441541400,4.770541259765625,-0.06777862459421158,0.1254783719778061,0.24394379556179047
1761469355451525400,4.780525390625,0.022869786247611046,0.2136324644088745,0.2464788556098938
1761469355461508400,4.79050830078125,0.1445842683315277,0.18652281165122986,0.20370110869407654
1761469355471491300,4.8004912109375,0.3086022436618805,0.07877583801746368,0.13901905715465546
1761469355481475300,4.810475341796875,0.46554237604141235,-0.033155716955661774,0.049638062715530396
1761469355491458300,4.820458251953125,0.5719966292381287,-0.11175598204135895,-0.040393028408288956
1761469355501441300,4.830441162109375,0.6437479853630066,-0.15598072111606598,-0.09091544896364212
1761469355511425300,4.84042529296875,0.688386857509613,-0.1939598023891449,-0.10392818599939346
1761469355521408300,4.850408203125,0.7029786109924316,-0.20192982256412506,-0.0942983403801918
1761469355531391500,4.8603916015625,0.6677157282829285,-0.17872729897499084,-0.08751047402620316
1761469355541374500,4.87037451171875,0.597662091255188,-0.15330982208251953,-0.08267417550086975
1761469355551358500,4.8803583984375,0.5123229026794434,-0.10178803652524948,-0.1060016006231308
1761469355561341200,4.890341064453125,0.41882264614105225,-0.0057212235406041145,-0.15828092396259308
1761469355571324400,4.900324462890625,0.3198641240596771,0.10764635354280472,-0.22541362047195435
1761469355581308400,4.910308349609375,0.2090044617652893,0.21222828328609467,-0.29457324743270874
1761469355591291400,4.92029150390625,0.1108589842915535,0.25813236832618713,-0.36660322546958923
1761469355601274400,4.9302744140625,0.04287393391132355,0.2768508791923523,-0.4170531928539276
1761469355611257300,4.94025732421875,-0.003566799219697714,0.27250993251800537,-0.44423234462738037
1761469355621241300,4.950241455078125,-0.026530615985393524,0.2353236973285675,-0.4474189877510071
1761469355631224300,4.960224365234375,-0.037186987698078156,0.1955568492412567,-0.43513941764831543
1761469355641207600,4.97020751953125,-0.0559803731739521,0.18578214943408966,-0.42872074246406555
1761469355651191600,4.980191650390625,-0.07029885798692703,0.19804707169532776,-0.431234747171402
1761469355661174300,4.99017431640625,-0.05176538974046707,0.23030966520309448,-0.4362518787384033
1761469355671157200,5.0001572265625,-0.017364539206027985,0.26273417472839355,-0.43735337257385254
1761469355681141500,5.0101416015625,0.032865650951862335,0.2803175747394562,-0.42006751894950867
1761469355691124500,5.02012451171875,0.08847831189632416,0.27875322103500366,-0.3962213099002838
1761469355701107200,5.030107177734375,0.12347251176834106,0.23962529003620148,-0.3728025555610657
1761469355711090400,5.04009033203125,0.12143999338150024,0.16510818898677826,-0.35370954871177673
1761469355721074400,5.050074462890625,0.09972772747278214,0.08488240838050842,-0.35873761773109436
1761469355731057400,5.060057373046875,0.05198283493518829,0.06812233477830887,-0.3891940712928772
1761469355741040400,5.070040283203125,-0.02206013724207878,0.17038965225219727,-0.4456910789012909
1761469355751024000,5.080024169921875,-0.08692142367362976,0.40465301275253296,-0.5053266882896423
1761469355761007400,5.09000732421875,-0.09969234466552734,0.6781428456306458,-0.5370417833328247
1761469355770990300,5.099990234375,-0.04799453169107437,0.8684478402137756,-0.5430898070335388
1761469355780973300,5.109973388671875,0.01218407228589058,0.895513653755188,-0.5312073230743408
1761469355790957600,5.11995751953125,0.031115686520934105,0.7588410377502441,-0.5000094771385193
1761469355800940300,5.129940185546875,0.007606226950883865,0.5207055807113647,-0.400773286819458
1761469355810923300,5.13992333984375,0.025419313460588455,0.15470817685127258,-0.17765206098556519
1761469355820907300,5.1499072265625,-0.02701352909207344,-0.18280619382858276,0.0906083956360817
1761469355830890500,5.159890380859375,-0.08131085336208344,-0.31278976798057556,0.3630295395851135
1761469355840873200,5.169873291015625,-0.13519315421581268,-0.2910078167915344,0.5740885734558105
1761469355850853600,5.179853515625,-0.18519321084022522,-0.2223411500453949,0.7055919766426086
1761469355860837600,5.189837646484375,-0.2219102680683136,-0.16848662495613098,0.7789287567138672
1761469355870820600,5.199820556640625,-0.23924078047275543,-0.15964598953723907,0.82697594165802
1761469355880803600,5.209803466796875,-0.2522352933883667,-0.20952746272087097,0.8687556982040405
1761469355890787600,5.21978759765625,-0.26258912682533264,-0.3093491494655609,0.9031333923339844
1761469355900770600,5.2297705078125,-0.25870227813720703,-0.4321376383304596,0.9218060970306396
1761469355910753500,5.23975341796875,-0.2612628936767578,-0.5444769859313965,0.9181532859802246
1761469355920736500,5.249736572265625,-0.28204432129859924,-0.6091402769088745,0.872901201248169
1761469355930720500,5.259720458984375,-0.32874923944473267,-0.58698970079422,0.8055189847946167
1761469355940703700,5.269703857421875,-0.3748406171798706,-0.47951382398605347,0.7446222901344299
1761469355950686700,5.279686767578125,-0.445645809173584,-0.32495060563087463,0.7046120166778564
1761469355960670700,5.289670654296875,-0.5196893811225891,-0.1530817747116089,0.6985269784927368
1761469355970653400,5.2996533203125,-0.5732234120368958,-0.021779673174023628,0.7333443760871887
1761469355980636700,5.30963671875,-0.580342173576355,0.03897309675812721,0.8107975721359253
1761469355990619600,5.31961962890625,-0.6227484941482544,-0.051087550818920135,0.9224820137023926
1761469356000603600,5.329603759765625,-0.5855150818824768,-0.16474781930446625,1.0044654607772827
1761469356010586600,5.339586669921875,-0.49458709359169006,-0.25426414608955383,1.0124411582946777
1761469356020569600,5.349569580078125,-0.45488542318344116,-0.33382895588874817,0.9850425720214844
1761469356030553600,5.3595537109375,-0.4570787847042084,-0.3820475935935974,0.950550377368927
1761469356040536600,5.36953662109375,-0.4787949323654175,-0.40440186858177185,0.9123823046684265
1761469356050519800,5.379519775390625,-0.4683561325073242,-0.42022794485092163,0.8951593637466431
1761469356060502500,5.38950244140625,-0.4421001076698303,-0.4607071578502655,0.8806759119033813
1761469356070486500,5.399486572265625,-0.4093669354915619,-0.4834076762199402,0.8100720643997192
1761469356080469500,5.409469482421875,-0.38218626379966736,-0.41537579894065857,0.6221399903297424
1761469356090452700,5.41945263671875,-0.34091871976852417,-0.2873555123806,0.27945879101753235
1761469356100436700,5.429436767578125,-0.2594626545906067,-0.15365386009216309,-0.11787761002779007
1761469356110419500,5.43941943359375,-0.14000444114208221,-0.07286021113395691,-0.4091571271419525
1761469356120402700,5.449402587890625,0.014851672574877739,-0.06461454927921295,-0.49156495928764343
1761469356130386700,5.45938671875,0.1250343769788742,-0.12098008394241333,-0.37355709075927734
1761469356140369700,5.46936962890625,0.1986742466688156,-0.21346688270568848,-0.15912549197673798
1761469356150352600,5.4793525390625,0.19864441454410553,-0.3314627408981323,-0.007608405314385891
1761469356160335600,5.489335693359375,0.11604056507349014,-0.3248876929283142,0.07153430581092834
1761469356170319600,5.499319580078125,0.008252848871052265,-0.19761469960212708,0.11753934621810913
1761469356180302600,5.509302490234375,-0.11953569203615189,-0.10067400336265564,0.15270347893238068
1761469356190285600,5.51928564453125,-0.1800706833600998,-0.16530784964561462,0.10414420068264008
1761469356200269800,5.529269775390625,-0.18418806791305542,-0.2546022832393646,-0.011020010337233543
1761469356210252500,5.53925244140625,-0.089507095515728,-0.2919861674308777,-0.1973171830177307
1761469356220235500,5.549235595703125,0.06514427065849304,-0.31457585096359253,-0.383855402469635
1761469356230218800,5.55921875,0.21229511499404907,-0.38304945826530457,-0.43606746196746826
1761469356240202800,5.56920263671875,0.3437173366546631,-0.4946533441543579,-0.3531850576400757
1761469356250185500,5.579185546875,0.41612550616264343,-0.5929988026618958,-0.19662019610404968
1761469356260168400,5.58916845703125,0.4548473358154297,-0.7004143595695496,-0.028003238141536713
1761469356270152400,5.59915234375,0.4442223906517029,-0.8447736501693726,0.09349389374256134
1761469356280135700,5.6091357421875,0.39515915513038635,-0.996626079082489,0.16375012695789337
1761469356290118700,5.61911865234375,0.3294946551322937,-1.0978673696517944,0.19594748318195343
1761469356300101600,5.6291015625,0.26592716574668884,-1.1403053998947144,0.192464679479599
1761469356310085600,5.639085693359375,0.21484774351119995,-1.1144001483917236,0.15351754426956177
1761469356320068600,5.649068603515625,0.1899328976869583,-1.0335004329681396,0.08099143952131271
1761469356330051600,5.659051513671875,0.20750124752521515,-0.8966269493103027,0.006537978537380695
1761469356340035600,5.66903564453125,0.266898512840271,-0.765214204788208,-0.07916758954524994
1761469356350018600,5.6790185546875,0.3381527364253998,-0.6877117156982422,-0.16349072754383087
1761469356360001500,5.68900146484375,0.3885987102985382,-0.649222195148468,-0.23417168855667114
1761469356369985500,5.698985595703125,0.41694673895835876,-0.6021025776863098,-0.31009283661842346
1761469356379968800,5.70896875,0.4203864634037018,-0.5317637324333191,-0.3799824118614197
1761469356389951700,5.71895166015625,0.3903723657131195,-0.4384404122829437,-0.424638569355011
1761469356399934500,5.7289345703125,0.3240296244621277,-0.3340016007423401,-0.4796152114868164
1761469356409918500,5.73891845703125,0.2261030673980713,-0.20280896127223969,-0.5803927183151245
1761469356419901700,5.748901611328125,0.15086334943771362,-0.04321322590112686,-0.6876057982444763
1761469356429884700,5.758884765625,0.09781424701213837,0.13392400741577148,-0.773246705532074
1761469356439867400,5.768867431640625,0.059092190116643906,0.34997105598449707,-0.8449687361717224
1761469356449851400,5.778851318359375,0.06075533479452133,0.5948165059089661,-0.8936140537261963
1761469356459834600,5.788834716796875,0.030795574188232422,0.9181976318359375,-0.9117946028709412
1761469356469817600,5.798817626953125,0.017464589327573776,1.17792809009552,-0.8538937568664551
1761469356479801600,5.808801513671875,0.0016205059364438057,1.2127479314804077,-0.7217281460762024
1761469356489784800,5.818784912109375,-0.020924750715494156,1.0041284561157227,-0.5854722857475281
1761469356499767600,5.828767578125,-0.025192147120833397,0.7414224147796631,-0.46085232496261597
1761469356509751600,5.83875146484375,-0.04645722359418869,0.5247031450271606,-0.3490288555622101
1761469356519734500,5.848734619140625,-0.03250855579972267,0.3525996506214142,-0.2753678858280182
1761469356529717800,5.8587177734375,0.005807141773402691,0.16065286099910736,-0.19842465221881866
1761469356539700500,5.868700439453125,0.0639287680387497,-0.05428914725780487,-0.07096201181411743
1761469356549684500,5.8786845703125,0.10624213516712189,-0.25217053294181824,0.11828354001045227
1761469356559667700,5.888667724609375,0.12969987094402313,-0.4227626323699951,0.3152260482311249
1761469356569650700,5.898650634765625,0.14801229536533356,-0.5221810936927795,0.4905858635902405
1761469356579634700,5.908634765625,0.134206160902977,-0.517429769039154,0.5868082046508789
1761469356589617400,5.918617431640625,0.11417386680841446,-0.48436209559440613,0.599420428276062
1761469356599600600,5.9286005859375,0.11923515051603317,-0.5393270254135132,0.5767720937728882
1761469356609583600,5.93858349609375,0.12134304642677307,-0.6540464162826538,0.5721975564956665
1761469356619567600,5.948567626953125,0.12229442596435547,-0.7351657748222351,0.5511738657951355
1761469356629550600,5.958550537109375,0.09878803044557571,-0.766933798789978,0.518114447593689
1761469356639533600,5.968533447265625,0.06489388644695282,-0.771120011806488,0.46897128224372864
1761469356649517600,5.978517578125,-0.00014423253014683723,-0.739529013633728,0.4098970293998718
1761469356659500500,5.98850048828125,-0.05777521803975105,-0.7262753248214722,0.3514614999294281
1761469356669483800,5.99848388671875,-0.0982842892408371,-0.7218561172485352,0.34075719118118286
1761469356679466500,6.008466552734375,-0.11398269236087799,-0.7305545806884766,0.3933179974555969
1761469356689450500,6.018450439453125,-0.12774936854839325,-0.7903236150741577,0.4864804446697235
1761469356699433500,6.02843359375,-0.126643106341362,-0.8901490569114685,0.5984781384468079
1761469356709416700,6.038416748046875,-0.13041813671588898,-1.0260350704193115,0.6878636479377747
1761469356719400700,6.048400634765625,-0.13780397176742554,-1.175284743309021,0.7477452754974365
1761469356729383700,6.0583837890625,-0.1476408839225769,-1.3197526931762695,0.7726303935050964
1761469356739366700,6.06836669921875,-0.17787078022956848,-1.4017138481140137,0.7763619422912598
1761469356749349600,6.078349609375,-0.2314320057630539,-1.4200481176376343,0.7878692150115967
1761469356759333600,6.088333740234375,-0.31532514095306396,-1.3797580003738403,0.7750032544136047
1761469356769316600,6.098316650390625,-0.37852567434310913,-1.3168845176696777,0.7855062484741211
1761469356779299600,6.108299560546875,-0.43088656663894653,-1.247843623161316,0.775250256061554
1761469356789283600,6.11828369140625,-0.49356433749198914,-1.140619158744812,0.709182858467102
1761469356799266600,6.1282666015625,-0.5209612250328064,-0.9774579405784607,0.5907753705978394
1761469356809249500,6.13824951171875,-0.49868836998939514,-0.7358332872390747,0.4125606119632721
1761469356819232800,6.148232666015625,-0.45101305842399597,-0.4066992700099945,0.17252884805202484
1761469356829216800,6.158216796875,-0.38099563121795654,-0.02128446474671364,-0.09125486761331558
1761469356839199500,6.168199462890625,-0.3098997473716736,0.34736624360084534,-0.346128910779953
1761469356849181700,6.178181640625,-0.24974557757377625,0.6080740094184875,-0.5650218725204468
1761469356859165700,6.188165771484375,-0.20339465141296387,0.7213613986968994,-0.7129692435264587
1761469356869148400,6.1981484375,-0.15369313955307007,0.7143266797065735,-0.729921817779541
1761469356879131600,6.208131591796875,-0.09443074464797974,0.5841329097747803,-0.6243553757667542
1761469356889114600,6.218114501953125,-0.022105146199464798,0.37380173802375793,-0.4658493399620056
1761469356899098600,6.2280986328125,0.017886880785226822,0.1599142998456955,-0.3125627338886261
1761469356909081600,6.23808154296875,0.02713417448103428,0.05458122491836548,-0.16706624627113342
1761469356919064600,6.248064697265625,0.026605941355228424,0.056748583912849426,-0.07577937096357346
1761469356929048600,6.258048583984375,0.03880428522825241,0.12874022126197815,0.013167543336749077
1761469356939031600,6.268031494140625,0.08978929370641708,0.24399042129516602,0.059857986867427826
1761469356949014800,6.278014892578125,0.17307567596435547,0.35295313596725464,0.05090070888400078
1761469356958997500,6.28799755859375,0.28951194882392883,0.34383219480514526,0.010356418788433075
1761469356968981500,6.2979814453125,0.4048316180706024,0.2192963808774948,-0.0027362138498574495
1761469356978964500,6.307964599609375,0.482797235250473,0.044328153133392334,0.016142074018716812
1761469356988947700,6.31794775390625,0.5019935369491577,-0.13611193001270294,0.04608878865838051
1761469356998931700,6.327931640625,0.47319257259368896,-0.33125174045562744,0.07740579545497894
1761469357008914700,6.337914794921875,0.42025238275527954,-0.5199044942855835,0.0869087427854538
1761469357018897400,6.3478974609375,0.3620453178882599,-0.6454779505729675,0.09426336735486984
1761469357028880600,6.357880615234375,0.30428561568260193,-0.6766265630722046,0.07784124463796616
1761469357038864600,6.36786474609375,0.25428739190101624,-0.6143323183059692,0.041569482535123825
1761469357048847600,6.37784765625,0.211397185921669,-0.5097712874412537,-0.01497315801680088
1761469357058830600,6.38783056640625,0.18566100299358368,-0.39074432849884033,-0.06145583465695381
1761469357068814600,6.397814697265625,0.178146630525589,-0.252388060092926,-0.05548049882054329
1761469357078797600,6.407797607421875,0.18388086557388306,-0.11879444867372513,-0.041767753660678864
1761469357088780500,6.417780517578125,0.18574641644954681,-0.029314370825886726,-0.04066653549671173
1761469357098764500,6.4277646484375,0.186576247215271,0.01438130158931017,-0.07323405146598816
1761469357108747800,6.437747802734375,0.19709013402462006,0.03931647911667824,-0.11403714120388031
1761469357118730500,6.44773046875,0.21463394165039062,0.07648167014122009,-0.12921401858329773
1761469357128713700,6.457713623046875,0.23859918117523193,0.08996392786502838,-0.1246568113565445
1761469357138697700,6.46769775390625,0.28269529342651367,0.08013050258159637,-0.08760164678096771
1761469357148680700,6.4776806640625,0.32530561089515686,0.06251209229230881,-0.04849153012037277
1761469357158663400,6.487663330078125,0.3386654257774353,0.05055437982082367,-0.03284052386879921
1761469357168647400,6.4976474609375,0.3054121136665344,0.05188223347067833,-0.051221661269664764
1761469357178630700,6.507630615234375,0.23480947315692902,0.12984994053840637,-0.11432380974292755
1761469357188613600,6.517613525390625,0.1473211646080017,0.30305713415145874,-0.1998397707939148
1761469357198596600,6.5275966796875,0.05991809070110321,0.6170862913131714,-0.25178420543670654
1761469357208580600,6.53758056640625,-0.035587128251791,1.0054458379745483,-0.2616288661956787
1761469357218563600,6.5475634765625,-0.1130373552441597,1.36171293258667,-0.2313917577266693
1761469357228546600,6.557546630859375,-0.1591838151216507,1.5495814085006714,-0.21300262212753296
1761469357238530600,6.567530517578125,-0.21965479850769043,1.4957033395767212,-0.3012368083000183
1761469357248513800,6.577513671875,-0.2609820067882538,1.2704623937606812,-0.42672228813171387
1761469357258496500,6.58749658203125,-0.314859539270401,1.0598708391189575,-0.5409694910049438
1761469357268479500,6.5974794921875,-0.3375810980796814,0.875328779220581,-0.6122514009475708
1761469357278463500,6.60746337890625,-0.34289878606796265,0.7276830077171326,-0.5919305086135864
1761469357288446700,6.61744677734375,-0.34610602259635925,0.7086142897605896,-0.4763948321342468
1761469357298429400,6.627429443359375,-0.33137983083724976,0.715091347694397,-0.34741583466529846
1761469357308413400,6.637413330078125,-0.2967262268066406,0.6841893792152405,-0.21269211173057556
1761469357318396700,6.647396728515625,-0.23966817557811737,0.584043025970459,-0.10831690579652786
1761469357328379600,6.657379638671875,-0.14726607501506805,0.3609241545200348,-0.008126920089125633
1761469357338362600,6.667362548828125,-0.021692749112844467,0.04904784634709358,0.10214868932962418
1761469357348346600,6.6773466796875,0.10628172755241394,-0.2729834318161011,0.2174270749092102
1761469357358329600,6.68732958984375,0.2123454362154007,-0.5705984830856323,0.3254184424877167
1761469357368312600,6.6973125,0.2805788218975067,-0.8467767834663391,0.42098569869995117
1761469357378296600,6.707296630859375,0.3029191195964813,-1.024038553237915,0.5070077180862427
1761469357388279600,6.717279541015625,0.26810359954833984,-1.0795420408248901,0.5549856424331665
1761469357398262500,6.727262451171875,0.1914445459842682,-1.0865697860717773,0.5539036989212036
1761469357408245500,6.73724560546875,0.10438688099384308,-1.0207587480545044,0.5284355878829956
1761469357418229500,6.7472294921875,0.003264519153162837,-0.8754461407661438,0.473295658826828
1761469357428212700,6.757212646484375,-0.10537887364625931,-0.6780071258544922,0.42179250717163086
1761469357438195700,6.76719580078125,-0.205978661775589,-0.498031347990036,0.3760252892971039
1761469357448179700,6.7771796875,-0.2928227484226227,-0.34913960099220276,0.29823702573776245
1761469357458162400,6.787162353515625,-0.3354607820510864,-0.2494421750307083,0.2514097988605499
1761469357468145700,6.797145751953125,-0.37750571966171265,-0.17954698204994202,0.21842069923877716
1761469357478128600,6.807128662109375,-0.4102843105792999,-0.15769542753696442,0.19797950983047485
1761469357488112600,6.817112548828125,-0.4453655779361725,-0.1721755713224411,0.18742726743221283
1761469357498095600,6.827095703125,-0.4746097922325134,-0.2317502200603485,0.16783937811851501
1761469357508078600,6.83707861328125,-0.47519969940185547,-0.3584248125553131,0.1477160006761551
1761469357518062600,6.8470625,-0.4488575756549835,-0.53583824634552,0.14038971066474915
1761469357528045600,6.857045654296875,-0.42119187116622925,-0.7107807993888855,0.15038321912288666
1761469357538028800,6.86702880859375,-0.3900919556617737,-0.8753756284713745,0.16522684693336487
1761469357548011500,6.877011474609375,-0.37581315636634827,-1.068285346031189,0.15396326780319214
1761469357557995500,6.88699560546875,-0.36150768399238586,-1.2759796380996704,0.0863662138581276
1761469357567978500,6.896978515625,-0.3356531858444214,-1.4867960214614868,-0.01764380745589733
1761469357577961700,6.906961669921875,-0.3056005835533142,-1.665182113647461,-0.14460082352161407
1761469357587945700,6.91694580078125,-0.25854864716529846,-1.7275477647781372,-0.28334513306617737
1761469357597928400,6.926928466796875,-0.1965368688106537,-1.6673502922058105,-0.38501977920532227
1761469357607911700,6.93691162109375,-0.13639017939567566,-1.5469876527786255,-0.49480298161506653
1761469357617894700,6.946894775390625,-0.10285867005586624,-1.4339690208435059,-0.6280087232589722
1761469357627878700,6.956878662109375,-0.06802558898925781,-1.382193922996521,-0.7527077794075012
1761469357637861400,6.966861328125,-0.0393940806388855,-1.4178392887115479,-0.8801248073577881
1761469357647844600,6.9768447265625,-0.0636189877986908,-1.4583361148834229,-0.98563152551651
1761469357657828600,6.98682861328125,-0.1121189296245575,-1.3870494365692139,-1.0574713945388794
1761469357667811600,6.9968115234375,-0.16002652049064636,-1.096553921699524,-1.0410486459732056
1761469357677794800,7.006794921875,-0.20831558108329773,-0.6067463755607605,-0.931941568851471
1761469357687777500,7.016777587890625,-0.22411051392555237,-0.0062471856363117695,-0.7613592147827148
1761469357697761500,7.026761474609375,-0.17935611307621002,0.6322219371795654,-0.5669581890106201
1761469357707744500,7.03674462890625,-0.08267270773649216,1.2214665412902832,-0.3493478298187256
1761469357717727700,7.046727783203125,0.03844141587615013,1.6838231086730957,-0.14720408618450165
1761469357727711700,7.056711669921875,0.16197720170021057,1.9952805042266846,0.006413700524717569
1761469357737694500,7.066694580078125,0.28138968348503113,2.1320159435272217,0.12767650187015533
1761469357747677400,7.076677490234375,0.3842231035232544,2.132460117340088,0.2192452996969223
1761469357757660700,7.08666064453125,0.44642770290374756,2.012957811355591,0.27719253301620483
1761469357767644700,7.096644775390625,0.47144678235054016,1.842041254043579,0.32554569840431213
1761469357777627600,7.106627685546875,0.45651865005493164,1.5387599468231201,0.3428426682949066
1761469357787610600,7.116610595703125,0.42357346415519714,1.1189264059066772,0.3197397291660309
1761469357797594600,7.1265947265625,0.4062066078186035,0.6751829385757446,0.28523966670036316
1761469357807577600,7.13657763671875,0.43395915627479553,0.27461740374565125,0.3164343535900116
1761469357817560600,7.146560546875,0.41183120012283325,-0.1787756234407425,0.29232683777809143
1761469357827543600,7.15654345703125,0.39089131355285645,-0.5627927780151367,0.16360190510749817
1761469357837527600,7.166527587890625,0.3947474956512451,-0.87955641746521,0.07455669343471527
1761469357847510500,7.176510498046875,0.3877314031124115,-0.9660175442695618,0.053407467901706696
1761469357857493500,7.186493408203125,0.3702179789543152,-0.9023579359054565,0.028508508577942848
1761469357867477500,7.1964775390625,0.3664434850215912,-0.7308069467544556,0.01414448395371437
1761469357877460200,7.206460205078125,0.37511712312698364,-0.5375336408615112,0.0002958101686090231
1761469357887443200,7.216443115234375,0.4284123182296753,-0.3729420602321625,-0.04992155358195305
