time,seconds_elapsed,z,y,x
1761469300744828000,0.119827880859375,-0.012758040800690651,0.0668947696685791,-0.02889077365398407
1761469300754811100,0.12981103515625,-0.014751417562365532,0.05028555914759636,-0.02193351462483406
1761469300764794000,0.139794189453125,-0.011265339329838753,0.02169945277273655,-0.021825391799211502
1761469300774777000,0.149777099609375,0.005968996323645115,-0.011037880554795265,-0.03211747482419014
1761469300784760800,0.1597607421875,0.019461635500192642,-0.0236495453864336,-0.05076039955019951
1761469300794743300,0.169743408203125,0.026607606559991837,0.03847692161798477,-0.06055513396859169
1761469300804726000,0.17972607421875,0.031958963721990585,0.11508727818727493,-0.07679402828216553
1761469300814709200,0.189709228515625,0.03938496485352516,0.16884665191173553,-0.09777246415615082
1761469300824693200,0.199693359375,0.052952174097299576,0.186540424823761,-0.10215336084365845
1761469300834676200,0.20967626953125,0.07602007687091827,0.17297449707984924,-0.08540621399879456
1761469300844659500,0.219659423828125,0.09461693465709686,0.15989944338798523,-0.059965841472148895
1761469300854642200,0.22964208984375,0.10152938961982727,0.18201084434986115,-0.04149313271045685
1761469300864625200,0.239625244140625,0.10670684278011322,0.22046396136283875,-0.043710749596357346
1761469300874609200,0.249609130859375,0.09613155573606491,0.24949461221694946,-0.07979054749011993
1761469300884592400,0.25959228515625,0.07970277965068817,0.26598408818244934,-0.12736232578754425
1761469300894575000,0.2695751953125,0.07748192548751831,0.30720582604408264,-0.15916989743709564
1761469300904558000,0.27955810546875,0.08327803015708923,0.29544317722320557,-0.14595183730125427
1761469300914541300,0.289541259765625,0.09022045135498047,0.2573815882205963,-0.09346000850200653
1761469300924525300,0.299525390625,0.0884835422039032,0.24959582090377808,-0.048354580998420715
1761469300934508300,0.30950830078125,0.0889044925570488,0.25501519441604614,-0.027749281376600266
1761469300944491300,0.3194912109375,0.09732168167829514,0.2572447955608368,-0.023223239928483963
1761469300954474200,0.32947412109375,0.10911433398723602,0.27696728706359863,-0.012382072396576405
1761469300964458200,0.339458251953125,0.10808662325143814,0.3256629407405853,-0.014308868907392025
1761469300974441200,0.349441162109375,0.10255390405654907,0.3605126738548279,-0.029544329270720482
1761469300984424200,0.359424072265625,0.08840346336364746,0.43273574113845825,-0.05251942202448845
1761469300994407200,0.3694072265625,0.08178142458200455,0.5131718516349792,-0.07956606149673462
1761469301004390100,0.37939013671875,0.09611668437719345,0.565715491771698,-0.09918370842933655
1761469301014374100,0.3893740234375,0.11810450255870819,0.5968090891838074,-0.1189047172665596
1761469301024357400,0.399357421875,0.12694886326789856,0.5341646075248718,-0.1243002787232399
1761469301034340000,0.409340087890625,0.10995300859212875,0.4288395345211029,-0.10475032031536102
1761469301044323300,0.4193232421875,0.09021099656820297,0.32281723618507385,-0.07933976501226425
1761469301054307300,0.429307373046875,0.07055451720952988,0.24075770378112793,-0.05546453222632408
1761469301064290300,0.439290283203125,0.045459017157554626,0.17444606125354767,-0.05200934782624245
1761469301074273300,0.449273193359375,0.033363692462444305,0.11471080034971237,-0.0560917854309082
1761469301084256300,0.45925634765625,0.0406612865626812,0.07969209551811218,-0.07914996892213821
1761469301094239200,0.4692392578125,0.04915415123105049,0.06565909832715988,-0.10652182251214981
1761469301104223200,0.47922314453125,0.031117361038923264,0.08078984916210175,-0.1252174824476242
1761469301114206200,0.489206298828125,0.008373918943107128,0.09809330850839615,-0.14558321237564087
1761469301124189200,0.499189208984375,-0.020784499123692513,0.10336769372224808,-0.1549719125032425
1761469301134172200,0.509172119140625,-0.03640482574701309,0.10217604041099548,-0.17299287021160126
1761469301144156200,0.51915625,-0.037874091416597366,0.0954856425523758,-0.1862972229719162
1761469301154139400,0.529139404296875,-0.032601166516542435,0.09714820235967636,-0.19596333801746368
1761469301164122400,0.539122314453125,-0.012303884141147137,0.05237913504242897,-0.2126818597316742
1761469301174105000,0.54910498046875,0.0404449924826622,-0.01620997115969658,-0.21719783544540405
1761469301184088300,0.55908837890625,0.047560691833496094,-0.08039002120494843,-0.1972654014825821
1761469301194072300,0.569072265625,0.03754249960184097,-0.11600934714078903,-0.15743139386177063
1761469301204055300,0.57905517578125,-0.009189050644636154,-0.13010439276695251,-0.11524905264377594
1761469301214038000,0.5890380859375,-0.058121487498283386,-0.09330298751592636,-0.07967618852853775
1761469301224021200,0.599021240234375,-0.1111902967095375,-0.0022298023104667664,-0.0586385503411293
1761469301234005200,0.609005126953125,-0.16199719905853271,0.12959657609462738,-0.03928578272461891
1761469301243988200,0.61898828125,-0.184258833527565,0.30036911368370056,-0.015159940347075462
1761469301253971500,0.628971435546875,-0.19556044042110443,0.4692484140396118,0.006579791195690632
1761469301263954200,0.6389541015625,-0.1809293031692505,0.5484942197799683,-0.008124320767819881
1761469301273937200,0.648937255859375,-0.13602791726589203,0.520557165145874,-0.043884795159101486
1761469301283921200,0.658921142578125,-0.10123877227306366,0.4466363191604614,-0.04030949994921684
1761469301293904400,0.668904296875,-0.08038835227489471,0.34617921710014343,-0.027203019708395004
1761469301303887000,0.67888720703125,-0.04744558036327362,0.16851361095905304,-0.03114716149866581
1761469301313870000,0.6888701171875,-0.019906897097826004,-0.003800110425800085,-0.03835843503475189
1761469301323854000,0.69885400390625,-0.020652849227190018,-0.06963132321834564,-0.032903485000133514
1761469301333837300,0.70883740234375,-0.047796543687582016,-0.04516272246837616,-0.009492619894444942
1761469301343820300,0.7188203125,-0.06904217600822449,-0.03414469212293625,0.007053599692881107
1761469301353803300,0.72880322265625,-0.07945810258388519,-0.041329771280288696,0.004036674741655588
1761469301363786200,0.7387861328125,-0.09737186133861542,-0.06482443958520889,-0.01996772736310959
1761469301373770200,0.748770263671875,-0.09656443446874619,-0.06438343226909637,-0.05267728492617607
1761469301383753200,0.758753173828125,-0.08587024360895157,-0.07553568482398987,-0.0799669623374939
1761469301393736200,0.768736083984375,-0.06773505359888077,-0.0951748639345169,-0.07975583523511887
1761469301403719200,0.77871923828125,-0.049632478505373,-0.08974600583314896,-0.07079003751277924
1761469301413703200,0.788703125,-0.03184447064995766,-0.05781644210219383,-0.052310455590486526
1761469301423686100,0.79868603515625,-0.024802543222904205,-0.03631674125790596,-0.043508175760507584
1761469301433669400,0.80866943359375,-0.01123000867664814,-0.029563508927822113,-0.02992895245552063
1761469301443652000,0.818652099609375,-0.020943354815244675,-0.03693567216396332,0.006318534724414349
1761469301453635300,0.82863525390625,-0.034140076488256454,-0.03700780123472214,0.03656456619501114
1761469301463619300,0.838619384765625,-0.04467953369021416,-0.040889889001846313,0.07149192690849304
1761469301473602300,0.848602294921875,-0.05998906493186951,-0.03722836449742317,0.10133497416973114
1761469301483585000,0.8585849609375,-0.06346449255943298,-0.03262801840901375,0.09473752975463867
1761469301493568300,0.868568359375,-0.06589538604021072,-0.046824902296066284,0.0863395556807518
1761469301503552300,0.87855224609375,-0.06751405447721481,-0.05298319458961487,0.06967375427484512
1761469301513535200,0.88853515625,-0.0496707409620285,-0.03179248794913292,0.05623903125524521
1761469301523518200,0.898518310546875,-0.03533734381198883,-0.04412984848022461,0.05781349167227745
1761469301533501200,0.908501220703125,-0.027768902480602264,-0.05944422632455826,0.06560565531253815
1761469301543484200,0.918484130859375,-0.021044690161943436,-0.09335639327764511,0.09060581028461456
1761469301553468200,0.92846826171875,-0.03081081062555313,-0.12090467661619186,0.10716290026903152
1761469301563451400,0.938451416015625,-0.04228264465928078,-0.12919031083583832,0.11560618132352829
1761469301573434000,0.94843408203125,-0.04121972993016243,-0.1582925170660019,0.1352883130311966
1761469301583417000,0.9584169921875,-0.03570778667926788,-0.18261809647083282,0.1428690105676651
1761469301593400300,0.968400390625,-0.033267755061388016,-0.20471525192260742,0.14740148186683655
1761469301603384300,0.97838427734375,-0.03377934917807579,-0.20411843061447144,0.14552582800388336
1761469301613367300,0.9883671875,-0.018176820129156113,-0.19341035187244415,0.15375089645385742
1761469301623350000,0.99835009765625,-0.013394847512245178,-0.17120623588562012,0.164895698428154
1761469301633333200,1.008333251953125,-0.011533785611391068,-0.1276324987411499,0.1662944108247757
1761469301643317200,1.018317138671875,-0.021104387938976288,-0.06618911027908325,0.15620343387126923
1761469301653300200,1.02830029296875,-0.037291303277015686,-0.011702538467943668,0.1435188204050064
1761469301663283500,1.038283447265625,-0.03882608190178871,0.010410486720502377,0.13385207951068878
1761469301673266200,1.04826611328125,-0.05694534629583359,0.035479675978422165,0.11421585828065872
1761469301683249200,1.058249267578125,-0.05314501374959946,0.05351380258798599,0.08845403045415878
1761469301693233200,1.068233154296875,-0.05192062258720398,0.062123317271471024,0.046081189066171646
1761469301703216400,1.07821630859375,-0.04505472630262375,0.07952841371297836,0.0023938952945172787
1761469301713199000,1.08819921875,-0.041575223207473755,0.0763288140296936,-0.019396577030420303
1761469301723182000,1.09818212890625,-0.03463076055049896,0.061105385422706604,-0.02226879820227623
1761469301733166300,1.108166259765625,-0.020963285118341446,0.07001319527626038,-0.023575203493237495
1761469301743149300,1.1181494140625,-0.014340803027153015,0.12511612474918365,-0.0391395166516304
1761469301753132300,1.12813232421875,-0.025075027719140053,0.21454302966594696,-0.07499053329229355
1761469301763115300,1.138115234375,-0.028272952884435654,0.30942559242248535,-0.15140008926391602
1761469301773098200,1.14809814453125,-0.07073333114385605,0.43331146240234375,-0.22674065828323364
1761469301783082200,1.158082275390625,-0.1146954596042633,0.5493517518043518,-0.2855464518070221
1761469301793066200,1.168066162109375,-0.16147713363170624,0.6603766679763794,-0.326386034488678
1761469301803049000,1.178049072265625,-0.17754051089286804,0.705166220664978,-0.34395915269851685
1761469301813032200,1.1880322265625,-0.15976476669311523,0.6555975079536438,-0.3134590983390808
1761469301823016200,1.19801611328125,-0.10820755362510681,0.4856550395488739,-0.25734761357307434
1761469301832999200,1.207999267578125,-0.07509788870811462,0.3328213691711426,-0.1780848503112793
1761469301842982400,1.217982421875,-0.07788808643817902,0.22688375413417816,-0.10281086713075638
1761469301852965000,1.227965087890625,-0.08754169195890427,0.1690475344657898,-0.06123698130249977
1761469301862948000,1.237947998046875,-0.10365008562803268,0.15700924396514893,-0.050194982439279556
1761469301872932000,1.24793212890625,-0.1085544303059578,0.1592559516429901,-0.07171767204999924
1761469301882915300,1.257915283203125,-0.10301239788532257,0.1652105152606964,-0.10190753638744354
1761469301892898000,1.26789794921875,-0.09562096744775772,0.13194888830184937,-0.13251893222332
1761469301902881000,1.277881103515625,-0.10325651615858078,0.057864267379045486,-0.15623357892036438
1761469301912865300,1.287865234375,-0.11728516221046448,-0.02260228991508484,-0.15446677803993225
1761469301922848300,1.29784814453125,-0.11156682670116425,-0.03784675896167755,-0.11743712425231934
1761469301932831200,1.307831298828125,-0.1220477744936943,-0.0005268706008791924,-0.07741999626159668
1761469301942814200,1.317814208984375,-0.1374368667602539,0.04097742959856987,-0.04646607115864754
1761469301952797200,1.327797119140625,-0.15573841333389282,0.06697893142700195,-0.03803005814552307
1761469301962781200,1.33778125,-0.16476784646511078,0.05881473794579506,-0.03864338621497154
1761469301972764200,1.34776416015625,-0.15225379168987274,0.02807217463850975,-0.03194450959563255
1761469301982747100,1.3577470703125,-0.14112578332424164,-0.004702284000813961,-0.020694518461823463
1761469301992730000,1.367730224609375,-0.1261419802904129,0.016297457739710808,-0.029347963631153107
1761469302002713000,1.377713134765625,-0.12017517536878586,0.06000472605228424,-0.04121554270386696
1761469302012697300,1.387697265625,-0.11826512217521667,0.10883820801973343,-0.052246324717998505
1761469302022680300,1.397680419921875,-0.12319783121347427,0.1599743664264679,-0.06538210064172745
1761469302032663000,1.4076630859375,-0.13440577685832977,0.21627183258533478,-0.0741463303565979
1761469302042646300,1.417646240234375,-0.13881143927574158,0.26157593727111816,-0.08802779018878937
1761469302052630300,1.42763037109375,-0.13675296306610107,0.2947726845741272,-0.10611928254365921
1761469302062613200,1.43761328125,-0.1298481822013855,0.31583935022354126,-0.13622258603572845
1761469302072596000,1.447595947265625,-0.11821349710226059,0.31885677576065063,-0.16963742673397064
1761469302082579200,1.4575791015625,-0.1120314970612526,0.3154892325401306,-0.19233740866184235
1761469302092562200,1.467562255859375,-0.09636452049016953,0.3090846538543701,-0.20264583826065063
1761469302102546200,1.477546142578125,-0.08616834133863449,0.3100876212120056,-0.21485696732997894
1761469302112529200,1.487529052734375,-0.06189531832933426,0.3312627375125885,-0.22517599165439606
1761469302122512100,1.49751220703125,-0.044602878391742706,0.3702862858772278,-0.24311691522598267
1761469302132495000,1.5074951171875,-0.02961070090532303,0.41187217831611633,-0.2567918002605438
1761469302142479000,1.51747900390625,-0.010914778336882591,0.4550827741622925,-0.2655871510505676
1761469302152462300,1.52746240234375,0.0028338341508060694,0.48863035440444946,-0.26961222290992737
1761469302162445300,1.5374453125,0.0005666851066052914,0.5264967679977417,-0.2816917896270752
1761469302172428000,1.547427978515625,-0.0038120392709970474,0.571129560470581,-0.28867217898368835
1761469302182411300,1.557411376953125,-0.01670626737177372,0.5651137232780457,-0.27383196353912354
1761469302192395300,1.567395263671875,-0.01833368092775345,0.5260472297668457,-0.2474629431962967
1761469302202378200,1.577378173828125,-0.019499346613883972,0.48366856575012207,-0.22308462858200073
1761469302212361200,1.587361328125,-0.005628849379718304,0.46153366565704346,-0.21401844918727875
1761469302222344200,1.59734423828125,0.011253993958234787,0.454206258058548,-0.20709209144115448
1761469302232327200,1.6073271484375,0.020201416686177254,0.4466460645198822,-0.20056548714637756
1761469302242311200,1.617311279296875,0.02787930890917778,0.42726704478263855,-0.20656292140483856
1761469302252294400,1.62729443359375,0.04525461420416832,0.39155900478363037,-0.19685114920139313
1761469302262277000,1.637277099609375,0.07056823372840881,0.3726678788661957,-0.19041375815868378
1761469302272260000,1.647260009765625,0.1046459972858429,0.3697904050350189,-0.20258702337741852
1761469302282244000,1.657244140625,0.1524880826473236,0.37703555822372437,-0.23491540551185608
1761469302292227300,1.667227294921875,0.1974920928478241,0.35973700881004333,-0.23913437128067017
1761469302302210000,1.6772099609375,0.2354607880115509,0.35193634033203125,-0.22521455585956573
1761469302312193300,1.687193359375,0.24689696729183197,0.3178681433200836,-0.20713672041893005
1761469302322176300,1.69717626953125,0.26643577218055725,0.25472939014434814,-0.1966947317123413
1761469302332160300,1.70716015625,0.287678986787796,0.21468383073806763,-0.19038842618465424
1761469302342143200,1.717143310546875,0.3079648017883301,0.2090240716934204,-0.1773029863834381
1761469302352126200,1.727126220703125,0.32714420557022095,0.2105029970407486,-0.18076999485492706
1761469302362109200,1.737109130859375,0.34627076983451843,0.21014319360256195,-0.19688452780246735
1761469302372093200,1.74709326171875,0.36038145422935486,0.21949897706508636,-0.2238515168428421
1761469302382076200,1.757076171875,0.40679314732551575,0.2435837984085083,-0.22323845326900482
1761469302392059100,1.76705908203125,0.44432055950164795,0.1712542325258255,-0.23985238373279572
1761469302402042000,1.7770419921875,0.3723057508468628,-0.049077607691287994,-0.3188207149505615
1761469302412025000,1.787025146484375,0.3811532258987427,-0.1485644429922104,-0.3875481188297272
1761469302422009300,1.79700927734375,0.33696550130844116,-0.13251356780529022,-0.4416598379611969
1761469302431992300,1.806992431640625,0.26735466718673706,-0.08502694219350815,-0.4680246412754059
1761469302441975000,1.81697509765625,0.19406738877296448,-0.012198803946375847,-0.5114280581474304
1761469302451958300,1.826958251953125,0.11680252104997635,0.039089612662792206,-0.5664185881614685
1761469302461941200,1.836941162109375,0.0478503555059433,0.07243984192609787,-0.6269966959953308
1761469302471925200,1.84692529296875,-0.01649552583694458,0.09186593443155289,-0.6502832770347595
1761469302481908000,1.856907958984375,-0.07520117610692978,0.12693044543266296,-0.6237747073173523
1761469302491891200,1.86689111328125,-0.10982120782136917,0.1643286645412445,-0.5574528574943542
1761469302501874200,1.876874267578125,-0.114774689078331,0.1773989200592041,-0.47897860407829285
1761469302511858200,1.886858154296875,-0.10074346512556076,0.177544504404068,-0.3640863001346588
1761469302521841400,1.89684130859375,-0.057038865983486176,0.15893566608428955,-0.20498692989349365
1761469302531824000,1.90682421875,-0.014398371800780296,0.06547046452760696,-0.02557203732430935
1761469302541807000,1.91680712890625,0.02698635309934616,-0.0791303887963295,0.13429751992225647
1761469302551790300,1.926790283203125,0.05796344205737114,-0.14675870537757874,0.2639482021331787
1761469302561774300,1.9367744140625,0.08853626996278763,-0.13601604104042053,0.34097400307655334
1761469302571757000,1.946757080078125,0.12039459496736526,-0.1066269800066948,0.3584621548652649
1761469302581740000,1.956739990234375,0.12869566679000854,-0.10708025097846985,0.42320626974105835
1761469302591723300,1.96672314453125,0.1330634206533432,-0.13159961998462677,0.3915576934814453
1761469302601707300,1.976707275390625,0.11799447238445282,-0.144861102104187,0.4349685609340668
1761469302611690200,1.986690185546875,0.06600748002529144,-0.147487610578537,0.4816173017024994
1761469302621673200,1.996673095703125,0.00989707000553608,-0.11346760392189026,0.5268633365631104
1761469302631656200,2.00665625,-0.06768116354942322,-0.04169532656669617,0.5625908970832825
1761469302641639200,2.01663916015625,-0.09883775562047958,0.04215962812304497,0.5984786152839661
1761469302651623200,2.026623046875,-0.15410469472408295,0.08955858647823334,0.6011008024215698
1761469302661606100,2.036606201171875,-0.09026046842336655,0.1751459389925003,0.5775158405303955
1761469302671589000,2.046589111328125,-0.15371361374855042,0.13228321075439453,0.5187898874282837
1761469302681572000,2.056572021484375,-0.24644674360752106,0.03879507631063461,0.44313740730285645
1761469302691556000,2.06655615234375,-0.35131677985191345,0.0008556274697184563,0.335405558347702
1761469302701539300,2.076539306640625,-0.3836542069911957,0.058056335896253586,0.2619744837284088
1761469302711522000,2.08652197265625,-0.4042544364929199,0.1216265931725502,0.23661784827709198
1761469302721505300,2.09650537109375,-0.4596218168735504,0.15496617555618286,0.24389013648033142
1761469302731488300,2.10648828125,-0.497144490480423,0.1636737585067749,0.26616477966308594
1761469302741472300,2.11647216796875,-0.5110307335853577,0.16964510083198547,0.3156638741493225
1761469302751455000,2.126455078125,-0.5010548233985901,0.17788010835647583,0.3733532130718231
1761469302761438200,2.136438232421875,-0.49216175079345703,0.15632741153240204,0.41601279377937317
1761469302771421200,2.146421142578125,-0.49346545338630676,0.11977282166481018,0.4587780237197876
1761469302781404200,2.156404052734375,-0.5114703178405762,0.10524661093950272,0.4652897119522095
1761469302791388200,2.16638818359375,-0.5533342957496643,0.14745762944221497,0.4322420656681061
1761469302801370600,2.17637060546875,-0.6079685091972351,0.22161254286766052,0.3904924988746643
1761469302811353600,2.186353515625,-0.6390210390090942,0.23974624276161194,0.31685128808021545
1761469302821336800,2.1963369140625,-0.6521371006965637,0.19341310858726501,0.23747950792312622
1761469302831320800,2.20632080078125,-0.6321489214897156,0.1424407660961151,0.19009362161159515
1761469302841303800,2.2163037109375,-0.5701846480369568,0.13371305167675018,0.15961694717407227
1761469302851286500,2.22628662109375,-0.49490588903427124,0.13173417747020721,0.1420610547065735
1761469302861269800,2.236269775390625,-0.4368860125541687,0.0807223916053772,0.1575862169265747
1761469302871252700,2.246252685546875,-0.3525020480155945,-0.02174452878534794,0.1868976354598999
1761469302881236700,2.25623681640625,-0.2553429901599884,-0.19727320969104767,0.19079171121120453
1761469302891219700,2.2662197265625,-0.1793181598186493,-0.28887152671813965,0.20980146527290344
1761469302901202700,2.27620263671875,-0.14291514456272125,-0.24768227338790894,0.22150711715221405
1761469302911185700,2.286185546875,-0.13957154750823975,-0.1563052237033844,0.2225353717803955
1761469302921169000,2.2961689453125,-0.15705840289592743,-0.0494496189057827,0.22550132870674133
1761469302931153000,2.30615283203125,-0.16353711485862732,-0.011947942897677422,0.18874754011631012
1761469302941135600,2.316135498046875,-0.13603970408439636,0.018898651003837585,0.14203914999961853
1761469302951118600,2.32611865234375,-0.10171050578355789,-0.02239726111292839,0.10779757797718048
1761469302961101800,2.336101806640625,-0.04407224431633949,-0.10560400038957596,0.10442841798067093
1761469302971085800,2.3460859375,0.06316331028938293,-0.2932751178741455,0.14961333572864532
1761469302981068500,2.356068603515625,0.19443665444850922,-0.3935559093952179,0.23341210186481476
1761469302991051800,2.3660517578125,0.32759302854537964,-0.4939025640487671,0.31127381324768066
1761469303001034800,2.37603466796875,0.4539666771888733,-0.6148263216018677,0.40397363901138306
1761469303011017700,2.386017822265625,0.5205405950546265,-0.7715039253234863,0.44084423780441284
1761469303021001700,2.396001708984375,0.5729002356529236,-0.8855583667755127,0.45461413264274597
1761469303030984700,2.405984619140625,0.5694487690925598,-0.8807678818702698,0.43448173999786377
1761469303040967700,2.4159677734375,0.5393790006637573,-0.7586265206336975,0.40478911995887756
1761469303050950700,2.42595068359375,0.49699991941452026,-0.6191906929016113,0.3805410861968994
1761469303060934700,2.4359345703125,0.46269547939300537,-0.5166872143745422,0.3684130609035492
1761469303070918000,2.44591796875,0.4406295716762543,-0.46579405665397644,0.34968993067741394
1761469303080900600,2.455900634765625,0.40505269169807434,-0.44259288907051086,0.31264936923980713
1761469303090883800,2.4658837890625,0.3617897033691406,-0.4495004415512085,0.24249140918254852
1761469303100866800,2.47586669921875,0.35120922327041626,-0.5019474029541016,0.17254935204982758
1761469303110850800,2.485850830078125,0.3638094365596771,-0.5781762599945068,0.10845527052879333
1761469303120833500,2.49583349609375,0.37064629793167114,-0.6216526031494141,0.055920153856277466
1761469303130816800,2.505816650390625,0.37182459235191345,-0.6060863733291626,0.0021076661068946123
1761469303140799700,2.5157998046875,0.37402409315109253,-0.5729968547821045,-0.04905804991722107
1761469303150783700,2.52578369140625,0.36026453971862793,-0.5242621302604675,-0.12364080548286438
1761469303160766700,2.5357666015625,0.32127636671066284,-0.5447854995727539,-0.22317591309547424
1761469303170749700,2.545749755859375,0.2647969424724579,-0.5951080322265625,-0.3288308382034302
1761469303180732700,2.555732666015625,0.1944253295660019,-0.6173126697540283,-0.4516046941280365
1761469303190716000,2.5657158203125,0.11917393654584885,-0.6201657056808472,-0.5678412914276123
1761469303200700000,2.575699951171875,0.06435942649841309,-0.5968537330627441,-0.6670517921447754
1761469303210682600,2.5856826171875,0.03701191395521164,-0.5205647349357605,-0.7312542200088501
1761469303220665600,2.59566552734375,0.02870870940387249,-0.3643397092819214,-0.754641056060791
1761469303230648800,2.60564892578125,0.019871585071086884,-0.14518961310386658,-0.7510279417037964
1761469303240631800,2.6156318359375,0.021153897047042847,0.02145262435078621,-0.749115526676178
1761469303250615800,2.62561572265625,0.04398606717586517,0.04893795773386955,-0.7618888020515442
1761469303260598800,2.635598876953125,0.08017788827419281,-0.08901911228895187,-0.7898277640342712
1761469303270581800,2.645581787109375,0.11481354385614395,-0.3529026210308075,-0.830117404460907
1761469303280564700,2.655564697265625,0.157088041305542,-0.615090012550354,-0.867696225643158
1761469303290548700,2.665548828125,0.18324773013591766,-0.6966514587402344,-0.8784418106079102
1761469303300531700,2.67553173828125,0.1762731671333313,-0.5247630476951599,-0.8713367581367493
1761469303310514700,2.6855146484375,0.13805556297302246,-0.19790273904800415,-0.8561792969703674
1761469303320497700,2.69549755859375,0.07768543809652328,0.28370916843414307,-0.7938104271888733
1761469303330481000,2.70548095703125,0.023645196110010147,0.8394826650619507,-0.6802073121070862
1761469303340465000,2.71546484375,-0.010603055357933044,1.338860273361206,-0.4895569980144501
1761469303350447600,2.725447509765625,-0.022425539791584015,1.7021862268447876,-0.30236464738845825
1761469303360430600,2.7354306640625,-0.03334582969546318,1.8711868524551392,-0.1656544804573059
1761469303370413800,2.745413818359375,-0.04845651984214783,1.8747013807296753,-0.03443726524710655
1761469303380397800,2.755397705078125,-0.02421615831553936,1.6550794839859009,0.07551959156990051
1761469303390380500,2.765380615234375,0.01966235041618347,1.3466254472732544,0.15148761868476868
1761469303400363800,2.77536376953125,-0.019307952374219894,1.0192105770111084,0.17611439526081085
1761469303410346800,2.7853466796875,-0.04026947170495987,0.9505219459533691,0.27279961109161377
1761469303420329700,2.795329833984375,-0.13224759697914124,1.0186946392059326,0.3491359353065491
1761469303430313700,2.805313720703125,-0.22683539986610413,1.0939711332321167,0.41218632459640503
1761469303440296700,2.815296630859375,-0.31933340430259705,1.03650963306427,0.4505363702774048
1761469303450279700,2.82527978515625,-0.37053579092025757,0.9059106707572937,0.49215859174728394
1761469303460262700,2.8352626953125,-0.38158339262008667,0.8111143708229065,0.5409040451049805
1761469303470246000,2.845245849609375,-0.37446773052215576,0.8302056789398193,0.5890941619873047
1761469303480229600,2.855229736328125,-0.38016635179519653,0.9592443108558655,0.6261451244354248
1761469303490212600,2.865212646484375,-0.369074285030365,1.1511861085891724,0.639654815196991
1761469303500195800,2.87519580078125,-0.349383682012558,1.3335556983947754,0.6515769958496094
1761469303510178800,2.8851787109375,-0.3072226345539093,1.4605730772018433,0.6675034761428833
1761469303520162800,2.895162841796875,-0.2737872004508972,1.5436586141586304,0.7124552130699158
1761469303530145500,2.9051455078125,-0.2583179175853729,1.6217572689056396,0.7636532187461853
1761469303540128800,2.915128662109375,-0.26585519313812256,1.586301565170288,0.7888935804367065
1761469303550111700,2.92511181640625,-0.27986034750938416,1.497872233390808,0.7916288375854492
1761469303560094700,2.9350947265625,-0.30003592371940613,1.3896125555038452,0.760499119758606
1761469303570078700,2.94507861328125,-0.32758447527885437,1.2134959697723389,0.7134266495704651
1761469303580061700,2.955061767578125,-0.36135333776474,1.0285128355026245,0.6564653515815735
1761469303590044700,2.965044677734375,-0.38741716742515564,0.9071521162986755,0.6235721707344055
1761469303600028000,2.97502783203125,-0.396508127450943,0.8279494643211365,0.588854968547821
1761469303610012000,2.985011962890625,-0.41007548570632935,0.7521473169326782,0.5433225035667419
1761469303619994600,2.99499462890625,-0.4264978766441345,0.7179091572761536,0.5007513165473938
1761469303629977600,3.0049775390625,-0.4848579466342926,0.7206935286521912,0.40394559502601624
1761469303639960800,3.0149609375,-0.5603830218315125,0.6735379695892334,0.31231874227523804
1761469303649943800,3.02494384765625,-0.5968896150588989,0.6212368607521057,0.2921714186668396
1761469303659927800,3.034927734375,-0.5729179382324219,0.6074789762496948,0.3255093991756439
1761469303669910800,3.044910888671875,-0.5132821798324585,0.508029043674469,0.3802688717842102
1761469303679893800,3.054893798828125,-0.44633641839027405,0.34118813276290894,0.4051097631454468
1761469303689876700,3.064876708984375,-0.33105218410491943,0.2433921843767166,0.38075146079063416
1761469303699859700,3.074859619140625,-0.18992461264133453,0.18907888233661652,0.3079342544078827
1761469303709843700,3.08484375,-0.050572752952575684,0.15052485466003418,0.2133176177740097
1761469303719826700,3.09482666015625,0.11142520606517792,0.183341383934021,0.11167596280574799
1761469303729809700,3.1048095703125,0.28986772894859314,0.26095807552337646,0.019590018317103386
1761469303739793000,3.11479296875,0.4607502818107605,0.27727341651916504,-0.051361121237277985
1761469303749777000,3.12477685546875,0.611247181892395,0.1436941921710968,-0.14820986986160278
1761469303759759600,3.134759521484375,0.7333472371101379,-0.010074067860841751,-0.3162183165550232
1761469303769742800,3.144742919921875,0.8266701102256775,-0.11023885756731033,-0.40898779034614563
1761469303779725800,3.154725830078125,0.8893433213233948,-0.22939641773700714,-0.39593935012817383
1761469303789708500,3.16470849609375,0.9282355904579163,-0.32703083753585815,-0.2708778381347656
1761469303799695600,3.174695556640625,0.9431543350219727,-0.3711317181587219,-0.14316622912883759
1761469303809678800,3.184678955078125,0.9359045028686523,-0.3460554778575897,-0.03596566617488861
1761469303819661600,3.19466162109375,0.9262955784797668,-0.2791171967983246,0.04003269225358963
1761469303829644800,3.204644775390625,0.8931768536567688,-0.21039533615112305,0.06212640181183815
1761469303839627800,3.214627685546875,0.8435405492782593,-0.20484210550785065,0.0437639094889164
1761469303849611800,3.22461181640625,0.8016068935394287,-0.2637864053249359,0.0046050092205405235
1761469303859594500,3.234594482421875,0.7458107471466064,-0.35515493154525757,-0.052749890834093094
1761469303869577700,3.24457763671875,0.6709578037261963,-0.4312896132469177,-0.11014348268508911
1761469303879560700,3.254560791015625,0.5631898045539856,-0.46522361040115356,-0.19283302128314972
1761469303889544700,3.264544677734375,0.46973684430122375,-0.45918959379196167,-0.3022899627685547
1761469303899527700,3.274527587890625,0.3761134147644043,-0.40541160106658936,-0.41967546939849854
1761469303909510700,3.2845107421875,0.2900436818599701,-0.32170459628105164,-0.5400277972221375
1761469303919493600,3.29449365234375,0.21824805438518524,-0.30798080563545227,-0.6460157632827759
1761469303929476900,3.304476806640625,0.17367829382419586,-0.36721330881118774,-0.7361988425254822
1761469303939460900,3.3144609375,0.13844892382621765,-0.4517329931259155,-0.8052253127098083
1761469303949443600,3.324443603515625,0.1120537519454956,-0.5292383432388306,-0.8630772233009338
1761469303959426600,3.334426513671875,0.11916998773813248,-0.5389748215675354,-0.9182499051094055
1761469303969409800,3.344409912109375,0.14659161865711212,-0.4727250635623932,-0.9914515018463135
1761469303979393800,3.354393798828125,0.16054046154022217,-0.32224419713020325,-1.0698059797286987
1761469303989376800,3.364376708984375,0.14848215878009796,-0.16693268716335297,-1.1627764701843262
1761469303999359500,3.374359375,0.15207982063293457,-0.03610702231526375,-1.2512022256851196
1761469304009342700,3.3843427734375,0.19052796065807343,0.06836216151714325,-1.2937971353530884
1761469304019325700,3.39432568359375,0.17408162355422974,0.1596345454454422,-1.2787292003631592
1761469304029309700,3.404309814453125,0.13686087727546692,0.24203044176101685,-1.1821659803390503
1761469304039292700,3.414292724609375,0.09850550442934036,0.3032165765762329,-0.9713774919509888
1761469304049275600,3.424275634765625,0.0717950165271759,0.30330750346183777,-0.6241064667701721
1761469304059258600,3.434258544921875,0.035101715475320816,0.2586766481399536,-0.2518913149833679
1761469304069242600,3.44424267578125,-0.01775706186890602,0.18712332844734192,0.015781039372086525
1761469304079225900,3.454225830078125,-0.0813048779964447,0.16710859537124634,0.19946511089801788
1761469304089208600,3.46420849609375,-0.1037590503692627,0.21140681207180023,0.3548688590526581
1761469304099191600,3.474191650390625,-0.09461908042430878,0.23648206889629364,0.4801064133644104
1761469304109174800,3.4841748046875,-0.08715415745973587,0.2591158151626587,0.6167891621589661
1761469304119158800,3.49415869140625,-0.06779590249061584,0.2662453353404999,0.7762669920921326
1761469304129141500,3.5041416015625,-0.06860820949077606,0.27217739820480347,0.9155497550964355
1761469304139124700,3.514124755859375,-0.09999942779541016,0.3013046383857727,0.9855019450187683
1761469304149107700,3.524107666015625,-0.1623239517211914,0.32792019844055176,0.9909015893936157
1761469304159090700,3.534090576171875,-0.24186111986637115,0.3471527397632599,0.9376439452171326
1761469304169074700,3.54407470703125,-0.3002382814884186,0.38824379444122314,0.8265389204025269
1761469304179057700,3.5540576171875,-0.36491209268569946,0.4761965274810791,0.6955183148384094
1761469304189040600,3.56404052734375,-0.4363822937011719,0.5981438755989075,0.5749751329421997
1761469304199023600,3.574023681640625,-0.49731889367103577,0.6994603872299194,0.473969429731369
1761469304209007600,3.584007568359375,-0.5420078635215759,0.7366088628768921,0.4050717055797577
1761469304218990800,3.593990966796875,-0.566372811794281,0.7138950824737549,0.3705504834651947
1761469304228973600,3.6039736328125,-0.5765902400016785,0.7017834186553955,0.3815753757953644
1761469304238956800,3.613956787109375,-0.5787751078605652,0.7079867720603943,0.42769521474838257
1761469304248939800,3.623939697265625,-0.5734133124351501,0.7251404523849487,0.49149951338768005
1761469304258923800,3.633923828125,-0.5601480603218079,0.7123921513557434,0.5482381582260132
1761469304268906500,3.643906494140625,-0.5294501781463623,0.6388261914253235,0.6041674017906189
1761469304278889700,3.6538896484375,-0.4855666160583496,0.44248491525650024,0.6555134057998657
1761469304288872700,3.663872802734375,-0.4332111179828644,0.11662086844444275,0.7058602571487427
1761469304298856700,3.673856689453125,-0.34805548191070557,-0.2212647646665573,0.7776140570640564
1761469304308839700,3.683839599609375,-0.2851438820362091,-0.4956534504890442,0.8673743605613708
1761469304318822700,3.69382275390625,-0.25868964195251465,-0.6389762163162231,0.879321277141571
1761469304328805600,3.7038056640625,-0.28459346294403076,-0.5907869935035706,0.7638084292411804
1761469304338788900,3.713788818359375,-0.3558327555656433,-0.3295690417289734,0.5679106116294861
1761469304348772900,3.72377294921875,-0.4730209410190582,0.0510624498128891,0.3821936845779419
1761469304358755600,3.733755615234375,-0.5874476432800293,0.1870083063840866,0.2476276159286499
1761469304368738600,3.743738525390625,-0.6881083250045776,0.08377064764499664,0.23200996220111847
1761469304378721800,3.7537216796875,-0.7533512115478516,-0.10647439956665039,0.2408876121044159
1761469304388705800,3.763705810546875,-0.7335771322250366,-0.15622776746749878,0.24724175035953522
1761469304398688800,3.773688720703125,-0.6063792705535889,0.02845659852027893,0.2952553629875183
1761469304408671700,3.783671630859375,-0.4251708984375,0.26066675782203674,0.3407178819179535
1761469304418654700,3.79365478515625,-0.17173437774181366,0.4124605655670166,0.4269411861896515
1761469304428637700,3.8036376953125,0.01967504248023033,0.5708388090133667,0.6968755125999451
1761469304438621700,3.81362158203125,0.17468327283859253,0.5908061265945435,0.5486881732940674
1761469304448604700,3.823604736328125,0.3441851735115051,0.403387188911438,0.24224986135959625
1761469304458587600,3.833587646484375,0.5060217380523682,0.17553164064884186,-0.05156231299042702
1761469304468570600,3.843570556640625,0.6008307933807373,-0.04372306540608406,-0.26070889830589294
1761469304478554600,3.8535546875,0.6576282978057861,-0.13225558400154114,-0.3610003590583801
1761469304488537900,3.863537841796875,0.6744586229324341,-0.15203455090522766,-0.3164566457271576
1761469304498520600,3.8735205078125,0.6365756392478943,-0.13313835859298706,-0.23634260892868042
1761469304508503600,3.883503662109375,0.547380805015564,-0.1022615134716034,-0.16634999215602875
1761469304518486800,3.89348681640625,0.44114118814468384,-0.05218397080898285,-0.11358451843261719
1761469304528470800,3.903470703125,0.34910154342651367,0.027541739866137505,-0.0831698477268219
1761469304538453500,3.91345361328125,0.2540450692176819,0.10207962244749069,-0.06471920758485794
1761469304548436700,3.923436767578125,0.18819108605384827,0.1359642744064331,-0.08106978982686996
1761469304558419700,3.933419677734375,0.14622631669044495,0.16160918772220612,-0.16313697397708893
1761469304568403700,3.94340380859375,0.126196026802063,0.21939252316951752,-0.2855125367641449
1761469304578386700,3.95338671875,0.1307511031627655,0.27366718649864197,-0.41955316066741943
1761469304588369700,3.96336962890625,0.13243509829044342,0.32383134961128235,-0.5443692803382874
1761469304598352600,3.9733525390625,0.14433489739894867,0.3794456124305725,-0.6488858461380005
1761469304608335600,3.983335693359375,0.15859732031822205,0.46020591259002686,-0.7290958762168884
1761469304618320000,3.99331982421875,0.16267170011997223,0.5334388613700867,-0.7634759545326233
1761469304628301600,4.003301513671875,0.13996830582618713,0.6106449961662292,-0.7431406378746033
1761469304638284800,4.013284912109375,0.08362779021263123,0.6637511253356934,-0.6761117577552795
1761469304648267800,4.023267822265625,0.01715192198753357,0.5586712956428528,-0.6000691056251526
1761469304658251800,4.033251708984375,-0.06662313640117645,0.35636505484580994,-0.5747749209403992
1761469304668234500,4.043234375,-0.13709019124507904,0.1124396026134491,-0.6154891848564148
1761469304678217700,4.0532177734375,-0.18631820380687714,-0.08757498115301132,-0.6862919926643372
1761469304688200700,4.06320068359375,-0.19244903326034546,-0.24963365495204926,-0.7720917463302612
1761469304698183700,4.07318359375,-0.16980388760566711,-0.39242810010910034,-0.906379759311676
1761469304708167700,4.083167724609375,-0.10929954051971436,-0.4750406742095947,-1.0743197202682495
1761469304718150700,4.093150634765625,-0.05284185707569122,-0.4806098937988281,-1.2089086771011353
1761469304728133600,4.103133544921875,0.028403688222169876,-0.42668968439102173,-1.237194538116455
1761469304738116900,4.113116943359375,0.12212592363357544,-0.41605836153030396,-1.1052868366241455
1761469304748100900,4.123100830078125,0.24422003328800201,-0.46100151538848877,-0.7992292642593384
1761469304758083600,4.13308349609375,0.3177560567855835,-0.4219678044319153,-0.37539994716644287
1761469304768066600,4.143066650390625,0.2983512282371521,-0.245381161570549,0.03256439045071602
1761469304778049800,4.1530498046875,0.20405776798725128,-0.016063006594777107,0.3505189120769501
1761469304788032800,4.16303271484375,0.13523204624652863,0.16339990496635437,0.5906646847724915
1761469304798013400,4.173013427734375,0.09178842604160309,0.262016236782074,0.7828421592712402
1761469304807996400,4.182996337890625,0.06187140941619873,0.3102138042449951,0.9346394538879395
1761469304817979600,4.192979736328125,0.01831354759633541,0.3100510835647583,1.0307527780532837
1761469304827962600,4.202962646484375,-0.012572020292282104,0.24176906049251556,1.0736883878707886
1761469304837946600,4.212946533203125,-0.03745047003030777,0.13384659588336945,1.06791090965271
1761469304847929600,4.2229296875,-0.05117551609873772,0.056157030165195465,0.9929994344711304
1761469304857912600,4.23291259765625,-0.07034255564212799,0.025642266497015953,0.8636393547058105
1761469304867895600,4.2428955078125,-0.10219639539718628,0.021318059414625168,0.7157214879989624
1761469304877878800,4.252878662109375,-0.1438855230808258,0.0555143803358078,0.5679919719696045
1761469304887862500,4.262862548828125,-0.16951195895671844,0.07969700545072556,0.43708035349845886
1761469304897845500,4.272845458984375,-0.18741825222969055,0.06713487207889557,0.3492825925350189
1761469304907828500,4.282828369140625,-0.2028811126947403,0.04086729884147644,0.32300761342048645
1761469304917811700,4.292811767578125,-0.21733301877975464,0.021364707499742508,0.36240535974502563
1761469304927794400,4.30279443359375,-0.2710582911968231,0.050762806087732315,0.43518635630607605
1761469304937778400,4.3127783203125,-0.35724353790283203,0.13335728645324707,0.49583691358566284
1761469304947761400,4.322761474609375,-0.4327649176120758,0.1920001059770584,0.5142592787742615
1761469304957744600,4.33274462890625,-0.4853426516056061,0.19903564453125,0.5145426392555237
1761469304967727600,4.3427275390625,-0.5082581639289856,0.17777211964130402,0.5086892247200012
1761469304977711600,4.352711669921875,-0.505396842956543,0.137294203042984,0.5178254842758179
1761469304987694600,4.362694580078125,-0.4727934002876282,0.09867381304502487,0.54854816198349
1761469304997677600,4.372677490234375,-0.4129870533943176,0.06485006958246231,0.5862873196601868
1761469305007660500,4.38266064453125,-0.32265135645866394,0.01276792585849762,0.5900290608406067
1761469305017643500,4.3926435546875,-0.22706519067287445,-0.057839930057525635,0.5543394684791565
1761469305027627500,4.40262744140625,-0.15190456807613373,-0.1080295592546463,0.47826048731803894
1761469305037610500,4.412610595703125,-0.09269930422306061,-0.12408282607793808,0.3658199608325958
1761469305047593500,4.422593505859375,-0.08661544322967529,-0.16594910621643066,0.27902287244796753
1761469305057576700,4.43257666015625,-0.15380273759365082,-0.18986642360687256,0.25230735540390015
1761469305067560700,4.442560791015625,-0.2619471251964569,-0.183000847697258,0.27270233631134033
1761469305077543400,4.45254345703125,-0.3977193236351013,-0.21507249772548676,0.33350229263305664
1761469305087526700,4.462526611328125,-0.47144442796707153,-0.3674987554550171,0.3475482761859894
1761469305097509600,4.472509521484375,-0.5170473456382751,-0.5669375658035278,0.261314332485199
1761469305107492400,4.482492431640625,-0.4941325783729553,-0.6298695802688599,0.1798856407403946
1761469305117476400,4.492476318359375,-0.46354910731315613,-0.46541672945022583,0.15360715985298157
1761469305127459600,4.50245947265625,-0.41272497177124023,-0.1906750351190567,0.14054663479328156
1761469305137442600,4.512442626953125,-0.31539762020111084,0.05299355834722519,0.11772360652685165
1761469305147425500,4.522425537109375,-0.20169751346111298,0.18403513729572296,0.05292776972055435
1761469305157409800,4.532409912109375,-0.08889506757259369,0.23811115324497223,-0.04775436595082283
1761469305167392500,4.542392578125,0.025520505383610725,0.2957881987094879,-0.17285369336605072
1761469305177375500,4.55237548828125,0.14057011902332306,0.33637478947639465,-0.28216099739074707
1761469305187358700,4.562358642578125,0.23852118849754333,0.3043973743915558,-0.3493759334087372
1761469305197341700,4.572341796875,0.3426789939403534,0.24547894299030304,-0.3613910377025604
1761469305207326700,4.58232666015625,0.43941429257392883,0.17435896396636963,-0.34938403964042664
1761469305217310700,4.592310791015625,0.5565316081047058,0.1253938227891922,-0.3416723310947418
1761469305227293400,4.60229345703125,0.5478188395500183,0.10497605800628662,-0.28807032108306885
1761469305237276700,4.612276611328125,0.43201956152915955,0.10892951488494873,-0.27218616008758545
1761469305247259600,4.622259765625,0.42144978046417236,0.1784345656633377,-0.2768135964870453
1761469305257243600,4.63224365234375,0.4392665922641754,0.20662066340446472,-0.26422056555747986
1761469305267226400,4.642226318359375,0.4499480426311493,0.15845489501953125,-0.24172161519527435
1761469305277209600,4.652209716796875,0.45800918340682983,0.07490487396717072,-0.23522403836250305
1761469305287192600,4.662192626953125,0.48028677701950073,0.009848527610301971,-0.2845868170261383
1761469305297175600,4.672175537109375,0.5095218420028687,-0.02958090230822563,-0.36693817377090454
1761469305307159600,4.68215966796875,0.5235770344734192,-0.08252038806676865,-0.4935726821422577
1761469305317142500,4.692142578125,0.5164967775344849,-0.1285049319267273,-0.6517937183380127
1761469305327125500,4.70212548828125,0.43953317403793335,-0.15609042346477509,-0.8112711310386658
1761469305337108700,4.712108642578125,0.35597941279411316,-0.21222533285617828,-0.9476596117019653
1761469305347092700,4.7220927734375,0.2645860016345978,-0.29482415318489075,-1.0208587646484375
1761469305357075500,4.732075439453125,0.16747568547725677,-0.40076762437820435,-1.0373789072036743
1761469305367058400,4.742058349609375,0.10537862777709961,-0.5325355529785156,-0.99483722448349
1761469305377041700,4.752041748046875,0.08302006125450134,-0.6483687162399292,-0.9222277402877808
1761469305387024600,4.762024658203125,0.10942526161670685,-0.7175230979919434,-0.84778892993927
1761469305397008600,4.772008544921875,0.17800138890743256,-0.7355151772499084,-0.8256258368492126
1761469305406991400,4.781991455078125,0.2856851816177368,-0.7523003220558167,-0.8834527134895325
1761469305416974600,4.791974609375,0.44081273674964905,-0.8546251058578491,-1.013247013092041
1761469305426957600,4.80195751953125,0.628240704536438,-0.9849595427513123,-1.206684947013855
1761469305436941600,4.811941650390625,0.8719529509544373,-0.9507959485054016,-1.3214043378829956
1761469305446924500,4.821924560546875,0.9177289605140686,-0.7504224181175232,-1.3072136640548706
1761469305456907500,4.831907470703125,0.8320260643959045,-0.5146878957748413,-1.1673635244369507
1761469305466890500,4.841890380859375,0.7023801803588867,-0.29670923948287964,-0.9170666337013245
1761469305476873700,4.851873779296875,0.5565159320831299,-0.15134748816490173,-0.5450270771980286
1761469305486857700,4.861857666015625,0.4164268374443054,-0.06938664615154266,-0.1570616066455841
1761469305496840400,4.87184033203125,0.3103179931640625,-0.08129391074180603,0.17900589108467102
1761469305506823400,4.881823486328125,0.2487095594406128,-0.14887943863868713,0.41236627101898193
1761469305516806700,4.891806640625,0.2168450951576233,-0.16509754955768585,0.5625296831130981
1761469305526790700,4.901790771484375,0.17241638898849487,-0.1328585147857666,0.6283563375473022
1761469305536773600,4.911773681640625,0.11048590391874313,-0.0912088081240654,0.6520339846611023
1761469305546756600,4.921756591796875,0.058790091425180435,-0.1027117595076561,0.6396265029907227
1761469305556739600,4.931739501953125,0.02896321751177311,-0.13438819348812103,0.6012631058692932
1761469305566722600,4.94172265625,0.001719523686915636,-0.12793071568012238,0.5316404700279236
1761469305576706600,4.95170654296875,-0.04681498929858208,-0.07681320607662201,0.44510772824287415
1761469305586689500,4.961689453125,-0.0999443382024765,0.01078292541205883,0.33245137333869934
1761469305596672500,4.971672607421875,-0.14621862769126892,0.11893469095230103,0.22165773808956146
1761469305606655500,4.981655517578125,-0.1717095524072647,0.21488533914089203,0.15440072119235992
1761469305616639500,4.991639404296875,-0.1888805627822876,0.3035148084163666,0.12079590559005737
1761469305626622700,5.001622802734375,-0.19782385230064392,0.3763662874698639,0.1047302782535553
1761469305636605400,5.01160546875,-0.19596683979034424,0.4331989586353302,0.11502952128648758
1761469305646588700,5.021588623046875,-0.1927144080400467,0.46938633918762207,0.11694611608982086
1761469305656571600,5.031571533203125,-0.1678285002708435,0.49098697304725647,0.1171162948012352
1761469305666555600,5.0415556640625,-0.1430535614490509,0.49029168486595154,0.10623098164796829
1761469305676538400,5.051538330078125,-0.1152605339884758,0.47099441289901733,0.10308685898780823
1761469305686521600,5.061521484375,-0.09990750253200531,0.46408557891845703,0.12071635574102402
1761469305696504600,5.071504638671875,-0.0802493765950203,0.49614816904067993,0.15874816477298737
1761469305706487600,5.081487548828125,-0.06412544846534729,0.5356860160827637,0.17846952378749847
1761469305716471600,5.091471435546875,-0.06850767880678177,0.46471092104911804,0.13393934071063995
1761469305726454500,5.10145458984375,-0.0370074100792408,0.2955405116081238,0.08030390739440918
1761469305736437500,5.1114375,0.002293124096468091,0.01383211649954319,0.030426891520619392
1761469305746420700,5.121420654296875,0.04097185283899307,-0.2946808338165283,-0.01928810402750969
1761469305756404700,5.13140478515625,0.06790786236524582,-0.5001154541969299,-0.03620317205786705
1761469305766387500,5.141387451171875,0.06293854117393494,-0.5501534342765808,-0.008929580450057983
1761469305776370400,5.151370361328125,0.024214046075940132,-0.43680745363235474,0.00022556795738637447
1761469305786353700,5.161353759765625,-0.024266935884952545,-0.15986821055412292,-0.09924649447202682
1761469305796342500,5.171342529296875,-0.06548520922660828,0.11084503680467606,-0.24599918723106384
1761469305806325800,5.18132568359375,-0.0920928493142128,0.14868216216564178,-0.3075741231441498
1761469305816308700,5.191308837890625,-0.12840212881565094,0.0013510300777852535,-0.2921094298362732
1761469305826291700,5.201291748046875,-0.1186937540769577,-0.20168669521808624,-0.19622868299484253
1761469305836274700,5.211274658203125,-0.17975470423698425,-0.23523667454719543,-0.06372096389532089
1761469305846258700,5.2212587890625,-0.262262761592865,0.032933421432971954,0.042304761707782745
1761469305856241700,5.23124169921875,-0.26500847935676575,0.3895975351333618,0.1513681411743164
1761469305866224600,5.241224609375,-0.21291905641555786,0.5654591917991638,0.2295282930135727
1761469305876207600,5.25120751953125,-0.09813867509365082,0.578516960144043,0.23115041851997375
1761469305886191600,5.261191650390625,0.038960281759500504,0.49997028708457947,0.1601209193468094
1761469305896174600,5.271174560546875,0.18359601497650146,0.3470585346221924,0.07559112459421158
1761469305906157800,5.28115771484375,0.31670841574668884,0.16799655556678772,0.0035397284664213657
1761469305916140800,5.291140869140625,0.41764941811561584,0.0291846115142107,-0.03310723230242729
1761469305926123500,5.30112353515625,0.4882774353027344,-0.05461433157324791,-0.06855478137731552
1761469305936107500,5.311107421875,0.5155524611473083,-0.08973076939582825,-0.12012183666229248
1761469305946090800,5.3210908203125,0.5064861178398132,-0.07607516646385193,-0.17189066112041473
1761469305956073700,5.33107373046875,0.4657469689846039,-0.020338403061032295,-0.22765618562698364
1761469305966056700,5.341056640625,0.40923669934272766,0.04561333730816841,-0.2925022840499878
1761469305976040700,5.351040771484375,0.3618124723434448,0.0798509418964386,-0.343816339969635
1761469305986023700,5.361023681640625,0.30292078852653503,0.08606259524822235,-0.3611193895339966
1761469305996006700,5.371006591796875,0.2435530722141266,0.07808589935302734,-0.3559515178203583
1761469306005990000,5.380989990234375,0.18162892758846283,0.06396403163671494,-0.346146821975708
1761469306015972600,5.39097265625,0.1448240429162979,0.01802343875169754,-0.3647409975528717
1761469306025956600,5.40095654296875,0.13611026108264923,-0.020709801465272903,-0.4028749465942383
1761469306035939600,5.410939697265625,0.1453557014465332,-0.012092344462871552,-0.43185654282569885
1761469306045922800,5.4209228515625,0.15918871760368347,0.028595615178346634,-0.46274712681770325
1761469306055905500,5.430905517578125,0.1595032513141632,0.03629028797149658,-0.5148534774780273
1761469306065889500,5.4408896484375,0.18645848333835602,0.027005311101675034,-0.5850068926811218
1761469306075872800,5.450872802734375,0.2119092494249344,0.006055821664631367,-0.6791488528251648
1761469306085855700,5.460855712890625,0.2207484096288681,-0.0074101099744439125,-0.8010861277580261
1761469306095838700,5.470838623046875,0.20780597627162933,-0.04194598272442818,-0.9399380087852478
1761469306105821700,5.48082177734375,0.22282031178474426,-0.12243407219648361,-1.0415892601013184
1761469306115805700,5.4908056640625,0.2541137635707855,-0.2469664067029953,-1.0707879066467285
1761469306125788700,5.50078857421875,0.28705650568008423,-0.36762747168540955,-1.0285807847976685
1761469306135771600,5.510771728515625,0.34200578927993774,-0.43114277720451355,-0.9108845591545105
1761469306145754600,5.520754638671875,0.39866670966148376,-0.4451759159564972,-0.7610346078872681
1761469306155738600,5.530738525390625,0.3976336717605591,-0.4259028732776642,-0.6273348331451416
1761469306165721600,5.5407216796875,0.32820767164230347,-0.3498378098011017,-0.5131717920303345
1761469306175704800,5.550704833984375,0.21103523671627045,-0.23012739419937134,-0.4091666042804718
1761469306185687800,5.560687744140625,0.08828108757734299,-0.11204668879508972,-0.30897581577301025
1761469306195671800,5.570671875,-0.001878894865512848,-0.0590662956237793,-0.18089640140533447
1761469306205654500,5.580654541015625,0.016318751499056816,-0.13071396946907043,0.06380439549684525
1761469306215637800,5.5906376953125,0.05808244273066521,-0.28237542510032654,0.3774089217185974
1761469306225620700,5.600620849609375,0.10916844010353088,-0.37834644317626953,0.6580674052238464
1761469306235603500,5.610603515625,0.14798268675804138,-0.4111504852771759,0.8611496686935425
1761469306245587700,5.620587646484375,0.15414296090602875,-0.431827574968338,0.9859828352928162
1761469306255570700,5.63057080078125,0.14410685002803802,-0.4482198655605316,1.029934287071228
1761469306265553700,5.6405537109375,0.10409094393253326,-0.4605569839477539,1.0179436206817627
1761469306275537000,5.650536865234375,0.017754461616277695,-0.43142226338386536,0.9415761828422546
1761469306285521000,5.66052099609375,-0.06226305663585663,-0.33326399326324463,0.8122822046279907
1761469306295503600,5.670503662109375,-0.11794975399971008,-0.21111729741096497,0.6558835506439209
1761469306305486600,5.680486572265625,-0.17353880405426025,-0.12572668492794037,0.5113962888717651
1761469306315469800,5.6904697265625,-0.21069495379924774,-0.07889260351657867,0.39850011467933655
1761469306325452800,5.700452880859375,-0.2316015213727951,-0.033176228404045105,0.31794196367263794
1761469306335436500,5.7104365234375,-0.2413439005613327,0.034889642149209976,0.289691686630249
1761469306345419500,5.72041943359375,-0.2294190227985382,0.10098786652088165,0.3162005543708801
1761469306355402800,5.73040283203125,-0.2009975016117096,0.12857981026172638,0.39514729380607605
1761469306365385700,5.7403857421875,-0.1998678296804428,0.10568246245384216,0.4627739489078522
1761469306375369700,5.75036962890625,-0.19412340223789215,0.09238183498382568,0.4724484086036682
1761469306385352700,5.760352783203125,-0.16674569249153137,0.04797131568193436,0.4368111193180084
1761469306395335700,5.770335693359375,-0.12731146812438965,0.003049648366868496,0.39165830612182617
1761469306405318700,5.780318603515625,-0.0878014788031578,0.0073893084190785885,0.33903658390045166
1761469306415302700,5.790302734375,-0.061438314616680145,0.03310159593820572,0.30107030272483826
1761469306425285600,5.80028564453125,-0.04207176715135574,0.024375909939408302,0.2720799446105957
1761469306435268600,5.8102685546875,-0.03495393693447113,-0.002939600730314851,0.22564108669757843
1761469306445251600,5.82025146484375,-0.04236147552728653,-0.05817833170294762,0.15561063587665558
1761469306455235800,5.83023583984375,-0.09114579111337662,-0.09220021218061447,0.0706494152545929
1761469306465218800,5.84021875,-0.1781798005104065,-0.017736263573169708,0.006979861296713352
1761469306475201500,5.850201416015625,-0.2639527916908264,0.18603044748306274,-0.023731978610157967
1761469306485184800,5.860184814453125,-0.3606528043746948,0.39064890146255493,-0.005378462374210358
1761469306495167700,5.870167724609375,-0.45678654313087463,0.5216665863990784,0.045420534908771515
1761469306505151700,5.88015185546875,-0.519464373588562,0.536764919757843,0.05180009454488754
1761469306515134500,5.890134521484375,-0.5125382542610168,0.46765056252479553,0.022507186979055405
1761469306525117700,5.90011767578125,-0.4688586890697479,0.32831186056137085,0.01635243371129036
1761469306535100700,5.9101005859375,-0.43435904383659363,0.163864865899086,0.03788968175649643
1761469306545084700,5.920084716796875,-0.4279651939868927,0.10572720319032669,0.08516967296600342
1761469306555068000,5.93006787109375,-0.449423611164093,0.19665232300758362,0.15659086406230927
1761469306565050600,5.940050537109375,-0.43973830342292786,0.3348918855190277,0.25193676352500916
1761469306575033600,5.95003369140625,-0.39362406730651855,0.370400607585907,0.3544141352176666
1761469306585017600,5.960017578125,-0.29407697916030884,0.29182738065719604,0.42519325017929077
1761469306595000800,5.970000732421875,-0.16716456413269043,0.17998233437538147,0.45493757724761963
1761469306604983800,5.97998388671875,-0.0276890117675066,0.09496540576219559,0.4522983431816101
1761469306614966500,5.989966552734375,0.11474216729402542,0.020989451557397842,0.43302610516548157
1761469306624949800,5.99994970703125,0.24664436280727386,-0.037834927439689636,0.40333858132362366
1761469306634933800,6.009933837890625,0.3467283546924591,-0.07145094871520996,0.3766787350177765
1761469306644916700,6.019916748046875,0.41444122791290283,-0.09700043499469757,0.3355167806148529
1761469306654899700,6.029899658203125,0.4568305015563965,-0.10263515263795853,0.2794511020183563
1761469306664882700,6.039882568359375,0.47157251834869385,-0.07509709894657135,0.1893405020236969
1761469306674866700,6.04986669921875,0.440816730260849,-0.012561018578708172,0.08381514251232147
1761469306684849700,6.059849609375,0.3901095986366272,0.0668652355670929,-0.013208090327680111
1761469306694833000,6.0698330078125,0.3327651023864746,0.12946496903896332,-0.08678749948740005
1761469306704815600,6.079815673828125,0.2912936508655548,0.1347547024488449,-0.14012305438518524
1761469306714799600,6.089799560546875,0.2755964398384094,0.09708882123231888,-0.1854788064956665
1761469306724782600,6.099782470703125,0.2697468101978302,0.049322377890348434,-0.21312272548675537
1761469306734765800,6.109765869140625,0.2803131639957428,0.0004054354503750801,-0.24512407183647156
1761469306744748500,6.11974853515625,0.2802087962627411,-0.03194649517536163,-0.2900371551513672
1761469306754732500,6.129732666015625,0.2632298171520233,-0.0339108482003212,-0.33976662158966064
1761469306764715800,6.1397158203125,0.2500764727592468,-0.04396004229784012,-0.39732626080513
1761469306774698800,6.14969873046875,0.23878386616706848,-0.060479629784822464,-0.45383721590042114
1761469306784681700,6.159681640625,0.22927860915660858,-0.091517373919487,-0.5163133144378662
1761469306794664700,6.169664794921875,0.20183339715003967,-0.18360042572021484,-0.5769713521003723
1761469306804643600,6.1796435546875,0.1800384819507599,-0.29587164521217346,-0.6255776882171631
1761469306814626800,6.189626708984375,0.17068226635456085,-0.3657311499118805,-0.6709790229797363
1761469306824609800,6.19960986328125,0.15895868837833405,-0.35880815982818604,-0.6982793807983398
1761469306834592800,6.2095927734375,0.13317741453647614,-0.2632976174354553,-0.7289515137672424
1761469306844576800,6.21957666015625,0.09838427603244781,-0.12305811047554016,-0.8201940655708313
1761469306854559700,6.229559814453125,0.07538148760795593,0.05309641361236572,-0.9629796743392944
1761469306864542700,6.239542724609375,0.11144983768463135,0.17505845427513123,-1.0569796562194824
1761469306874525700,6.249525634765625,0.21738852560520172,0.16119644045829773,-1.019760012626648
1761469306884509700,6.259509765625,0.30516302585601807,0.07755381613969803,-0.874468207359314
1761469306894492700,6.26949267578125,0.36581066250801086,0.01283048465847969,-0.6949069499969482
1761469306904475600,6.2794755859375,0.362535685300827,-0.013553760014474392,-0.5484161972999573
1761469306914458600,6.289458740234375,0.3000166416168213,-0.021859627217054367,-0.4412399232387543
1761469306924443000,6.29944287109375,0.20241321623325348,0.011275731027126312,-0.3449878692626953
1761469306934425900,6.30942578125,0.1400505006313324,0.04782548546791077,-0.2242491990327835
1761469306944408600,6.31940869140625,0.08497961610555649,0.046663325279951096,-0.06779184937477112
1761469306954391800,6.329391845703125,0.06343463808298111,0.041845399886369705,0.07234341651201248
1761469306964375800,6.339375732421875,0.05692831426858902,0.0589493066072464,0.1823866218328476
1761469306974358800,6.34935888671875,0.04073363542556763,0.04034686088562012,0.26765942573547363
1761469306984341500,6.359341552734375,0.01733935810625553,-0.003465082263574004,0.3293428122997284
1761469306994324700,6.36932470703125,0.004691740032285452,-0.05197935551404953,0.3668709993362427
1761469307004308700,6.379308837890625,-0.004878770560026169,-0.09055344760417938,0.4140761196613312
1761469307014291700,6.389291748046875,-0.0019708648324012756,-0.12739375233650208,0.4435842037200928
1761469307024275000,6.39927490234375,-0.00838277954608202,-0.13869863748550415,0.4396543502807617
1761469307034257700,6.409257568359375,-0.02340647019445896,-0.1082637757062912,0.4021482467651367
1761469307044241700,6.41924169921875,-0.04964206740260124,-0.04234960302710533,0.3443017303943634
1761469307054224600,6.429224609375,-0.07952433079481125,0.035730816423892975,0.29126885533332825
1761469307064208000,6.439207763671875,-0.11130143702030182,0.09385322779417038,0.2586853802204132
1761469307074190600,6.449190673828125,-0.13961458206176758,0.11953701823949814,0.25077125430107117
1761469307084173600,6.459173583984375,-0.1439029574394226,0.1146714836359024,0.2677726745605469
1761469307094157600,6.469157470703125,-0.1284387856721878,0.08044000715017319,0.307439923286438
1761469307104140800,6.479140869140625,-0.11671218276023865,0.029892761260271072,0.3519556522369385
1761469307114123800,6.489123779296875,-0.09188167005777359,-0.04413779079914093,0.392376571893692
1761469307124106800,6.499106689453125,-0.1151556596159935,-0.08206048607826233,0.42515289783477783
1761469307134090800,6.5090908203125,-0.13832570612430573,-0.06249797344207764,0.42194831371307373
1761469307144073700,6.51907373046875,-0.17983625829219818,-0.01290222443640232,0.41461965441703796
1761469307154056700,6.529056640625,-0.2192254662513733,0.0365084707736969,0.38046595454216003
1761469307164039700,6.539039794921875,-0.24709051847457886,0.09416262805461884,0.3213103711605072
1761469307174023700,6.549023681640625,-0.2663920521736145,0.1220318078994751,0.24864305555820465
1761469307184006700,6.559006591796875,-0.28469008207321167,0.10975344479084015,0.20189979672431946
1761469307193989600,6.56898974609375,-0.3140658140182495,0.061552632600069046,0.1909739077091217
1761469307203972900,6.578972900390625,-0.3476279675960541,-0.008839061483740807,0.20414331555366516
1761469307213956900,6.588956787109375,-0.3825705051422119,-0.04677552357316017,0.21526600420475006
1761469307223939600,6.598939697265625,-0.45394688844680786,-0.014530342072248459,0.19600258767604828
1761469307233922800,6.6089228515625,-0.5224388837814331,0.11692994832992554,0.1428685337305069
1761469307243905800,6.61890576171875,-0.5567176342010498,0.2618437707424164,0.10154043883085251
1761469307253889800,6.628889892578125,-0.5635970830917358,0.32498306035995483,0.10873204469680786
1761469307263872500,6.63887255859375,-0.5450658798217773,0.21830140054225922,0.1518242210149765
1761469307273855700,6.648855712890625,-0.487464964389801,0.06091843545436859,0.21320608258247375
1761469307283838700,6.658838623046875,-0.4213652014732361,0.014336214400827885,0.2786352038383484
1761469307293822700,6.66882275390625,-0.33750706911087036,0.057154249399900436,0.3800595700740814
1761469307303806000,6.678805908203125,-0.3077692687511444,0.17023715376853943,0.5025872588157654
1761469307313788700,6.68878857421875,-0.31453797221183777,0.31649050116539,0.5939443707466125
1761469307323771600,6.698771728515625,-0.3202531933784485,0.40119513869285583,0.6026146411895752
1761469307333755600,6.708755615234375,-0.2897607982158661,0.3921257257461548,0.5417971014976501
1761469307343739000,6.71873876953125,-0.2351723462343216,0.2887243926525116,0.4509804844856262
1761469307353721600,6.7287216796875,-0.15869860351085663,0.1535942703485489,0.36843737959861755
1761469307363704600,6.73870458984375,-0.07756368070840836,0.04942850023508072,0.31910860538482666
1761469307373688600,6.7486884765625,0.0043104165233671665,-0.016360368579626083,0.27746501564979553
1761469307383671800,6.758671875,0.08897457271814346,-0.060700058937072754,0.22364957630634308
1761469307393654800,6.76865478515625,0.16580118238925934,-0.11024657636880875,0.15283213555812836
1761469307403637800,6.7786376953125,0.2247648984193802,-0.16937485337257385,0.08847442269325256
1761469307413621800,6.788621826171875,0.2621399760246277,-0.23093195259571075,0.018700404092669487
1761469307423604700,6.798604736328125,0.27474477887153625,-0.2777010202407837,-0.05789920687675476
1761469307433587700,6.808587646484375,0.26684266328811646,-0.29861563444137573,-0.13460516929626465
1761469307443570700,6.81857080078125,0.25125136971473694,-0.28462275862693787,-0.21653151512145996
1761469307453554700,6.8285546875,0.24567949771881104,-0.25581640005111694,-0.30279794335365295
1761469307463537700,6.83853759765625,0.24802768230438232,-0.2516877055168152,-0.3687051832675934
1761469307473520600,6.848520751953125,0.2533332407474518,-0.27973613142967224,-0.42336738109588623
1761469307483503900,6.85850390625,0.264324426651001,-0.31414371728897095,-0.4847792983055115
1761469307493487900,6.86848779296875,0.2686922550201416,-0.32646510004997253,-0.5550119280815125
1761469307503470600,6.878470703125,0.2749161720275879,-0.312021940946579,-0.6263909339904785
1761469307513453800,6.888453857421875,0.29413139820098877,-0.30399519205093384,-0.6882700324058533
1761469307523436800,6.898436767578125,0.3159714341163635,-0.3093467652797699,-0.7506146430969238
1761469307533420800,6.9084208984375,0.36023426055908203,-0.3337964713573456,-0.7928347587585449
1761469307543403500,6.918403564453125,0.4077472686767578,-0.3832859396934509,-0.8086751699447632
1761469307553386800,6.92838671875,0.452639102935791,-0.4987052381038666,-0.8097468018531799
1761469307563369700,6.93836962890625,0.45798397064208984,-0.6624450087547302,-0.8185678720474243
1761469307573353700,6.948353759765625,0.4292641878128052,-0.7016507387161255,-0.8590684533119202
1761469307583336700,6.958336669921875,0.3676953613758087,-0.5755279064178467,-0.9133883714675903
1761469307593319700,6.968319580078125,0.27938786149024963,-0.3979397714138031,-0.9722927212715149
1761469307603302700,6.978302734375,0.1880902349948883,-0.2840370237827301,-1.0446823835372925
1761469307613286700,6.98828662109375,0.11584214121103287,-0.2558232247829437,-1.1420470476150513
1761469307623270000,6.998269775390625,0.11337463557720184,-0.2735423147678375,-1.2156516313552856
1761469307633252600,7.008252685546875,0.15639932453632355,-0.26948580145835876,-1.1674391031265259
1761469307643236600,7.018236572265625,0.19202542304992676,-0.13314080238342285,-0.9987135529518127
1761469307653219600,7.028219482421875,0.16615547239780426,0.06621598452329636,-0.7254622578620911
1761469307663202800,7.038202880859375,0.1333272010087967,0.1942741870880127,-0.3987872004508972
1761469307673185800,7.048185791015625,0.06930055469274521,0.2185441106557846,-0.13439735770225525
1761469307683169800,7.058169677734375,0.03298396244645119,0.14681516587734222,0.021220818161964417
1761469307693152800,7.06815283203125,0.021886039525270462,-0.0009687123820185661,0.13761773705482483
1761469307703135700,7.0781357421875,0.0468093641102314,-0.12932926416397095,0.2928423285484314
1761469307713118700,7.08811865234375,0.0722217783331871,-0.21094104647636414,0.4620811343193054
1761469307723102700,7.098102783203125,0.07571081817150116,-0.26562389731407166,0.5810156464576721
1761469307733085700,7.108085693359375,0.08341294527053833,-0.3026929497718811,0.6397002935409546
1761469307743068700,7.118068603515625,0.09560038149356842,-0.34330078959465027,0.6378061175346375
1761469307753051600,7.1280517578125,0.1101127490401268,-0.35317152738571167,0.5950120091438293
1761469307763035600,7.13803564453125,0.11449839919805527,-0.3373720943927765,0.5246734023094177
1761469307773019000,7.148018798828125,0.11572691798210144,-0.298932820558548,0.4511640667915344
1761469307783001600,7.158001708984375,0.10115755349397659,-0.2399037480354309,0.39068105816841125
1761469307792984800,7.16798486328125,0.06111985445022583,-0.16026990115642548,0.34931179881095886
1761469307802968600,7.177968505859375,0.016567349433898926,-0.06578917056322098,0.32929015159606934
1761469307812951300,7.187951416015625,-0.023818157613277435,0.02043333277106285,0.3308560848236084
1761469307822934300,7.197934326171875,-0.07428009808063507,0.12570509314537048,0.33174875378608704
1761469307832917500,7.20791748046875,-0.11319633573293686,0.2628088891506195,0.32192274928092957
1761469307842901500,7.217901611328125,-0.1397751271724701,0.3914530575275421,0.31104063987731934
1761469307852884500,7.227884521484375,-0.1618034541606903,0.47127199172973633,0.3125394582748413
1761469307862867500,7.237867431640625,-0.1830131560564041,0.5146994590759277,0.3308012783527374
1761469307872850400,7.247850341796875,-0.21116648614406586,0.5413491725921631,0.3546120822429657
1761469307882834400,7.25783447265625,-0.25954821705818176,0.5594797134399414,0.3673306703567505
1761469307892817400,7.2678173828125,-0.30939406156539917,0.5976912379264832,0.3489495515823364
1761469307902800400,7.27780029296875,-0.3567160964012146,0.6270673871040344,0.3065685033798218
1761469307912784400,7.287784423828125,-0.40648153424263,0.543940007686615,0.2311198115348816
1761469307922767400,7.297767333984375,-0.4556255638599396,0.3572709560394287,0.1606670618057251
1761469307932750300,7.307750244140625,-0.47969919443130493,0.11743120104074478,0.10056857764720917
1761469307942733600,7.317733642578125,-0.5061480402946472,-0.09602085500955582,0.046723466366529465
1761469307952717600,7.327717529296875,-0.5217397809028625,-0.22202672064304352,0.02859826199710369
1761469307962700300,7.3377001953125,-0.4919745922088623,-0.2961251437664032,0.04784080386161804
1761469307972683500,7.34768359375,-0.43145719170570374,-0.3453366160392761,0.07946398109197617
1761469307982666500,7.35766650390625,-0.3751814365386963,-0.28847673535346985,0.08215007185935974
1761469307992650500,7.367650390625,-0.3228774964809418,-0.1538531333208084,0.043056197464466095
1761469308002633200,7.37763330078125,-0.2968447804450989,-0.09325657784938812,0.003958051558583975
1761469308012616400,7.387616455078125,-0.24553151428699493,-0.04111187905073166,0.011017026379704475
1761469308022599400,7.397599365234375,-0.2010769248008728,0.10438836365938187,0.09987527877092361
1761469308032583400,7.40758349609375,-0.199849471449852,0.37860527634620667,0.2307209074497223
1761469308042566700,7.417566650390625,-0.11448238044977188,0.6061998009681702,0.286812424659729
1761469308052549400,7.42754931640625,-0.000042350031435489655,0.6245630979537964,0.2670712172985077
1761469308062533400,7.437533447265625,0.1462649405002594,0.49122440814971924,0.2077244073152542
1761469308072516400,7.447516357421875,0.2966328561306,0.33951663970947266,0.13754186034202576
1761469308082499600,7.45749951171875,0.4198049008846283,0.22877417504787445,0.06423067301511765
1761469308092482300,7.467482421875,0.48737382888793945,0.11801863461732864,-0.0009488691575825214
1761469308102466300,7.47746630859375,0.5068608522415161,0.05293119698762894,-0.04714522138237953
1761469308112449300,7.48744921875,0.49702638387680054,0.0392175167798996,-0.08873873949050903
1761469308122432500,7.4974326171875,0.46176818013191223,0.03805689141154289,-0.1199297234416008
1761469308132415500,7.50741552734375,0.4030047357082367,0.014022661373019218,-0.15247328579425812
1761469308142399500,7.5173994140625,0.3320634663105011,-0.03431559354066849,-0.18225139379501343
1761469308152382500,7.527382568359375,0.2593538463115692,-0.05461527034640312,-0.21960942447185516
1761469308162365400,7.537365478515625,0.1877838671207428,-0.04995296150445938,-0.25194597244262695
1761469308172348400,7.547348388671875,0.12771014869213104,-0.040286749601364136,-0.26049816608428955
1761469308182332400,7.55733251953125,0.09802554547786713,-0.04052266851067543,-0.24117639660835266
1761469308192315400,7.5673154296875,0.09577011317014694,-0.05822975933551788,-0.2228541225194931
1761469308202298400,7.57729833984375,0.11346002668142319,-0.07752270251512527,-0.23670081794261932
1761469308212282400,7.587282470703125,0.14390741288661957,-0.09581515938043594,-0.27943524718284607
1761469308222265600,7.597265625,0.181496262550354,-0.1314345896244049,-0.35312405228614807
1761469308232248600,7.60724853515625,0.20946425199508667,-0.13967867195606232,-0.46000736951828003
1761469308242231300,7.617231201171875,0.2200183868408203,-0.09698471426963806,-0.5778725743293762
1761469308252215300,7.62721533203125,0.20613399147987366,-0.02963230386376381,-0.6808740496635437
1761469308262198500,7.637198486328125,0.20194673538208008,0.0033217815216630697,-0.7603634595870972
1761469308272181500,7.647181396484375,0.21088430285453796,-0.06203325465321541,-0.8158708810806274
1761469308282164200,7.657164306640625,0.19693569839000702,-0.17669205367565155,-0.8661370873451233
1761469308292148200,7.667148193359375,0.18749666213989258,-0.28996509313583374,-0.8965208530426025
1761469308302131500,7.67713134765625,0.15839536488056183,-0.4199332594871521,-0.9134986400604248
1761469308312114400,7.687114501953125,0.11546200513839722,-0.5426579117774963,-0.9133952856063843
1761469308322097700,7.69709765625,0.06945177167654037,-0.6344857215881348,-0.9537018537521362
1761469308332081700,7.70708154296875,0.08989205956459045,-0.5899075865745544,-1.0357484817504883
1761469308342064400,7.717064453125,0.2080836445093155,-0.39133062958717346,-1.120510220527649
1761469308352047400,7.72704736328125,0.31533366441726685,-0.21472014486789703,-1.0753734111785889
1761469308362031400,7.73703125,0.34214335680007935,-0.08294261991977692,-0.9039705991744995
1761469308372014600,7.7470146484375,0.31811150908470154,0.01893021911382675,-0.6619278788566589
1761469308381997300,7.756997314453125,0.2839209735393524,0.07035835832357407,-0.37517502903938293
1761469308391980300,7.766980224609375,0.22990167140960693,0.11189434677362442,-0.10615875571966171
1761469308401964500,7.776964599609375,0.18012754619121552,0.14827676117420197,0.08044875413179398
1761469308411947500,7.786947509765625,0.1272353082895279,0.11044097691774368,0.20911726355552673
1761469308421930500,7.796930419921875,0.16597023606300354,-0.016657989472150803,0.3085768222808838
1761469308431914200,7.806914306640625,0.18386773765087128,-0.15364566445350647,0.39859673380851746
1761469308441897500,7.8168974609375,0.1900830715894699,-0.22871799767017365,0.48263677954673767
1761469308451880400,7.82688037109375,0.17861630022525787,-0.23723319172859192,0.5286655426025391
1761469308461863400,7.836863525390625,0.141398087143898,-0.19566220045089722,0.5337936878204346
1761469308471847400,7.846847412109375,0.0898832306265831,-0.11051294952630997,0.5056462287902832
1761469308481830400,7.856830322265625,0.012010625563561916,-0.016491055488586426,0.4434511065483093
1761469308491813400,7.8668134765625,-0.06941685825586319,0.0872768834233284,0.37248238921165466
1761469308501796600,7.876796630859375,-0.13244424760341644,0.1544056087732315,0.3467310070991516
1761469308511780600,7.886780517578125,-0.17400580644607544,0.18342021107673645,0.3526128828525543
1761469308521763300,7.896763427734375,-0.17556606233119965,0.16432912647724152,0.3666134774684906
1761469308531746300,7.906746337890625,-0.13465511798858643,0.08750970661640167,0.39441901445388794
1761469308541730300,7.916730224609375,-0.05702725425362587,-0.00960010476410389,0.42368224263191223
1761469308551713500,7.926713623046875,0.03774239867925644,-0.08496862649917603,0.4297292232513428
1761469308561696500,7.936696533203125,0.14421296119689941,-0.13799959421157837,0.4215725362300873
1761469308571679200,7.94667919921875,0.1928878128528595,-0.18992644548416138,0.41425761580467224
1761469308581663500,7.95666357421875,0.16724103689193726,-0.22607529163360596,0.4031674861907959
1761469308591646500,7.966646484375,0.07504479587078094,-0.17304056882858276,0.4274597764015198
1761469308601629400,7.97662939453125,-0.056904759258031845,-0.11247418075799942,0.46792060136795044
1761469308611612400,7.9866123046875,-0.19471615552902222,-0.11545611917972565,0.5124251842498779
1761469308621596400,7.996596435546875,-0.32026275992393494,-0.15574795007705688,0.5347298383712769
1761469308631577600,8.00657763671875,-0.41031888127326965,-0.2622253894805908,0.5057735443115234
1761469308641561600,8.0165615234375,-0.47496360540390015,-0.3966973125934601,0.45047467947006226
1761469308651544300,8.02654443359375,-0.43359246850013733,-0.5953219532966614,0.321532666683197
1761469308661527300,8.03652734375,-0.4684704840183258,-0.7789855599403381,0.2018156498670578
1761469308671510500,8.046510498046874,-0.48111093044281006,-0.8918420672416687,0.17490041255950928
1761469308681494500,8.05649462890625,-0.44272905588150024,-0.8066336512565613,0.10648074001073837
1761469308691477500,8.0664775390625,-0.41768762469291687,-0.5184955596923828,0.108413927257061
1761469308701460500,8.07646044921875,-0.3860335052013397,-0.2910028398036957,0.1011887714266777
1761469308711443500,8.086443359375,-0.360533744096756,-0.2797640264034271,0.11041263490915298
1761469308721427500,8.096427490234374,-0.30762577056884766,-0.43349286913871765,0.12640652060508728
1761469308731410400,8.106410400390626,-0.27179110050201416,-0.5430803894996643,0.1475387066602707
1761469308741393400,8.116393310546876,-0.24467411637306213,-0.45133987069129944,0.17523972690105438
1761469308751377400,8.12637744140625,-0.21820949018001556,-0.28141048550605774,0.19340035319328308
1761469308761360400,8.1363603515625,-0.1755741983652115,-0.15545284748077393,0.18140439689159393
1761469308771343400,8.14634326171875,-0.0868653729557991,-0.10456942021846771,0.14693669974803925
1761469308781326600,8.15632666015625,0.07768185436725616,-0.18158693611621857,0.09901826828718185
1761469308791310600,8.166310546875,0.35602104663848877,-0.2890566885471344,-0.010187316685914993
1761469308801293800,8.1762939453125,0.38940656185150146,-0.5654804706573486,-0.1406075805425644
1761469308811276800,8.18627685546875,0.42840057611465454,-0.7445053458213806,-0.08708816021680832
1761469308821261000,8.196260986328125,0.44422999024391174,-0.8517627716064453,0.04525114223361015
1761469308831243800,8.206243896484375,0.4640873074531555,-0.9136722087860107,0.1630004197359085
1761469308841226800,8.216226806640625,0.4397677481174469,-0.9190500378608704,0.3183538615703583
1761469308851210000,8.2262099609375,0.3463805317878723,-0.7863017916679382,0.4863383173942566
1761469308861194000,8.236194091796875,0.23458176851272583,-0.6118152737617493,0.558259129524231
1761469308871177000,8.246177001953125,0.1495305299758911,-0.49277645349502563,0.5549562573432922
1761469308881159700,8.25615966796875,0.09325504302978516,-0.4427196681499481,0.513867974281311
1761469308891143700,8.266143798828125,0.08578328043222427,-0.4200955927371979,0.44540560245513916
1761469308901127000,8.276126953125,0.12327637523412704,-0.396707683801651,0.3553742468357086
1761469308911110000,8.28610986328125,0.16534925997257233,-0.3786866068840027,0.23649901151657104
1761469308921094000,8.296093994140625,0.19826000928878784,-0.3208017647266388,0.11592437326908112
1761469308931076900,8.306076904296875,0.1918090581893921,-0.26769912242889404,-0.009533682838082314
1761469308941059800,8.316059814453125,0.15561343729496002,-0.2551896572113037,-0.14310109615325928
1761469308951042800,8.326042724609374,0.10625681281089783,-0.2674843966960907,-0.27081298828125
1761469308961026800,8.33602685546875,0.05930525064468384,-0.2596915662288666,-0.3820998966693878
1761469308971010000,8.346010009765624,0.01517986785620451,-0.148161843419075,-0.4773270785808563
1761469308980992800,8.35599267578125,-0.010203560814261436,0.06792555749416351,-0.5614028573036194
1761469308990975700,8.365975830078124,-0.045747436583042145,0.28986993432044983,-0.6540079116821289
1761469309000960000,8.3759599609375,-0.07882200181484222,0.5090005397796631,-0.7540438771247864
1761469309010943000,8.38594287109375,-0.10819480568170547,0.690652072429657,-0.8384966850280762
1761469309020925700,8.39592578125,-0.1460777372121811,0.7337056994438171,-0.8870860934257507
1761469309030909700,8.40590966796875,-0.17165927588939667,0.5798836350440979,-0.882120668888092
1761469309040893000,8.415892822265626,-0.17068490386009216,0.3000181317329407,-0.8332053422927856
1761469309050876000,8.4258759765625,-0.1740759164094925,-0.041456907987594604,-0.7473269104957581
1761469309060860000,8.43585986328125,-0.17823736369609833,-0.3376002907752991,-0.6212003827095032
1761469309070842600,8.445842529296876,-0.17914150655269623,-0.5452021956443787,-0.45389318466186523
1761469309080825900,8.455825927734375,-0.18804103136062622,-0.6815913915634155,-0.21970735490322113
1761469309090808800,8.465808837890625,-0.19817888736724854,-0.6768587231636047,0.06574863195419312
1761469309100792800,8.475792724609375,-0.20063237845897675,-0.508891224861145,0.3098527193069458
1761469309110776000,8.485776123046875,-0.19635160267353058,-0.30309730768203735,0.4708682596683502
1761469309120758800,8.4957587890625,-0.1734452247619629,-0.20436349511146545,0.5712395310401917
1761469309130742800,8.50574267578125,-0.1274079531431198,-0.24397189915180206,0.6711477637290955
1761469309140725800,8.515725830078125,-0.08886735886335373,-0.356197714805603,0.7597877979278564
1761469309150709000,8.525708984375,-0.0937579870223999,-0.39412567019462585,0.8054138422012329
1761469309160691700,8.535691650390625,-0.11510655283927917,-0.288408488035202,0.8148018717765808
1761469309170675700,8.54567578125,-0.15263022482395172,-0.09883696585893631,0.7926289439201355
1761469309180659000,8.555658935546875,-0.1673065572977066,0.04269064590334892,0.7126244902610779
1761469309190642000,8.565641845703125,-0.14595864713191986,0.02600087970495224,0.6362887024879456
1761469309200626000,8.5756259765625,-0.0891132578253746,-0.17202484607696533,0.5797641277313232
1761469309210609000,8.58560888671875,-0.01976214163005352,-0.44290855526924133,0.5589610934257507
1761469309220594000,8.595593994140625,0.015989329665899277,-0.6597915291786194,0.5473522543907166
1761469309230576600,8.60557666015625,0.03708555921912193,-0.6908615827560425,0.5334468483924866
1761469309240561000,8.615560791015625,0.02859846130013466,-0.5830234885215759,0.5029851794242859
1761469309250543900,8.6255439453125,0.01963213086128235,-0.3974671959877014,0.4442236125469208
1761469309260526800,8.63552685546875,0.0028376083355396986,-0.17204517126083374,0.3928610384464264
1761469309270510000,8.645510009765625,-0.01863039843738079,0.004719480872154236,0.35813847184181213
1761469309280493800,8.655493896484375,-0.03743346035480499,0.07214456796646118,0.34559646248817444
1761469309290476800,8.665476806640624,-0.0745542049407959,0.06608322262763977,0.355826199054718
1761469309300459800,8.675459716796874,-0.12964531779289246,-0.03872303292155266,0.3980991542339325
1761469309310443800,8.68544384765625,-0.20461410284042358,-0.2186025232076645,0.4416431486606598
1761469309320427000,8.695427001953124,-0.27088603377342224,-0.3898123800754547,0.4742712676525116
1761469309330409700,8.70540966796875,-0.34079161286354065,-0.5509442687034607,0.4704778492450714
1761469309340393700,8.715393798828124,-0.4313703775405884,-0.63686203956604,0.4150024354457855
1761469309350377000,8.725376953125,-0.5105712413787842,-0.5958288311958313,0.31055939197540283
1761469309360360000,8.73535986328125,-0.574169933795929,-0.3917943835258484,0.19645695388317108
1761469309370343000,8.745343017578126,-0.6325139403343201,-0.12661224603652954,0.05791984871029854
1761469309380326700,8.75532666015625,-0.6483758687973022,0.06817566603422165,-0.10492049157619476
1761469309390310000,8.765309814453126,-0.6419650912284851,0.16578878462314606,-0.3253873288631439
1761469309400292900,8.77529296875,-0.6083065271377563,0.09779906272888184,-0.5393879413604736
1761469309410276900,8.78527685546875,-0.5451979041099548,-0.06596563011407852,-0.647922933101654
1761469309420259800,8.795259765625,-0.4877522587776184,-0.14136376976966858,-0.7231599688529968
1761469309430242800,8.805242919921875,-0.47745513916015625,0.042286477982997894,-0.7853849530220032
1761469309440226800,8.815226806640625,-0.48346784710884094,0.4572795331478119,-0.7857092618942261
1761469309450209800,8.825209716796875,-0.48695605993270874,0.8512552976608276,-0.7280622124671936
1761469309460193000,8.835193115234375,-0.4546419680118561,1.101731538772583,-0.6549965739250183
1761469309470175700,8.84517578125,-0.3484657406806946,1.0962046384811401,-0.6145372986793518
1761469309480159700,8.85515966796875,-0.22844740748405457,0.6997200846672058,-0.5981120467185974
1761469309490142700,8.865142822265625,-0.07263437658548355,0.13352268934249878,-0.5580085515975952
1761469309500126000,8.8751259765625,0.0961942970752716,-0.32194748520851135,-0.47035467624664307
1761469309510110000,8.88510986328125,0.2397804856300354,-0.6114999651908875,-0.3531564176082611
1761469309520093000,8.895093017578125,0.32746997475624084,-0.7213550806045532,-0.23641815781593323
1761469309530076000,8.905075927734375,0.3583240211009979,-0.6876964569091797,-0.15672598779201508
1761469309540060000,8.915059814453125,0.3581322133541107,-0.5443520545959473,-0.06700820475816727
1761469309550043000,8.92504296875,0.3540325462818146,-0.5163664817810059,0.02038794942200184
1761469309560025900,8.93502587890625,0.3738841712474823,-0.5719215869903564,0.1204170286655426
1761469309570008800,8.9450087890625,0.4173687994480133,-0.594454288482666,0.2045353651046753
1761469309579992800,8.954992919921875,0.49853307008743286,-0.6112337708473206,0.2063952386379242
1761469309589975800,8.964975830078124,0.5675089359283447,-0.5904653668403625,0.10790649056434631
1761469309599958800,8.974958740234374,0.5960941910743713,-0.5348445773124695,-0.04220562428236008
1761469309609943000,8.984943115234374,0.5792827010154724,-0.42573782801628113,-0.16444498300552368
1761469309619925800,8.99492578125,0.5195305943489075,-0.2961953282356262,-0.22173017263412476
1761469309629908700,9.00490869140625,0.4758131802082062,-0.22768284380435944,-0.22622746229171753
1761469309639892000,9.01489208984375,0.4409276247024536,-0.21901774406433105,-0.18415062129497528
1761469309649876000,9.0248759765625,0.4135226309299469,-0.21481367945671082,-0.14684133231639862
1761469309659859000,9.03485888671875,0.3879789113998413,-0.21373337507247925,-0.17852255702018738
1761469309669841700,9.044841552734376,0.3386420011520386,-0.28067776560783386,-0.2684343457221985
1761469309679825700,9.05482568359375,0.2805078625679016,-0.34560057520866394,-0.3526040315628052
1761469309689809000,9.064808837890626,0.2222709357738495,-0.3535256087779999,-0.416765958070755
1761469309699792000,9.0747919921875,0.18999439477920532,-0.3242006301879883,-0.4600858688354492
1761469309709776000,9.08477587890625,0.1823950707912445,-0.3147469460964203,-0.49762871861457825
1761469309719758800,9.0947587890625,0.219024196267128,-0.3633522689342499,-0.5156514048576355
1761469309729741800,9.104741943359375,0.34129926562309265,-0.3923969864845276,-0.43042516708374023
1761469309739724800,9.114724853515625,0.4818873703479767,-0.36078640818595886,-0.27182072401046753
1761469309749708800,9.124708740234375,0.5752604603767395,-0.2991531193256378,-0.08880671858787537
1761469309759692000,9.134692138671875,0.6114982962608337,-0.2477632313966751,0.07660344988107681
1761469309769674800,9.1446748046875,0.5844136476516724,-0.22672557830810547,0.19496364891529083
1761469309779658800,9.15465869140625,0.5239285230636597,-0.21122623980045319,0.2751075327396393
1761469309789642000,9.16464208984375,0.4418480396270752,-0.2119189202785492,0.33145949244499207
1761469309799625000,9.174625,0.3408562242984772,-0.2400801032781601,0.38919582962989807
1761469309809609000,9.18460888671875,0.23785127699375153,-0.2677370309829712,0.47362759709358215
1761469309819592000,9.194592041015625,0.12847281992435455,-0.27719220519065857,0.5741216540336609
1761469309829575000,9.204574951171875,0.03608828783035278,-0.2545872926712036,0.6425276398658752
1761469309839559000,9.214558837890625,-0.04946474730968475,-0.19416965544223785,0.6353279948234558
1761469309849542000,9.2245419921875,-0.1261446177959442,-0.10108152031898499,0.5585442781448364
1761469309859524900,9.23452490234375,-0.17725728452205658,-0.006517317146062851,0.45055583119392395
1761469309869508000,9.244508056640624,-0.189984530210495,0.07629101723432541,0.3567696809768677
1761469309879492000,9.2544921875,-0.1859901398420334,0.12260853499174118,0.29696616530418396
1761469309889474800,9.264474853515624,-0.19266748428344727,0.2082083821296692,0.2839395999908447
1761469309899458000,9.2744580078125,-0.2158028483390808,0.3304292559623718,0.3055034875869751
1761469309909442000,9.284442138671874,-0.23622582852840424,0.4599505066871643,0.33003732562065125
1761469309919425000,9.294425048828124,-0.24961283802986145,0.6079977750778198,0.351530522108078
1761469309929407700,9.30440771484375,-0.24224013090133667,0.6488621234893799,0.40252071619033813
1761469309939391700,9.314391845703126,-0.23545530438423157,0.6046937108039856,0.4706214368343353
1761469309949375000,9.324375,-0.25096288323402405,0.5590644478797913,0.5441009998321533
1761469309959358000,9.33435791015625,-0.28440988063812256,0.5346030592918396,0.6003268957138062
1761469309969341000,9.3443408203125,-0.34747564792633057,0.5330477952957153,0.6287018060684204
1761469309979325200,9.3543251953125,-0.42659035325050354,0.5402079820632935,0.6097753047943115
1761469309989308000,9.364307861328125,-0.5163466334342957,0.5215573310852051,0.5627233386039734
1761469309999291000,9.374290771484375,-0.5811687111854553,0.4488478899002075,0.5136110186576843
1761469310009275000,9.38427490234375,-0.630495548248291,0.2969057559967041,0.48329704999923706
1761469310019258000,9.394258056640625,-0.7746090292930603,-0.12479905784130096,0.565338134765625
1761469310029240800,9.40424072265625,-0.6612949967384338,-0.317778617143631,0.47339725494384766
1761469310039224800,9.414224853515625,-0.6259369254112244,-0.47025853395462036,0.3672960102558136
1761469310049207800,9.424207763671875,-0.6524769067764282,-0.4872969090938568,0.2867084741592407
1761469310059191000,9.43419091796875,-0.6789461374282837,-0.5150600075721741,0.22417841851711273
1761469310069175000,9.444175048828125,-0.6719827651977539,-0.4326484501361847,0.24817456305027008
1761469310079157800,9.45415771484375,-0.6244727969169617,-0.38473832607269287,0.2206699252128601
1761469310089141000,9.46414111328125,-0.5737667083740234,-0.3195071220397949,0.17276471853256226
1761469310099124000,9.4741240234375,-0.538591742515564,-0.21930824220180511,0.09772320091724396
1761469310109108000,9.48410791015625,-0.5138717293739319,-0.045817937701940536,0.054141100496053696
1761469310119091000,9.494091064453125,-0.534968912601471,0.14358597993850708,0.050272777676582336
1761469310129074000,9.504073974609375,-0.5600252747535706,0.3060497045516968,0.0023364119697362185
1761469310139058000,9.514057861328125,-0.5394407510757446,0.4458048939704895,-0.09669443964958191
1761469310149041000,9.524041015625,-0.4841303825378418,0.6291004419326782,-0.21893192827701569
1761469310159024000,9.534024169921874,-0.4274308681488037,0.8029713034629822,-0.3678572177886963
1761469310169008000,9.544008056640624,-0.38318750262260437,0.9385735988616943,-0.47649261355400085
1761469310178990800,9.553990966796874,-0.34909164905548096,1.0138211250305176,-0.49521929025650024
1761469310188973800,9.563973876953124,-0.31034159660339355,0.9991548657417297,-0.4132695496082306
1761469310198957000,9.57395703125,-0.2438136339187622,0.8531697392463684,-0.2697109580039978
1761469310208941000,9.583941162109374,-0.15942151844501495,0.5489091873168945,-0.11094687879085541
1761469310218924000,9.593924072265626,-0.05457105487585068,0.11779023706912994,0.029220065101981163
1761469310228906800,9.60390673828125,0.02928416058421135,-0.2967965602874756,0.14830198884010315
1761469310238891000,9.61389111328125,0.11133593320846558,-0.5763481259346008,0.2595619559288025
1761469310248874000,9.6238740234375,0.18467886745929718,-0.7074928283691406,0.3495810627937317
1761469310258857000,9.63385693359375,0.2461317479610443,-0.7692513465881348,0.40212035179138184
1761469310268841000,9.643841064453126,0.2919327914714813,-0.7914572954177856,0.39417001605033875
1761469310278824000,9.653823974609375,0.3263852298259735,-0.7478351593017578,0.3308819532394409
1761469310288807000,9.663806884765625,0.33777424693107605,-0.6371464729309082,0.2655769884586334
1761469310298791000,9.673791015625,0.3298302888870239,-0.513119637966156,0.2129058688879013
1761469310308774000,9.68377392578125,0.3200668692588806,-0.4193105399608612,0.16726967692375183
1761469310318756900,9.6937568359375,0.30530932545661926,-0.3606032431125641,0.16074232757091522
1761469310328739800,9.70373974609375,0.28427594900131226,-0.37244153022766113,0.18622532486915588
1761469310338723800,9.713723876953125,0.25928059220314026,-0.410334050655365,0.20292280614376068
1761469310348707000,9.72370703125,0.23857448995113373,-0.4282725751399994,0.18234163522720337
1761469310358690000,9.73368994140625,0.23747776448726654,-0.36166974902153015,0.13188482820987701
1761469310368674000,9.743674072265625,0.25281277298927307,-0.2605609595775604,0.05957014113664627
1761469310378656800,9.75365673828125,0.2650780975818634,-0.16637568175792694,-0.027217863127589226
1761469310388640000,9.763639892578125,0.2953108251094818,-0.08942897617816925,-0.17707926034927368
1761469310398624000,9.7736240234375,0.3252353072166443,0.03792014718055725,-0.29543057084083557
1761469310408607000,9.78360693359375,0.32161688804626465,0.2339351922273636,-0.36466822028160095
1761469310418590000,9.79358984375,0.31139370799064636,0.44971734285354614,-0.2610391080379486
1761469310428574000,9.803573974609375,0.267219603061676,0.36655375361442566,-0.40322285890579224
1761469310438557000,9.813556884765624,0.2805732488632202,0.11264841258525848,-0.5732962489128113
1761469310448540000,9.823539794921874,0.2917707860469818,0.025372890755534172,-0.599615216255188
1761469310458523100,9.833523193359374,0.32406744360923767,0.03331160917878151,-0.5410159230232239
1761469310468507100,9.843507080078124,0.394127756357193,-0.011443343944847584,-0.45241492986679077
1761469310478489900,9.85348974609375,0.46307167410850525,-0.11047068983316422,-0.36732661724090576
1761469310488472800,9.863472900390626,0.50922691822052,-0.20353619754314423,-0.2915916442871094
1761469310498456800,9.873456787109374,0.4795047640800476,-0.21565325558185577,-0.23303194344043732
1761469310508440000,9.883440185546876,0.3837668001651764,-0.06337156891822815,-0.2213590443134308
