time,seconds_elapsed,z,y,x
1761469329211131000,0.122130859375,0.28212401270866394,-0.819633960723877,-0.5613763332366943
1761469329221113900,0.13211376953125,0.343536913394928,-0.642246425151825,-0.4023708701133728
1761469329231097900,0.142097900390625,0.3619212508201599,-0.39836612343788147,-0.2538421154022217
1761469329241080800,0.152080810546875,0.3422778844833374,-0.13989683985710144,-0.15327946841716766
1761469329251063800,0.162063720703125,0.2985154688358307,0.11859703063964844,-0.11587989330291748
1761469329261047800,0.1720478515625,0.24187597632408142,0.2348574846982956,-0.10235971957445145
1761469329271030800,0.18203076171875,0.17523516714572906,0.16530902683734894,-0.030755572021007538
1761469329281013800,0.192013671875,0.10520361363887787,-0.012204085476696491,0.06853345036506653
1761469329290997800,0.201997802734375,0.07265473157167435,-0.2048342525959015,0.16632552444934845
1761469329300980700,0.211980712890625,0.05972263962030411,-0.3467106223106384,0.20854192972183228
1761469329310964700,0.22196484375,0.05779291316866875,-0.4642185866832733,0.19430039823055267
1761469329320948000,0.231947998046875,0.0523434653878212,-0.6540785431861877,0.12308631092309952
1761469329330931000,0.241930908203125,0.041382160037755966,-0.8950514793395996,0.023840155452489853
1761469329340914700,0.251914794921875,0.010796856135129929,-1.1172070503234863,-0.07228843867778778
1761469329350897700,0.261897705078125,-0.04809921979904175,-1.2800438404083252,-0.180240198969841
1761469329360881000,0.271880859375,-0.12181399762630463,-1.3931593894958496,-0.2839837372303009
1761469329370865000,0.281864990234375,-0.20686310529708862,-1.3930206298828125,-0.36576464772224426
1761469329380847900,0.291847900390625,-0.28346264362335205,-1.2761564254760742,-0.42730075120925903
1761469329390830800,0.301830810546875,-0.3544563949108124,-0.9751526713371277,-0.47655192017555237
1761469329400814800,0.31181494140625,-0.3989574909210205,-0.5600997805595398,-0.5134111642837524
1761469329410797800,0.3217978515625,-0.40533363819122314,-0.1125238910317421,-0.5250901579856873
1761469329420780800,0.33178076171875,-0.40173137187957764,0.2773488461971283,-0.49252334237098694
1761469329430764800,0.341764892578125,-0.3959597647190094,0.5769760608673096,-0.4038909673690796
1761469329440747800,0.351747802734375,-0.40545517206192017,0.7754545211791992,-0.24920222163200378
1761469329450730800,0.361730712890625,-0.43087610602378845,0.8938735723495483,-0.061287444084882736
1761469329460714800,0.37171484375,-0.4546694755554199,0.9512574076652527,0.1423254907131195
1761469329470698000,0.381697998046875,-0.46078088879585266,0.9781835675239563,0.3401767909526825
1761469329480681000,0.391680908203125,-0.4780126214027405,1.0293232202529907,0.47340163588523865
1761469329490664700,0.401664794921875,-0.5140491724014282,1.1336256265640259,0.5550919771194458
1761469329500647700,0.411647705078125,-0.5627697110176086,1.290121078491211,0.6265788078308105
1761469329510631000,0.421630859375,-0.6383089423179626,1.4928414821624756,0.6990940570831299
1761469329520615000,0.431614990234375,-0.7073372602462769,1.702530860900879,0.7418564558029175
1761469329530598000,0.441597900390625,-0.7819987535476685,1.910754680633545,0.7528097629547119
1761469329540580900,0.451580810546875,-0.8873695135116577,2.093200206756592,0.7311760187149048
1761469329550564900,0.46156494140625,-0.9907994866371155,2.39487361907959,0.61102694272995
1761469329560547800,0.4715478515625,-1.0756717920303345,2.786818504333496,0.2731785178184509
1761469329570530800,0.48153076171875,-1.0795986652374268,3.150977611541748,-0.10205314308404922
1761469329580514800,0.491514892578125,-0.9292073845863342,3.197195053100586,-0.20761612057685852
1761469329590497800,0.501497802734375,-0.768891453742981,1.980621099472046,0.3457717001438141
1761469329600480800,0.511480712890625,-0.31544768810272217,1.2191284894943237,0.20684181153774261
1761469329610464800,0.52146484375,-0.026118135079741478,0.4347127377986908,0.1143675372004509
1761469329620448000,0.531447998046875,0.14927804470062256,0.21433167159557343,0.17872725427150726
1761469329630431000,0.541430908203125,0.15952882170677185,0.4804893136024475,0.17429469525814056
1761469329640415000,0.5514150390625,0.08770273625850677,0.7988529801368713,0.03136035427451134
1761469329650397700,0.561397705078125,0.028323302045464516,1.0334577560424805,-0.058381251990795135
1761469329660381700,0.571381591796875,-0.011638140305876732,1.0643876791000366,-0.09906147420406342
1761469329670365000,0.581364990234375,0.028473325073719025,0.9480302929878235,-0.09579217433929443
1761469329680348000,0.591347900390625,0.14784637093544006,0.7574289441108704,-0.050627872347831726
1761469329690330600,0.60133056640625,0.2788086533546448,0.4896611273288727,-0.006437245290726423
1761469329700315000,0.61131494140625,0.41775277256965637,0.1773950159549713,0.021233372390270233
1761469329710297900,0.6212978515625,0.5535129904747009,0.007754052523523569,0.046218618750572205
1761469329720281900,0.63128173828125,0.6153585314750671,-0.001894947956316173,0.09009849280118942
1761469329730264800,0.641264892578125,0.6170816421508789,0.08261913806200027,0.10830652713775635
1761469329740247800,0.651247802734375,0.5655398964881897,0.1750592589378357,0.09121230244636536
1761469329750231800,0.661231689453125,0.5011845827102661,0.2347755879163742,0.03385340794920921
1761469329760214800,0.67121484375,0.42624011635780334,0.25349318981170654,-0.08881444483995438
1761469329770197800,0.68119775390625,0.33328860998153687,0.19735188782215118,-0.26307278871536255
1761469329780181800,0.691181640625,0.25660622119903564,0.09970128536224365,-0.40443992614746094
1761469329790165000,0.7011650390625,0.20338988304138184,0.002679132856428623,-0.5032448172569275
1761469329800147700,0.711147705078125,0.14415676891803741,-0.06354972720146179,-0.5348833799362183
1761469329810131700,0.721131591796875,0.10560350865125656,-0.10606389492750168,-0.5600388050079346
1761469329820114200,0.7311142578125,0.12612849473953247,-0.18844538927078247,-0.5830283761024475
1761469329830097200,0.74109716796875,0.20004425942897797,-0.3049483001232147,-0.5631470680236816
1761469329840081200,0.7510810546875,0.30652758479118347,-0.36270374059677124,-0.5015990138053894
1761469329850064400,0.761064453125,0.38360652327537537,-0.31465956568717957,-0.4186105728149414
1761469329860047400,0.77104736328125,0.41036471724510193,-0.1688249409198761,-0.3074730336666107
1761469329870031400,0.78103125,0.4168734848499298,0.015464209951460361,-0.20282040536403656
1761469329880014000,0.79101416015625,0.39688435196876526,0.22059272229671478,-0.16641205549240112
1761469329889997300,0.800997314453125,0.3354007303714752,0.3734520375728607,-0.24297234416007996
1761469329899981300,0.810981201171875,0.2424394190311432,0.4117301106452942,-0.3806452453136444
1761469329909964300,0.82096435546875,0.20215457677841187,0.2571951448917389,-0.5044358968734741
1761469329919947300,0.830947265625,0.1698598712682724,0.07101715356111526,-0.5693771243095398
1761469329929931300,0.84093115234375,0.16371037065982819,-0.026991965249180794,-0.6181683540344238
1761469329939914200,0.850914306640625,0.18348053097724915,-0.10807432234287262,-0.7074658870697021
1761469329949898200,0.860898193359375,0.21258968114852905,-0.22542890906333923,-0.7655901908874512
1761469329959881200,0.870881103515625,0.23077990114688873,-0.41784390807151794,-0.7491512298583984
1761469329969864400,0.880864501953125,0.2338571846485138,-0.5733519792556763,-0.6654273271560669
1761469329979848200,0.89084814453125,0.22131673991680145,-0.5678891539573669,-0.5323916077613831
1761469329989831200,0.9008310546875,0.19934380054473877,-0.41796356439590454,-0.3473503291606903
1761469329999814100,0.910814208984375,0.1523655205965042,-0.2179495394229889,-0.10951295495033264
1761469330009798400,0.92079833984375,0.09939365833997726,-0.043126869946718216,0.1357031911611557
1761469330019781400,0.930781494140625,0.05477146804332733,0.02245488576591015,0.3051184117794037
1761469330029764000,0.94076416015625,0.05692383646965027,-0.07519097626209259,0.3407001197338104
1761469330039748000,0.950748046875,0.10938538610935211,-0.27372410893440247,0.3127521276473999
1761469330049731300,0.9607314453125,0.15969648957252502,-0.3961767852306366,0.2918050289154053
1761469330059714300,0.97071435546875,0.17844150960445404,-0.44063249230384827,0.27521201968193054
1761469330069698300,0.9806982421875,0.17133912444114685,-0.4521602392196655,0.2672369182109833
1761469330079681300,0.990681396484375,0.13415513932704926,-0.47220298647880554,0.2634630799293518
1761469330089664300,1.000664306640625,0.08712797611951828,-0.4637354612350464,0.28070303797721863
1761469330099648300,1.010648193359375,0.04208109900355339,-0.44771644473075867,0.324435293674469
1761469330109631200,1.02063134765625,-0.01616223156452179,-0.45614293217658997,0.3993052542209625
1761469330119614500,1.030614501953125,-0.07908593863248825,-0.5383739471435547,0.4313541650772095
1761469330129598200,1.04059814453125,-0.14072959125041962,-0.6580672860145569,0.4395551085472107
1761469330139581200,1.050581298828125,-0.1598663479089737,-0.7923038601875305,0.43954646587371826
1761469330149564200,1.060564208984375,-0.15989510715007782,-0.8824441432952881,0.42806315422058105
1761469330159548200,1.070548095703125,-0.1419004499912262,-0.9122076630592346,0.4119110703468323
1761469330169531400,1.080531494140625,-0.12196775525808334,-0.9293176531791687,0.40290266275405884
1761469330179515400,1.090515380859375,-0.09419312328100204,-0.9521593451499939,0.3822419047355652
1761469330189498000,1.100498046875,-0.09221253544092178,-0.9604596495628357,0.3627307713031769
1761469330199481300,1.1104814453125,-0.10731438547372818,-0.9146390557289124,0.38150620460510254
1761469330209465300,1.12046533203125,-0.15441904962062836,-0.8220388293266296,0.4206371009349823
1761469330219448300,1.1304482421875,-0.2148447483778,-0.6786401271820068,0.4846286475658417
1761469330229431000,1.14043115234375,-0.2663039565086365,-0.5300876498222351,0.5467157363891602
1761469330239415300,1.150415283203125,-0.3052942752838135,-0.4247601628303528,0.5851011276245117
1761469330249398300,1.160398193359375,-0.31399133801460266,-0.37608158588409424,0.5886117219924927
1761469330259381200,1.17038134765625,-0.318081796169281,-0.3376266658306122,0.5452487468719482
1761469330269365200,1.180365234375,-0.32467496395111084,-0.22035488486289978,0.4394799768924713
1761469330279348200,1.19034814453125,-0.35036134719848633,0.020765764638781548,0.28438395261764526
1761469330289331200,1.200331298828125,-0.3895641267299652,0.40017780661582947,0.08737926930189133
1761469330299315200,1.210315185546875,-0.45105981826782227,0.8476511240005493,-0.1795681267976761
1761469330309298200,1.220298095703125,-0.5182883739471436,1.1080899238586426,-0.48274317383766174
1761469330319281400,1.230281494140625,-0.5427790880203247,1.04862380027771,-0.6789856553077698
1761469330329265400,1.240265380859375,-0.5491224527359009,0.8281289339065552,-0.8098935484886169
1761469330339248000,1.250248046875,-0.5081238150596619,0.5567460656166077,-0.8364830017089844
1761469330349231400,1.2602314453125,-0.4486194849014282,0.2905135750770569,-0.7635142803192139
1761469330359215400,1.27021533203125,-0.38966089487075806,0.15541422367095947,-0.619726836681366
1761469330369198300,1.2801982421875,-0.3823963403701782,0.2125350385904312,-0.4275294542312622
1761469330379181000,1.29018115234375,-0.36909714341163635,0.28153297305107117,-0.23132279515266418
1761469330389165000,1.3001650390625,-0.33602043986320496,0.29013365507125854,-0.0885656401515007
1761469330399148300,1.310148193359375,-0.2990567982196808,0.2073052078485489,0.018946494907140732
1761469330409132300,1.32013232421875,-0.2623927891254425,-0.0004637057427316904,0.06201007962226868
1761469330419115300,1.330115234375,-0.2265186756849289,-0.22123126685619354,0.01834544911980629
1761469330429098200,1.34009814453125,-0.18091949820518494,-0.32128435373306274,-0.045953646302223206
1761469330439082200,1.350082275390625,-0.12751981616020203,-0.30146756768226624,-0.05940072238445282
1761469330449065200,1.360065185546875,-0.06050536781549454,-0.2644712030887604,-0.02316095679998398
1761469330459048200,1.370048095703125,0.0016501774080097675,-0.24885974824428558,0.01373164914548397
1761469330469032200,1.3800322265625,0.041025012731552124,-0.26532551646232605,0.024062050506472588
1761469330479015400,1.390015380859375,0.04853960871696472,-0.28201547265052795,0.02644980698823929
1761469330488998100,1.399998046875,0.028512636199593544,-0.2607807517051697,0.006947478745132685
1761469330498982100,1.409982177734375,0.00042810477316379547,-0.1882200688123703,-0.014856833964586258
1761469330508965400,1.41996533203125,-0.012774783186614513,-0.17423874139785767,-0.045882128179073334
1761469330518948400,1.4299482421875,0.006756836082786322,-0.207406684756279,-0.07604507356882095
1761469330528932400,1.439932373046875,0.03515199199318886,-0.24976985156536102,-0.09480810910463333
1761469330538915000,1.4499150390625,0.07665452361106873,-0.30392226576805115,-0.08588166534900665
1761469330548898300,1.459898193359375,0.14310145378112793,-0.35358619689941406,-0.07791668176651001
1761469330558882300,1.46988232421875,0.2125079184770584,-0.4296274781227112,-0.06747710704803467
1761469330568865300,1.479865234375,0.28282999992370605,-0.5339139699935913,-0.0748298317193985
1761469330578848300,1.48984814453125,0.3451704978942871,-0.6231368184089661,-0.12801356613636017
1761469330588832300,1.499832275390625,0.3995458483695984,-0.6379400491714478,-0.23526784777641296
1761469330598815200,1.509815185546875,0.45759284496307373,-0.5789491534233093,-0.41125810146331787
1761469330608799200,1.51979931640625,0.5067678689956665,-0.4731806218624115,-0.6242406368255615
1761469330618782200,1.5297822265625,0.5210080742835999,-0.34815701842308044,-0.8161571621894836
1761469330628765400,1.539765380859375,0.5065085291862488,-0.1912102997303009,-0.904977023601532
1761469330638749400,1.54974951171875,0.4204678237438202,0.0010625519789755344,-0.8808378577232361
1761469330648732200,1.559732177734375,0.32948383688926697,0.15101850032806396,-0.8570862412452698
1761469330658715100,1.569715087890625,0.3093916177749634,0.16719040274620056,-0.9141808748245239
1761469330668699400,1.579699462890625,0.3289232552051544,-0.04614851251244545,-1.0368320941925049
1761469330678682400,1.589682373046875,0.3997172713279724,-0.46048590540885925,-1.1722673177719116
1761469330688665000,1.5996650390625,0.5024212598800659,-0.916694700717926,-1.263692855834961
1761469330698649000,1.609649169921875,0.5643218755722046,-1.1366894245147705,-1.22250497341156
1761469330708632300,1.61963232421875,0.5634174346923828,-1.0632964372634888,-1.094246506690979
1761469330718615300,1.629615234375,0.519101619720459,-0.7387736439704895,-0.907066285610199
1761469330728599300,1.639599365234375,0.44449105858802795,-0.2699403762817383,-0.6608155369758606
1761469330738582000,1.64958203125,0.37660515308380127,0.21543191373348236,-0.36518481373786926
1761469330748565200,1.659565185546875,0.29928481578826904,0.5328101515769958,-0.05430656671524048
1761469330758549200,1.66954931640625,0.2363910973072052,0.6748431921005249,0.1894635558128357
1761469330768532200,1.6795322265625,0.21938522160053253,0.6688023209571838,0.37709417939186096
1761469330778516200,1.68951611328125,0.23815077543258667,0.5545209646224976,0.4842170476913452
1761469330788499500,1.69949951171875,0.24176627397537231,0.45653578639030457,0.4749303460121155
1761469330798482200,1.709482177734375,0.20286837220191956,0.43460291624069214,0.3856600821018219
1761469330808466200,1.719466064453125,0.11835134774446487,0.46084651350975037,0.2820572555065155
1761469330818452200,1.7294521484375,0.025113433599472046,0.5056007504463196,0.1969408541917801
1761469330828435200,1.739435302734375,-0.05465596169233322,0.5326952338218689,0.12105435132980347
1761469330838419200,1.749419189453125,-0.11149128526449203,0.48207545280456543,0.042999252676963806
1761469330848402200,1.759402099609375,-0.13951414823532104,0.4050467014312744,-0.02069050818681717
1761469330858385400,1.769385498046875,-0.13806118071079254,0.3359529674053192,-0.0624665841460228
1761469330868369200,1.779369140625,-0.12164361029863358,0.25002235174179077,-0.08545925468206406
1761469330878352100,1.78935205078125,-0.12461540848016739,0.09719827771186829,-0.07966729253530502
1761469330888335000,1.799335205078125,-0.118491992354393,-0.08494915813207626,-0.020574145019054413
1761469330898319400,1.8093193359375,-0.10190671682357788,-0.3034045696258545,0.0502309575676918
1761469330908302300,1.81930224609375,-0.091008260846138,-0.5271061062812805,0.13381826877593994
1761469330918285000,1.82928515625,-0.0909591019153595,-0.6981240510940552,0.2263956516981125
1761469330928269000,1.83926904296875,-0.12927000224590302,-0.783319890499115,0.3218012750148773
1761469330938252300,1.849252197265625,-0.18952204287052155,-0.8222755193710327,0.40280500054359436
1761469330948236300,1.859236328125,-0.24612514674663544,-0.8062222599983215,0.4435864984989166
1761469330958219300,1.86921923828125,-0.31725817918777466,-0.6962918043136597,0.4838981628417969
1761469330968202200,1.8792021484375,-0.39599108695983887,-0.5279462337493896,0.5033804774284363
1761469330978186200,1.889186279296875,-0.4677652418613434,-0.38272368907928467,0.533741295337677
1761469330988169200,1.899169189453125,-0.514146089553833,-0.236379012465477,0.5764051675796509
1761469330998152200,1.909152099609375,-0.5758793354034424,-0.05779013782739639,0.574481189250946
1761469331008136200,1.91913623046875,-0.6697006225585938,0.17374375462532043,0.4098280668258667
1761469331018119200,1.929119140625,-0.7730467319488525,0.3069383203983307,0.10316363722085953
1761469331028102100,1.93910205078125,-0.839432954788208,0.1675972044467926,-0.21544258296489716
1761469331038086100,1.949086181640625,-0.8368579149246216,-0.251746267080307,-0.39486345648765564
1761469331048069000,1.959069091796875,-0.7731093168258667,-0.7688506245613098,-0.422821581363678
1761469331058052400,1.96905224609375,-0.6624513268470764,-1.0815982818603516,-0.32833799719810486
1761469331068036400,1.979036376953125,-0.5627143383026123,-1.0117156505584717,-0.16771849989891052
1761469331078019000,1.98901904296875,-0.5240941643714905,-0.6592454314231873,-0.043760012835264206
1761469331088002300,1.999002197265625,-0.5337492227554321,-0.19468073546886444,0.03595399111509323
1761469331097986300,2.008986328125,-0.54619961977005,0.2648971676826477,0.11487183719873428
1761469331107969300,2.01896923828125,-0.50691157579422,0.6495615243911743,0.21474596858024597
1761469331117952000,2.028951904296875,-0.4326116144657135,0.8792641758918762,0.3426268696784973
1761469331127936000,2.03893603515625,-0.31523627042770386,0.8641136884689331,0.4681544303894043
1761469331137919200,2.048919189453125,-0.15640665590763092,0.6520171165466309,0.5672557353973389
1761469331147903200,2.0589033203125,0.02194630168378353,0.39447852969169617,0.6155542731285095
1761469331157886200,2.06888623046875,0.16123132407665253,0.19956280291080475,0.6144936680793762
1761469331167869400,2.078869384765625,0.24001774191856384,0.119001105427742,0.550775408744812
1761469331177853200,2.088853271484375,0.2725702226161957,0.14306364953517914,0.4338296949863434
1761469331187836200,2.098836181640625,0.27988752722740173,0.21213778853416443,0.3036799430847168
1761469331197819100,2.108819091796875,0.265617311000824,0.2877846360206604,0.18580128252506256
1761469331207803100,2.11880322265625,0.236812561750412,0.3316919207572937,0.09492703527212143
1761469331217786400,2.128786376953125,0.22989627718925476,0.34310591220855713,0.028009500354528427
1761469331227769000,2.13876904296875,0.23371897637844086,0.3188929855823517,-0.0015819479012861848
1761469331237753000,2.148753173828125,0.2435426563024521,0.2290138602256775,0.009694515727460384
1761469331247736300,2.158736328125,0.2558286190032959,0.1222194954752922,0.043974459171295166
1761469331257719300,2.16871923828125,0.28087371587753296,0.01065630093216896,0.08724648505449295
1761469331267703300,2.178703369140625,0.30469009280204773,-0.09535934776067734,0.12459865212440491
1761469331277686000,2.18868603515625,0.34519731998443604,-0.1583956778049469,0.16258014738559723
1761469331287669200,2.198669189453125,0.3938519358634949,-0.1769682914018631,0.182322159409523
1761469331297653200,2.2086533203125,0.45373204350471497,-0.12778599560260773,0.15037858486175537
1761469331307636200,2.21863623046875,0.5099740028381348,-0.022420158609747887,0.0746324211359024
1761469331317619200,2.228619140625,0.5489424467086792,0.09954747557640076,-0.0318886861205101
1761469331327603200,2.238603271484375,0.5669369101524353,0.19659067690372467,-0.16374951601028442
1761469331337586200,2.248586181640625,0.558403491973877,0.21058964729309082,-0.2872989773750305
1761469331347570200,2.258570068359375,0.5277881026268005,0.11943924427032471,-0.42188820242881775
1761469331357553200,2.26855322265625,0.4730525016784668,-0.09290798753499985,-0.5771278142929077
1761469331367536400,2.278536376953125,0.39773669838905334,-0.24824830889701843,-0.701648473739624
1761469331377520400,2.288520263671875,0.3471077084541321,-0.22871838510036469,-0.7971897125244141
1761469331387503000,2.298503173828125,0.3568892180919647,-0.04372403398156166,-0.8190779685974121
1761469331397486300,2.308486328125,0.41882577538490295,0.16945545375347137,-0.7487240433692932
1761469331407470300,2.31847021484375,0.5285993814468384,0.315614253282547,-0.5989094972610474
1761469331417453300,2.328453369140625,0.6363919377326965,0.3613232672214508,-0.42868101596832275
1761469331427436000,2.33843603515625,0.7315306663513184,0.3343465030193329,-0.30101731419563293
1761469331437420000,2.348419921875,0.789246141910553,0.3020002841949463,-0.2682684659957886
1761469331447403300,2.3584033203125,0.7922568321228027,0.31238552927970886,-0.3228001296520233
1761469331457386200,2.36838623046875,0.7679446339607239,0.3437727987766266,-0.36351296305656433
1761469331467370200,2.378370361328125,0.7277175784111023,0.3977334797382355,-0.34150034189224243
1761469331477353200,2.388353271484375,0.6727479696273804,0.44466620683670044,-0.2590499818325043
1761469331487336200,2.398336181640625,0.6100457310676575,0.46179112792015076,-0.11695171892642975
1761469331497320200,2.4083203125,0.57430100440979,0.4384136497974396,0.05030728876590729
1761469331507303200,2.41830322265625,0.5256442427635193,0.35588547587394714,0.1609208881855011
1761469331517286400,2.428286376953125,0.4637942612171173,0.2243632972240448,0.21276973187923431
1761469331527270400,2.4382705078125,0.40333330631256104,0.14400534331798553,0.23134182393550873
1761469331537253000,2.448253173828125,0.3090117275714874,0.18400949239730835,0.21644964814186096
1761469331547237000,2.458237060546875,0.1734733134508133,0.35400837659835815,0.18581023812294006
1761469331557220000,2.46822021484375,0.02244582399725914,0.5575345158576965,0.12893342971801758
1761469331567203300,2.478203369140625,-0.091724693775177,0.8152922987937927,0.0551295168697834
1761469331577187300,2.488187255859375,-0.1588752120733261,1.107921838760376,0.00038871681317687035
1761469331587170000,2.498170166015625,-0.20233294367790222,1.38250732421875,-0.019546907395124435
1761469331597153300,2.5081533203125,-0.2385847419500351,1.6031990051269531,-0.010248513892292976
1761469331607137300,2.51813720703125,-0.25972679257392883,1.7087880373001099,0.027010174468159676
1761469331617120300,2.528120361328125,-0.25895246863365173,1.6766971349716187,0.09788718819618225
1761469331627103200,2.538103271484375,-0.2524956464767456,1.5793417692184448,0.22704091668128967
1761469331637087200,2.548087158203125,-0.2547180950641632,1.4122858047485352,0.389133095741272
1761469331647070200,2.5580703125,-0.2499513030052185,1.1518577337265015,0.5416613817214966
1761469331657053200,2.56805322265625,-0.25498074293136597,0.8702904582023621,0.6423320174217224
1761469331667037200,2.578037109375,-0.2937837839126587,0.6541357636451721,0.67350834608078
1761469331677020400,2.5880205078125,-0.34611329436302185,0.46379145979881287,0.6633938550949097
1761469331687003100,2.598003173828125,-0.3936810791492462,0.28264376521110535,0.6643427014350891
1761469331696987100,2.607987060546875,-0.42311331629753113,0.15033718943595886,0.7033908367156982
1761469331706970000,2.61797021484375,-0.38012242317199707,0.06994754821062088,0.7925729155540466
1761469331716953300,2.627953369140625,-0.286782443523407,0.09088530391454697,0.8366590142250061
1761469331726937300,2.637937255859375,-0.18901434540748596,0.15276437997817993,0.8154869079589844
1761469331736920000,2.647920166015625,-0.09233783185482025,0.18298593163490295,0.7588897347450256
1761469331746904000,2.657904052734375,-0.03754729405045509,0.17476768791675568,0.6841832399368286
1761469331756887300,2.66788720703125,-0.02478373982012272,0.12494930624961853,0.5738615989685059
1761469331766870300,2.677870361328125,-0.07112620770931244,0.02132304012775421,0.3808756470680237
1761469331776854300,2.687854248046875,-0.17809410393238068,0.05842972546815872,0.18458664417266846
1761469331786837000,2.6978369140625,-0.3014355003833771,0.2499386966228485,0.05570162832736969
1761469331796820200,2.7078203125,-0.3521009683609009,0.3567441403865814,-0.025653813034296036
1761469331806804200,2.71780419921875,-0.3335552513599396,0.27617499232292175,-0.07019039243459702
1761469331816787200,2.727787109375,-0.2502841055393219,0.11442532390356064,-0.041555047035217285
1761469331826766800,2.737766845703125,-0.17753534018993378,0.08890052139759064,0.06511813402175903
1761469331836750800,2.747750732421875,-0.05999694764614105,0.25538209080696106,0.2220422625541687
1761469331846733800,2.75773388671875,0.05618797987699509,0.4493723213672638,0.30103084444999695
1761469331856716800,2.767716796875,0.17977482080459595,0.5941711664199829,0.23504555225372314
1761469331866700800,2.77770068359375,0.2880677282810211,0.6131062507629395,0.23699206113815308
1761469331876684000,2.78768408203125,0.393768846988678,0.44132235646247864,0.2993185818195343
1761469331886666800,2.797666748046875,0.485740602016449,0.1528354436159134,0.18802505731582642
1761469331896650800,2.807650634765625,0.5683146119117737,-0.03228313475847244,0.11382485181093216
1761469331906633700,2.8176337890625,0.6389482617378235,-0.041934430599212646,0.08544620871543884
1761469331916617000,2.827616943359375,0.6681967377662659,0.037442296743392944,0.04724349081516266
1761469331926601000,2.83760107421875,0.6583004593849182,0.1400323212146759,-0.004345403052866459
1761469331936583700,2.847583740234375,0.6184250116348267,0.24758704006671906,-0.06328777223825455
1761469331946567700,2.857567626953125,0.5299710035324097,0.40888485312461853,-0.03512910008430481
1761469331956551000,2.867551025390625,0.4430200457572937,0.5105036497116089,-0.07017156481742859
1761469331966534000,2.877533935546875,0.32534027099609375,0.5557595491409302,-0.17875689268112183
1761469331976518000,2.887517822265625,0.21517671644687653,0.5428633689880371,-0.3001609444618225
1761469331986500900,2.8975009765625,0.11233822256326675,0.4533039331436157,-0.41782552003860474
1761469331996483800,2.90748388671875,0.025281378999352455,0.30334755778312683,-0.47484317421913147
1761469332006467800,2.9174677734375,-0.013278530910611153,0.16525574028491974,-0.4803505837917328
1761469332016450800,2.927450927734375,-0.02317100763320923,0.08993510156869888,-0.45262837409973145
1761469332026434000,2.93743408203125,-0.02517077513039112,0.051809027791023254,-0.43410661816596985
1761469332036417800,2.947417724609375,-0.021103953942656517,0.03450814634561539,-0.4454147517681122
1761469332046400800,2.95740087890625,0.006919690407812595,0.03210198134183884,-0.485550194978714
1761469332056383700,2.9673837890625,0.05497110262513161,0.03484050929546356,-0.5448305010795593
1761469332066367700,2.97736767578125,0.14500273764133453,-0.012250569649040699,-0.5701524019241333
1761469332076351000,2.98735107421875,0.2677353024482727,-0.06036251783370972,-0.5684177279472351
1761469332086333700,2.997333740234375,0.4129255414009094,-0.05014663189649582,-0.5787909626960754
1761469332096317700,3.007317626953125,0.5473946928977966,-0.06614737957715988,-0.6245197653770447
1761469332106301000,3.017301025390625,0.646307647228241,-0.13312801718711853,-0.6577274799346924
1761469332116284000,3.027283935546875,0.691061794757843,-0.18158088624477386,-0.6172389388084412
1761469332126268000,3.037267822265625,0.6410015821456909,-0.22524234652519226,-0.5753874182701111
1761469332136250600,3.047250732421875,0.5536185503005981,-0.2584202289581299,-0.6025600433349609
1761469332146234600,3.057234619140625,0.48132994771003723,-0.28670406341552734,-0.7008996605873108
1761469332156217900,3.0672177734375,0.4074045717716217,-0.352224737405777,-0.9004021883010864
1761469332166200800,3.077200927734375,0.30092287063598633,-0.3642808794975281,-1.0249502658843994
1761469332176184800,3.087184814453125,0.13220694661140442,-0.2030072659254074,-0.9190950393676758
1761469332186168000,3.09716796875,0.013379091396927834,-0.028906840831041336,-0.5680882930755615
1761469332196150800,3.10715087890625,0.07864449918270111,-0.004101322032511234,-0.00023903395049273968
1761469332206134800,3.117134765625,0.16531707346439362,-0.14414311945438385,0.47275567054748535
1761469332216117800,3.12711767578125,0.23995277285575867,-0.35305723547935486,0.7166982889175415
1761469332226101000,3.13710107421875,0.2598058581352234,-0.369633287191391,0.7747828960418701
1761469332236085000,3.1470849609375,0.226148322224617,-0.24036650359630585,0.7298924326896667
1761469332246067700,3.157067626953125,0.17366646230220795,-0.1801428496837616,0.6290393471717834
1761469332256051000,3.167051025390625,0.14911921322345734,-0.25438809394836426,0.5302985906600952
1761469332266035000,3.177034912109375,0.1365126073360443,-0.36798524856567383,0.43895748257637024
1761469332276018000,3.187017822265625,0.1061205267906189,-0.42824769020080566,0.3599637448787689
1761469332286000600,3.197000732421875,0.03869461640715599,-0.3784891963005066,0.30587175488471985
1761469332295984600,3.206984619140625,-0.050677165389060974,-0.20864839851856232,0.2567635178565979
1761469332305967900,3.2169677734375,-0.16485513746738434,0.01687127910554409,0.22778965532779694
1761469332315950800,3.226950927734375,-0.28303709626197815,0.26017358899116516,0.2073340266942978
1761469332325934800,3.236934814453125,-0.36935120820999146,0.47096651792526245,0.18610544502735138
1761469332335917800,3.246917724609375,-0.41898635029792786,0.6425749063491821,0.16756904125213623
1761469332345900800,3.25690087890625,-0.44424670934677124,0.787977397441864,0.16353781521320343
1761469332355884800,3.266884765625,-0.44518226385116577,0.9106013178825378,0.1845453828573227
1761469332365867800,3.27686767578125,-0.4224569797515869,0.9792053699493408,0.2209843546152115
1761469332375851000,3.28685107421875,-0.3714961111545563,0.974219024181366,0.2535606324672699
1761469332385835000,3.2968349609375,-0.27506038546562195,0.9108493328094482,0.2913509011268616
1761469332395817700,3.306817626953125,-0.15156134963035583,0.7904555797576904,0.32483136653900146
1761469332405801700,3.3168017578125,-0.05236564204096794,0.667220950126648,0.370606929063797
1761469332415785000,3.326784912109375,-0.00018282048404216766,0.564691960811615,0.4260947108268738
1761469332425768000,3.336767822265625,0.007851137779653072,0.4830586016178131,0.5017426013946533
1761469332435752000,3.346751953125,0.00038748933002352715,0.4297603964805603,0.5728741884231567
1761469332445734700,3.356734619140625,-0.0015859133563935757,0.37978166341781616,0.659826934337616
1761469332455718000,3.3667177734375,-0.001131625846028328,0.27815020084381104,0.7318180203437805
1761469332465702000,3.376701904296875,-0.0003188289701938629,0.04904751107096672,0.7574677467346191
1761469332475684900,3.386684814453125,0.006524211261421442,-0.26926371455192566,0.6807937622070312
1761469332485667800,3.396667724609375,0.00172839080914855,-0.5195965766906738,0.5171329379081726
1761469332495651800,3.40665185546875,-0.009743350557982922,-0.6803544163703918,0.3408876359462738
1761469332505634800,3.416634765625,-0.017911264672875404,-0.8926450610160828,0.16970710456371307
1761469332515617800,3.42661767578125,-0.04351627081632614,-1.169826626777649,0.03310900181531906
1761469332525601800,3.436601806640625,-0.07597141712903976,-1.2742292881011963,-0.039137765765190125
1761469332535585000,3.4465849609375,-0.1857093721628189,-1.0276131629943848,-0.11137174069881439
1761469332545567700,3.456567626953125,-0.30533909797668457,-0.4669155180454254,-0.18065039813518524
1761469332555551700,3.4665517578125,-0.39963048696517944,0.02422236278653145,-0.24252848327159882
1761469332565534700,3.47653466796875,-0.41026046872138977,0.17153139412403107,-0.2599506080150604
1761469332575518000,3.48651806640625,-0.33426526188850403,0.04252643138170242,-0.20538340508937836
1761469332585502000,3.496501953125,-0.3127266764640808,-0.04781704768538475,-0.07339820265769958
1761469332595484700,3.506484619140625,-0.248846173286438,0.08966626226902008,0.031186040490865707
1761469332605468700,3.51646875,-0.13823311030864716,0.24240094423294067,0.05310598388314247
1761469332615452000,3.526451904296875,0.007590501569211483,0.23328955471515656,-0.023679275065660477
1761469332625435000,3.536434814453125,0.16330020129680634,0.23550929129123688,-0.09863980114459991
1761469332635419000,3.5464189453125,0.29038214683532715,0.27178430557250977,-0.1350730061531067
1761469332645401900,3.55640185546875,0.3566570580005646,0.21351061761379242,-0.12511040270328522
1761469332655384800,3.566384765625,0.3570637106895447,0.16500431299209595,-0.05614328756928444
1761469332665368800,3.576368896484375,0.3319661021232605,0.1677636057138443,0.020950164645910263
1761469332675351800,3.586351806640625,0.3167780935764313,0.21539729833602905,0.054580044001340866
1761469332685335000,3.5963349609375,0.30617204308509827,0.29962030053138733,0.11150377988815308
1761469332695319000,3.606319091796875,0.29682502150535583,0.36379191279411316,0.15795262157917023
1761469332705301800,3.6163017578125,0.27511921525001526,0.40134328603744507,0.1530236452817917
1761469332715284700,3.62628466796875,0.26113730669021606,0.42709577083587646,0.09167136251926422
1761469332725268700,3.636268798828125,0.23770202696323395,0.46055278182029724,-0.006175307556986809
1761469332735252000,3.646251953125,0.20793691277503967,0.4751254618167877,-0.12305990606546402
1761469332745234700,3.656234619140625,0.17039619386196136,0.4853935241699219,-0.2270909696817398
1761469332755218700,3.66621875,0.12789377570152283,0.47339603304862976,-0.278245210647583
1761469332765202000,3.676201904296875,0.08009856194257736,0.43963539600372314,-0.29872968792915344
1761469332775185000,3.686184814453125,0.04604190215468407,0.40377697348594666,-0.3025246858596802
1761469332785169000,3.6961689453125,0.022303549572825432,0.31873929500579834,-0.30321791768074036
1761469332795152000,3.70615185546875,0.0163365937769413,0.2017245590686798,-0.303186297416687
1761469332805134800,3.716134765625,0.003498558886349201,0.09115412086248398,-0.2918492257595062
1761469332815118800,3.726118896484375,0.001414281316101551,-0.023368773981928825,-0.2934972643852234
1761469332825102300,3.736102294921875,0.0019794043619185686,-0.1565510630607605,-0.29595324397087097
1761469332835086300,3.74608642578125,0.01724548637866974,-0.2854171693325043,-0.31443527340888977
1761469332845069300,3.7560693359375,0.024275433272123337,-0.3237648010253906,-0.3519464433193207
1761469332855052300,3.76605224609375,0.03154102712869644,-0.22072552144527435,-0.36938244104385376
1761469332865036300,3.776036376953125,0.02845681831240654,-0.053941067308187485,-0.4002876281738281
1761469332875019300,3.786019287109375,0.0052819340489804745,-0.04246382787823677,-0.5129289627075195
1761469332885002500,3.79600244140625,-0.00785037875175476,-0.1085890457034111,-0.6810204982757568
1761469332894986500,3.805986572265625,-0.045154910534620285,-0.13135987520217896,-0.9141989946365356
1761469332904969500,3.815969482421875,-0.11784403026103973,0.07810040563344955,-1.128930687904358
1761469332914952200,3.8259521484375,-0.17210757732391357,0.36394640803337097,-1.247019648551941
1761469332924936200,3.835936279296875,0.049938276410102844,0.6170111298561096,-1.3303416967391968
1761469332934919400,3.84591943359375,0.08297672867774963,0.3184240460395813,-1.1268718242645264
1761469332944902400,3.85590234375,0.08852941542863846,-0.13536207377910614,-0.8015152215957642
1761469332954886400,3.865886474609375,-0.08960729092359543,-0.4955475628376007,-0.38469964265823364
1761469332964869400,3.875869384765625,-0.20790676772594452,-0.600857138633728,-0.009425896219909191
1761469332974852400,3.885852294921875,-0.3067186176776886,-0.5372781157493591,0.21843543648719788
1761469332984836400,3.89583642578125,-0.43633121252059937,-0.3759560286998749,0.32477545738220215
1761469332994819300,3.9058193359375,-0.5102626085281372,-0.16207675635814667,0.3434797525405884
1761469333004802300,3.91580224609375,-0.5646930932998657,0.013627961277961731,0.3436470031738281
1761469333014786300,3.925786376953125,-0.5479621887207031,0.04505451023578644,0.3717423677444458
1761469333024769300,3.935769287109375,-0.47668084502220154,-0.018137775361537933,0.4310736060142517
1761469333034752300,3.945752197265625,-0.37888529896736145,-0.16103579103946686,0.5193301439285278
1761469333044736500,3.955736572265625,-0.28240031003952026,-0.2331153154373169,0.6186756491661072
1761469333054719500,3.965719482421875,-0.22741270065307617,-0.18037262558937073,0.6491633653640747
1761469333064702200,3.9757021484375,-0.1977519989013672,-0.08815748244524002,0.6130964159965515
1761469333074686200,3.985686279296875,-0.15283694863319397,0.01936887577176094,0.5274156332015991
1761469333084669400,3.99566943359375,-0.17514652013778687,0.16797804832458496,0.41128554940223694
1761469333094652400,4.00565234375,-0.25644731521606445,0.35308918356895447,0.2785436511039734
1761469333104636400,4.015636474609375,-0.37018001079559326,0.5162727236747742,0.11248810589313507
1761469333114619100,4.025619140625,-0.47860562801361084,0.6417731046676636,-0.11835894733667374
1761469333124603400,4.035603271484375,-0.5589249134063721,0.7075369358062744,-0.35471075773239136
1761469333134586400,4.04558642578125,-0.5785072445869446,0.6475761532783508,-0.56967693567276
1761469333144569300,4.0555693359375,-0.53223717212677,0.46439966559410095,-0.7005979418754578
1761469333154553300,4.06555322265625,-0.42385923862457275,0.247954323887825,-0.7458803653717041
1761469333164536300,4.075536376953125,-0.340232789516449,0.028719725087285042,-0.7260358333587646
1761469333174519300,4.085519287109375,-0.2657743990421295,-0.2810700237751007,-0.6499404907226562
1761469333184503300,4.09550341796875,-0.15572646260261536,-0.5648441910743713,-0.5962432026863098
1761469333194486300,4.105486328125,-0.020185111090540886,-0.7228162884712219,-0.6302642226219177
1761469333204469500,4.115469482421875,0.10100043565034866,-0.7000025510787964,-0.7356137633323669
1761469333214453200,4.125453369140625,0.1472412496805191,-0.49600690603256226,-0.8754578828811646
1761469333224436200,4.135436279296875,0.13658355176448822,-0.18008410930633545,-1.0081815719604492
1761469333234419500,4.14541943359375,0.11985135078430176,0.12342152744531631,-1.117342472076416
1761469333244403500,4.155403564453125,0.13012689352035522,0.15864288806915283,-1.170335054397583
1761469333254386400,4.165386474609375,0.17909380793571472,-0.13396012783050537,-1.230353593826294
1761469333264369200,4.175369140625,0.31024810671806335,-0.43356335163116455,-1.2683875560760498
1761469333274353200,4.185353271484375,0.4562579095363617,-0.43089836835861206,-1.0793712139129639
1761469333284336400,4.19533642578125,0.4528232514858246,-0.18906283378601074,-0.7049759030342102
1761469333294319400,4.2053193359375,0.432373046875,0.031042471528053284,-0.42404523491859436
1761469333304303400,4.215303466796875,0.43848979473114014,0.11072266101837158,-0.34824448823928833
1761469333314286300,4.225286376953125,0.43485164642333984,0.1529366821050644,-0.40364837646484375
1761469333324269300,4.235269287109375,0.4337195158004761,0.12449706345796585,-0.47704213857650757
1761469333334253300,4.24525341796875,0.4341832399368286,0.04419584944844246,-0.44526392221450806
1761469333344236300,4.255236328125,0.45793864130973816,-0.09529148042201996,-0.33380505442619324
1761469333354219500,4.265219482421875,0.4025794267654419,-0.20244184136390686,-0.22546575963497162
1761469333364203500,4.27520361328125,0.3523183763027191,-0.1263827532529831,-0.16421066224575043
1761469333374186200,4.285186279296875,0.30734917521476746,0.006214252207428217,-0.06526859849691391
1761469333384169200,4.295169189453125,0.2908056080341339,0.09010275453329086,0.04341394454240799
1761469333394153500,4.305153564453125,0.2791372537612915,0.11608089506626129,0.10678350925445557
1761469333404136400,4.315136474609375,0.2725789546966553,0.09729708731174469,0.14013373851776123
1761469333414120400,4.325120361328125,0.2791745960712433,0.050580549985170364,0.1454448103904724
1761469333424103200,4.335103271484375,0.30174118280410767,-0.01920386031270027,0.10961996763944626
1761469333434086400,4.34508642578125,0.34172362089157104,-0.10277733206748962,0.04789968580007553
1761469333444070400,4.3550703125,0.38059964776039124,-0.18858066201210022,-0.027177756652235985
1761469333454053400,4.365053466796875,0.41648069024086,-0.26774075627326965,-0.11841683089733124
1761469333464036400,4.375036376953125,0.44435277581214905,-0.32872793078422546,-0.20892462134361267
1761469333474020400,4.385020263671875,0.4523911476135254,-0.32929566502571106,-0.3044235110282898
1761469333484003300,4.39500341796875,0.44110628962516785,-0.2825862169265747,-0.4092162251472473
1761469333493986300,4.404986328125,0.42573970556259155,-0.1831459105014801,-0.5126562714576721
1761469333503970300,4.41497021484375,0.40640464425086975,-0.06603820621967316,-0.5859584212303162
1761469333513953500,4.42495361328125,0.40986359119415283,0.048724837601184845,-0.6109180450439453
1761469333523936300,4.434936279296875,0.44560346007347107,0.13739532232284546,-0.5727624297142029
1761469333533920300,4.444920166015625,0.49581781029701233,0.1704670935869217,-0.4586007595062256
1761469333543903200,4.4549033203125,0.5497620105743408,0.12305057048797607,-0.30707889795303345
1761469333553886500,4.464886474609375,0.6040635704994202,0.048249322921037674,-0.15140116214752197
1761469333563870500,4.474870361328125,0.6239392757415771,0.030300147831439972,-0.016196997836232185
1761469333573853200,4.484853271484375,0.6076403856277466,0.12751664221286774,0.046693410724401474
1761469333583836400,4.49483642578125,0.5754688382148743,0.2842591106891632,0.01952730491757393
1761469333593820400,4.5048203125,0.5118918418884277,0.37309861183166504,-0.1365501433610916
1761469333603803400,4.514803466796875,0.47985556721687317,0.4059090316295624,-0.3658251464366913
1761469333613786000,4.5247861328125,0.5026912093162537,0.4231286644935608,-0.5831480622291565
1761469333623770000,4.53477001953125,0.5443092584609985,0.43878087401390076,-0.755706787109375
1761469333633753300,4.54475341796875,0.571326494216919,0.3648262023925781,-0.8947716355323792
1761469333643736300,4.554736328125,0.5786243677139282,0.20689302682876587,-0.9625504016876221
1761469333653720300,4.56472021484375,0.5967391729354858,-0.06536868959665298,-0.9081040024757385
1761469333663703600,4.57470361328125,0.6130297183990479,-0.4147264063358307,-0.6800388693809509
1761469333673686300,4.584686279296875,0.586269199848175,-0.6584524512290955,-0.34203973412513733
1761469333683670300,4.594670166015625,0.5290970206260681,-0.6810200810432434,0.02109052799642086
1761469333693653200,4.6046533203125,0.4128819406032562,-0.44547238945961,0.30511873960494995
1761469333703636500,4.614636474609375,0.24110537767410278,-0.08328914642333984,0.4388829171657562
1761469333713620500,4.624620361328125,0.08894146978855133,0.12796056270599365,0.47658103704452515
1761469333723603200,4.634603271484375,0.003783163381740451,0.10157928615808487,0.5371330976486206
1761469333733587200,4.644587158203125,-0.04777860641479492,-0.05912892147898674,0.5783446431159973
1761469333743570400,4.6545703125,-0.033949077129364014,-0.23149776458740234,0.5788905620574951
1761469333753553400,4.664553466796875,-0.005978836677968502,-0.29958075284957886,0.5150654315948486
1761469333763537400,4.674537353515625,0.008123932406306267,-0.24355876445770264,0.4066481292247772
1761469333773520100,4.68452001953125,0.0056931693106889725,-0.1287803202867508,0.2933516204357147
1761469333783503400,4.69450341796875,-0.018661970272660255,0.006636096630245447,0.18221762776374817
1761469333793487400,4.7044873046875,-0.06377536803483963,0.13255997002124786,0.10609698295593262
1761469333803470300,4.71447021484375,-0.11998004466295242,0.2087271809577942,0.07756120711565018
1761469333813453300,4.724453369140625,-0.17436033487319946,0.24228747189044952,0.0801030769944191
1761469333823436800,4.734436767578125,-0.24848118424415588,0.2453567534685135,0.10468778759241104
1761469333833419800,4.744419677734375,-0.29424118995666504,0.2351396679878235,0.16017206013202667
1761469333843402800,4.75440283203125,-0.3191862404346466,0.23869740962982178,0.2427617460489273
1761469333853386800,4.76438671875,-0.3334606885910034,0.2413845658302307,0.3314419090747833
1761469333863369700,4.77436962890625,-0.3401966094970703,0.22801735997200012,0.41139400005340576
1761469333873352700,4.784352783203125,-0.36839383840560913,0.20961427688598633,0.46287453174591064
1761469333883336700,4.794336669921875,-0.3983458876609802,0.1747116893529892,0.471513569355011
1761469333893319700,4.804319580078125,-0.44218307733535767,0.11876241117715836,0.4375130832195282
1761469333903302700,4.814302734375,-0.510376513004303,0.042167503386735916,0.4022600054740906
1761469333913283800,4.824283935546875,-0.5880891680717468,-0.04945429414510727,0.3882230222225189
1761469333923266600,4.8342666015625,-0.6271815896034241,-0.18002621829509735,0.38248157501220703
1761469333933250600,4.84425048828125,-0.5836184024810791,-0.39212608337402344,0.3715704083442688
1761469333943233800,4.85423388671875,-0.49213534593582153,-0.6573428511619568,0.32377782464027405
1761469333953216800,4.864216796875,-0.3804043233394623,-0.8540945053100586,0.2579217553138733
1761469333963200800,4.87420068359375,-0.26551422476768494,-0.8769795894622803,0.17579814791679382
1761469333973183700,4.884183837890625,-0.16658979654312134,-0.6920161843299866,0.024069679901003838
1761469333983166700,4.894166748046875,-0.04176342859864235,-0.4288617968559265,-0.1061548963189125
1761469333993150700,4.904150634765625,0.07245609909296036,-0.1902579814195633,-0.07630755007266998
1761469334003133700,4.9141337890625,0.14731727540493011,-0.14426225423812866,0.061116885393857956
1761469334013116700,4.92411669921875,0.20793749392032623,-0.274661123752594,0.1913800686597824
1761469334023100700,4.9341005859375,0.2470840960741043,-0.29153040051460266,0.18142783641815186
1761469334033083600,4.944083740234375,0.26206886768341064,-0.12350516766309738,0.18903906643390656
1761469334043066600,4.954066650390625,0.20358985662460327,0.25478407740592957,0.2551938593387604
1761469334053051000,4.96405078125,0.1711260825395584,0.5229012370109558,0.23270952701568604
1761469334063033900,4.974033935546875,0.18361204862594604,0.5040292739868164,0.07714416831731796
1761469334073016600,4.9840166015625,0.20755267143249512,0.3959552049636841,-0.04951085150241852
1761469334083000600,4.99400048828125,0.25378888845443726,0.317950963973999,-0.09626451134681702
1761469334092983800,5.00398388671875,0.2692375183105469,0.2389729768037796,-0.08221453428268433
1761469334102966800,5.013966796875,0.2622145116329193,0.188808873295784,-0.01545255072414875
1761469334112950800,5.02395068359375,0.28437215089797974,0.1850150227546692,0.07520289719104767
1761469334122933500,5.03393359375,0.2927890717983246,0.2168688178062439,0.16088077425956726
1761469334132916700,5.043916748046875,0.27535736560821533,0.22196225821971893,0.25104084610939026
1761469334142900700,5.053900634765625,0.2142530083656311,0.2236994355916977,0.30595895648002625
1761469334152883700,5.0638837890625,0.13594722747802734,0.24102579057216644,0.32487159967422485
1761469334162866700,5.07386669921875,0.06293613463640213,0.2669021487236023,0.3132767379283905
1761469334172850700,5.0838505859375,0.015209643170237541,0.2956930696964264,0.29186779260635376
1761469334182833700,5.093833740234375,-0.020625587552785873,0.29598337411880493,0.2616419792175293
1761469334192816600,5.103816650390625,-0.049500782042741776,0.28029486536979675,0.2513740658760071
1761469334202800600,5.113800537109375,-0.09238114207983017,0.28822922706604004,0.25994864106178284
1761469334212783900,5.123783935546875,-0.12401066720485687,0.27226200699806213,0.2709214687347412
1761469334222766600,5.1337666015625,-0.13779571652412415,0.31490081548690796,0.2680843770503998
1761469334232750600,5.14375048828125,-0.14949153363704681,0.43590790033340454,0.23692569136619568
1761469334242733800,5.15373388671875,-0.1592741161584854,0.586563229560852,0.18392692506313324
1761469334252717800,5.1637177734375,-0.14934314787387848,0.6827659010887146,0.1146717295050621
1761469334262700800,5.17370068359375,-0.10975045710802078,0.6533350348472595,0.04129098355770111
1761469334272683500,5.18368359375,-0.04902714863419533,0.5416029095649719,-0.017955515533685684
1761469334282667500,5.19366748046875,0.05017932876944542,0.4394363760948181,0.010981060564517975
1761469334292650800,5.203650634765625,0.09346653521060944,0.2848677933216095,0.13296277821063995
1761469334302633700,5.2136337890625,0.04587638005614281,-0.14969296753406525,0.020559797063469887
1761469334312617700,5.22361767578125,0.09983472526073456,-0.33222696185112,0.026343446224927902
1761469334322600700,5.2336005859375,0.11537612974643707,-0.4494699537754059,-0.015258592553436756
1761469334332583700,5.243583740234375,0.086473248898983,-0.3956398069858551,-0.13099651038646698
1761469334342567700,5.253567626953125,0.060130856931209564,-0.2831782400608063,-0.24635718762874603
1761469334352550700,5.263550537109375,0.06446998566389084,-0.2760871648788452,-0.364555686712265
1761469334362534000,5.273533935546875,0.12523293495178223,-0.3286563456058502,-0.4017893373966217
1761469334372518000,5.283517822265625,0.16305199265480042,-0.32252708077430725,-0.23012058436870575
1761469334382500600,5.29350048828125,0.16910135746002197,-0.23789608478546143,0.1703738272190094
1761469334392483600,5.303483642578125,0.13197265565395355,-0.23359237611293793,0.6268075704574585
1761469334402467800,5.3134677734375,0.04333440214395523,-0.3033994138240814,0.8306086659431458
1761469334412450800,5.323450927734375,0.020111536607146263,-0.4099106192588806,0.8054313659667969
1761469334422433500,5.33343359375,-0.037227652966976166,-0.4670194387435913,0.7628298401832581
1761469334432417500,5.34341748046875,-0.09918973594903946,-0.3920164108276367,0.7278706431388855
1761469334442400800,5.35340087890625,-0.16025841236114502,-0.26852136850357056,0.7043488025665283
1761469334452383700,5.3633837890625,-0.20614245533943176,-0.2411649376153946,0.684550940990448
1761469334462367700,5.37336767578125,-0.2106517255306244,-0.32144591212272644,0.6577275991439819
1761469334472350700,5.383350830078125,-0.20050889253616333,-0.3578473627567291,0.6057782173156738
1761469334482333700,5.393333740234375,-0.19677992165088654,-0.31053951382637024,0.5202665328979492
1761469334492317700,5.403317626953125,-0.23570430278778076,-0.18227337300777435,0.44210001826286316
1761469334502300700,5.41330078125,-0.297586053609848,0.028228208422660828,0.3570788502693176
1761469334512284700,5.42328466796875,-0.35166749358177185,0.25593987107276917,0.2902291715145111
1761469334522268700,5.4332685546875,-0.3735291361808777,0.42529746890068054,0.2604134976863861
1761469334532251600,5.443251708984375,-0.3758471608161926,0.47777172923088074,0.25654757022857666
1761469334542234600,5.453234619140625,-0.34695956110954285,0.5406985282897949,0.27521952986717224
1761469334552218600,5.463218505859375,-0.3235199749469757,0.6373805999755859,0.3449033498764038
1761469334562201900,5.473201904296875,-0.32333460450172424,0.7354410886764526,0.4443548619747162
1761469334572184800,5.483184814453125,-0.3144294321537018,0.806416392326355,0.5540870428085327
1761469334582168800,5.4931689453125,-0.30792492628097534,0.8223482370376587,0.6650370359420776
1761469334592151600,5.503151611328125,-0.3050527274608612,0.757922887802124,0.7414750456809998
1761469334602134800,5.513134765625,-0.2987663149833679,0.628069281578064,0.7846862077713013
1761469334612118800,5.523118896484375,-0.30369359254837036,0.4347896873950958,0.7889765501022339
1761469334622101800,5.533101806640625,-0.31261491775512695,0.1674187034368515,0.7493143081665039
1761469334632084700,5.543084716796875,-0.34424474835395813,-0.09045574814081192,0.650287389755249
1761469334642068700,5.55306884765625,-0.37308570742607117,-0.2714524269104004,0.5008225440979004
1761469334652051700,5.5630517578125,-0.3952966630458832,-0.38059043884277344,0.3551356792449951
1761469334662034700,5.57303466796875,-0.41222530603408813,-0.45802024006843567,0.2015424221754074
1761469334672018700,5.583018798828125,-0.39340484142303467,-0.5146037340164185,0.050909169018268585
1761469334682002000,5.593001953125,-0.33131030201911926,-0.5503947138786316,-0.047186773270368576
1761469334691984600,5.602984619140625,-0.2881071865558624,-0.6029748320579529,-0.1326225847005844
1761469334701968600,5.61296875,-0.2757514417171478,-0.6316629648208618,-0.260067343711853
1761469334711951600,5.62295166015625,-0.23345930874347687,-0.4762215316295624,-0.4199303984642029
1761469334721934800,5.632934814453125,-0.17412914335727692,-0.1479155570268631,-0.562113344669342
1761469334731918800,5.6429189453125,-0.14628718793392181,0.06449855864048004,-0.613919198513031
1761469334741901600,5.652901611328125,-0.11853386461734772,0.08811414241790771,-0.49893292784690857
1761469334751884800,5.662884765625,0.021677741780877113,-0.09811518341302872,-0.332602858543396
1761469334761868800,5.672868896484375,0.15905503928661346,-0.26506420969963074,-0.14645536243915558
1761469334771851800,5.682851806640625,0.19795233011245728,-0.1174011379480362,0.05006641894578934
1761469334781834500,5.69283447265625,0.1777365356683731,0.18471983075141907,0.13983120024204254
1761469334791818500,5.702818603515625,0.1413428783416748,0.41737955808639526,0.0713193267583847
1761469334801801700,5.7128017578125,0.1069156676530838,0.5086849927902222,-0.12129832804203033
1761469334811784700,5.72278466796875,0.10929415374994278,0.4935365617275238,-0.35743555426597595
1761469334821768700,5.732768798828125,0.15452714264392853,0.33901435136795044,-0.5244106650352478
1761469334831752000,5.742751953125,0.21521085500717163,0.16051459312438965,-0.5827774405479431
1761469334841735200,5.752735107421875,0.29874810576438904,0.10029280185699463,-0.5432515740394592
1761469334851719200,5.76271923828125,0.3563573360443115,0.03955688700079918,-0.4144134819507599
1761469334861702100,5.7727021484375,0.36961987614631653,0.020763758569955826,-0.2439890056848526
1761469334871686100,5.78268603515625,0.33671483397483826,0.09743770956993103,-0.0761481449007988
1761469334881669000,5.792669189453125,0.2959687411785126,0.20983003079891205,0.04070150479674339
1761469334891652000,5.802652099609375,0.2308712750673294,0.27439841628074646,0.09344782680273056
1761469334901636000,5.812635986328125,0.14422613382339478,0.2521634101867676,0.08492171764373779
1761469334911619000,5.822619140625,0.05245114862918854,0.23523259162902832,0.03303506597876549
1761469334921602000,5.83260205078125,-0.015455996617674828,0.28050124645233154,-0.014725801534950733
1761469334931586000,5.8425859375,-0.0842408761382103,0.3523046374320984,-0.032646697014570236
1761469334941569000,5.852569091796875,-0.1499250829219818,0.36345529556274414,-0.02683940902352333
1761469334951552300,5.86255224609375,-0.19024068117141724,0.31556734442710876,-0.010261371731758118
1761469334961536300,5.872536376953125,-0.20901703834533691,0.2329675257205963,-0.005797913298010826
1761469334971519200,5.882519287109375,-0.21033567190170288,0.11496375501155853,-0.022201037034392357
1761469334981502000,5.892501953125,-0.18491153419017792,-0.03360706940293312,-0.04975862801074982
1761469334991486000,5.90248583984375,-0.12592510879039764,-0.18916068971157074,-0.07747375965118408
1761469335001469200,5.91246923828125,-0.03763919323682785,-0.33341240882873535,-0.07909402996301651
1761469335011452200,5.9224521484375,0.01800600253045559,-0.37415677309036255,-0.05884408950805664
1761469335021436200,5.932436279296875,0.09767100214958191,-0.3469019830226898,-0.04901808500289917
1761469335031419100,5.942419189453125,0.14863058924674988,-0.2816070020198822,-0.061904311180114746
1761469335041402000,5.952402099609375,0.17901165783405304,-0.2137741595506668,-0.10003704577684402
1761469335051386000,5.96238623046875,0.20954276621341705,-0.15531998872756958,-0.18150866031646729
1761469335061369000,5.972369140625,0.22151367366313934,-0.14250990748405457,-0.3131023645401001
1761469335071352300,5.982352294921875,0.2661477327346802,-0.3482072651386261,-0.4607589840888977
1761469335081336000,5.992336181640625,0.30138134956359863,-0.6627318859100342,-0.5987789034843445
1761469335091319000,6.002319091796875,0.27935728430747986,-0.8101324439048767,-0.48360010981559753
1761469335101302300,6.01230224609375,0.14389905333518982,-0.6787099242210388,-0.11161348968744278
1761469335111286300,6.022286376953125,0.01045895740389824,-0.42753952741622925,0.3019237816333771
1761469335121269200,6.032269287109375,-0.0673932358622551,-0.26514342427253723,0.599259614944458
1761469335131252000,6.042251953125,-0.03607971966266632,-0.42618510127067566,0.794745147228241
1761469335141236000,6.052236083984375,-0.12064521014690399,-0.5973475575447083,0.899789571762085
1761469335151219200,6.06221923828125,-0.1757504642009735,-0.46597298979759216,0.9135745167732239
1761469335161202200,6.0722021484375,-0.20575843751430511,-0.15565373003482819,0.9018683433532715
1761469335171186200,6.082186279296875,-0.24894073605537415,0.018228573724627495,0.8805396556854248
1761469335181169200,6.092169189453125,-0.2664635479450226,-0.0268158670514822,0.7905125617980957
1761469335191152000,6.102152099609375,-0.22917728126049042,-0.16071070730686188,0.6192668676376343
1761469335201136000,6.11213623046875,-0.20153820514678955,-0.235998272895813,0.44288891553878784
1761469335211119000,6.122119140625,-0.211664080619812,-0.15457801520824432,0.2767934501171112
1761469335221102300,6.132102294921875,-0.2731418013572693,0.04157845303416252,0.14584209024906158
1761469335231086000,6.142086181640625,-0.34384244680404663,0.2743755877017975,0.04811861366033554
1761469335241069000,6.152069091796875,-0.41414108872413635,0.4443132281303406,-0.004961914382874966
1761469335251052000,6.162052001953125,-0.4479631781578064,0.550327718257904,-0.015132227912545204
1761469335261036000,6.1720361328125,-0.4660535156726837,0.5505911111831665,0.04861798882484436
1761469335271019300,6.182019287109375,-0.45769959688186646,0.4816327691078186,0.17605780065059662
1761469335281002000,6.192001953125,-0.4172149896621704,0.39584460854530334,0.3375287353992462
1761469335290986000,6.201986083984375,-0.3781839609146118,0.3208746016025543,0.5038211345672607
1761469335300969200,6.21196923828125,-0.3426334261894226,0.28148165345191956,0.6313761472702026
1761469335310952200,6.2219521484375,-0.3155580163002014,0.25460949540138245,0.7091544270515442
1761469335320936200,6.231936279296875,-0.30834242701530457,0.2124900072813034,0.742275595664978
1761469335330919000,6.2419189453125,-0.31274738907814026,0.15215954184532166,0.7453181147575378
1761469335340902100,6.251902099609375,-0.32203784584999084,0.09006580710411072,0.7288329005241394
1761469335350886100,6.26188623046875,-0.3206704258918762,0.05949997156858444,0.7048563957214355
1761469335360869000,6.271869140625,-0.3226203918457031,0.03757736086845398,0.6864888072013855
1761469335370852400,6.281852294921875,-0.3210681080818176,0.009058039635419846,0.6580874919891357
1761469335380836000,6.291836181640625,-0.3244577944278717,-0.08581307530403137,0.6090642809867859
1761469335390819000,6.301819091796875,-0.3080214560031891,-0.21897290647029877,0.5132262110710144
1761469335400802000,6.311802001953125,-0.27459609508514404,-0.35469692945480347,0.3940063416957855
1761469335410786000,6.3217861328125,-0.21751254796981812,-0.38032665848731995,0.27256494760513306
1761469335420769300,6.331769287109375,-0.176443412899971,-0.28431063890457153,0.17323756217956543
1761469335430752000,6.341751953125,-0.16937310993671417,-0.07816898077726364,0.06927879899740219
1761469335440736000,6.351736083984375,-0.18922485411167145,0.1783088594675064,-0.07146953046321869
1761469335450719200,6.36171923828125,-0.21264603734016418,0.30955979228019714,-0.17121340334415436
1761469335460702200,6.3717021484375,-0.254576712846756,0.22724977135658264,-0.19837233424186707
1761469335470686200,6.381686279296875,-0.2994573414325714,0.05974029004573822,-0.1316913515329361
1761469335480669000,6.3916689453125,-0.2846243381500244,-0.060690250247716904,0.03407604992389679
1761469335490652200,6.401652099609375,-0.2520506978034973,-0.03856443986296654,0.21391499042510986
1761469335500636200,6.41163623046875,-0.21093258261680603,0.05058061331510544,0.33079978823661804
1761469335510619100,6.421619140625,-0.1603366732597351,0.14146935939788818,0.356178343296051
1761469335520602000,6.43160205078125,-0.11287514865398407,0.21550843119621277,0.34197625517845154
1761469335530586400,6.44158642578125,-0.06157577037811279,0.2372896522283554,0.30860409140586853
1761469335540569000,6.451569091796875,-0.03404613956809044,0.17314209043979645,0.2678382694721222
1761469335550552000,6.461552001953125,-0.048239365220069885,0.0739365965127945,0.2599005103111267
1761469335560536000,6.4715361328125,-0.05050811171531677,-0.009659495204687119,0.2834055721759796
1761469335570519300,6.481519287109375,-0.03592552989721298,-0.04811717942357063,0.34908491373062134
1761469335580502000,6.491501953125,-0.006625698413699865,-0.09266520291566849,0.44804316759109497
1761469335590486000,6.501486083984375,0.0041535296477377415,-0.14383502304553986,0.5353704690933228
1761469335600469000,6.511468994140625,0.014712963253259659,-0.1832495480775833,0.5832259058952332
1761469335610452200,6.5214521484375,0.02345704287290573,-0.2224445641040802,0.5873214602470398
1761469335620436200,6.531436279296875,0.04865347594022751,-0.24633684754371643,0.5424631834030151
1761469335630419000,6.5414189453125,0.05990440025925636,-0.2374962866306305,0.45537447929382324
1761469335640402200,6.551402099609375,0.05103927105665207,-0.21626263856887817,0.3509487211704254
1761469335650386200,6.56138623046875,0.03601856902241707,-0.18631240725517273,0.24050448834896088
1761469335660369200,6.571369140625,0.04333027824759483,-0.15871326625347137,0.12593050301074982
1761469335670352100,6.58135205078125,0.05985070392489433,-0.1402297168970108,0.01896177977323532
1761469335680336100,6.591336181640625,0.06492961943149567,-0.15456897020339966,-0.08210918307304382
1761469335690319000,6.601319091796875,0.06772996485233307,-0.18795248866081238,-0.16161032021045685
1761469335700302000,6.611302001953125,0.07186612486839294,-0.2030765861272812,-0.24391265213489532
1761469335710286000,6.6212861328125,0.0760447159409523,-0.17539577186107635,-0.32867246866226196
1761469335720269300,6.631269287109375,0.07046273350715637,-0.09893934428691864,-0.4014430642127991
1761469335730252000,6.641251953125,0.054971661418676376,-0.025204654783010483,-0.4477916955947876
1761469335740236000,6.651236083984375,0.05847824737429619,0.015310547314584255,-0.4567843973636627
1761469335750219000,6.661218994140625,0.0971904844045639,0.036525942385196686,-0.4210602045059204
1761469335760202200,6.6712021484375,0.10349605232477188,0.06665295362472534,-0.403003454208374
1761469335770186200,6.681186279296875,0.11741948872804642,0.17862257361412048,-0.43713802099227905
1761469335780169000,6.6911689453125,0.12109571695327759,0.32856810092926025,-0.5316118001937866
1761469335790152200,6.701152099609375,0.11819106340408325,0.4434860944747925,-0.6792398691177368
1761469335800136200,6.71113623046875,0.1271320879459381,0.43023020029067993,-0.8177828192710876
1761469335810119200,6.721119140625,0.16483108699321747,0.2705315053462982,-0.9039176106452942
1761469335820102100,6.73110205078125,0.21311526000499725,0.025649327784776688,-0.88279128074646
1761469335830090000,6.741090087890625,0.22530882060527802,-0.15799251198768616,-0.7488502860069275
1761469335840073200,6.7510732421875,0.18972419202327728,-0.23597759008407593,-0.528088390827179
1761469335850056200,6.76105615234375,0.17309267818927765,-0.2477148324251175,-0.20794346928596497
1761469335860040200,6.771040283203125,0.13289758563041687,-0.22026456892490387,0.11288648098707199
1761469335870023000,6.78102294921875,0.11068315804004669,-0.22568969428539276,0.3291880488395691
1761469335880006100,6.791006103515625,0.060584038496017456,-0.26216834783554077,0.4530729651451111
1761469335889990100,6.800990234375,0.021930081769824028,-0.25770023465156555,0.5333717465400696
1761469335899973000,6.81097314453125,0.016423730179667473,-0.2568972706794739,0.5679739117622375
1761469335909956000,6.8209560546875,0.030194614082574844,-0.355638712644577,0.559276819229126
1761469335919940000,6.830940185546875,0.029283013194799423,-0.4662110209465027,0.5070263743400574
1761469335929923000,6.840923095703125,0.03728334233164787,-0.546478271484375,0.4012218117713928
1761469335939906000,6.850906005859375,0.021233800798654556,-0.5429272055625916,0.2567826211452484
1761469335949890000,6.86089013671875,-0.02161397784948349,-0.45162418484687805,0.08797610551118851
1761469335959873300,6.870873291015625,-0.061785101890563965,-0.29418182373046875,-0.06710322946310043
1761469335969856000,6.88085595703125,-0.08780555427074432,-0.13942062854766846,-0.17526917159557343
1761469335979840000,6.890840087890625,-0.10243988782167435,-0.02148866280913353,-0.2293638288974762
1761469335989823000,6.900822998046875,-0.09662656486034393,0.03696753829717636,-0.22750608623027802
1761469335999806200,6.91080615234375,-0.10896019637584686,0.04054975509643555,-0.175897479057312
1761469336009790200,6.920790283203125,-0.13508322834968567,0.051807571202516556,-0.09131667017936707
1761469336019773000,6.93077294921875,-0.15474775433540344,0.09419364482164383,0.006584332324564457
1761469336029756200,6.940756103515625,-0.16113191843032837,0.10291039943695068,0.13013207912445068
1761469336039740200,6.950740234375,-0.17513109743595123,0.07527077943086624,0.26007357239723206
1761469336049723100,6.96072314453125,-0.18386906385421753,0.052629709243774414,0.3796083629131317
1761469336059705900,6.970705810546875,-0.22416935861110687,0.03576337918639183,0.47602811455726624
1761469336069690000,6.980690185546875,-0.2902695834636688,0.05220184475183487,0.5244137048721313
1761469336079673000,6.990673095703125,-0.369829386472702,0.10527917742729187,0.4965762495994568
1761469336089656000,7.000656005859375,-0.46244657039642334,0.14297334849834442,0.41804632544517517
1761469336099640000,7.01064013671875,-0.5507878661155701,0.13077101111412048,0.30572405457496643
1761469336109623300,7.020623291015625,-0.6529064178466797,0.10484469681978226,0.15662842988967896
1761469336119606000,7.03060595703125,-0.7244828939437866,0.04101857542991638,0.00527805183082819
1761469336129590000,7.040590087890625,-0.7901781797409058,-0.033054158091545105,-0.15754777193069458
1761469336139573000,7.050572998046875,-0.8227209448814392,-0.02869056910276413,-0.3244800567626953
1761469336149556200,7.06055615234375,-0.7985015511512756,0.0659097284078598,-0.4865727424621582
1761469336159540200,7.070540283203125,-0.7084302306175232,0.09039349853992462,-0.5824708342552185
1761469336169523000,7.08052294921875,-0.5534972548484802,0.0183100663125515,-0.5427514910697937
1761469336179506200,7.090506103515625,-0.38723984360694885,-0.10187572985887527,-0.4009253680706024
1761469336189490200,7.100490234375,-0.1822064071893692,-0.16272783279418945,-0.2468632459640503
1761469336199473200,7.11047314453125,0.02522694692015648,-0.12476633489131927,-0.12381508201360703
1761469336209456000,7.1204560546875,0.1383308321237564,-0.018567852675914764,0.000996805028989911
1761469336219439900,7.13043994140625,0.18425491452217102,0.17740511894226074,0.08807764202356339
1761469336229423000,7.140423095703125,0.232417032122612,0.3065866231918335,0.0761527270078659
1761469336239406000,7.150406005859375,0.2713378071784973,0.23479712009429932,-0.013891676440834999
1761469336249390000,7.16039013671875,0.3201279044151306,0.10354265570640564,-0.1291343867778778
1761469336259373300,7.170373291015625,0.37737974524497986,0.02711631916463375,-0.2060994803905487
1761469336269356000,7.18035595703125,0.43295061588287354,-0.015598406083881855,-0.21134428679943085
1761469336279340000,7.190340087890625,0.47758838534355164,-0.06963340938091278,-0.14823482930660248
1761469336289323000,7.200322998046875,0.49423453211784363,-0.09641651064157486,-0.05956272780895233
1761469336299306200,7.21030615234375,0.4678705632686615,-0.10309092700481415,0.00880434364080429
1761469336309290200,7.220290283203125,0.3959580361843109,-0.08657945692539215,0.034369610249996185
1761469336319273000,7.23027294921875,0.3021652102470398,-0.04624668136239052,0.03318663686513901
1761469336329256000,7.240255859375,0.2082599401473999,-0.004691020585596561,0.028487658128142357
1761469336339240200,7.250240234375,0.1135518029332161,0.032684314996004105,0.004146100953221321
1761469336349223200,7.26022314453125,0.046286243945360184,0.046302247792482376,-0.04124392941594124
1761469336359206100,7.2702060546875,0.006384634878486395,0.03428633138537407,-0.08838481456041336
1761469336369190000,7.28018994140625,-0.004788073245435953,0.021819844841957092,-0.13690651953220367
1761469336379173000,7.290173095703125,-0.008040059357881546,0.005737815983593464,-0.17431408166885376
1761469336389156000,7.300156005859375,0.015244574286043644,-0.0022815975826233625,-0.21650004386901855
1761469336399140000,7.31014013671875,0.04298911988735199,-0.00594743900001049,-0.2767130732536316
1761469336409123000,7.320123046875,0.07147589325904846,-0.01003936491906643,-0.3330402374267578
1761469336419106000,7.33010595703125,0.11589289456605911,-0.014296428300440311,-0.3902612030506134
1761469336429090000,7.340090087890625,0.15661492943763733,-0.02939235232770443,-0.4591931998729706
1761469336439073000,7.350072998046875,0.2073177844285965,-0.04391297325491905,-0.5354107618331909
1761469336449056300,7.36005615234375,0.27770522236824036,-0.022284334525465965,-0.5978543162345886
1761469336459040300,7.370040283203125,0.37175554037094116,0.016810869798064232,-0.6437656283378601
1761469336469023000,7.38002294921875,0.42542335391044617,0.027961958199739456,-0.6791645884513855
1761469336479006000,7.390005859375,0.48787209391593933,0.0329335480928421,-0.7115310430526733
1761469336488990000,7.399989990234375,0.5300329327583313,0.049157582223415375,-0.7236462831497192
1761469336498973200,7.40997314453125,0.5549840927124023,0.1017715260386467,-0.7483521699905396
1761469336508956200,7.4199560546875,0.554027259349823,0.18620796501636505,-0.7860211133956909
1761469336518940000,7.42993994140625,0.5565069317817688,0.23817741870880127,-0.8237615823745728
1761469336528923100,7.439923095703125,0.5688207149505615,0.15249323844909668,-0.8374624252319336
1761469336538906000,7.449906005859375,0.5705296397209167,-0.03526175394654274,-0.812107503414154
1761469336548890000,7.45989013671875,0.5259639620780945,-0.1909196972846985,-0.7198378443717957
1761469336558873000,7.469873046875,0.4610512852668762,-0.22026826441287994,-0.5576614737510681
1761469336568856000,7.47985595703125,0.35114768147468567,-0.1835080087184906,-0.33166801929473877
1761469336578840000,7.489840087890625,0.23236188292503357,-0.08504588156938553,-0.09737110137939453
1761469336588823000,7.499822998046875,0.14386002719402313,0.03029068373143673,0.07749614864587784
1761469336598806000,7.509805908203125,0.13267260789871216,0.06173356622457504,0.19685183465480804
1761469336608790300,7.519790283203125,0.14622262120246887,-0.029872026294469833,0.2928825318813324
1761469336618773000,7.52977294921875,0.18365788459777832,-0.12694372236728668,0.35207608342170715
1761469336628756000,7.539755859375,0.2165358066558838,-0.1802271157503128,0.3893585801124573
1761469336638740000,7.549739990234375,0.22834771871566772,-0.22439084947109222,0.400213360786438
1761469336648723200,7.55972314453125,0.21131226420402527,-0.26652541756629944,0.37689208984375
1761469336658706200,7.5697060546875,0.16004455089569092,-0.24462781846523285,0.3217638432979584
1761469336668690200,7.579690185546875,0.08050822466611862,-0.1574501395225525,0.2673954367637634
1761469336678673200,7.589673095703125,-0.011685078963637352,-0.043395478278398514,0.24010764062404633
1761469336688656100,7.59965625,-0.08094995468854904,0.06261134147644043,0.2327578365802765
1761469336698640100,7.60964013671875,-0.12833930552005768,0.13428819179534912,0.24254362285137177
1761469336708623000,7.619623046875,-0.15101945400238037,0.17458213865756989,0.2656687796115875
1761469336718606000,7.629606201171875,-0.16697818040847778,0.18182115256786346,0.30298471450805664
1761469336728590000,7.639590087890625,-0.17130373418331146,0.17787447571754456,0.3503742814064026
1761469336738573000,7.649572998046875,-0.15935705602169037,0.1434595137834549,0.4040444493293762
1761469336748556000,7.65955615234375,-0.13674543797969818,0.11566200107336044,0.4644404351711273
1761469336758540000,7.6695400390625,-0.1395002007484436,0.14722071588039398,0.48624372482299805
1761469336768523000,7.67952294921875,-0.16871508955955505,0.23087486624717712,0.45807868242263794
1761469336778506000,7.689506103515625,-0.23125462234020233,0.34839484095573425,0.40030938386917114
1761469336788490000,7.699489990234375,-0.31371957063674927,0.4281417727470398,0.3175834119319916
1761469336798473200,7.70947314453125,-0.4068303406238556,0.43912118673324585,0.2509891986846924
1761469336808456200,7.719456298828125,-0.5252127051353455,0.36705291271209717,0.20337022840976715
1761469336818440200,7.729440185546875,-0.5853407979011536,0.13006888329982758,0.2381010502576828
1761469336828418800,7.739418701171875,-0.6110941171646118,-0.20520558953285217,0.3266393840312958
1761469336838401500,7.749401611328125,-0.5718907117843628,-0.44153425097465515,0.38816025853157043
1761469336848385500,7.759385498046875,-0.5002728700637817,-0.556993305683136,0.366387277841568
1761469336858368500,7.769368408203125,-0.4256010353565216,-0.625520646572113,0.22084765136241913
1761469336868351700,7.779351806640625,-0.33998966217041016,-0.6011807322502136,-0.028137082234025
1761469336878334500,7.78933447265625,-0.25417089462280273,-0.47887474298477173,-0.31426844000816345
1761469336888318500,7.799318359375,-0.15291868150234222,-0.2635940611362457,-0.5486853122711182
1761469336898301700,7.8093017578125,-0.06785652041435242,-0.074699766933918,-0.6865673065185547
1761469336908284700,7.81928466796875,-0.01565656065940857,-0.00027338950894773006,-0.7232982516288757
1761469336918268700,7.8292685546875,-0.0003196829929947853,0.031207837164402008,-0.659537136554718
1761469336928251600,7.839251708984375,-0.03672976419329643,0.15746648609638214,-0.5095877051353455
1761469336938234600,7.849234619140625,-0.05396520718932152,0.35525521636009216,-0.39023464918136597
1761469336948218600,7.859218505859375,-0.03572671860456467,0.3933652341365814,-0.38457590341567993
1761469336958201600,7.86920166015625,0.017608407884836197,0.21376164257526398,-0.41716209053993225
1761469336968184800,7.879184814453125,0.11779762804508209,0.03893817588686943,-0.4471893906593323
1761469336978168800,7.8891689453125,0.22023612260818481,-0.0499485544860363,-0.4657883942127228
1761469336988151600,7.899151611328125,0.27719056606292725,-0.0808262899518013,-0.4439511299133301
1761469336998134500,7.909134521484375,0.3039255142211914,-0.08899687230587006,-0.3654147982597351
1761469337008118500,7.919118408203125,0.31079113483428955,-0.09055305272340775,-0.25807854533195496
1761469337018101800,7.929101806640625,0.2973083555698395,-0.08993946015834808,-0.14585530757904053
1761469337028084500,7.93908447265625,0.25735902786254883,-0.09692851454019547,-0.05704750865697861
1761469337038068500,7.949068359375,0.21642440557479858,-0.09582223743200302,0.0036251584533602
1761469337048051700,7.9590517578125,0.1672154664993286,-0.1152997612953186,0.02609316073358059
1761469337058034700,7.96903466796875,0.12179684638977051,-0.12046682089567184,0.0239969864487648
1761469337068018700,7.979018798828125,0.08191375434398651,-0.12869085371494293,0.023588569834828377
1761469337078001700,7.989001708984375,0.06339067220687866,-0.16886651515960693,0.024915888905525208
1761469337087984600,7.998984619140625,0.05950765684247017,-0.21061493456363678,0.02809075452387333
1761469337097968600,8.00896875,0.0673365518450737,-0.2561296820640564,0.03964248299598694
1761469337107951600,8.01895166015625,0.07865745574235916,-0.28210654854774475,0.02417045086622238
1761469337117934600,8.0289345703125,0.08939052373170853,-0.2234128713607788,-0.02404474839568138
1761469337127918800,8.0389189453125,0.10066120326519012,-0.13675124943256378,-0.10779459774494171
1761469337137901600,8.048901611328125,0.11370909214019775,-0.05768147483468056,-0.20069018006324768
1761469337147884500,8.058884521484375,0.11784639954566956,0.030107788741588593,-0.26337769627571106
1761469337157868500,8.06886865234375,0.11646341532468796,0.1279379427433014,-0.30034130811691284
1761469337167851800,8.078851806640625,0.12681744992733002,0.18518511950969696,-0.34921973943710327
1761469337177834500,8.08883447265625,0.1681358516216278,0.1989043951034546,-0.40322253108024597
1761469337187818500,8.098818603515625,0.2310861200094223,0.13795238733291626,-0.44646772742271423
1761469337197801500,8.108801513671875,0.2608248293399811,0.0903364047408104,-0.5083202123641968
1761469337207784700,8.11878466796875,0.25119301676750183,0.1453486531972885,-0.6040745973587036
1761469337217768700,8.128768798828125,0.24194146692752838,0.3397631347179413,-0.7023734450340271
1761469337227751700,8.138751708984374,0.2408970594406128,0.5849085450172424,-0.829410195350647
1761469337237734700,8.148734619140624,0.2681473195552826,0.7379710674285889,-0.9787312150001526
1761469337247718700,8.15871875,0.3613869845867157,0.6900630593299866,-1.0857477188110352
1761469337257701600,8.16870166015625,0.4919183850288391,0.47006726264953613,-1.0750001668930054
1761469337267684600,8.1786845703125,0.5735113024711609,0.23084993660449982,-0.8940548896789551
1761469337277668600,8.188668701171874,0.5470075011253357,0.09680186957120895,-0.584519624710083
1761469337287651600,8.198651611328126,0.4677349030971527,0.10535585880279541,-0.23878584802150726
1761469337297634600,8.208634521484376,0.36941179633140564,0.1308545619249344,0.08246966451406479
1761469337307618600,8.21861865234375,0.2884930968284607,0.10915932059288025,0.3372376561164856
1761469337317601800,8.228601806640626,0.20565442740917206,0.10036129504442215,0.5237841010093689
1761469337327584800,8.238584716796876,0.1652141511440277,0.08818387240171432,0.6648712754249573
1761469337337568500,8.248568603515626,0.11984585970640182,0.06910418719053268,0.7721061110496521
1761469337347551500,8.258551513671875,0.05719495937228203,0.0738036036491394,0.8380070328712463
1761469337357534700,8.26853466796875,-0.002123489510267973,0.04451362416148186,0.8974676728248596
1761469337367518700,8.278518798828125,-0.045308198779821396,-0.037109699100255966,0.9403557777404785
1761469337377501700,8.288501708984375,-0.06550294160842896,-0.14204783737659454,0.9535794854164124
1761469337387484700,8.298484619140625,-0.0819532498717308,-0.21333275735378265,0.9236271977424622
1761469337397468700,8.30846875,-0.10586177557706833,-0.23502154648303986,0.8495619893074036
1761469337407451600,8.31845166015625,-0.1465020626783371,-0.2103578746318817,0.7711347341537476
1761469337417434600,8.3284345703125,-0.19899936020374298,-0.1261223554611206,0.6947336792945862
1761469337427418600,8.338418701171875,-0.24985313415527344,-0.056232161819934845,0.6310892701148987
1761469337437401600,8.348401611328125,-0.29682567715644836,-0.03201283887028694,0.5995856523513794
1761469337447384600,8.358384521484375,-0.33172374963760376,-0.02065218612551689,0.5877777934074402
1761469337457368600,8.36836865234375,-0.36704686284065247,-0.024886079132556915,0.5914510488510132
1761469337467351600,8.3783515625,-0.3845883905887604,-0.056400228291749954,0.6101593971252441
1761469337477334800,8.388334716796875,-0.39395207166671753,-0.09490793943405151,0.6494013071060181
1761469337487318500,8.398318603515625,-0.39514487981796265,-0.10185481607913971,0.7001675963401794
1761469337497301500,8.408301513671875,-0.3894294798374176,-0.11644840240478516,0.7444416284561157
1761469337507284700,8.41828466796875,-0.35788363218307495,-0.15962733328342438,0.7884057760238647
1761469337517268700,8.428268798828125,-0.3078327178955078,-0.25775548815727234,0.8262231945991516
1761469337527251700,8.438251708984374,-0.2679648995399475,-0.36188480257987976,0.846886932849884
1761469337537234400,8.448234375,-0.23991620540618896,-0.4456143081188202,0.8271934390068054
1761469337547218700,8.45821875,-0.22151292860507965,-0.5459436774253845,0.7745928168296814
1761469337557201700,8.46820166015625,-0.2211504727602005,-0.6125981211662292,0.654394268989563
1761469337567184600,8.4781845703125,-0.23812539875507355,-0.5720998644828796,0.4890955984592438
1761469337577168600,8.488168701171874,-0.28470566868782043,-0.4254121780395508,0.31935980916023254
1761469337587151600,8.498151611328124,-0.366279274225235,-0.2690333425998688,0.13808706402778625
1761469337597134600,8.508134521484376,-0.4105335474014282,-0.1545666754245758,-0.04846923425793648
1761469337607118600,8.51811865234375,-0.4689096212387085,-0.125221386551857,-0.19114865362644196
1761469337617101600,8.5281015625,-0.5076831579208374,-0.19472989439964294,-0.258223295211792
1761469337627084800,8.538084716796876,-0.5086647868156433,-0.2739068567752838,-0.25406134128570557
1761469337637067500,8.548067626953125,-0.4741014540195465,-0.24768005311489105,-0.20294247567653656
1761469337647051500,8.558051513671876,-0.43144503235816956,-0.09039855003356934,-0.10356681793928146
1761469337657034800,8.56803466796875,-0.35027721524238586,0.14730827510356903,-0.01436876505613327
1761469337667017700,8.578017822265625,-0.2294478565454483,0.31686797738075256,0.0340086929500103
1761469337677001700,8.588001708984375,-0.08543768525123596,0.33538520336151123,0.011718565598130226
1761469337686984400,8.597984375,0.07991638779640198,0.23630324006080627,-0.11005792021751404
1761469337696967700,8.6079677734375,0.24825747311115265,0.03407876566052437,-0.26087191700935364
1761469337706951700,8.61795166015625,0.3514356017112732,-0.159110888838768,-0.37216293811798096
1761469337716934700,8.6279345703125,0.38872358202934265,-0.2909727692604065,-0.4256775677204132
1761469337726917600,8.637917724609375,0.3789851665496826,-0.3502107262611389,-0.40965017676353455
1761469337736901600,8.647901611328125,0.35660290718078613,-0.38114306330680847,-0.3389858603477478
1761469337746884600,8.657884521484375,0.3266499936580658,-0.39271077513694763,-0.25477221608161926
1761469337756867600,8.66786767578125,0.2875068485736847,-0.3731037974357605,-0.17056891322135925
1761469337766851600,8.6778515625,0.24328188598155975,-0.3360948860645294,-0.09360069036483765
1761469337776834800,8.687834716796875,0.21907562017440796,-0.30179363489151,-0.040899135172367096
1761469337786817500,8.697817626953125,0.21468134224414825,-0.29085344076156616,-0.016426509246230125
1761469337796801500,8.707801513671875,0.2156376838684082,-0.2715441882610321,-0.011058907955884933
1761469337806784500,8.717784423828125,0.2208528220653534,-0.246112659573555,-0.031637027859687805
1761469337816767700,8.727767822265625,0.22800606489181519,-0.21225643157958984,-0.062331557273864746
1761469337826751700,8.737751708984375,0.21916446089744568,-0.15380331873893738,-0.09302281588315964
1761469337836738800,8.74773876953125,0.17961812019348145,-0.04517004266381264,-0.13672874867916107
1761469337846721500,8.757721435546875,0.16021034121513367,0.06075960397720337,-0.20153546333312988
1761469337856705800,8.767705810546875,0.12035880237817764,0.14990384876728058,-0.2787652611732483
1761469337866688800,8.777688720703125,0.09891617298126221,0.21279071271419525,-0.39481320977211
1761469337876671700,8.787671630859375,0.07253942638635635,0.2670782208442688,-0.5347498059272766
1761469337886655700,8.79765576171875,0.05612650141119957,0.30256542563438416,-0.6735496520996094
1761469337896638700,8.807638671875,0.04265649989247322,0.3461933135986328,-0.7912040948867798
1761469337906621700,8.81762158203125,0.05800562724471092,0.40602123737335205,-0.8903008699417114
1761469337916605700,8.827605712890625,0.09216546267271042,0.49834051728248596,-0.9479290246963501
1761469337926588000,8.837587890625,0.1631777137517929,0.5920553207397461,-0.9302899241447449
1761469337936570600,8.847570556640624,0.2260621339082718,0.6678869724273682,-0.8294690251350403
1761469337946554600,8.8575546875,0.2832240164279938,0.7200690507888794,-0.6847986578941345
1761469337956537600,8.86753759765625,0.35245582461357117,0.709571361541748,-0.5302953720092773
1761469337966520800,8.877520751953124,0.41029348969459534,0.6046894788742065,-0.4002614915370941
1761469337976504800,8.8875048828125,0.43857279419898987,0.48908087611198425,-0.32629191875457764
1761469337986487600,8.897487548828124,0.4126318693161011,0.41095662117004395,-0.3266253173351288
1761469337996470800,8.907470703125,0.3249203860759735,0.3590444028377533,-0.37807732820510864
1761469338006454800,8.917454833984374,0.19612963497638702,0.3242197036743164,-0.41571709513664246
1761469338016437800,8.927437744140626,0.05995209142565727,0.304449200630188,-0.4161922037601471
1761469338026420500,8.93742041015625,-0.045392926782369614,0.2598549723625183,-0.30113908648490906
1761469338036404700,8.94740478515625,-0.043838705867528915,0.11572843790054321,-0.06843899190425873
1761469338046387700,8.9573876953125,-0.002084912732243538,-0.0681089386343956,0.1908138394355774
1761469338056370700,8.96737060546875,0.036141037940979004,-0.17200736701488495,0.3779278099536896
1761469338066354700,8.977354736328126,0.07912596315145493,-0.20329849421977997,0.48073795437812805
1761469338076338000,8.987337890625,0.10805748403072357,-0.2229323834180832,0.5351175665855408
1761469338086320600,8.997320556640625,0.12596794962882996,-0.28619927167892456,0.5792237520217896
1761469338096304600,9.0073046875,0.11238981783390045,-0.37217995524406433,0.5959017872810364
1761469338106287600,9.01728759765625,0.07355751842260361,-0.44305771589279175,0.5857769846916199
1761469338116270800,9.027270751953125,0.005419739987701178,-0.4413791298866272,0.5522558093070984
1761469338126254800,9.0372548828125,-0.06913153827190399,-0.40634089708328247,0.5149906277656555
1761469338136237600,9.047237548828125,-0.13860276341438293,-0.34401625394821167,0.4654129445552826
1761469338146220800,9.057220703125,-0.19237709045410156,-0.23512522876262665,0.4068755805492401
1761469338156204800,9.067204833984375,-0.240855410695076,-0.11976934224367142,0.37868016958236694
1761469338166187800,9.077187744140625,-0.29066482186317444,-0.06779218465089798,0.3952697217464447
1761469338176170800,9.087170654296875,-0.33124980330467224,-0.10336349159479141,0.434322327375412
1761469338186154500,9.097154541015625,-0.3745567798614502,-0.15035879611968994,0.4816933572292328
1761469338196137700,9.1071376953125,-0.42342549562454224,-0.1363881230354309,0.5409830212593079
1761469338206120700,9.11712060546875,-0.47505560517311096,-0.0862668827176094,0.6098141074180603
1761469338216104700,9.127104736328125,-0.5100418329238892,-0.031314149498939514,0.667888879776001
1761469338226088000,9.137087890625,-0.5143400430679321,-0.0004954561591148376,0.6946412324905396
1761469338236070700,9.147070556640625,-0.5056933164596558,0.006660990417003632,0.7021140456199646
1761469338246053600,9.1570537109375,-0.48864689469337463,-0.004241724964231253,0.6971774101257324
1761469338256037600,9.16703759765625,-0.49318039417266846,0.00025235931389033794,0.69631028175354
1761469338266020900,9.177020751953124,-0.5454843044281006,0.02486252784729004,0.696374773979187
1761469338276003600,9.187003662109374,-0.636016309261322,0.04263007640838623,0.6990429759025574
1761469338285987600,9.196987548828124,-0.7466239929199219,0.0030885643791407347,0.6971157193183899
1761469338295970600,9.206970458984374,-0.8153817653656006,-0.1357675939798355,0.6669027209281921
1761469338305953800,9.216953857421874,-0.8082296252250671,-0.2628483474254608,0.5857688188552856
1761469338315937800,9.226937744140624,-0.7648614048957825,-0.3033265471458435,0.42549848556518555
1761469338325920800,9.236920654296876,-0.7354077100753784,-0.27864745259284973,0.2075890153646469
1761469338335903700,9.24690380859375,-0.6962451338768005,-0.20692452788352966,0.022166959941387177
1761469338345887700,9.2568876953125,-0.6747971773147583,-0.07180241495370865,-0.047593068331480026
1761469338355870700,9.26687060546875,-0.6247822046279907,0.03775523975491524,0.02388058230280876
1761469338365853700,9.276853759765626,-0.5249722003936768,-0.03162889555096626,0.12649738788604736
1761469338375837700,9.286837646484376,-0.3993298411369324,-0.1630990356206894,0.1709178388118744
1761469338385820700,9.296820556640625,-0.30846428871154785,-0.07692556083202362,0.2465079426765442
1761469338395803600,9.3068037109375,-0.22973589599132538,0.2862422466278076,0.3581031858921051
1761469338405787600,9.31678759765625,-0.10739193856716156,0.6332142949104309,0.44571053981781006
1761469338415771000,9.32677099609375,-0.007963884621858597,0.6290453672409058,0.37345072627067566
1761469338425753600,9.336753662109375,0.09485036879777908,0.39063209295272827,0.15650084614753723
1761469338435737600,9.346737548828125,0.21895554661750793,0.10125009715557098,-0.11036200821399689
1761469338445720600,9.356720458984375,0.3436972200870514,-0.18150316178798676,-0.31549787521362305
1761469338455703800,9.366703857421875,0.4323088228702545,-0.3688677251338959,-0.3940776288509369
1761469338465687800,9.376687744140625,0.49220016598701477,-0.4660129249095917,-0.35946765542030334
1761469338475670800,9.3866708984375,0.5346283316612244,-0.5275977253913879,-0.278798371553421
1761469338485653800,9.39665380859375,0.5453723669052124,-0.5744486451148987,-0.20841658115386963
1761469338495637800,9.4066376953125,0.5045403242111206,-0.5828855633735657,-0.1420668512582779
1761469338505621800,9.416621826171875,0.42551493644714355,-0.5503667593002319,-0.10554801672697067
1761469338515604700,9.426604736328125,0.31064268946647644,-0.5099934935569763,-0.10928096622228622
1761469338525588700,9.436588623046875,0.19856376945972443,-0.46553245186805725,-0.1252511739730835
1761469338535571700,9.44657177734375,0.12910079956054688,-0.4458490312099457,-0.15741418302059174
1761469338545554700,9.4565546875,0.08285132050514221,-0.46687161922454834,-0.19916528463363647
1761469338555538700,9.46653857421875,0.06632214784622192,-0.5212909579277039,-0.26010212302207947
1761469338565521700,9.476521728515625,0.06449323147535324,-0.5774482488632202,-0.3206932246685028
1761469338575505000,9.4865048828125,0.07666361331939697,-0.6145650148391724,-0.3736608326435089
1761469338585489000,9.496489013671875,0.08550809323787689,-0.6187823414802551,-0.43006959557533264
1761469338595471600,9.5064716796875,0.07522695511579514,-0.59496009349823,-0.49363020062446594
1761469338605454600,9.51645458984375,0.06997907906770706,-0.5282607078552246,-0.5672444105148315
1761469338615438600,9.5264384765625,0.04889829084277153,-0.42486482858657837,-0.6462305188179016
1761469338625421800,9.536421875,0.05242164805531502,-0.28931739926338196,-0.7035665512084961
1761469338635404800,9.54640478515625,0.0845622718334198,-0.16551797091960907,-0.7048360705375671
1761469338645387800,9.5563876953125,0.13734427094459534,-0.09307555854320526,-0.6775277853012085
1761469338655371800,9.566371826171874,0.19741080701351166,-0.03955560922622681,-0.6673324108123779
1761469338665354800,9.576354736328126,0.2856561839580536,0.02813376858830452,-0.6788575053215027
1761469338675337700,9.586337646484376,0.3502165377140045,0.06359482556581497,-0.6605714559555054
1761469338685321700,9.59632177734375,0.3844846487045288,0.05251484364271164,-0.6558200120925903
1761469338695304700,9.6063046875,0.3719960153102875,0.06118237227201462,-0.7099553942680359
1761469338705287700,9.61628759765625,0.3317074775695801,0.12769505381584167,-0.7839502096176147
1761469338715271700,9.626271728515626,0.28242969512939453,0.20722158253192902,-0.8462399244308472
1761469338725254700,9.636254638671875,0.2429700642824173,0.23135565221309662,-0.8664113879203796
1761469338735237600,9.646237548828125,0.1889723390340805,0.21477694809436798,-0.8223568201065063
1761469338745221600,9.6562216796875,0.12669357657432556,0.179560124874115,-0.6894738078117371
1761469338755204600,9.66620458984375,0.0751534178853035,0.10528163611888885,-0.4712402820587158
1761469338765187800,9.676187744140625,0.04811074212193489,-0.010297385044395924,-0.21281284093856812
1761469338775171800,9.686171875,0.031709663569927216,-0.17116056382656097,0.04730130732059479
1761469338785154800,9.69615478515625,-0.000905260443687439,-0.29380321502685547,0.2649848759174347
1761469338795137500,9.706137451171875,-0.016384616494178772,-0.3454301953315735,0.4095897376537323
1761469338805121500,9.71612158203125,-0.02868518978357315,-0.38671213388442993,0.509748101234436
1761469338815104800,9.726104736328125,-0.03103356435894966,-0.41464176774024963,0.5613827705383301
1761469338825087700,9.736087646484375,-0.011301528662443161,-0.4374890923500061,0.583556056022644
1761469338835068400,9.746068359375,-0.00004834216088056564,-0.4948421120643616,0.5661634802818298
1761469338845051600,9.7560517578125,-0.0012642503716051579,-0.5998948216438293,0.5033025741577148
1761469338855034400,9.766034423828126,-0.03182322531938553,-0.702059805393219,0.40696221590042114
1761469338865018400,9.776018310546876,-0.06432773917913437,-0.798306941986084,0.30824172496795654
1761469338875001300,9.78600146484375,-0.0961916595697403,-0.9029385447502136,0.2639509439468384
1761469338884984600,9.795984619140626,-0.1396188884973526,-0.9677884578704834,0.2715107202529907
1761469338894968600,9.805968505859376,-0.16413621604442596,-1.0012664794921875,0.32353290915489197
1761469338904951600,9.81595166015625,-0.1724337488412857,-1.0033200979232788,0.403480589389801
1761469338914934300,9.825934326171875,-0.15077611804008484,-0.9460325241088867,0.4685293436050415
1761469338924918500,9.83591845703125,-0.11598008871078491,-0.9044944047927856,0.4887312054634094
1761469338934901500,9.845901611328125,-0.09183480590581894,-0.8944079279899597,0.4651678204536438
1761469338944884500,9.855884521484375,-0.06874321401119232,-0.9064912796020508,0.4101044535636902
1761469338954868500,9.865868408203125,-0.050578586757183075,-0.9255304932594299,0.3637433350086212
1761469338964851500,9.8758515625,-0.061792854219675064,-0.9288276433944702,0.3494403660297394
1761469338974834400,9.88583447265625,-0.09762515127658844,-0.8848724365234375,0.3768157958984375
1761469338984817400,9.8958173828125,-0.14701591432094574,-0.8324329257011414,0.43392807245254517
1761469338994801400,9.905801513671875,-0.17870832979679108,-0.8024209141731262,0.4890799820423126
1761469339004784400,9.915784423828125,-0.20791508257389069,-0.7711601257324219,0.5044188499450684
1761469339014767400,9.925767333984375,-0.21938106417655945,-0.7035896182060242,0.4176352322101593
1761469339024751400,9.93575146484375,-0.20632442831993103,-0.6355577707290649,0.26371297240257263
1761469339034734600,9.945734619140625,-0.18611794710159302,-0.5533393621444702,0.11384306848049164
1761469339044717600,9.955717529296875,-0.18214136362075806,-0.44150441884994507,-0.023164896294474602
1761469339054701600,9.96570166015625,-0.19371360540390015,-0.33213290572166443,-0.16308285295963287
1761469339064684300,9.975684326171875,-0.22238701581954956,-0.27517667412757874,-0.2986600995063782
1761469339074667500,9.98566748046875,-0.27660736441612244,-0.2707939147949219,-0.4451778829097748
1761469339084651500,9.995651611328125,-0.3327186703681946,-0.2725435197353363,-0.553298830986023
1761469339094634500,10.005634521484374,-0.3566890060901642,-0.29320859909057617,-0.5792739987373352
1761469339104617500,10.015617431640624,-0.32707658410072327,-0.27858439087867737,-0.4577101171016693
1761469339114601500,10.0256015625,-0.265535444021225,-0.17791956663131714,-0.22338096797466278
1761469339124584400,10.03558447265625,-0.18484418094158173,-0.07019661366939545,-0.014797034673392773
1761469339134567400,10.0455673828125,-0.10757017880678177,-0.024748170748353004,0.11453671753406525
1761469339144551400,10.055551513671874,-0.05706486105918884,-0.11502496153116226,0.15846095979213715
1761469339154534700,10.06553466796875,-0.04019906371831894,-0.2964538633823395,0.13871921598911285
1761469339164517400,10.075517333984376,-0.06642258167266846,-0.4199821352958679,0.07272960990667343
1761469339174501400,10.08550146484375,-0.10606000572443008,-0.47023624181747437,-0.015753384679555893
1761469339184484600,10.095484619140626,-0.14740818738937378,-0.5061914324760437,-0.08782251179218292
1761469339194467600,10.105467529296876,-0.1355331540107727,-0.5396085381507874,-0.09548868983983994
1761469339204451600,10.11545166015625,-0.09726531058549881,-0.6095265746116638,-0.0416589193046093
1761469339214434300,10.125434326171876,-0.06450523436069489,-0.671086847782135,0.06320144981145859
1761469339224417500,10.13541748046875,-0.07154897600412369,-0.6729663610458374,0.16468656063079834
1761469339234401500,10.145401611328126,-0.09651291370391846,-0.5552365183830261,0.19887328147888184
1761469339244384500,10.155384521484375,-0.13339729607105255,-0.3976457715034485,0.13836614787578583
1761469339254367200,10.1653671875,-0.16262975335121155,-0.2615795433521271,0.010321896523237228
1761469339264350500,10.1753505859375,-0.15299101173877716,-0.19247691333293915,-0.13438206911087036
1761469339274334500,10.18533447265625,-0.12749125063419342,-0.23892484605312347,-0.2551646828651428
1761469339284317400,10.1953173828125,-0.08182701468467712,-0.37537652254104614,-0.29751843214035034
1761469339294300700,10.20530078125,-0.01577635481953621,-0.502181887626648,-0.266871839761734
1761469339304284700,10.21528466796875,0.061551373451948166,-0.5834519863128662,-0.22085785865783691
1761469339314267400,10.225267333984375,0.13050460815429688,-0.5649003982543945,-0.19365127384662628
1761469339324250400,10.23525048828125,0.20478034019470215,-0.43628737330436707,-0.2004176378250122
1761469339334234400,10.245234375,0.2977699339389801,-0.2469659149646759,-0.23940230906009674
1761469339344217600,10.255217529296875,0.37296298146247864,-0.06536547094583511,-0.2960602939128876
1761469339354200300,10.265200439453125,0.4365171790122986,-0.036970317363739014,-0.37482941150665283
1761469339364184300,10.275184326171875,0.4858386516571045,-0.19569608569145203,-0.4528530538082123
1761469339374167600,10.28516748046875,0.5091671347618103,-0.42642146348953247,-0.5322160124778748
1761469339384150500,10.295150634765625,0.4925912618637085,-0.6039841175079346,-0.6102420091629028
1761469339394134500,10.305134521484375,0.4566606879234314,-0.7684130072593689,-0.6884308457374573
1761469339404117200,10.3151171875,0.3959035873413086,-0.8552438020706177,-0.7313175797462463
1761469339414100500,10.3251005859375,0.3118441104888916,-0.7478997707366943,-0.7257550358772278
1761469339424084500,10.33508447265625,0.22090183198451996,-0.4612598121166229,-0.6921836137771606
1761469339434067500,10.3450673828125,0.11151888966560364,-0.07819762825965881,-0.6317852139472961
1761469339444050400,10.355050537109374,-0.00818673986941576,0.25120678544044495,-0.5537940859794617
1761469339454034700,10.36503466796875,-0.10416333377361298,0.43708741664886475,-0.46479785442352295
1761469339464017400,10.375017333984376,-0.17626309394836426,0.531812310218811,-0.3534018099308014
1761469339474000400,10.38500048828125,-0.20036496222019196,0.5836179852485657,-0.20817804336547852
1761469339483983600,10.394983642578126,-0.21030119061470032,0.6174097657203674,-0.05692000687122345
1761469339493967600,10.404967529296876,-0.21919800341129303,0.6423977017402649,0.13138890266418457
1761469339503950300,10.414950439453126,-0.22629116475582123,0.6046180725097656,0.3380003273487091
1761469339513933300,10.424933349609375,-0.23921814560890198,0.4509371221065521,0.48980289697647095
1761469339523917300,10.434917236328126,-0.24246695637702942,0.19776348769664764,0.5930545926094055
1761469339533900500,10.444900634765625,-0.236258864402771,-0.053109750151634216,0.6508193612098694
1761469339543883500,10.454883544921875,-0.23301425576210022,-0.206973597407341,0.6308500170707703
1761469339553867500,10.464867431640625,-0.2335231900215149,-0.23232555389404297,0.5475996136665344
1761469339563850500,10.4748505859375,-0.2567271292209625,-0.14196056127548218,0.4511971175670624
1761469339573833500,10.48483349609375,-0.2652897238731384,0.04666581004858017,0.38467270135879517
1761469339583817500,10.4948173828125,-0.2833334803581238,0.2511913776397705,0.35149070620536804
1761469339593800400,10.504800537109375,-0.31533509492874146,0.4365614950656891,0.3340320885181427
1761469339603783400,10.514783447265625,-0.33965328335762024,0.590265691280365,0.32560840249061584
1761469339613767400,10.524767333984375,-0.35863789916038513,0.7177684903144836,0.3243924081325531
1761469339623750400,10.53475048828125,-0.36093881726264954,0.8305937647819519,0.3465367257595062
1761469339633733600,10.544733642578125,-0.3684265613555908,0.9142481684684753,0.39569175243377686
1761469339643717600,10.554717529296875,-0.35145488381385803,0.9551848769187927,0.46111348271369934
1761469339653700400,10.564700439453125,-0.3029363453388214,0.9318199157714844,0.5356673002243042
1761469339663683300,10.574683349609375,-0.22831524908542633,0.8451242446899414,0.6025748252868652
1761469339673666600,10.58466650390625,-0.1757364571094513,0.7347415685653687,0.6818054914474487
1761469339683650600,10.594650634765625,-0.15881450474262238,0.6328856945037842,0.7206372618675232
1761469339693633500,10.604633544921874,-0.16445109248161316,0.5304961800575256,0.7141226530075073
1761469339703616300,10.6146162109375,-0.19556283950805664,0.4136602282524109,0.676846981048584
1761469339713600500,10.6246005859375,-0.2695121765136719,0.25949540734291077,0.6179623603820801
1761469339723583500,10.63458349609375,-0.3605487048625946,0.0837821438908577,0.547451913356781
1761469339733566500,10.64456640625,-0.42607977986335754,-0.10426685959100723,0.51053386926651
1761469339743550500,10.654550537109374,-0.4530414044857025,-0.27503252029418945,0.4810539782047272
1761469339753533400,10.664533447265624,-0.47054341435432434,-0.3030377924442291,0.39412572979927063
1761469339763516400,10.674516357421876,-0.4940187931060791,-0.2573740780353546,0.20497745275497437
1761469339773500400,10.68450048828125,-0.5464255213737488,-0.40448737144470215,0.0028414081316441298
1761469339783483400,10.6944833984375,-0.3827594816684723,-0.5323351621627808,-0.3313617408275604
1761469339793466600,10.704466552734376,-0.2550784945487976,-0.5984305143356323,-0.5775986909866333
1761469339803450400,10.714450439453126,-0.11222951114177704,-0.6965097188949585,-0.6392967104911804
1761469339813433300,10.724433349609376,0.02594674378633499,-0.9908159375190735,-0.5574324727058411
1761469339823416600,10.73441650390625,0.15563099086284637,-1.3927695751190186,-0.34804293513298035
1761469339833398800,10.744398681640625,0.2512832283973694,-1.6235580444335938,-0.0891176387667656
1761469339843382800,10.7543828125,0.2646724581718445,-1.4597768783569336,0.14934217929840088
1761469339853366000,10.764365966796875,0.23589806258678436,-0.9626954793930054,0.19505108892917633
1761469339863348700,10.7743486328125,0.18432164192199707,-0.1785346269607544,0.13670703768730164
1761469339873332700,10.784332763671875,0.10874485969543457,0.6866068243980408,0.23226872086524963
1761469339883315700,10.794315673828125,0.013926293700933456,1.4328676462173462,0.41133391857147217
1761469339893299000,10.804298828125,-0.04077077656984329,1.836611032485962,0.5654795169830322
1761469339903283000,10.814282958984375,0.007983401417732239,1.653356671333313,0.5703869462013245
1761469339913266000,10.824265869140625,0.147274449467659,0.8511387705802917,0.5114279985427856
1761469339923248600,10.83424853515625,0.3218501806259155,-0.09369554370641708,0.5352250933647156
1761469339933233000,10.84423291015625,0.45581117272377014,-0.7631779909133911,0.5324495434761047
1761469339943215900,10.8542158203125,0.48557302355766296,-1.1484270095825195,0.5384508967399597
1761469339953198800,10.86419873046875,0.4900074601173401,-1.2625080347061157,0.6103911399841309
1761469339963182800,10.874182861328125,0.44703128933906555,-1.20423424243927,0.6809837222099304
1761469339973165800,10.884165771484374,0.36012381315231323,-0.9554495215415955,0.6972742676734924
1761469339983148800,10.894148681640624,0.22140032052993774,-0.5680549740791321,0.6172561645507812
1761469339993131800,10.9041318359375,0.10518824309110641,-0.17153853178024292,0.4794889986515045
1761469340003115800,10.91411572265625,0.04823090881109238,0.09380697458982468,0.3487005829811096
1761469340013099000,10.92409912109375,0.050875160843133926,0.15813694894313812,0.26093876361846924
1761469340023081700,10.934081787109376,0.08496642857789993,0.0662609338760376,0.2173282355070114
1761469340033065700,10.944065673828124,0.12372394651174545,-0.13760538399219513,0.19623546302318573
1761469340043049000,10.954049072265626,0.13700218498706818,-0.349638968706131,0.18537087738513947
1761469340053032000,10.964031982421876,0.1264965534210205,-0.4533648192882538,0.1466629058122635
1761469340063016000,10.974015869140626,0.09978345036506653,-0.4108557105064392,0.10201447457075119
1761469340072998700,10.98399853515625,0.04437265545129776,-0.295990914106369,0.04969507455825806
1761469340082982000,10.99398193359375,0.0016406415961682796,-0.1663781851530075,-0.022010553628206253
1761469340092966000,11.0039658203125,-0.03395916149020195,-0.1081862524151802,-0.20397023856639862
1761469340102948900,11.013948974609375,-0.0441165491938591,-0.0878480076789856,-0.36136236786842346
1761469340112931800,11.023931884765625,-0.018340343609452248,-0.05123006924986839,-0.4055383503437042
1761469340122915800,11.033915771484375,0.02068944089114666,-0.051747728139162064,-0.3797447383403778
