time,seconds_elapsed,z,y,x
1761466520539061000,0.11406103515625,0.012157178522646427,0.0496311691313982,-0.007682809587568044
1761466520549046000,0.1240458984375,-0.014569500361382961,0.052602293896675104,-0.003442541669309139
1761466520559030000,0.134030029296875,0.004252981269359589,0.06099602823257446,-0.027619682200998065
1761466520569015000,0.14401513671875,0.0188093298882246,0.07006897700428963,-0.055643415158241984
1761466520579000000,0.154,-0.020576339560747146,0.06571370440423488,-0.035808980005979534
1761466520588984000,0.163984130859375,-0.041214053919911384,0.056687517383694645,-0.00603211977109313
1761466520598969000,0.173968994140625,-0.022874095109105107,0.0575128622919321,0.021706804895401
1761466520608953000,0.183953125,0.0015679799690842627,0.04712064761519432,0.026467151165008543
1761466520618937900,0.193937744140625,-0.0073655603319406505,0.03698036187291145,0.02523001058548689
1761466520628922000,0.203922119140625,-0.009249766643345356,0.03464052074849605,-0.011959317862987517
1761466520638907000,0.213906982421875,-0.03742138363867998,0.043645080459117885,-0.036325697356462475
1761466520648892000,0.223891845703125,-0.06156593707501888,0.0461672924131155,-0.006724339818954468
1761466520658876000,0.2338759765625,-0.009358195453882216,0.04019990844130516,0.01876037617996335
1761466520668861000,0.24386083984375,0.014714754050970077,0.04113222085535526,0.0247055483199656
1761466520678845000,0.253844970703125,-0.035871231587231156,0.04674538456201553,0.009684504798799752
1761466520688830000,0.263829833984375,-0.04560878174751997,0.05487608404755592,-0.007876140202581882
1761466520698814000,0.27381396484375,-0.01864127984493971,0.03977203841805458,-0.02712313085570931
1761466520708799000,0.283799072265625,-0.0030935821011662482,0.044833997982740396,-0.04586114907339215
1761466520718783000,0.293782958984375,-0.015339023429155349,0.07086801842749119,-0.008238397643715143
1761466520728768000,0.30376806640625,0.015620762979984283,0.04769523263275623,0.025238924544304608
1761466520738753000,0.3137529296875,0.04624737191200256,0.022369652718305585,0.025951602858304976
1761466520748737000,0.323737060546875,0.02726151641309261,0.05116144743859768,0.0053795010812580585
1761466520758722000,0.33372216796875,-0.03674216920286417,0.0612643237799406,-0.006559504646062851
1761466520768706000,0.3437060546875,-0.009902385333180427,0.055824763074517246,0.0013964227944612503
1761466520778691000,0.353691162109375,0.03002221329808235,0.04549333867430687,0.02061696383208036
1761466520788675000,0.363675048828125,0.04556874199807644,0.019294483056664466,0.04006064610108733
1761466520798660000,0.37366015625,0.06963701532781123,0.014004559955000877,0.04142988862767815
1761466520808644000,0.38364404296875,0.05671002147644758,-0.00005669862329959869,0.013873627051711081
1761466520818629000,0.393629150390625,0.0022539164066314697,0.029361119040846824,0.02562617029622197
1761466520828614000,0.40361376953125,-0.04371434630304575,0.003771335232257843,0.006245470260828733
1761466520838598000,0.413597900390625,0.0030137948632240293,0.010694412493705749,-0.015399375314265489
1761466520848583000,0.4235830078125,0.0040343700826168056,0.05959726735055446,-0.048625060828775164
1761466520858567000,0.43356689453125,0.003705868780612945,0.05075345115959644,-0.043148382983356715
1761466520868552000,0.443552001953125,0.04444061475098133,0.0725754068672657,-0.0343769013762474
1761466520878536000,0.453535888671875,0.03868365865945816,0.0757253953307867,-0.024057898066192865
1761466520888521000,0.46352099609375,0.022307693397998807,0.05581482620239257,-0.003454816628992557
1761466520898505000,0.4735048828125,0.012112462598085403,0.03561082708537578,0.007657967407256364
1761466520908490000,0.483489990234375,0.007264438045024872,0.01650046842396259,0.010974398478865622
1761466520918475000,0.49347509765625,-0.01564882003068924,0.0035860417932271956,0.011293109039217233
1761466520928459000,0.503458984375,-0.01585749434530735,0.021055647510290144,-0.0003141805157065391
1761466520938443800,0.51344384765625,-0.02179126830846071,0.033711130943894385,0.002850859386473894
1761466520948428000,0.523427978515625,-0.0017079729616641998,0.05585515821278095,-0.010200637627393006
1761466520958412800,0.533412841796875,-0.013562953667342661,0.0699655166298151,-0.008984393705427645
1761466520968396800,0.543396728515625,-0.013138883036375046,0.05370294861495495,0.003155979812890291
1761466520978382000,0.553382080078125,0.008697101196646689,0.03256839064955711,0.006944120049476623
1761466520988365800,0.56336572265625,0.04144084841310978,0.020538930159807203,0.001071574754267931
1761466520998351000,0.57335107421875,0.03522854976952076,0.03290916691124439,-0.010358312407135964
1761466521008336100,0.583336181640625,-0.002270575280487537,0.036384734067320824,0.0005094108268618584
1761466521018320100,0.593320068359375,-0.0112280809789896,0.05030278478264808,-0.0010578384898602962
1761466521028305200,0.60330517578125,-0.000052022448182106015,0.05113163682222366,-0.005044277777522802
1761466521038289200,0.6132890625,0.04349544285535812,0.024488544568419455,-0.015540975742042063
1761466521048274000,0.62327392578125,0.05180646734386682,0.005941080486774444,-0.02200695688575506
1761466521058258200,0.633258056640625,0.024846271964907643,0.013782441636919975,-0.00240486918464303
1761466521068243000,0.643242919921875,0.06475216589570044,0.019285130706429482,-0.0013096212938427925
1761466521078227000,0.65322705078125,0.05912351235896349,0.02844108158648014,-0.010129618217796087
1761466521088212000,0.6632119140625,0.054666825211048126,0.023223639199137686,-0.018840017287433147
1761466521098197000,0.673197021484375,0.03671586571782827,0.035444822868704796,-0.03022928017750382
1761466521108181000,0.683180908203125,-0.0014706570744514465,0.03466156353652477,-0.005753887351602316
1761466521118166000,0.693166015625,-0.010794073475897312,0.03586450958549976,0.01473375101238489
1761466521128150000,0.70314990234375,-0.003120470108091831,0.03237666746973991,0.016516981167346238
1761466521138135000,0.713135009765625,0.014243921668827533,0.05236205540001392,0.0016484978593885897
1761466521148119000,0.723119140625,0.017288696192204953,0.06996084045469761,0.007502484584599733
1761466521158104000,0.73310400390625,0.021066753426194188,0.06533727230727672,0.00849383370950818
1761466521168088000,0.743088134765625,0.033877135160565376,0.0603407791942358,0.012288842078298329
1761466521178072800,0.75307275390625,0.006378887382149696,0.04550152198076248,0.015379355439543723
1761466521188057900,0.763057861328125,0.007903320470452307,0.03241466139256954,0.021924100907891986
1761466521198041900,0.773041748046875,0.025884382840991017,0.02713350611925125,0.030644144588708875
1761466521208025600,0.783025634765625,0.0180316235139966,0.005807809495925903,0.030421149487793443
1761466521218009600,0.793009521484375,0.010446282951533794,0.005444821402430534,0.035224750377237796
1761466521227994600,0.80299462890625,0.007687924154102802,0.02112988179028034,0.0344835766211152
1761466521237978600,0.812978515625,0.0170621939599514,0.03497252918183803,0.01256327510550618
1761466521247963600,0.822963623046875,-0.005362988337874412,0.03261164526939392,-0.0017423136226832866
1761466521257947600,0.83294775390625,-0.013229191668331622,0.022363222977519033,-0.003840162684768438
1761466521267932700,0.8429326171875,0.007994798146188259,0.03350947089195251,-0.00434723542407155
1761466521277916700,0.852916748046875,0.033760815304517744,0.043726913523674006,-0.011948211947083473
1761466521287901700,0.862901611328125,0.034223172119259834,0.04635550846159458,0.003868804257363081
1761466521297886700,0.87288671875,0.03288666281849146,0.042753100055456156,0.015116174458712339
1761466521307870700,0.88287060546875,0.021591069561243056,0.0517617514193058,0.024755524941533803
1761466521317855500,0.89285546875,0.03431055814176798,0.03900163856744766,0.017337211509048937
1761466521327839500,0.902839599609375,0.04764554827213287,0.049153614747524256,0.0027354163132607937
1761466521337824500,0.912824462890625,0.006027005204558372,0.018639234018325804,-0.009426876775920391
1761466521347808500,0.92280859375,0.012220014625787734,0.030546529433131218,-0.006630085664242506
1761466521357793500,0.93279345703125,0.05281447534263134,0.06096563309431076,-0.03236541542336344
1761466521367777500,0.942777587890625,0.021084873604774474,0.05192132589519024,0.01330444886162877
1761466521377762600,0.952762451171875,-0.0008963643178343773,0.03477554530501365,0.031933892138302326
1761466521387747800,0.962747802734375,0.002583586752414703,0.04062427133321762,0.006332564022392034
1761466521397731800,0.97273193359375,-0.026267244678735733,0.05078852247297763,-0.0036937399514019487
1761466521407716900,0.982716796875,-0.06349602835476398,0.04673194055855274,0.004714607431739569
1761466521417700900,0.992700927734375,-0.0350134457141161,0.03788520175814628,-0.0007278758831322193
1761466521427685600,1.002685546875,0.005339607462286949,0.03803659292757511,-0.03828267664313316
1761466521437669600,1.012669677734375,0.010188216537237166,0.064366965970397,-0.059982175014913076
1761466521447654700,1.022654541015625,-0.015071312403678892,0.07940496062636375,-0.06125833243057131
1761466521457638700,1.032638671875,-0.01338964292705059,0.07019289564490318,-0.06894669497609138
1761466521467623700,1.042623779296875,0.011498714613914489,0.04209317484200001,-0.06062427231073379
1761466521477608700,1.052608642578125,0.011867547926306723,0.025028058272600174,-0.048044484461843964
1761466521487592700,1.0625927734375,0.015616086804866789,0.002837269252538681,-0.024840280615538356
1761466521497577700,1.07257763671875,0.00717997463196516,0.0021919570863246918,0.011410597939044236
1761466521507561700,1.082561767578125,0.031762919485568995,0.032115970706939695,-0.021876023982465267
1761466521517546800,1.092546630859375,0.020246084693074224,0.02116787571310997,-0.02832037781625986
1761466521527530800,1.10253076171875,-0.006890928557515144,0.016350830820202826,-0.007283581136912107
1761466521537515500,1.112515625,-0.010771569383144377,0.03037467999756336,0.01113134260624647
1761466521547499800,1.122499755859375,0.045055531778931616,0.019464578926563263,0.0225040927529335
1761466521557484500,1.132484619140625,0.09571604395806789,-0.015001754298806189,0.00912321765422821
1761466521567468500,1.142468505859375,0.11243570809066294,-0.020080664998292922,-0.02874649427384138
1761466521577453600,1.15245361328125,0.09412029919922352,0.006281856748461723,-0.06135623984709382
1761466521587438600,1.1624384765625,0.10471475844979286,0.027786417070031166,-0.0772821232534945
1761466521597422600,1.172422607421875,0.07560586060434579,0.04410159205496311,-0.05729921954125165
1761466521607407600,1.18240771484375,0.007637947532534599,0.04331131846010685,-0.025722470277547836
1761466521617391600,1.1923916015625,0.011811726085841655,0.024669746354222297,-0.00515679824128747
1761466521627376600,1.202376708984375,0.027742870189249515,0.008609422913193701,0.00010725976675748824
1761466521637360600,1.212360595703125,0.03371989877223968,0.0016886837393045423,-0.011779869642853736
1761466521647345700,1.222345703125,0.03915507556349039,0.024928689551353453,-0.022390403245389462
1761466521657329700,1.23232958984375,0.03583703705668449,0.018802315625548363,-0.021764234171062706
1761466521667314700,1.242314697265625,0.028545126482844352,0.042815643897652626,-0.011319704785197972
1761466521677299700,1.2522998046875,0.02085369519740343,0.06188625507056713,0.0037305648304522035
1761466521687283700,1.26228369140625,0.02767711147665977,0.042565468528866765,0.009520254147797823
1761466521697268700,1.272268798828125,0.03920154505372047,0.04131283811926841,-0.004470423412322998
1761466521707252700,1.282252685546875,0.03888122705817222,0.029110359150171277,-0.01265109951943159
1761466521717237800,1.29223779296875,0.021551322072744367,0.007379004335403442,-0.01709945723041892
1761466521727221800,1.3022216796875,0.02187982337474823,0.013353402569890021,-0.03057897039800882
1761466521737206800,1.312206787109375,0.0324468100965023,0.033116087660193444,-0.024207243409007786
1761466521747190800,1.322190673828125,0.012803367471694945,0.051637248256802555,-0.025179303311556576
1761466521757175800,1.33217578125,-0.004667407289147376,0.062030047455430025,-0.017851006250083446
1761466521767159800,1.342159912109375,0.02742225993275642,0.03797288004159927,-0.02185585797727108
1761466521777144600,1.35214453125,0.041404315795004365,0.026833646389842033,-0.036984307395666834
1761466521787128600,1.362128662109375,0.019873159727454185,0.0413438177794218,-0.011173282051831483
1761466521797113600,1.372113525390625,0.00113806411921978,0.03741875329017639,0.02098170549124479
1761466521807098600,1.3820986328125,-0.014784896677732466,0.022277298259735106,0.03095803284347057
1761466521817082600,1.39208251953125,0.012622165685892105,0.03237959007918834,0.01134878474920988
1761466521827067600,1.402067626953125,0.023136545437574384,0.03197100927829742,-0.007575403690338134
1761466521837051600,1.4120517578125,0.023391396981477738,0.03429506831169128,-0.0069179626949131484
1761466521847036700,1.42203662109375,0.06104045189619064,0.0179553434073925,0.0007473112359642982
1761466521857020700,1.432020751953125,0.08280570898056029,-0.009663315880298614,-0.021392770510166883
1761466521867005700,1.442005615234375,0.08675590791106223,0.004843932899832725,-0.019466478622704744
1761466521876989700,1.45198974609375,0.07634294270724058,0.012040566405653952,-0.02785246804356575
1761466521886974500,1.461974365234375,0.02554477562308311,0.029622400325536726,-0.017680618119239808
1761466521896958500,1.47195849609375,-0.015201368524134158,0.048598318952322,-0.01726721501275897
1761466521906943500,1.481943603515625,-0.002523088736832142,0.05248012882173061,-0.03865998552292585
1761466521916928800,1.4919287109375,0.03425824343264103,0.04621814581751823,-0.017680471988767384
1761466521926912800,1.501912841796875,0.060359483894705766,0.03302081059217453,0.006864332811534405
1761466521936897800,1.511897705078125,0.05632394476830959,0.05487959117889404,0.03837561562359333
1761466521946881800,1.5218818359375,0.05310206011235714,0.016965747848153113,0.031630525277554986
1761466521956866800,1.53186669921875,0.09603227030038833,0.02263619470000267,0.0012327566653490066
1761466521966850800,1.541850830078125,0.08427695057690143,0.023888825109601018,-0.027078707192093134
1761466521976835800,1.5518359375,0.0738911656409502,0.02698620660305023,-0.056309039460122584
1761466521986819800,1.56181982421875,0.045430794832110405,0.03769347857832908,-0.07869535105228423
1761466521996804600,1.5718046875,0.054311143641173835,0.03825871124565601,-0.09061331399157643
1761466522006788600,1.58178857421875,0.012654898911714552,0.0658744479238987,-0.04985577166751027
1761466522016773600,1.591773681640625,0.023768705861270428,0.039946225941181183,-0.008738894511759281
1761466522026757600,1.601757568359375,0.025655834782123563,0.02206277872622013,0.017855097903311253
1761466522036742700,1.61174267578125,-0.03668956223279238,0.04535129985511303,0.051985038781166074
1761466522046727700,1.621727783203125,-0.023460370564460754,0.027777064719796178,0.06604147505387663
1761466522056711700,1.631711669921875,-0.0255932909399271,-0.0037479543566703794,0.031759996876120564
1761466522066696700,1.64169677734375,0.05494096597731113,0.047718028986454004,-0.012024053662270306
1761466522076680700,1.6516806640625,-0.0025490999609231947,0.055095864278078076,0.002097264540195465
1761466522086665700,1.661665771484375,-0.00703355189859867,0.04479775762557983,-0.015409458316862582
1761466522096649700,1.671649658203125,0.037650223958492275,0.033550387424230575,-0.04131590685918927
1761466522106634500,1.681634521484375,0.04557604852169752,0.023360417321324347,-0.03313800723105669
1761466522116618800,1.69161865234375,0.03759206403046846,0.027124153769016265,-0.02699965060651302
1761466522126603500,1.701603515625,0.047637072704732414,0.020194646766781805,-0.02477656772956252
1761466522136587500,1.71158740234375,0.03857201497852802,0.006757657566666603,-0.017249971617013214
1761466522146572500,1.721572509765625,0.02130640740096569,0.005895487779378891,-0.012891922537982463
1761466522156557600,1.7315576171875,0.03641454468369484,0.019890695384144782,-0.00037760114073753353
1761466522166541600,1.74154150390625,0.024702479580044744,0.030649405285716056,0.008479512923210858
1761466522176526800,1.75152685546875,0.019018296463787554,0.016881576696038247,-0.0008858429238200187
1761466522186510600,1.761510498046875,0.03856763106435537,0.02611877611875534,0.0026053601928055286
1761466522196496000,1.771495849609375,0.029115035325288773,0.02713350611925125,0.019974282014369963
1761466522206480400,1.78148046875,0.023942601123452187,0.016057400831580162,0.022961481131613254
1761466522216465400,1.79146533203125,0.020688567763566968,0.015083002841472624,0.01976896870061755
1761466522226449400,1.801449462890625,0.034783728611469264,0.006494622716307639,0.008498509884625673
1761466522236434400,1.811434326171875,0.03996609968543052,0.0097597619920969,0.007654460275918245
1761466522246418400,1.82141845703125,0.015296937853097915,0.0165261873871088,0.01661474245339632
1761466522256403500,1.831403564453125,-0.0018371522992849348,0.03560673543214798,0.020569471428543328
1761466522266387500,1.841387451171875,0.0173497787296772,0.04141279136240482,0.03157221921905875
1761466522276372500,1.85137255859375,0.03651099079549312,0.030333178943395614,0.02634352478533983
1761466522286357500,1.861357421875,0.01671440343558788,0.02129120983183384,0.013780103549361229
1761466522296341500,1.871341552734375,-0.0016658873856067657,0.04001987569928169,0.0037025077797472475
1761466522306326300,1.881326171875,-0.023811083698272704,0.05219488213956356,0.00870689193829894
1761466522316310500,1.891310546875,-0.00641921939253807,0.06420797601640224,0.010788082126528023
1761466522326295300,1.90129541015625,-0.0011056231543421745,0.07881634708344935,0.01517301921248436
1761466522336279300,1.911279296875,-0.006598083090782165,0.08058452579975128,0.022845453536510466
1761466522346264300,1.921264404296875,-0.005763970354199409,0.06942717196941375,0.020622516790032387
1761466522356248300,1.931248291015625,0.03078384532034397,0.04033551751971245,0.014949147328734397
1761466522366233300,1.9412333984375,0.03283084097802639,0.013666121780872344,-0.006604366701096296
1761466522376217300,1.95121728515625,0.02233282783925533,0.00843698895573616,-0.027331366778910158
1761466522386202400,1.961202392578125,0.04121288487613201,0.006973930665850639,-0.0095626319848001
1761466522396186400,1.971186279296875,0.028323592686653135,0.015564064356684684,-0.014807254640012979
1761466522406171400,1.98117138671875,0.02482610595971346,0.04168459404110908,-0.00032879356294870373
1761466522416156400,1.991156494140625,0.030177111598849296,0.060278235352039335,-0.00286824891269207
1761466522426140400,2.001140380859375,0.02624211023747921,0.06026888300180435,0.004379237997531891
1761466522436125200,2.011125244140625,0.0055371758610010145,0.05383738864958286,0.006708996119350195
1761466522446109200,2.021109130859375,-0.023766075512766837,0.058524085161089895,0.01802358633801341
1761466522456094200,2.03109423828125,-0.032981063103675844,0.061413961383700366,-0.019675883589684962
1761466522466078200,2.041078125,-0.029947979018092152,0.062528060105443,-0.04418649385944009
1761466522476063500,2.0510634765625,-0.015421733276546001,0.05710661957859993,-0.04323927613720298
1761466522486047200,2.061047119140625,0.011932429856061934,0.04116670764684677,-0.002970686373859644
1761466522496032500,2.071032470703125,0.05265080921351909,0.003570259702205658,0.011007131704688072
1761466522506016500,2.0810166015625,0.04609130456745624,0.011297054561972617,0.010093962382525206
1761466522516001500,2.09100146484375,-0.01260404550731182,0.0281073195874691,0.0055308922506868835
1761466522525985500,2.100985595703125,-0.027457915768027304,0.029237784922122954,-0.01947875358238816
1761466522535970600,2.110970458984375,0.01728138966858387,0.04160451454222202,-0.05737959130108356
1761466522545955300,2.120955322265625,0.024570377632975576,0.06838672300577163,-0.07779416442885995
1761466522555939300,2.130939208984375,0.0068710548132658,0.0645148500084877,-0.06990428796187043
1761466522565924400,2.14092431640625,0.024143092131614682,0.07487082432806491,-0.04536620516330003
1761466522575908400,2.150908447265625,-0.006690729810297489,0.08807400477230548,-0.021581132689118383
1761466522585893400,2.160893310546875,-0.029628245544433593,0.07830313686430454,0.01625628440454602
1761466522595877400,2.17087744140625,0.006414543217420578,0.045883799296617504,0.029497897163033485
1761466522605862400,2.1808623046875,0.022304770788550376,0.03282207314968109,0.004911299047619104
1761466522615846400,2.190846435546875,-0.026586393630504607,0.02778524802625179,-0.021258184345066548
1761466522625831400,2.20083154296875,-0.04909048638343811,0.026200024661421774,-0.016180004297941922
1761466522635815400,2.2108154296875,-0.02773205653429031,0.023185060754418372,-0.008971680354326963
1761466522645800400,2.220800537109375,-0.006233341431617736,0.03207388513088226,-0.019341390938311814
1761466522655784400,2.230784423828125,-0.01280278294980526,0.0371001888602972,-0.011029051275551318
1761466522665769200,2.240769287109375,-0.014881342789530754,0.010226210460066795,-0.009239975901693105
1761466522675754200,2.250754150390625,0.03610328677743673,0.022344518277049065,-0.017900836741179225
1761466522685738200,2.26073828125,0.022646131572127342,0.033417116433382035,-0.003892331263422966
1761466522695723300,2.27072314453125,-0.03353460533320904,0.05506254653036594,-0.0056850598990917205
1761466522705707300,2.280707275390625,-0.04268646456003189,0.039521278527379036,-0.018971973104029892
1761466522715692300,2.2906923828125,-0.022118308305740356,0.036547231152653695,-0.03223097538873553
1761466522725676300,2.30067626953125,0.018669629156589505,0.04336626351773738,-0.012227905671298504
1761466522735661300,2.310661376953125,0.044074411787092684,0.012283142989873885,-0.01578326006531715
1761466522745645300,2.320645263671875,0.010711948150396347,0.022478958311676976,-0.0022952713303267956
1761466522755630600,2.330630615234375,0.0031233927175402638,0.018203180688619612,0.01116948265954852
1761466522765614300,2.3406142578125,0.03917991774380207,0.008020224848389625,0.0008021101631224155
1761466522775599400,2.350599365234375,0.024901217022538183,0.04060089045763016,-0.015546236439049243
1761466522785583400,2.360583251953125,0.016691022560000417,0.05613806680738925,-0.02059796687066555
1761466522795568400,2.370568359375,0.007262099957466125,0.048130701440572736,-0.015871961262077093
1761466522805552400,2.380552490234375,0.016787468671798707,0.03785889827311039,-0.00567702272310853
1761466522815537400,2.390537353515625,0.0003761398360133171,0.0516875171393156,0.009526099366694688
1761466522825522400,2.4005224609375,0.008240005078911782,0.038134792605042454,0.014692542219161987
1761466522835506400,2.41050634765625,0.059680269458889955,0.027292496073246,0.007201163550466298
1761466522845491500,2.420491455078125,0.037357086230814456,0.03656476680934429,-0.005876929209381342
1761466522855475500,2.430475341796875,-0.008583703950047492,0.028743279403448105,0.006855711113661527
1761466522865460500,2.44046044921875,0.011192425143718718,0.03144786218702793,0.010793196693062782
1761466522875444500,2.450444580078125,0.017518121033906934,0.02173427742421627,0.006957271791994572
1761466522885429500,2.460429443359375,-0.010081249031424521,0.03679389939010143,0.017000380770117042
1761466522895413500,2.47041357421875,-0.002277297282218933,0.03781798174083233,0.04234656508117914
1761466522905398300,2.480398193359375,0.06048223349153995,-0.0034399113208055496,0.025023089836537837
1761466522915382300,2.49038232421875,0.07636486227810382,0.015262451061606406,-0.004119564148038626
1761466522925367300,2.5003671875,0.010716039803624152,0.03126139970421791,0.013220569970458744
1761466522935351300,2.510351318359375,-0.03392915760874748,0.025575170761346817,0.03708002285510301
1761466522945336300,2.52033642578125,0.01889963852018118,-0.006390577819943428,0.0434952967248857
1761466522955320300,2.5303203125,0.11194295613765716,-0.009236614900827408,0.009844225405156611
1761466522965305300,2.540305419921875,0.06408522641956806,0.03364391092658043,-0.011421703854948282
1761466522975290400,2.550290283203125,-0.009254150557518005,0.04982756848633289,0.018844255071133374
1761466522985274400,2.5602744140625,-0.019203882163763047,0.05826514196395874,0.06288491071909666
1761466522995259400,2.57025927734375,0.020565525905787942,0.05397299772799015,0.0612380202949047
1761466523005243400,2.580243408203125,0.0411520945996046,0.04322247113287449,0.018350772465765476
1761466523015228200,2.590228271484375,-0.008114040611684322,0.06084931323826313,-0.021425065344572065
1761466523025212200,2.600212158203125,-0.05443126288950443,0.04789455459713936,-0.025509119787812232
1761466523035197200,2.610197265625,0.0031008886247873304,0.019894787037372588,-0.03213029149323702
1761466523045181200,2.62018115234375,0.09482932425141334,0.03646189095675945,-0.04220832565426826
1761466523055166500,2.63016650390625,0.08065349938273429,0.05113397490978241,-0.01216360826343298
1761466523065150200,2.640150146484375,0.04430792828202247,0.03297930953800678,0.034972821442782874
1761466523075135500,2.650135498046875,0.021920447646081448,0.014740473014116287,0.027898060750961302
1761466523085119500,2.660119384765625,0.006102993050217628,0.032955344140529634,0.007268968089669942
1761466523095104500,2.6701044921875,-0.02649959212988615,0.04214753537774086,0.014588789583742618
1761466523105088500,2.680088623046875,-0.011784838078916072,0.05172726462781429,-0.012000380525738
1761466523115073500,2.690073486328125,0.02338730532824993,0.06481938591301441,-0.04600771793723106
1761466523125058300,2.700058349609375,0.02571136436164379,0.07353168467879295,-0.05278671055287122
1761466523135042300,2.710042236328125,0.005392506693303585,0.0659352382004261,-0.0020895196251571177
1761466523145027300,2.72002734375,0.027660160341858864,0.04434066150784492,0.013620675203949212
1761466523155011300,2.73001123046875,0.04000292456448078,0.009399696508049964,0.041394232792407275
1761466523164996400,2.739996337890625,0.04014788599312305,-0.012680033352971076,0.06009074995592236
1761466523174980400,2.74998046875,0.022319091574847696,0.01001987423300743,0.049475394047796724
1761466523184965400,2.75996533203125,0.00004939209967851639,0.018639234018325804,0.02424845220223069
1761466523194949400,2.769949462890625,0.0020008184283971785,0.007439794611930847,-0.010728460893779993
1761466523204934100,2.77993408203125,-0.010275018037855625,0.03178805392682552,-0.027443741112202404
1761466523214918100,2.789918212890625,-0.0008545710027217865,0.03564122222363949,-0.028426322408765553
1761466523224903200,2.799903076171875,0.015988719509541987,0.02966097877025604,-0.024963760864734647
1761466523234887200,2.80988720703125,0.035082711558043954,0.022902152159810066,-0.04049494586512446
1761466523244872200,2.8198720703125,0.035467911483347415,0.01984159554541111,-0.040259968065470456
1761466523254856200,2.829856201171875,-0.00861176100075245,0.057204819256067276,-0.023114187475293875
1761466523264841000,2.839841064453125,-0.061333005101978776,0.081163202470541,0.005255728571116924
1761466523274825200,2.8498251953125,-0.048025779761373996,0.06131400814056396,0.0137225281432271
1761466523284810000,2.85981005859375,-0.017516951990127563,0.03359305752217769,0.01151128183454275
1761466523294795000,2.869794921875,-0.022121815437078474,0.033332360759377476,0.03156695852205157
1761466523304779000,2.879779052734375,-0.018515315377712248,0.02244973221719265,0.012189619487524032
1761466523314764000,2.889763916015625,0.03839490484595299,0.015808394506573675,-0.020530892983824014
1761466523324748000,2.899748046875,0.03936287309527397,0.03185176681280136,-0.03956219505965709
1761466523334733000,2.909733154296875,-0.012139350605010986,0.05454115300476551,-0.017938684533536434
1761466523344717000,2.919717041015625,-0.020389292556047437,0.060438394349813455,-0.012710428491234778
1761466523354702300,2.929702392578125,-0.01593991193175316,0.05142857394218445,0.001819762773066759
1761466523364686000,2.93968603515625,-0.022385434809327125,0.05484042821228504,0.008173807974904775
1761466523374671000,2.949671142578125,0.004641688326001167,0.04395020088553429,-0.0032090251743793485
1761466523384655400,2.9596552734375,0.06556172871291636,0.03759469437897205,-0.04222220804914832
1761466523394640100,2.96964013671875,0.045858664855360984,0.03685001349151134,-0.03338979003503918
1761466523404624100,2.9796240234375,-0.024150398655235765,0.04546235901415348,-0.017840046464651822
1761466523414609200,2.989609130859375,-0.057246904832124704,0.04488485138714313,0.0035711364850401876
1761466523424593200,2.99959326171875,-0.027007249391078948,0.046751229780912396,0.00767798728197813
1761466523434578200,3.009578125,-0.006962824749946594,0.05540449183583259,0.008687164324522018
1761466523444563200,3.019563232421875,-0.04002162926495075,0.06607727701961993,0.006785276225954294
1761466523454547200,3.029547119140625,-0.059601943525671955,0.06416355235278606,0.012986468953639268
1761466523464532200,3.0395322265625,0.014921382538974284,0.026413375151157378,-0.013607085070014
1761466523474516200,3.04951611328125,0.06882452990114689,0.01765080750286579,-0.05025573077052831
1761466523484501200,3.059501220703125,0.014229600882530212,0.04898410339951515,-0.044380701257288456
1761466523494485200,3.0694853515625,-0.04588321477472782,0.04124912523329258,-0.0030231472134590147
1761466523504470000,3.079469970703125,-0.042239889836311335,0.027678865042328832,0.051050534410029644
1761466523514454000,3.0894541015625,-0.0048608840346336364,0.00990180081129074,0.04597206210196018
1761466523524439000,3.09943896484375,0.006254384219646454,0.03477612982690334,0.00695011139884591
1761466523534423000,3.109423095703125,0.007835223670303822,0.05194646033644676,-0.032412323305010794
1761466523544408000,3.119407958984375,-0.0009486790269613265,0.07030453932583332,-0.03319660555049777
1761466523554392000,3.12939208984375,-0.026573826409876346,0.0633995822429657,-0.01121916702017188
1761466523564377000,3.139377197265625,-0.021630232527852056,0.04529986192882061,0.009928834948688745
1761466523574361000,3.149361083984375,0.017590017226338385,0.03598550561666489,0.02026625069826841
1761466523584346000,3.15934619140625,0.02606733819246292,0.011284195080399512,0.006697451812028884
1761466523594330000,3.169330078125,-0.01047521678507328,0.017636194455623627,-0.02363938039317727
1761466523604315100,3.179315185546875,-0.006520926201343536,0.04914250883162021,-0.051981385519355536
1761466523614299100,3.189299072265625,0.018276245924830434,0.06519055731296539,-0.023656185397505757
1761466523624284000,3.199283935546875,0.06576163519918918,0.037544425496459005,0.007011924588680267
1761466523634269200,3.209269287109375,0.1142722758680582,0.007854220631718634,-0.008526566935330628
1761466523644253000,3.2192529296875,0.07725392007231711,0.017249240964651108,-0.024205343712866305
1761466523654238200,3.22923828125,-0.042839609295129776,0.041215807485580444,0.013386574187129735
1761466523664222200,3.23922216796875,-0.07824936085045338,0.028866029000282286,0.024901655413955448
1761466523674207200,3.249207275390625,-0.010563479590415955,0.039704233878850935,-0.02739449514299631
1761466523684191200,3.259191162109375,0.06207096398770809,0.05898936458528042,-0.05804769982099533
1761466523694176300,3.26917626953125,0.04042757971733808,0.05223989032506943,-0.051399347847700116
1761466523704160300,3.27916015625,0.020204291377961633,0.04447743963003158,-0.03217223093882203
1761466523714145300,3.289145263671875,0.014014496827125548,0.05037701906263828,-0.010730214459449052
1761466523724129300,3.29912939453125,-0.006529109507799148,0.05841127243638038,0.028170009560137984
1761466523734114000,3.309114013671875,-0.03408025651723146,0.04712240118086338,0.053093876805901524
1761466523744098300,3.319098388671875,-0.016394377700984477,0.03904255509972572,0.040297523596882816
1761466523754083000,3.3290830078125,-0.013571429234743117,0.04597966088652611,0.006616057138890028
1761466523764067000,3.339067138671875,-0.03797960204333067,0.05591945562064647,0.0002529518477618694
1761466523774052000,3.349052001953125,-0.01411591137498617,0.052148704910278315,-0.029221856700628993
1761466523784037000,3.359037109375,0.03447773140221834,0.06326397316455841,-0.06630056438148021
1761466523794021000,3.369021240234375,0.05375029488801956,0.04524140973985195,-0.07041165296211838
1761466523804006100,3.379006103515625,0.018078385265171526,0.016705635607242583,-0.024803894127905367
1761466523813990100,3.388990234375,0.012293664383888243,0.02580021168887615,0.005446428837627172
1761466523823975200,3.39897509765625,0.013677812218666076,0.03491466151475906,0.00048822190836071965
1761466523833959200,3.408959228515625,0.028834757079184054,0.021861703196167946,-0.0028498364731669424
1761466523843944200,3.418944091796875,0.06332067178785801,-0.0017658406287431715,-0.019983195973187685
1761466523853928200,3.42892822265625,0.06398819578588008,0.014820552513003349,-0.03608370529413223
1761466523863913000,3.438912841796875,0.026335049217939374,0.045725978386402126,-0.041360622783750293
1761466523873897000,3.44889697265625,-0.029734044006466863,0.04349252024590969,-0.02456102528274059
1761466523883882000,3.458882080078125,-0.02080108822733164,0.018136545193195342,0.002221183180809021
1761466523893866000,3.468865966796875,0.02633914087116718,0.01737491317093372,0.017864157992601392
1761466523903851000,3.47885107421875,0.0030038579910993575,0.040460020682215686,0.005510433984547853
1761466523913835000,3.4888349609375,-0.0016620879933238028,0.04244038084447384,0.014228724099695682
1761466523923820000,3.498820068359375,0.05394552519917488,0.006204699859023094,-0.0004579729005694389
1761466523933804000,3.508803955078125,0.11888766070902347,-0.0028209026396274566,-0.02809402171447873
1761466523943789300,3.518789306640625,0.06444295381605625,0.03569207562804222,-0.04851049453839659
1761466523953773000,3.52877294921875,-0.023687749579548834,0.059715340772271155,-0.026534809573739767
1761466523963758300,3.53875830078125,-0.04900982236266136,0.04382160606980324,0.0055853989169001575
1761466523973742000,3.5487421875,-0.01563917541950941,0.04436170429587364,0.004763707270473242
1761466523983727000,3.55872705078125,-0.011339724659919738,0.050832946136593816,-0.0015000292994081974
1761466523993712000,3.568712158203125,-0.03638648763298988,0.046126375880837435,0.0073741820298135275
1761466524003696000,3.578696044921875,0.018474398845434187,0.011112345644831656,0.007339987499266862
1761466524013681200,3.58868115234375,0.08637742998749018,0.013479074776172637,-0.032105887704342605
1761466524023665200,3.5986650390625,0.02992459814250469,0.05117021526694297,-0.03329056744426489
1761466524033650200,3.608650146484375,-0.022435995952785014,0.08843991547524929,-0.0225716050311923
1761466524043634200,3.61863427734375,-0.0017798691540956495,0.025710195317864417,0.023775573993474245
1761466524053619200,3.628619140625,0.02836041756570339,0.01586275504231453,0.0334391821347177
1761466524063603200,3.638603271484375,0.05545943689346313,0.037646716827154154,0.0016778700843453405
1761466524073588200,3.648588134765625,0.007189619243144989,0.026282442247867584,0.000891103620827198
1761466524083572200,3.658572265625,0.013293196815252303,-0.001595160236954689,-0.009541150805354118
1761466524093557000,3.668556884765625,0.07103519168794155,0.01903027916252613,-0.03982055373489857
1761466524103541200,3.678541259765625,0.066714990401268,0.05368190582692623,-0.09437719656974076
1761466524113526000,3.688526123046875,0.05231821625828743,0.01740589283108711,-0.022381050895154474
1761466524123510000,3.698510009765625,0.051798576298356054,0.03915361425876617,0.02273556342124939
1761466524133495000,3.7084951171875,0.035328503012657164,0.04806523498892784,0.0313045081935823
1761466524143479000,3.71847900390625,0.017826164069771767,0.06021919864118099,0.03663812430649996
1761466524153464000,3.728464111328125,-0.02116699893027544,0.060953942656517025,0.038639673387259245
1761466524163448000,3.738447998046875,-0.048022564890980717,0.062461424610018725,0.03603212123736739
1761466524173433000,3.74843310546875,-0.030849896293878555,0.06833528507947921,-0.00035918870121240615
1761466524183418000,3.758418212890625,-0.024403204372525213,0.06623334436416625,-0.014105097720026969
1761466524193402000,3.768402099609375,-0.014717092138528823,0.03293371683061123,-0.012785539554059505
1761466524203387100,3.77838720703125,0.006060322952270507,0.022013678887486458,-0.012016162616759538
1761466524213371400,3.788371337890625,-0.01471066239774227,0.02645779881477356,0.0008232990816235542
1761466524223356700,3.798356689453125,-0.04003828813880682,0.022889877200126647,0.0015061667792499065
1761466524233340700,3.808340576171875,-0.06467150187492371,0.037408231896162034,0.0007687924154102802
1761466524243325700,3.81832568359375,-0.047782618655264376,0.03402092754542827,0.018996084631979465
1761466524253309700,3.828309814453125,-0.009797755914926529,0.015910101315379142,0.00017886369824409484
1761466524263294700,3.838294677734375,0.015718378135561942,0.016046294915676117,-0.030470833848416805
1761466524273278700,3.84827880859375,0.018349895682930946,0.046264907568693156,-0.05341244123578071
1761466524283263700,3.858263671875,0.018607085314393042,0.05734919616281986,-0.049788551650196314
1761466524293247700,3.868247802734375,0.01916705728471279,0.05337970800995826,-0.025920623198151586
1761466524303232800,3.878232666015625,0.05126695363968611,0.05653846430182457,-0.029286154108494517
1761466524313216800,3.888216796875,0.0014539982005953788,0.02191372564435005,0.040267420719563955
1761466524323201500,3.898201416015625,-0.044535891819000244,0.041871056523919106,0.06439312332496047
1761466524333185800,3.908185791015625,-0.05794248588085174,0.038755554851889605,0.05385653174147009
1761466524343170600,3.918170654296875,-0.05753624316751957,0.05189209980070591,0.03201806329041719
1761466524353154600,3.928154541015625,-0.030285832670331,0.03422843281626701,0.006923807913810014
1761466524363139600,3.9381396484375,0.020494506496191025,0.01598433559536934,-0.006400076300650834
1761466524373123600,3.94812353515625,0.025323826348781584,0.0325689751714468,-0.010734598373621701
1761466524383108600,3.958108642578125,0.009957622651755808,0.01783434737622738,-0.0007879355072975159
1761466524393093600,3.96809375,-0.0008522329151630402,0.042024201259016986,-0.008995645751804112
1761466524403077600,3.97807763671875,-0.00014379238486289978,0.055368251478672026,-0.014273147763311862
1761466524413062700,3.988062744140625,0.0070341364204883575,0.06311784269213676,-0.01988324273005128
1761466524423046700,3.998046630859375,0.015226795226335525,0.06288929463326931,-0.011775631859153509
1761466524433027800,4.00802783203125,0.012649053692817687,0.06419453201293945,-0.012724457016587257
1761466524443012600,4.0180126953125,-0.01319441261589527,0.03699263683259487,-0.0017246318355202675
1761466524452996600,4.02799658203125,-0.007808627924323082,0.020445991179347037,0.0005856909334659576
1761466524462981600,4.037981689453125,0.02541764211207628,0.010755202770233153,-0.008089636822789906
1761466524472965600,4.047965576171875,0.0578571456849575,0.029487375769019126,-0.005280132360011339
1761466524482950700,4.05795068359375,0.0703510088160634,0.039841596522927285,-0.014588643453270196
1761466524492935700,4.067935791015625,0.07101385663896799,0.050400399938225746,-0.03615998540073633
1761466524502919700,4.077919677734375,0.040297231335937975,0.07185527589917183,-0.04856076342090964
1761466524512904700,4.08790478515625,0.020117489877343176,0.06066109718978405,-0.03961144102886319
1761466524522888700,4.097888671875,0.01070785649716854,0.06234335118830204,-0.032235943824797865
1761466524532873700,4.107873779296875,0.004623568147420883,0.05267009843587875,-0.022395225550979374
1761466524542857700,4.117857666015625,0.002666296599805355,0.06345394277870654,-0.0033715222597122192
1761466524552842500,4.127842529296875,-0.003428220883011818,0.024661563047766684,-0.024963760864734647
1761466524562826800,4.13782666015625,0.016080781707167625,0.05248305143117905,-0.007055909860879182
1761466524572811500,4.1478115234375,0.020860417199134826,0.04840718029439449,-0.01421425718292594
1761466524582795500,4.15779541015625,0.034692835457623,0.03591477846801281,-0.03668181731775403
1761466524592780500,4.167780517578125,0.0360983183413744,0.040030981615185736,-0.04198796090185642
1761466524602764500,4.1777646484375,0.03833060743808746,0.011321019959449768,-0.04401639798954129
1761466524612749600,4.18774951171875,0.021007716715335845,0.02753565717935562,-0.005423924744874239
1761466524622733600,4.197733642578125,0.025644144344329833,0.01992518217563629,0.0007518412806093692
1761466524632718600,4.207718505859375,0.020530746853351593,0.012100772160291672,0.005102145444601774
1761466524642702600,4.21770263671875,0.0012435703203082084,0.01864040306210518,0.013423837457597254
1761466524652687600,4.2276875,0.023285598519444464,0.024683190357685087,0.03645736091211438
1761466524662671600,4.237671630859375,0.039971360382437704,-0.01622340504825115,0.02620850022882223
1761466524672656600,4.24765673828125,0.04701777176260948,-0.011562427499890327,0.01735343199148774
1761466524682640600,4.257640625,0.04060732019841671,-0.004131400716304779,0.010454320127516984
1761466524692625400,4.26762548828125,0.03874970963299274,0.008613514566421508,-0.0007261223174631595
1761466524702609700,4.277609619140625,0.04986263979971409,0.0069207391738891596,0.0000010229133069515227
1761466524712594400,4.287594482421875,0.04838438394069671,0.011081950506567954,0.013640256687253712
1761466524722579700,4.297579833984375,0.028249358406662938,0.029773791494965552,0.03150806794166565
1761466524732563700,4.307563720703125,0.009290390914678573,0.018030162209272383,0.042863574692606925
1761466524742548700,4.317548828125,0.0003524666994810104,0.007198971593379974,0.03032134237512946
1761466524752532700,4.32753271484375,-0.0029448212802410125,0.03886310687959194,-0.002629033329337835
1761466524762517800,4.337517822265625,0.023656185397505757,0.06795359228551387,-0.0053831543430686
1761466524772501800,4.347501708984375,0.05891133091300726,0.056654784157872194,0.002068769098073244
1761466524782486800,4.35748681640625,0.07849836717545985,0.034487960535287854,0.015430354974418877
1761466524792470800,4.367470703125,0.06366407839804887,0.0030155484288930893,0.014438713588565587
1761466524802455600,4.37745556640625,0.08329962997734547,-0.004519523251056671,0.0012160977914929389
1761466524812439800,4.387439697265625,0.046780455875396726,0.005699088424444198,-0.009838234055787324
1761466524822424600,4.397424560546875,-0.016931261056661605,0.0073655603319406505,-0.00864639392271638
1761466524832408600,4.40740869140625,-0.01687222434580326,-0.0027998598515987395,-0.02171148107051849
1761466524842393600,4.4173935546875,0.020856910067796705,0.009928104296326637,-0.04092719980254769
1761466524852377600,4.427377685546875,0.02011310596317053,0.0450689757823944,-0.035199031414091586
1761466524862362600,4.437362548828125,0.016477379809319972,0.062250996729731556,-0.019983195973187685
1761466524872346600,4.4473466796875,0.014516601130366324,0.06980652667582035,-0.0031986499108374116
1761466524882331600,4.45733154296875,0.02294160738736391,0.047617491221427916,0.023466946435719727
1761466524892315600,4.467315673828125,0.011657120046019553,0.04438450064957142,0.05190832028314471
1761466524902300700,4.47730078125,-0.0014127894073724745,0.04762333644032478,0.05592734666615724
1761466524912284700,4.48728466796875,-0.0024175825357437134,0.03811725694835186,0.046399055342376226
1761466524922269700,4.497269775390625,-0.02081803936213255,0.03158814744055271,0.024483430001884698
1761466524932253700,4.507253662109375,-0.0358607101932168,0.03396832057535648,0.02208776703700423
1761466524942238500,4.517238525390625,-0.03334288215339184,0.05005670106709003,-0.006624971097707748
1761466524952222500,4.527222412109375,0.05885317098498344,0.046294718185067175,-0.026409429628401992
1761466524962207500,4.53720751953125,0.08034136469364166,0.023843232402205466,-0.025309797823429105
1761466524972191500,4.54719140625,0.02590484110713005,0.009963760131597518,0.009655424834787846
1761466524982176500,4.557176513671875,-0.00023848493099212645,0.00817863028049469,0.007232727732509374
1761466524992161500,4.56716162109375,0.026651860082149505,0.0309001651763916,-0.019327216282486914
1761466525002145500,4.5771455078125,-0.003276537452638149,0.026146833169460294,-0.0062891632720828055
1761466525012130800,4.587130859375,-0.0092892218708992,0.007580079865455627,0.01626782871186733
1761466525022117600,4.59711767578125,0.04431231219619512,0.024977789390087126,-0.05776069957315921
1761466525032102700,4.6071025390625,0.012154548174142837,0.014033786049485205,-0.008655015620589256
1761466525042086700,4.617086669921875,-0.015149930597841739,0.01494680924117565,0.03981938469111919
1761466525052071700,4.62707177734375,-0.005142331324517727,0.04692833991348743,0.024747049374133346
1761466525062055700,4.6370556640625,0.02321750171929598,0.06544423981308936,0.004943593882024288
1761466525072040400,4.64704052734375,0.03505114737600088,0.059679100415110584,-0.008043313463032244
1761466525082024400,4.6570244140625,0.02059884365350008,0.06047697279453277,-0.026894582796841857
1761466525092009500,4.667009521484375,0.015781798760592936,0.06542670415639877,-0.04278627167269587
1761466525101993500,4.676993408203125,-0.0005842296287417412,0.06987725382447242,-0.01189282849803567
1761466525111978500,4.686978515625,-0.0077925535723567,0.04810790508687496,0.019333646023273466
1761466525121962500,4.69696240234375,0.0061447863653302185,0.03026362083852291,0.01150324465855956
1761466525131947500,4.706947509765625,0.009981880310177802,0.019330723413825034,-0.007438041046261787
1761466525141932800,4.716932861328125,-0.0021381810724735257,0.027375498181581494,-0.0089253569945693
1761466525151916800,4.726916748046875,-0.0077437459945678706,0.036000703185796734,0.0007118015311658382
1761466525161901800,4.73690185546875,-0.006284194836020469,0.03636778293251991,-0.001454728852957487
1761466525171885800,4.7468857421875,-0.0030038579910993575,0.020782091265916822,0.0031055647999048233
1761466525181870600,4.75687060546875,0.039348260048031804,0.016589315751194954,0.01656067417860031
1761466525191854600,4.7668544921875,0.08438099547326565,0.02732347573339939,-0.004038461735844612
1761466525201839600,4.776839599609375,0.0759413761690259,0.026318098083138463,-0.01988718825280666
1761466525211823000,4.786822998046875,0.028559155008196828,0.03466390162408352,0.008374006722122431
1761466525221807900,4.796807861328125,0.00860211638957262,0.022993922096490857,0.05071516497582197
1761466525231791900,4.8067919921875,0.010218903936445712,0.012210077753663062,0.048322132359445095
1761466525241777000,4.81677685546875,0.030794951236248015,0.01839899552166462,0.023766952295601367
1761466525251761000,4.826760986328125,0.06155424663722515,0.006491700106859207,0.008110533480346202
1761466525261746000,4.836745849609375,0.05507774409949779,-0.0005085340440273285,-0.01110460072979331
1761466525271730000,4.84672998046875,0.03917641061246395,0.010509703576564788,-0.029544220522791147
1761466525281715000,4.85671484375,0.011482055740058422,0.026853520134091376,-0.016821370941400526
1761466525291699000,4.866698974609375,0.015098200410604477,0.024755671072006224,0.020327771627157924
1761466525301684000,4.87668408203125,0.049018005669116974,0.015523147824406622,0.009953384868055581
1761466525311668000,4.88666796875,0.00994797804057598,0.04484802650809288,-0.011174012704193591
1761466525321653000,4.896653076171875,-0.021073475427925585,0.06128887369930744,0.01216273148059845
1761466525331637000,4.906636962890625,-0.030035072779655454,0.05364917260110378,0.01290317458435893
1761466525341622000,4.9166220703125,0.019341537068784234,0.05205225879848003,-0.056733548482507466
1761466525351606000,4.92660595703125,0.01603694256544113,0.0457750782251358,-0.06753975078761577
1761466525361591000,4.936591064453125,0.006330956587195396,0.062245736032724375,-0.029365941346436737
1761466525371575000,4.946574951171875,0.0028705870002508163,0.038107320076227184,0.004672960247099399
1761466525381560000,4.95656005859375,0.00545329696983099,0.03223988934755325,-0.0003603577449917793
1761466525391544000,4.9665439453125,0.012098141811788081,0.04376256935894489,0.0019160627543926237
1761466525401529000,4.976529052734375,-0.026445816116034984,0.04875672438442707,0.0031206162385642527
1761466525411513000,4.98651318359375,-0.028086861321330068,0.041920740884542465,-0.007992460058629513
1761466525421498000,4.996498046875,0.030585107877850532,0.0318979440420866,-0.04685805115625262
1761466525431482000,5.006482177734375,0.06565408317148685,0.055095864278078076,-0.0804530083745718
1761466525441467100,5.016467041015625,0.0048883565634489055,0.08485854985713959,-0.06178177178278565
1761466525451451100,5.026451171875,-0.014490005384385584,0.09512509232759475,-0.02124620164632797
1761466525461436200,5.036436279296875,0.02048369284123182,0.08421323769092559,0.032423867612332104
1761466525471421000,5.0464208984375,0.016277181062102318,0.0661135173767805,0.05881751514971256
1761466525481405000,5.056405029296875,-0.012688801181316375,0.030249007791280744,0.05978080722391605
1761466525491390000,5.066389892578125,-0.03164426154196262,0.020177695631980894,0.0426021472774446
1761466525501374000,5.0763740234375,-0.0488905798971653,0.03722995271980762,0.040176381435245274
1761466525511359000,5.08635888671875,-0.04892565121054649,0.03903846344649792,0.0378616747520864
1761466525521343000,5.096343017578125,-0.039005730220675466,0.042159810337424275,0.03470437976494431
1761466525531328000,5.106327880859375,0.001235094752907753,0.004945055186748504,0.04343099931702017
1761466525541312000,5.11631201171875,0.030588030487298964,0.014793079984188079,0.03262684283852577
1761466525551297000,5.126297119140625,0.04093026854246855,0.029795418804883955,0.018467969104647635
1761466525561281000,5.136281005859375,0.0018196166425943374,0.03264320945143699,0.015600889235734938
1761466525571266000,5.14626611328125,-0.052964112946391105,0.05181786552071571,0.025889497407525778
1761466525581250000,5.15625,-0.04821545711457729,0.04522504312694072,0.010987696351855992
1761466525591234800,5.16623486328125,-0.04851531684398651,0.05505202513635158,-0.0066669105432927605
1761466525601218800,5.17621875,-0.04679156179130077,0.06736147161126137,-0.03536708145737648
1761466525611203800,5.186203857421875,-0.04153291061073541,0.06996902376115322,-0.04122895922809839
1761466525621187800,5.196187744140625,-0.023562661895155906,0.0724620096206665,-0.03831102595478296
1761466525631172900,5.2061728515625,-0.012024784314632416,0.03591010229289532,-0.04156842031553387
1761466525641156900,5.216156982421875,0.016046879437565803,0.008244096732139586,-0.056294572543352836
1761466525651142100,5.22614208984375,0.027408231407403946,0.015610241585969924,-0.05287804209813475
1761466525661126000,5.2361259765625,0.0052735564887523645,0.021137480574846268,-0.02887172808870673
1761466525671111200,5.246111083984375,-0.023483166918158528,0.013105565288662909,0.0008553016550838947
1761466525681095000,5.256094970703125,-0.00991407577097416,0.02909106992781162,0.009704378543049097
1761466525691080200,5.266080078125,0.015811901637911796,0.028903438401222226,0.011625555863976478
1761466525701064200,5.276064208984375,0.024895956325531005,0.016338555860519407,0.004406418265402317
1761466525711049000,5.286049072265625,0.0064417234852910035,0.0010568155765533446,0.004396335262805223
1761466525721033200,5.296033203125,-0.023311317482590674,0.008588964647054671,0.01979132666289806
1761466525731018000,5.30601806640625,-0.006949673007428645,0.023902853634953498,0.017195903342217204
1761466525741002000,5.316001953125,-0.007620411875844001,0.04009410997927189,0.011497253309190273
1761466525750987000,5.325987060546875,0.010991349613666533,0.05240180288851261,0.013347995742410421
1761466525760971000,5.335970947265625,0.0018380290821194648,0.0625368279337883,0.007427373521775007
1761466525770956000,5.3459560546875,0.027811259250342845,0.04808510873317718,0.019219518124312163
1761466525780940000,5.35593994140625,0.0693532299503684,0.033983518144488335,-0.012735124541074037
1761466525790925000,5.365925048828125,0.08135200304090977,0.02647124281823635,-0.03976166315451264
1761466525800909000,5.375908935546875,0.023882395368814466,0.050422027248144145,-0.026155600997805593
1761466525810894000,5.38589404296875,-0.009877250891923903,0.06093991413116455,0.009062281247228384
1761466525820878000,5.395878173828125,0.0018415362134575842,0.055196986564993854,0.01484188756197691
1761466525830863000,5.405863037109375,0.00035743513554334637,0.07174070960879325,-0.0034761516779661175
1761466525840847000,5.41584716796875,-0.031522096467018125,0.06893500453829765,0.00499167080745101
1761466525850832000,5.425831787109375,-0.03452127828299999,0.06070142920017242,0.011249708288908004
1761466525860816100,5.435816162109375,0.02489741763025522,0.026571196061372756,-0.03342120808660984
1761466525870801000,5.44580078125,0.015897241833806038,0.06519347992241382,-0.06309329277276993
1761466525880785000,5.455784912109375,-0.054387423747777934,0.07466390357911587,-0.029665070423483847
1761466525890770000,5.46577001953125,-0.06306289763450622,0.045696167770028114,0.008857552455365658
1761466525900755000,5.4757548828125,0.029513094732165335,0.03478139052391052,-0.03223842804282903
1761466525910739000,5.485739013671875,0.08379296645224094,0.048802901613712306,-0.07205693595111369
1761466525920724000,5.495723876953125,0.00822656107544899,0.06730594203174114,-0.069527417473495
1761466525930708000,5.5057080078125,-0.0300070157289505,0.048746787512302395,-0.02849909538403153
1761466525940693000,5.51569287109375,0.010145546439290045,0.028243513187766075,-0.01888473321199417
1761466525950677000,5.525677001953125,0.08375994096547365,0.02244096438884735,-0.04400193107277155
1761466525960662000,5.535662109375,0.07962211050838232,0.020879706421494483,-0.030350422339141366
1761466525970646000,5.54564599609375,0.02420417466908693,0.019891279906034467,0.03764116386920213
1761466525980631000,5.555631103515625,0.013085107022523879,0.0073667293757200235,0.07440569103434681
1761466525990614800,5.56561474609375,0.01128127247095108,0.011088380247354507,0.018948738358914852
1761466526000600000,5.57560009765625,0.07709668368399143,0.0029629414588212967,-0.07280790044888853
1761466526010584000,5.585583984375,0.12204612473994493,0.017531565037369728,-0.08911898378059267
1761466526020569000,5.595569091796875,0.05976122574061155,0.02873158896565437,-0.029824937160313127
1761466526030553000,5.605552978515625,0.002905366052687168,0.01587912165522575,0.052999038129299875
1761466526040538000,5.6155380859375,-0.012914426630735396,0.010328501790761948,0.10414178086742758
1761466526050522000,5.625522216796875,-0.00651508098244667,0.02609597976505756,0.09082549543753266
1761466526060507100,5.635507080078125,0.0006058569386601447,0.03099719581007957,0.03127323627248406
1761466526070491100,5.6454912109375,0.028624621459841727,0.02134264775812626,-0.023644494959712027
1761466526080476200,5.65547607421875,0.058115796621143814,0.021062661772966385,-0.08285305525362491
1761466526090460200,5.665460205078125,0.06606237171143294,0.037628596648573875,-0.10160101034343243
1761466526100445000,5.67544482421875,0.04265723846554756,0.05652034412324428,-0.05912263557612896
1761466526110429000,5.685428955078125,0.008960136047005653,0.06229015969634056,0.025919600284844635
1761466526120414000,5.6954140625,0.029479484723508358,0.04493628931343555,0.0408070805542171
1761466526130398000,5.70539794921875,0.0430213956028223,0.03529810787439346,0.03619973288923502
1761466526140383000,5.715383056640625,0.016986206114292145,0.03091886987686157,0.044648704543709755
1761466526150367000,5.725366943359375,-0.015615502282977103,0.028165771776437757,0.02695946472659707
1761466526160352000,5.73535205078125,-0.02738748088032007,0.01853694268763065,-0.012234773803502321
1761466526170336000,5.7453359375,0.005614625011384487,0.026134558209776875,-0.05188815427795052
1761466526180321000,5.755321044921875,0.022982816180586813,0.045478141105175014,-0.04538008755818009
1761466526190305000,5.765304931640625,-0.003078384532034397,0.03759294081330299,-0.017338818944245576
1761466526200290000,5.7752900390625,-0.0076017071753740305,0.037467853128910066,-0.0058364510685205455
1761466526210274300,5.7852744140625,0.041433834150433536,0.02275017646849155,-0.02580371882021427
1761466526220259000,5.795259033203125,0.025989012259244916,0.024034955582022666,-0.01569967343509197
1761466526230243300,5.805243408203125,-0.01487140591740608,0.05059621477127075,-0.010196399843692779
1761466526240228000,5.81522802734375,-0.012449731728434561,0.03701601770818233,-0.005539221687614918
1761466526250212000,5.825212158203125,0.009749240598082541,0.0057160395592451094,-0.007851005761325358
1761466526260197000,5.835197021484375,0.015576339316368102,0.0005430208355188369,0.01761588231995702
1761466526270181000,5.84518115234375,-0.0009632920742034911,0.023368016105890274,0.034535745199769735
1761466526280166100,5.855166259765625,-0.01664133819937706,0.050367082190513605,0.029116204369068144
1761466526290150100,5.865150146484375,-0.002172667863965034,0.050474049696326254,0.00978548095524311
1761466526300135200,5.87513525390625,0.037414661636948586,0.03504734798371792,-0.0021148001968860626
1761466526310119200,5.885119140625,0.018825696501135827,0.04788344868123531,0.003687894732505083
1761466526320104400,5.8951044921875,0.022594109123945234,0.04559855261445045,0.0014230185404419898
1761466526330088200,5.905088134765625,0.060329673278331754,0.03136427555680275,-0.007544277899712324
1761466526340073500,5.915073486328125,0.05375818593353033,0.03006839052736759,-0.020126842227578164
1761466526350057500,5.925057373046875,0.010559387937188148,0.034758594170212744,0.0026958149552345273
1761466526360042200,5.935042236328125,-0.0023836802661418915,0.052940147548913956,0.009427899689227342
1761466526370026200,5.945026123046875,0.004583820658922195,0.055843467774987214,0.006904080300033092
1761466526380011300,5.95501123046875,-0.008732172510027884,0.04966097974777221,0.00025908932760357854
1761466526389995300,5.964995361328125,-0.024398820458352566,0.04261223028004169,-0.0004696633383631706
1761466526399980300,5.974980224609375,-0.019294483056664466,0.03451134141087532,0.0007864742025732994
1761466526409964300,5.98496435546875,0.012962941947579383,0.035739421901106835,-0.0018050035953521728
1761466526419949300,5.99494921875,0.008681903627514838,0.025870938837528227,0.0006100947223603725
1761466526429933300,6.004933349609375,0.020451251876354215,0.028563831183314323,0.022153818010538815
1761466526439918300,6.01491845703125,0.037809213912487025,0.012131167298555373,0.02332943766117096
1761466526449902300,6.02490234375,0.05783727194070816,-0.003199672824144363,-0.00013619360029697419
1761466526459887400,6.034887451171875,0.01745908432304859,0.03847615338861942,-0.003200549606978893
1761466526469871400,6.044871337890625,0.007101356437802314,0.04979249717295169,-0.00501212907359004
1761466526479856000,6.054856201171875,0.016385317611694334,0.03585924888849258,-0.00657718643322587
1761466526489840400,6.06484033203125,0.0006599252134561538,0.05056932676434517,0.001206599310785532
1761466526499825200,6.0748251953125,-0.027885493530333042,0.04468026872575283,0.009704816934466362
1761466526509809200,6.08480908203125,-0.0022311200529336927,0.03234802589714527,0.0004893909521400928
1761466526519794200,6.094794189453125,0.046160862672328946,0.04079378268122673,-0.014762830976396798
1761466526529778200,6.104778076171875,0.02763794851005077,0.04835340428054333,-0.008214870637655258
1761466526539763200,6.11476318359375,-0.041191257566213606,0.060008770760893816,0.022458353915065527
1761466526549747200,6.124747314453125,-0.05807224974036217,0.051313423129916186,0.028338790255784986
1761466526559732200,6.134732177734375,-0.016962825238704682,0.053070495930314064,0.018410101437568663
1761466526569717200,6.14471728515625,-0.022832009533047676,0.05391337649524212,-0.00581906154230237
1761466526579701200,6.154701171875,-0.044590252354741094,0.06432780300378799,-0.01366743695512414
1761466526589685200,6.164685302734375,-0.024686405228078363,0.04887362876236438,-0.023521453101933
1761466526599670300,6.174670166015625,0.028111703501641747,0.039005730220675466,-0.052031800532341
1761466526609655000,6.184655029296875,0.013741817365586757,0.04629997888207436,-0.059375587423890826
1761466526619639000,6.19463916015625,-0.02943009262382984,0.05146832143068313,-0.036983284482359886
1761466526629624300,6.204624267578125,-0.0037350948750972746,0.06506956128180026,-0.007401362297683954
1761466526639608000,6.214608154296875,0.015177695387601851,0.05890986960828304,-0.01741919070407748
1761466526649593300,6.22459326171875,0.014274024546146392,0.06137304485142231,-0.008899930292367934
1761466526659577300,6.234577392578125,0.01021335097849369,0.040674540215730665,0.019651187539845703
1761466526669562400,6.244562255859375,0.054095162802934645,0.03080781071782112,0.023534312583506106
1761466526679546400,6.25454638671875,0.04342062405347824,0.03238894242942333,0.0013344634741544723
1761466526689531400,6.264531494140625,-0.007566343601047992,0.040410920843482016,-0.02627425894141197
1761466526699515400,6.274515380859375,0.005620762491226196,0.031242695003747937,-0.02683350025936961
1761466526709500400,6.28450048828125,0.06828150906562805,0.022566052073240278,-0.03890007788911461
1761466526719484400,6.294484375,0.07301847445964812,0.023961890345811844,-0.0218614109352231
1761466526729469200,6.30446923828125,0.04885024788677692,0.010815993046760558,0.021557021161168814
1761466526739453400,6.314453369140625,0.035676001276075835,0.02317337031662464,0.05307444145306944
1761466526749438200,6.324438232421875,0.024164427180588244,0.023335867401957512,0.07248451371341944
1761466526759422200,6.334422119140625,0.02308276942372322,0.022239304336905477,0.05690510565713048
1761466526769407200,6.3444072265625,0.012201309925317764,0.023612346255779265,0.02608501997962594
1761466526779391200,6.35439111328125,-0.002094341930747032,0.04123334314227104,-0.01949482793435454
1761466526789376300,6.364376220703125,-0.05106704715341329,0.06611468642055988,-0.021479279749840496
1761466526799360300,6.3743603515625,-0.0475397498100996,0.06812076554596423,0.002064677444845438
1761466526809345300,6.38434521484375,-0.0299219677940011,0.05003390471339225,0.04189049187675118
1761466526819329300,6.394329345703125,-0.027777064719796178,0.025036826100945472,0.06928045697510242
1761466526829314300,6.404314208984375,-0.009864683671295641,0.03547287991940975,0.06984773546904326
1761466526839298300,6.41429833984375,0.01511281345784664,0.045785015097260476,0.060646630273014306
1761466526849283300,6.424283447265625,0.004919628484547138,0.05310147559046745,0.008528174370527266
1761466526859267300,6.434267333984375,-0.017741116134822366,0.046393502384424204,-0.03910495281144977
1761466526869252000,6.444252197265625,-0.00502542694658041,0.048829789620637894,-0.06668912530764937
1761466526879236000,6.454236083984375,0.017723872739076614,0.05519464847743511,-0.0648604485757649
1761466526889221000,6.46422119140625,-0.0056105333581566805,0.05699848302900791,-0.043719607000052924
1761466526899205000,6.474205078125,-0.000926174934208393,0.04752046058773994,-0.007629618095606565
1761466526909190100,6.484190185546875,0.011691022315621375,0.011193009665608405,0.006767594438791275
1761466526919174100,6.494174072265625,0.02374970889985561,0.04031739734113216,0.016773440146446227
1761466526929159200,6.5041591796875,-0.008583119428157806,0.036139819395542144,0.02715308760255575
1761466526939143200,6.51414306640625,-0.01717033050954342,0.030876784300804136,0.020698650766164062
1761466526949128200,6.524128173828125,0.0012543839752674102,0.03332359293103218,-0.007214461423456668
1761466526959112200,6.5341123046875,0.016616788280010224,0.040461774247884746,-0.02305807337388396
1761466526969097200,6.54409716796875,0.020469956576824187,0.04127952037155628,-0.0179836927190423
1761466526979081200,6.554081298828125,-0.005879705688357353,0.04998422035276889,-0.0062821490094065666
1761466526989066200,6.564066162109375,-0.0019698387682437896,0.06907879692316055,0.008010434106737374
1761466526999050200,6.57405029296875,0.025280571728944778,0.04788695581257343,0.016913433139026164
1761466527009035300,6.58403515625,0.001720247921347618,0.07470423558950423,0.009703647890686989
1761466527019019300,6.594019287109375,-0.040838790866732595,0.09664134210944175,0.007491817060112952
1761466527029004300,6.60400439453125,-0.05531973616182804,0.10694178684949875,-0.0017778233274817466
1761466527038988300,6.61398828125,-0.035362113021314145,0.10932312902808189,-0.009180208538472652
1761466527048973300,6.623973388671875,-0.027085283063352106,0.0922340470612049,-0.009183423408865929
1761466527058957300,6.633957275390625,-0.033082769912481304,0.06960662018954754,-0.015311112508922814
1761466527068942300,6.6439423828125,-0.03671381989121437,0.031247371178865432,-0.007124445052444935
1761466527078926300,6.65392626953125,-0.039409634846448896,0.010722469544410704,-0.003307517112791538
1761466527088911400,6.663911376953125,-0.021128712746500966,0.017316460981965064,-0.006504705718904733
1761466527098895400,6.673895263671875,0.007874094375967979,0.04476385535597801,-0.0022390110984444617
1761466527108880400,6.68388037109375,0.015318857423961161,0.07729600564837455,0.013133768469840287
1761466527118864400,6.693864501953125,0.01742693561911583,0.06565057604014873,-0.004191460340470075
1761466527128849200,6.70384912109375,-0.005603226834535599,0.09874386734664439,-0.03038783174008131
1761466527138833400,6.71383349609375,-0.031578795090317725,0.11919044304788112,-0.014498919343203305
1761466527148818200,6.723818115234375,-0.03968085300326347,0.0873112037062645,-0.02223784303218126
1761466527158802200,6.73380224609375,0.005292845711112022,0.05624971048831939,-0.03279533127322793
1761466527168787200,6.743787109375,0.042778819018602365,0.03877425955235958,-0.02401946575194597
1761466527178771200,6.753771240234375,0.036085166598856445,0.024668577310442922,-0.01095730121359229
1761466527188756200,6.763756103515625,-0.004998246678709984,0.029678514426946637,-0.010929682554304598
1761466527198740200,6.773740234375,-0.005940495964884758,0.009590250644087792,-0.001729746402055025
1761466527208725200,6.783725341796875,-0.010840542966127395,0.0032838439762592313,0.02077551539465785
1761466527218712300,6.79371240234375,-0.014458148941397667,-0.0054489130556583405,0.01397021929398179
1761466527228697300,6.803697265625,-0.03563011630773544,-0.006162029761075973,0.005658610283583402
1761466527238681300,6.813681396484375,-0.024137831434607505,0.014805354943871498,0.0079451137855649
1761466527248666400,6.823666259765625,-0.03930851255953312,0.03632511283457279,-0.007346417240053415
1761466527258650400,6.833650390625,-0.026238310845196247,0.04596855497062206,0.0020711071856319902
1761466527268635400,6.843635498046875,0.00064005146920681,0.049097500646114345,-0.0038828327827155587
1761466527278619400,6.853619384765625,0.02981967646330595,0.05339607462286949,-0.033331191715598105
1761466527288604200,6.863604248046875,0.048664077664911744,0.04907879594564438,-0.05800722168013453
1761466527298588200,6.873588134765625,0.019642273581027984,0.04790039981603622,-0.05690642083138227
1761466527308573400,6.883573486328125,-0.0006385901644825935,0.05388999561965465,-0.02962123128175735
1761466527318557200,6.89355712890625,-0.01865940002351999,0.05313128620684147,0.0029326924510300156
1761466527328542500,6.90354248046875,-0.02085544876307249,0.05002630592882633,0.03021656682640314
1761466527338526500,6.9135263671875,0.00008534019589424133,0.05938391686081886,0.023133184436708688
1761466527348511500,6.923511474609375,0.0041653029859066,0.04732756836414337,0.0032122400447726247
1761466527358495500,6.93349560546875,-0.018567337825894356,0.05342763880491257,-0.039656449214369054
1761466527368480500,6.94348046875,-0.024925474680960177,0.07577274160385132,-0.06206175776794552
1761466527378464500,6.953464599609375,0.0018903437912464142,0.06810556797683238,-0.06705781248956919
1761466527388449500,6.963449462890625,0.0170142631649971,0.05152385101020336,-0.0533617339618504
1761466527398433500,6.97343359375,0.012276713249087332,0.06505845536589622,-0.03641176820471883
1761466527408418300,6.983418212890625,-0.010154314267635346,0.05424129327535629,0.0052311786517500874
1761466527418402600,6.993402587890625,0.008476736444234847,0.03633914135992527,0.0029283085368573664
1761466527428387300,7.00338720703125,-0.007918225778639315,0.05262509025037288,-0.028552579136937855
1761466527438371300,7.013371337890625,-0.08435819911956786,0.06818857008516788,-0.037529958579689264
1761466527448356400,7.0233564453125,-0.10269815793037414,0.08702537250220775,-0.040199762310832735
1761466527458340400,7.03334033203125,-0.0485395745024085,0.06899228768348693,-0.062139937570691105
1761466527468325400,7.043325439453125,0.004201835604012012,0.10533142904341221,-0.08523001351803541
1761466527478309400,7.053309326171875,-0.059715340772271155,0.13245499829053878,-0.05979731996729969
1761466527488294400,7.06329443359375,-0.12121055069863795,0.10870178225934504,0.0032492110542953014
1761466527498278400,7.0732783203125,-0.08458499361276627,0.09437982691824436,0.0646511897392571
1761466527508263400,7.083263427734375,-0.01986030024588108,0.08633212954103946,0.08480404319092631
1761466527518247400,7.093247314453125,0.012182020702958107,0.07122691486775874,0.07509747269079088
1761466527528232400,7.103232421875,-0.0007023030504584312,0.039375732576847074,0.029121757327020166
1761466527538216400,7.113216552734375,-0.04006342258006334,0.041992052555084224,-0.017056787132471798
1761466527548201200,7.123201171875,-0.08330196806490421,0.07186170563995838,-0.032230244736373426
1761466527558185200,7.133185302734375,-0.0686120561942458,0.06161211430430412,-0.00755991386026144
1761466527568170200,7.143170166015625,-0.01968903533220291,0.005201075774431229,0.02671615749001503
1761466527578154200,7.153154296875,0.03701104927212,-0.011339140138030052,0.025308921040594578
1761466527588139300,7.16313916015625,0.08056465205550194,-0.00897241100668907,0.008141805401444435
1761466527598123300,7.173123291015625,0.07366086401641368,-0.014406711015105246,-0.016023790822923184
1761466527608108300,7.1831083984375,0.015492168164253233,-0.01137538049519062,-0.026734569929540156
1761466527618092300,7.19309228515625,-0.00315057298541069,0.01767477290034294,-0.03096402419283986
1761466527628077300,7.203077392578125,-0.007087327912449836,0.06089665951132774,-0.005956570316851139
1761466527638061300,7.213061279296875,-0.016197101563215254,0.05727145475149154,0.019990064105391503
1761466527648046600,7.223046630859375,-0.016710311782360075,0.06250760183930397,0.02531359721571207
1761466527658030300,7.2330302734375,0.027806875336170194,0.05621697726249694,0.025603812333941458
1761466527668015400,7.243015380859375,0.023969489130377768,0.02471709262728691,0.02514963882565498
1761466527677999400,7.252999267578125,0.010934650990366935,0.012428104418516158,-0.00014160042777657507
1761466527687984400,7.262984375,0.03267944980859756,0.020052607947587966,-0.025593875461816785
1761466527697968400,7.272968505859375,0.04446253432184458,0.02584989604949951,-0.026966625119745728
1761466527707953400,7.282953369140625,0.015712532916665075,0.03032324207127094,-0.0008520867846906184
1761466527717937400,7.2929375,0.003544540739059448,0.023155250138044356,0.026255846501886844
1761466527727922400,7.30292236328125,0.016891513568162916,0.03131926737129688,0.02060001269727945
1761466527737906400,7.312906494140625,0.014560440272092818,0.03083645229041576,0.0223940565072
1761466527747891500,7.322891357421875,-0.03763561091125011,0.035087679994106294,0.015537760871648787
1761466527757875500,7.33287548828125,-0.06149754801392555,0.03901683613657951,0.014227993447333574
1761466527767860500,7.342860595703125,-0.026814357167482376,0.03620996202230453,-0.0011456629037857055
1761466527777844500,7.352844482421875,0.025390461844205854,0.045526656422019,-0.021151509100198744
1761466527787829500,7.36282958984375,0.011009469792246818,0.05229191277325153,-0.028492519512772558
1761466527797813500,7.3728134765625,-0.00654167672842741,0.06118950497806072,-0.015617109718173742
1761466527807798300,7.38279833984375,0.012818272779881953,0.0535918894559145,0.0035381109982728955
1761466527817782500,7.392782470703125,0.03849865748137236,0.03139116356372833,0.02593319041877985
1761466527827767300,7.402767333984375,0.02467354574650526,0.0347778833925724,0.021397592815756795
1761466527837751300,7.412751220703125,-0.006853226895630359,0.054223173096776,0.01021247419565916
1761466527847736300,7.422736328125,-0.02510755324959755,0.05534194799363613,0.006001870763301849
1761466527857720300,7.43272021484375,0.010153145223855973,0.02624327928125858,0.007009586501121521
1761466527867705300,7.442705322265625,0.007947744134068489,0.04077507798075676,0.009561170680075884
1761466527877689300,7.452689453125,-0.03624152620434761,0.043354573079943656,0.0177690270550549
1761466527887674400,7.46267431640625,-0.018337328462302682,0.032628011882305144,0.01914206897392869
1761466527897658400,7.472658447265625,0.04063070107400417,0.03669862232208252,0.008411123862117528
1761466527907643400,7.482643310546875,0.014554595053195953,0.032952421531081195,0.00854717133194208
1761466527917627400,7.49262744140625,-0.009804770177602767,0.056226914134621615,0.021718641463667154
1761466527927612400,7.5026123046875,-0.0005173018723726272,0.04050912052094936,0.018435966531187294
1761466527937596400,7.512596435546875,0.015494506251811981,0.015240823751688002,0.012127514036744832
1761466527947581200,7.522581298828125,0.04298895463794469,0.03068623016476631,-0.01375014680251479
1761466527957565200,7.532565185546875,0.07331979549378156,0.015792027893662453,-0.037717005584388966
1761466527967550200,7.54255029296875,0.06395546256005763,0.00020867431461811065,-0.045441754617542025
1761466527977534200,7.5525341796875,0.020779753178358076,0.012640285864472389,-0.010581307508051394
1761466527987519200,7.562519287109375,0.023863690668344498,0.01644435432255268,0.03042787148952484
1761466527997503200,7.572503173828125,0.04777005143463611,0.006815525233745574,0.02395546060502529
1761466528007488500,7.582488525390625,0.021000702452659607,0.028562077617645263,-0.01610635453984141
1761466528017472300,7.59247216796875,0.009667699794471263,0.052554363101720805,-0.05629851806610822
1761466528027457500,7.60245751953125,0.0635448359325528,0.03768237266242504,-0.07179594692736864
1761466528037441500,7.612441650390625,0.08951368218660354,0.012413491371273993,-0.055545946133136744
1761466528047426600,7.622426513671875,0.0759217946857214,0.0024479776740074155,-0.01863952627927065
1761466528057410600,7.63241064453125,0.06590484306216239,0.017286065843701362,0.008117255482077599
1761466528067395300,7.642395263671875,0.04421791191101074,0.02733691973686218,0.021505729365348815
1761466528077379600,7.652379638671875,-0.02165069079399109,0.04280219989418983,0.02184256010428071
1761466528087364400,7.6623642578125,-0.037140520870685576,0.058926236221194264,-0.006536123770475387
1761466528097348400,7.672348388671875,-0.02631605225652456,0.0504980150938034,-0.059701166116446255
1761466528107333400,7.68233349609375,-0.018313655325770378,0.05397884294688701,-0.07128390575200319
1761466528117317400,7.6923173828125,0.010963877084851264,0.04864917235672474,-0.04389306387081742
1761466528127302400,7.702302490234375,0.035687983974814416,0.03696282621622085,-0.018308248498290776
1761466528137286400,7.712286376953125,0.01814063684642315,0.0394312621563673,0.024646657739579678
1761466528147271400,7.722271484375,0.002388356441259384,0.04612053066194057,0.056465691326558584
1761466528157255400,7.73225537109375,0.04768061958551407,0.04762742809355259,0.055957741804420945
1761466528167240400,7.742240478515625,0.04294949941039085,0.04814472996592521,0.024360972665995358
1761466528177224400,7.752224365234375,0.005480477237701416,0.04073591501414776,-0.009347527929395437
1761466528187209500,7.76220947265625,-0.04627016826570034,0.029136078113317487,-0.01594166549742222
1761466528197193500,7.772193359375,-0.03476853104233742,0.050157238832116126,-0.008906652294099331
1761466528207178200,7.78217822265625,-0.014204466441273688,0.04730068035721779,0.003619213410466909
1761466528217159200,7.7921591796875,0.013561784623563288,0.038920390024781225,0.01347849025428295
1761466528227144200,7.802144287109375,0.0388736282736063,0.029121465066075325,0.011329057135432958
1761466528237128200,7.812128173828125,0.04956307233124971,0.021755904734134673,-0.01300970369875431
1761466528247113200,7.82211328125,0.05266717582643032,0.009371054935455321,-0.0326277196213603
1761466528257097200,7.83209716796875,0.07078267823159694,-0.016397592571377753,-0.04820493572056293
1761466528267082200,7.842082275390625,0.05232113886773586,-0.015370003089308738,-0.05871741577610373
1761466528277066200,7.852066162109375,0.04103928187489509,0.007934884652495384,-0.02282528753131628
1761466528287051300,7.86205126953125,0.15870821444392202,0.022568390160799024,0.012444617161899804
1761466528297035300,7.87203515625,0.1479112183585763,0.05807692591547966,0.016110300062596797
1761466528307020300,7.882020263671875,-0.16148410889804363,-0.03384907810986042,0.0038994916565716266
1761466528317004300,7.89200439453125,0.05309972202479839,0.01572714596390724,-0.058340253026783466
1761466528326989000,7.901989013671875,0.05917816515564918,0.024793664994835853,-0.07972966253608464
1761466528336973300,7.911973388671875,-0.058493105500936504,0.0416010074108839,-0.04675108365043997
1761466528346958300,7.921958251953125,-0.061196519240736956,0.1064297456741333,-0.006601590222120285
1761466528356942000,7.931942138671875,-0.04109422693252563,0.10624269866943359,0.004074555962532759
1761466528366927400,7.94192724609375,-0.025189970836043355,0.10036825367808341,0.011595306856185197
1761466528376911400,7.951911376953125,-0.019326631760597228,0.059987143450975416,0.0035989012748003004
1761466528386896400,7.961896484375,-0.012910627238452434,0.039222003319859505,-0.005897825866937637
1761466528396880400,7.97188037109375,-0.024390929412841794,0.04657821130156517,-0.015058745183050632
1761466528406865400,7.981865478515625,0.009649871876835822,0.03732406074404716,-0.01118643379434943
1761466528416849400,7.991849365234375,0.02364654078632593,0.015976152288913727,-0.022662498185038564
1761466528426834400,8.00183447265625,0.015268880802392958,0.007323474755883216,-0.013505670522153377
1761466528436818400,8.011818359375,0.05435381373912096,0.015231471401453017,0.00646715018749237
