time,seconds_elapsed,z,y,x
1761478012280395800,0.122395751953125,0.29415538028776644,0.12638210811764,-0.027397125491499898
1761478012290380800,0.132380859375,0.22126959229707716,0.13700140954852102,-0.017543255475163458
1761478012300365600,0.142365478515625,0.16081950750946997,0.16898878543972967,0.0279635272026062
1761478012310350600,0.1523505859375,0.20439970603883265,0.1522568463474512,0.017305939587950705
1761478012320335600,0.162335693359375,0.21826748787164688,0.1389028592556715,0.030382863304018973
1761478012330321000,0.17232080078125,0.07747837647795677,0.13680968636870383,0.002570142748951912
1761478012340306700,0.182306640625,-0.02588204475343227,0.03980272581726312,-0.011359013882279395
1761478012350291700,0.192291748046875,-0.12102058108448982,0.013180676351487636,0.02447393152117729
1761478012360276700,0.20227685546875,-0.1403530580639839,0.0014680267259478568,0.035056115812063214
1761478012370261800,0.21226171875,0.01774140839576721,0.024641104781627652,0.040975568988919256
1761478012380246500,0.22224658203125,0.24392332265377042,0.08295008588731288,0.09674246439635753
1761478012390231800,0.232231689453125,0.36965748825669287,0.12515841154158114,0.10775251871049403
1761478012400216800,0.242216796875,0.3962871365070343,0.10541413889080285,0.02994680997431278
1761478012410202600,0.25220263671875,0.4079109388053417,0.09526070140600204,-0.09095920481979847
1761478012420187600,0.262187744140625,0.38922435851395126,0.07493833660632371,-0.20112813702225685
1761478012430172700,0.272172607421875,0.21288754839897153,0.05429828415960073,-0.2603910578519106
1761478012440157700,0.28215771484375,0.08158931892812252,0.06613689825236797,-0.22676351353824137
1761478012450143000,0.29214306640625,0.02314239065647125,0.0747843150883913,-0.09691022217869757
1761478012460127700,0.302127685546875,-0.026493454650044438,0.06496025568842888,0.03583002279400825
1761478012470113800,0.31211376953125,-0.017620412364602087,0.03942103302329778,0.10427227537930012
1761478012480098800,0.322098876953125,0.0693774876087904,-0.03256605256199836,0.11048925019800662
1761478012490083600,0.33208349609375,0.08557575821578502,-0.04165507568567991,0.08344049975275993
1761478012500072200,0.342072265625,0.11241934147775172,-0.06475304267853497,0.079686115655303
1761478012510057200,0.35205712890625,0.23734862043857574,-0.051800037603080266,0.03009586305618286
1761478012520042200,0.362042236328125,0.4655769458323717,0.025763386809825897,-0.0639350042939186
1761478012530027300,0.37202734375,0.5926297928184271,0.17247691981643437,-0.14724223305582998
1761478012540012300,0.38201220703125,0.6578337941348552,0.06827215671539306,-0.10966156720221042
1761478012549998300,0.391998291015625,0.29824060377478595,0.055201370479166505,-0.07496668591797351
1761478012559983400,0.4019833984375,-0.00009469254612922667,0.10772007774561643,-0.047477205967903134
1761478012569968000,0.411968017578125,-0.14123627063930033,0.01970744777172804,0.0329348858743906
1761478012579953200,0.421953125,-0.3229267167419195,-0.033196459420025345,0.10303308897316456
1761478012589938200,0.431938232421875,-0.2981225303530693,-0.04670066863745451,0.1706874060511589
1761478012599923200,0.441923095703125,-0.07711188125312328,-0.0241837164029479,0.0909486834257841
1761478012609908200,0.451908203125,0.2289192302674055,0.048421793341636654,-0.05679799202084541
1761478012619894300,0.461894287109375,0.40848377025723454,-0.03437514781057834,-0.04474105900228023
1761478012629879300,0.47187939453125,0.22377193050682542,-0.0029006898775696755,-0.033330607193708416
1761478012639864300,0.4818642578125,0.30311668537855146,0.04816811084151268,-0.10726444293260573
1761478012649849000,0.49184912109375,0.21564473815262317,0.022096680995821953,-0.14713058937489987
1761478012659834000,0.501834228515625,0.05886018524765968,0.05011281516849994,-0.10529401964247226
1761478012669819400,0.5118193359375,0.11936463057100773,0.06191723473072051,-0.08183306455612183
1761478012679804400,0.521804443359375,0.19434242240488528,0.03463613683432341,-0.07403203541636466
1761478012689790200,0.531790283203125,0.17249708582162857,0.03366349240988493,-0.05213292281925678
1761478012699775200,0.541775146484375,0.1870166095614433,0.05916910506635904,-0.04793137947618961
1761478012709760300,0.55176025390625,0.07581745752841233,0.06591887158751487,0.01248246495425701
1761478012719745300,0.561745361328125,-0.06020341655015945,0.06464081447571515,0.04432897107005119
1761478012729730000,0.57172998046875,0.04935732062608003,0.11164514223486184,0.03151040602922439
1761478012739715300,0.58171533203125,0.17085341026782988,0.14805062682926654,-0.038271570727229115
1761478012749700400,0.591700439453125,0.4224225714996457,0.10740034427195787,-0.09142214615643024
1761478012759686100,0.60168603515625,0.7820458647370337,0.1424780873939395,-0.1581605174332857
1761478012769671200,0.611671142578125,0.4089315140247345,0.06757540662288665,-0.12023439914286135
1761478012779656200,0.62165625,0.04037584953010082,-0.03650017714053392,-0.018029577687382697
1761478012789641200,0.63164111328125,-0.060360068416595455,-0.04282324268221855,0.01729658723771572
1761478012799626200,0.641626220703125,-0.22736615560650825,-0.08442951079010963,0.07738836010694504
1761478012809611300,0.651611328125,-0.4005483010828495,-0.026345278351008892,0.13684826481342316
1761478012819596300,0.66159619140625,-0.25414631824344397,0.018742402131855487,0.16190496465861795
1761478012829581300,0.671581298828125,0.22083500027209518,0.08289894022196531,-0.05452361734807491
1761478012839567000,0.681567138671875,0.3605494681715965,0.1483157075062394,-0.13494798415005207
1761478012849552100,0.69155224609375,0.3619143267840147,0.14237170441001654,-0.0830061999887228
1761478012859537400,0.701537353515625,0.19688041644990442,0.08941168311685323,-0.08383622107207775
1761478012869522400,0.7115224609375,-0.005811901149153709,-0.00480973836928606,-0.04689151503443718
1761478012879507200,0.721507080078125,-0.07967617878317833,-0.0027834932386875152,0.07411153039336205
1761478012889492200,0.7314921875,-0.03576806347370148,0.00822831464111805,0.12388882999718188
1761478012899477200,0.741477294921875,0.0015431377887725828,0.018622282883524893,0.12104045482873915
1761478012909463000,0.751463134765625,0.09772299986630678,-0.004916413614153862,0.11763678386509417
1761478012919448000,0.761447998046875,0.1625330334290862,0.04686696511507034,0.06619476591944694
1761478012929433300,0.771433349609375,0.2178971932545304,0.07685702970921993,0.031090719312429425
1761478012939418400,0.78141845703125,0.21023644936829805,0.03950725000202655,0.0003618190497159958
1761478012949403400,0.7914033203125,0.20620295606851577,-0.00793196204304695,-0.00030278233885765074
1761478012959388200,0.80138818359375,0.17964637305438516,-0.03132598937302827,0.06891571531593799
1761478012969373200,0.811373291015625,0.10941957513988017,-0.055245209620893,0.08532441380321978
1761478012979358200,0.821358154296875,0.13131927225887774,-0.02470832479894161,0.057469023150205606
1761478012989344300,0.83134423828125,0.1368082250639796,0.002276420499384403,0.047936055651307104
1761478012999329300,0.841329345703125,0.12023849079608917,0.04525339243859052,0.034112697482109065
1761478013009314300,0.851314208984375,0.22304069362282752,0.08950316079258919,0.008554477855563163
1761478013019299300,0.86129931640625,0.31989597074389453,0.11057722074240446,-0.04910977560579777
1761478013029284400,0.871284423828125,0.23368249914646147,0.11516571757644414,-0.06865560307502747
1761478013039269000,0.88126904296875,0.17483283529281615,0.0907183818012476,-0.05086509484052658
1761478013049254100,0.891254150390625,0.18962182362377641,0.08550006263107061,-0.04950257431566715
1761478013059239200,0.9012392578125,0.17073562910705803,0.06997720706760883,-0.0729372259169817
1761478013069225200,0.91122509765625,0.151175480851531,0.051338265310227865,-0.04125380140841007
1761478013079210200,0.921210205078125,0.15149112267196177,0.021278642611205576,-0.007142857491970062
1761478013089195300,0.9311953125,0.16701748536676167,0.0003334697380661964,-0.028262217888236043
1761478013099180300,0.94118017578125,0.18577070115357636,0.03159457718133926,-0.04863163670003414
1761478013109165300,0.951165283203125,0.20381255380064248,0.06274900937974452,-0.03911737390160561
1761478013119150000,0.961150146484375,0.19997253724634645,0.06665595369040965,0.015754033970832824
1761478013129135000,0.971135009765625,0.24118659116625785,0.10188216537237167,0.05829144544899463
1761478013139120400,0.981120361328125,0.2524158411890268,0.11478344026058912,0.10311316847205161
1761478013149106200,0.991106201171875,0.27449031035304067,0.11723550958782433,0.08367430850863457
1761478013159091200,1.00109130859375,0.25810908439457414,0.12163169872015714,0.06951718834042549
1761478013169076200,1.011076171875,0.19533815544396638,0.10813713411390781,0.08686579802632331
1761478013179061200,1.021061279296875,0.20720307302176952,0.12297434550076722,0.08350479716062545
1761478013189046300,1.03104638671875,0.2800321623891592,0.11809709485322237,0.038276831424236296
1761478013199031300,1.04103125,0.35434155344218016,0.09349369173347949,0.0607458528637886
1761478013209016300,1.051016357421875,0.2976657264962792,0.09351824165284633,0.07917524352371692
1761478013219001300,1.06100146484375,0.20282588085085151,0.055551791352033614,0.06972060195803642
1761478013228987100,1.070987060546875,0.1414648186981678,0.051394963933527466,0.043561493828892704
1761478013238972200,1.08097216796875,0.1068698906570673,0.04433423176705837,0.06756371618509292
1761478013248957200,1.090957275390625,0.062433659820258613,0.06042407356351614,0.05235796374678611
1761478013258942200,1.100942138671875,0.05885024837553501,0.05923807864934206,0.01797989332675934
1761478013268927200,1.11092724609375,0.07994038267731667,0.04710486552417278,0.052690556702017784
1761478013278912300,1.120912353515625,0.1400216341525316,0.06228665256500244,0.04448679198026657
1761478013288897300,1.130897216796875,0.15160919609367846,0.04991700033545494,-0.029740473747253415
1761478013298882300,1.14088232421875,0.19037030390352008,0.01765957533121109,-0.0846487064987421
1761478013308868000,1.1508681640625,0.2376806288719177,0.0013525836527347563,-0.134916419968009
1761478013318853000,1.16085302734375,0.1769271772235632,0.012291910818219185,-0.17588731278181075
1761478013328838400,1.17083837890625,0.15575754794478416,0.02754004109352827,-0.19311083478331564
1761478013338823400,1.180823486328125,0.1512321794748306,0.03922580271214247,-0.17944295943677424
1761478013348808200,1.19080810546875,0.10445932238399983,0.042186990605294704,-0.16179332097768784
1761478013358793200,1.200793212890625,0.02677051802575588,0.020350714111328123,-0.12215513807237148
1761478013368778200,1.2107783203125,0.004913491004705429,0.01877455083578825,-0.10531623147428035
1761478013378763300,1.22076318359375,0.08021101631224155,0.02309621342718601,-0.07139759525954723
1761478013388748300,1.230748291015625,0.14460019411444663,0.030763971576094624,-0.0375578694999218
1761478013398734300,1.240734375,0.12835282366871834,0.047844870236516,-0.0005570493608713149
1761478013408719400,1.25071923828125,0.09032382952570915,0.0030050270348787305,0.019856208592653274
1761478013418704400,1.260704345703125,0.051288288688659665,-0.05486702395826578,0.00620353081524372
1761478013428689200,1.270689208984375,0.0051049219235777855,-0.06823591635823249,0.013499533042311667
1761478013438674200,1.280674072265625,0.03793605516254902,-0.051369244970381256,0.004606032490730286
1761478013448659200,1.2906591796875,0.1268295596241951,-0.007175298456847667,0.007143442013859748
1761478013458644200,1.300644287109375,0.18928104736208914,0.030537469343841075,0.024734628283977506
1761478013468629200,1.310629150390625,0.1800914864733815,0.037299510824680325,-0.017915011397004126
1761478013478614300,1.3206142578125,0.10853285543322562,0.0035819501399993892,-0.06460135924816131
1761478013488600300,1.330600341796875,-0.009696633628010749,-0.0343769013762474,-0.09551789103746414
1761478013498581500,1.34058154296875,-0.050312721654772755,-0.06265110196322202,-0.08700374519228934
1761478013508566300,1.350566162109375,-0.0190098208963871,-0.06232698457539081,-0.025240239718556403
1761478013518551300,1.36055126953125,0.048671091927587985,-0.03799626091718673,0.011409867286682128
1761478013528536300,1.370536376953125,0.13739771538972853,-0.016789514498412608,0.07749941926598548
1761478013538521300,1.380521240234375,0.1848196840390563,0.030380817477405068,0.04358078305125236
1761478013548506400,1.39050634765625,0.2556026545315981,0.057792556016147134,-0.004780220013856888
1761478013558491400,1.400491455078125,0.22554624670296905,0.09768792855292559,-0.01736322273313999
1761478013568476400,1.410476318359375,-0.04093991315364837,0.01747135928273201,0.011285364124178885
1761478013578462500,1.42046240234375,0.06619418139755726,0.04935907419174909,-0.016366612911224366
1761478013588447200,1.430447265625,0.11975976736843585,0.029620354498922825,-0.014182839131355285
1761478013598432300,1.440432373046875,0.078751757414639,0.03302460998445749,-0.04600654889345169
1761478013608417300,1.450417236328125,0.0896200651705265,0.04004734822809696,-0.034736382338404655
1761478013618402600,1.460402587890625,0.17822919973284004,0.07544920873790979,-0.05877893670499324
1761478013628387300,1.47038720703125,0.22694150045365094,0.08452829498946667,-0.07150456276535988
1761478013638372400,1.480372314453125,0.18566811756193638,0.08851122714579104,-0.06519757157564163
1761478013648357400,1.490357421875,0.15539719019979237,0.12484393876492976,-0.04142389727830886
1761478013658342400,1.50034228515625,0.14020020558983087,0.14849135633409022,-0.03193243083357811
1761478013668328200,1.510328125,0.18425415911078452,0.1791509907528758,0.004345335727930068
1761478013678313200,1.520313232421875,0.14284779748916626,0.17004735458195208,0.007660159364342689
1761478013688298500,1.530298583984375,0.11472352676689625,0.1512096753820777,0.0010334347009658812
1761478013698283500,1.540283447265625,0.13071896827816962,0.13004443001747132,-0.009380407285690307
1761478013708268300,1.550268310546875,0.15267770210802553,0.12173252874612807,-0.002057517051696777
1761478013718253300,1.56025341796875,0.15077216074764727,0.10270780254155397,-0.03798164786994457
1761478013728238300,1.57023828125,0.15666238783001898,0.08091828779876231,-0.04584522085189819
1761478013738223400,1.580223388671875,0.13543401410132647,0.055633039894700045,-0.05105681802034378
1761478013748208400,1.59020849609375,0.09412029919922352,0.025525194139778613,-0.08146890741884708
1761478013758194400,1.6001943359375,0.046558629818260665,0.0407666024133563,-0.06540215423703193
1761478013768179500,1.610179443359375,0.12608663230240344,0.07458762347251176,-0.012442132943868636
1761478013778164500,1.62016455078125,0.13471008374094962,0.08557751178145408,0.012267360898852348
1761478013788149200,1.630149169921875,0.08313830193579197,0.08013970464169978,0.1050350764453411
1761478013798134300,1.64013427734375,0.08930559239387512,0.07458353181928395,0.12902210123240948
1761478013808119300,1.650119384765625,0.13371990365982056,0.07958207075893879,0.044698973426222796
1761478013818104300,1.660104248046875,0.18905425286889074,0.07566606635898351,-0.0620966829508543
1761478013828089600,1.670089599609375,0.2140314577370882,0.06909545579701662,-0.15517711770832537
1761478013838074400,1.680074462890625,0.17920739711523054,0.029928689795732495,-0.18103402802050111
1761478013848059400,1.690059326171875,0.17646715849637984,0.02957037787735462,-0.1752969456732273
1761478013858045400,1.70004541015625,0.16435060424506664,0.019270225398242472,-0.1358785429984331
1761478013868030200,1.7100302734375,0.1072965916365385,0.005396306085586547,-0.059841597500443454
1761478013878015200,1.72001513671875,0.047231414513289924,0.016323942813277245,0.07615326535403728
1761478013888000300,1.730000244140625,0.02766279069036245,0.04181991085857153,0.10564122564494609
1761478013897985500,1.739985595703125,0.03656067515611648,0.03779050921201706,0.11007423965632915
1761478013907970300,1.74997021484375,0.05475567253828048,0.06925532253384589,0.12319500251412391
1761478013917955300,1.759955322265625,0.09773498256504536,0.08255290326327085,0.05608545983731746
1761478013927940400,1.7699404296875,0.14523147775530815,0.07497662279009819,-0.017896891218423843
1761478013937925400,1.77992529296875,0.1656803915441036,0.047342473672330375,-0.10043372012972832
1761478013947910400,1.789910400390625,0.19995821646004913,0.021669980016350746,-0.13296645494401454
1761478013957896400,1.799896484375,0.18387918831855057,-0.00514174680262804,-0.11398586014211178
1761478013967881500,1.809881591796875,0.12662936087697743,0.008615268132090568,-0.053335284346342084
1761478013977866500,1.819866455078125,0.12188245861083269,0.027436580719053742,0.011168459746241569
1761478013987851300,1.829851318359375,0.0783966603666544,0.043352819514274596,0.002299509114027023
1761478013997836300,1.839836181640625,0.05663549493551254,0.045781507965922355,-0.002782324194908142
1761478014007821300,1.8498212890625,0.08319032438397407,0.06903788039088249,0.0014198036700487136
1761478014017806300,1.859806396484375,0.1419683843061328,0.09066022187322377,-0.017352701339125632
1761478014027791400,1.869791259765625,0.1822463264197111,0.09490589661896229,-0.0009252981513738632
1761478014037776400,1.8797763671875,0.13380758194327352,0.07649871779084205,-0.028279753544926643
1761478014047761400,1.889761474609375,0.10015724127590656,0.03631488370150327,-0.06293371829688549
1761478014057747500,1.89974755859375,0.013996961170434951,0.025278525902330873,-0.06335925023257732
1761478014067732200,1.909732177734375,-0.009271101692318916,0.001734276446700096,-0.028718729484081267
1761478014077717200,1.91971728515625,0.166043379637599,0.01922404816895723,-0.052554363101720805
1761478014087702300,1.929702392578125,0.21775632347911594,0.0398579631358385,-0.10925532448887824
1761478014097687600,1.9396875,0.11711334451287984,0.0624625936537981,-0.11623802298307419
1761478014107672600,1.949672607421875,0.11318886454552411,0.07440408359915017,-0.07024725618064404
1761478014117657300,1.9596572265625,0.1125751165613532,0.07138064412474632,-0.06461304968595505
1761478014127642400,1.969642333984375,0.03812953190803527,0.05023498024344444,0.0036409868508577347
1761478014137627400,1.97962744140625,0.05478723672032356,0.03556611116081476,0.06089022977054119
1761478014147612400,1.9896123046875,0.10307342098355293,0.03150309950560331,0.08221475735008717
1761478014157598200,1.99959814453125,0.13456804492175578,0.028612638761103152,0.06018763445913791
1761478014167583500,2.00958349609375,0.16046207237392662,0.043515024338662625,0.047238721036911006
1761478014177568500,2.019568603515625,0.17190584193021058,0.11271598633676767,0.016160276684165
1761478014187553300,2.02955322265625,0.15877718802690505,0.13156331014782188,-0.010417349117994308
1761478014197538300,2.039538330078125,0.13452771291136742,0.1695221616640687,-0.038080432069301604
1761478014207523300,2.0495234375,0.1476297710686922,0.13499854529350996,-0.023302549654245375
1761478014217508400,2.05950830078125,0.12447568997442722,0.09533698151260614,0.00774900669157505
1761478014227493400,2.069493408203125,0.12197744341790676,0.07365121940523385,0.007072130343317985
1761478014237478100,2.07947802734375,0.14838614239394665,0.029342998862266538,-0.012582418197393417
1761478014247463400,2.08946337890625,0.12137363230586051,0.02214285822510719,-0.002543254742026329
1761478014257449500,2.099449462890625,0.13860767570137977,0.06176584356129169,-0.020718962901830673
1761478014267434200,2.109434326171875,0.17163082438111305,0.10414017343223095,-0.027822072905302045
1761478014277419300,2.119419189453125,0.15618775605559349,0.13704203381985425,-0.008592471778392792
1761478014287404300,2.129404296875,0.15851210734993218,0.15981325307637453,-0.008944353955984115
1761478014297389300,2.139389404296875,0.14215367774516344,0.1512131825134158,0.019209142860770224
1761478014307374600,2.14937451171875,0.1290244393199682,0.13677753766477108,0.05739829600155353
1761478014317359400,2.159359375,0.15207973621487617,0.12321078460514545,0.048587213036417956
1761478014327344400,2.169344482421875,0.13103110296726225,0.11265051988512277,0.052453825336694716
1761478014337329400,2.179329345703125,0.1035194111853838,0.10603022496253252,0.055061377486586564
1761478014347314400,2.189314453125,0.13107757245749235,0.1042316511079669,0.09587503391206265
1761478014357299200,2.19929931640625,0.14731003759503364,0.11533844379484653,0.07708323968052863
1761478014367285200,2.20928515625,0.17117548182904718,0.1197951309427619,0.04105155683457851
1761478014377270500,2.2192705078125,0.15517331831604242,0.13198708851784466,0.03475274895131588
1761478014387255600,2.229255615234375,0.1661076770454645,0.1338289169922471,-0.0009849193841218948
1761478014397240300,2.239240234375,0.21205635827183722,0.1250420916855335,-0.01055880341529846
1761478014407225300,2.249225341796875,0.2716577172756195,0.09132277743518352,-0.019919336956739423
1761478014417210400,2.25921044921875,0.2146492973744869,0.06408931807279586,-0.022296002960205077
1761478014427195400,2.2691953125,0.09814122527837753,0.04819295302182436,0.02832768433988094
1761478014437180200,2.27918017578125,0.03326046456694603,0.05688128639012575,0.032892800298333164
1761478014447165200,2.289165283203125,0.15434212818890808,0.08600216693431138,-0.013320669344067573
1761478014457150500,2.299150390625,0.23308804038465022,0.12194587923586368,-0.05753390507996082
1761478014467136300,2.30913623046875,0.2402256371796131,0.13042816863805054,-0.0486333902657032
1761478014477121300,2.319121337890625,0.21003069766312837,0.1376581198915839,-0.03281038271188736
1761478014487106300,2.329106201171875,0.189546128039062,0.12876637290567158,-0.022554946157336234
1761478014497091300,2.33909130859375,0.15493600242882966,0.11154518899172544,-0.034999417188763614
1761478014507080200,2.349080078125,0.0867050545066595,0.09087970984280108,0.0008066402077674866
1761478014517065000,2.35906494140625,0.07045242336392402,0.06718290017396211,0.004027355819940567
1761478014527050000,2.369050048828125,0.10242284812033176,0.0540185904353857,0.00405073669552803
1761478014537035000,2.379034912109375,0.11004998199790715,0.03653028001785278,-0.013413023802638053
1761478014547020000,2.38902001953125,0.10919687229990958,0.030820962460339066,0.012365560576319694
1761478014557005000,2.399005126953125,0.15033201576471328,0.04795885200500488,0.009207973328232765
1761478014566990000,2.408989990234375,0.16887246558368205,0.08665361658036708,-0.01837619916796684
1761478014576976100,2.41897607421875,0.16509528513252733,0.09720891286432742,-0.04366378515958786
1761478014586961200,2.428961181640625,0.17113748790621758,0.09938947177380322,-0.0275496857047081
1761478014596946000,2.43894580078125,0.16488690307885406,0.09100713561475277,-0.02019873842000961
1761478014606931000,2.448930908203125,0.14330167873650787,0.05811462757736444,-0.0028635727375745774
1761478014616916200,2.458916259765625,0.09584814590513706,0.04039543101340532,-0.002911503532528877
1761478014626901200,2.4689013671875,0.14596213011741638,0.029824060377478596,-0.04603460594415664
1761478014636886000,2.478885986328125,0.15046353318989275,0.03975625632703304,-0.021801497441530225
1761478014646871000,2.48887109375,0.1336149819806218,0.042714229349792,0.011235679763555526
1761478014656856000,2.49885595703125,0.15280454335808752,0.06951163538247346,0.007312953361868858
1761478014666841000,2.508841064453125,0.1469762755960226,0.08920096297562122,0.010182955840229987
1761478014676826000,2.518826171875,0.11264087527394294,0.0931622678220272,0.057687049815058705
1761478014686811000,2.528810791015625,0.10057342086136341,0.04034136273860931,0.07600830392539501
1761478014696797200,2.538797119140625,0.1142588318645954,-0.007384557293355465,0.03060556614398956
1761478014706782200,2.5487822265625,0.11316811401844024,-0.0055383449047803875,-0.01937222446799278
1761478014716767000,2.55876708984375,0.16982114461064338,0.0030818916633725164,-0.04537994142770767
1761478014726752000,2.568751953125,0.19173896190822123,0.03182254071831703,-0.08444646192491054
1761478014736737000,2.578737060546875,0.17062486220896242,0.05517886638641357,-0.0900426744967699
1761478014746722000,2.58872216796875,0.16724807925224303,0.04725128825753927,-0.07877309246361255
1761478014756707000,2.59870703125,0.1752633356645703,0.037433658598363395,-0.0731803870230913
1761478014766692000,2.608692138671875,0.09249854321628809,0.010806640696525573,-0.035981998485326766
1761478014776677000,2.618677001953125,-0.01358224288970232,0.0060816580012440676,0.039293314990401264
1761478014786662100,2.628662109375,0.020220950251817704,0.053041562096774575,0.07860007398426533
1761478014796647200,2.638647216796875,0.11525076551139354,0.10292787503302096,0.05197860904037952
1761478014806633000,2.648633056640625,0.201025261169672,0.10307897394150495,0.03595394143462181
1761478014816618000,2.658617919921875,0.22311025172770022,0.09246025703251361,0.03147708828151226
1761478014826603300,2.668603271484375,0.18207038533091544,0.06840396640151739,-0.004025017732381821
1761478014836588000,2.678588134765625,0.1596928415670991,0.03853431331664323,-0.037010757011175156
1761478014846573000,2.688572998046875,0.1860720221877098,0.027681495390832422,-0.035272973433136935
1761478014856558000,2.69855810546875,0.1817027210623026,0.03666910396665334,-0.021733108380436895
1761478014866543000,2.708543212890625,0.11998510055691003,0.03572422433197498,0.009966682741045951
1761478014876528000,2.718528076171875,0.12336422160118818,0.03412906409502029,0.0015238485664129256
1761478014886513000,2.728512939453125,0.15405629698485135,0.03245616244673729,-0.001595160236954689
1761478014896498000,2.738497802734375,0.12273849091827868,0.05471884765923023,0.024476269608736036
1761478014906483200,2.748483154296875,0.16128946310877798,0.10092822564840316,0.03218435976803303
1761478014916468200,2.75846826171875,0.20174188500642776,0.13012772438675163,-0.0006318681627511978
1761478014926454000,2.7684541015625,0.17264146272838116,0.1257914487481117,-0.026654782691597937
1761478014936439000,2.77843896484375,0.149599609836936,0.08430880701988935,-0.03734042735695839
1761478014946424000,2.788424072265625,0.15279986718297003,0.0913347601339221,-0.04835749593377113
1761478014956409000,2.7984091796875,0.14906448004692793,0.08250731055587529,-0.045429041266441345
1761478014966394000,2.80839404296875,0.15843641176521778,0.08432429684996605,-0.02559972068071365
1761478014976379100,2.818379150390625,0.16501725146025417,0.09941577525883913,-0.005679799202084541
1761478014986364200,2.8283642578125,0.16166443390101193,0.10918722768872975,-0.013293196815252303
1761478014996349200,2.83834912109375,0.11488777741789817,0.10959697753340006,0.0034229601860046384
1761478015006334000,2.848333984375,0.10465250686854123,0.10601765774190425,-0.0033493104279041287
1761478015016319000,2.858319091796875,0.14615911399424075,0.12415157258659601,-0.04033493299782276
1761478015026304000,2.868303955078125,0.1712105531424284,0.1159410858631134,-0.03435702763199806
1761478015036290000,2.8782900390625,0.21795301509499548,0.09350684347599744,0.010341945794224738
1761478015046275000,2.888275146484375,0.2061620395362377,0.08215922777056693,0.02311141099631786
1761478015056260000,2.898260009765625,0.1349111592710018,0.05021452197730541,0.016895020699501037
1761478015066245000,2.9082451171875,0.07889175040721892,0.006078735391795635,0.034440614262223244
1761478015076230100,2.918230224609375,0.06861527106463909,0.011174597226083278,0.027543255963921546
1761478015086215000,2.92821484375,0.131928636328876,0.016939152102172374,-0.04241407735943794
1761478015096200000,2.938199951171875,0.17473405109345913,0.0631444384381175,-0.060410921820998185
1761478015106185000,2.94818505859375,0.20350071137249467,0.10159019668847322,-0.022552608069777488
1761478015116170200,2.958170166015625,0.21187983266115187,0.11666326265782118,0.0090104049295187
1761478015126155300,2.9681552734375,0.19817951634973285,0.12264993585199117,0.05648761089742183
1761478015136140000,2.97814013671875,0.1347071611315012,0.09795973123162985,0.13596212962865828
1761478015146126000,2.9881259765625,0.042594694623351095,0.08502747668325901,0.08628887492120266
1761478015156111000,2.998111083984375,0.07153495790362357,0.05515840812027454,0.03977496102750301
1761478015166096000,3.008095947265625,0.14695610959082842,0.05216974769830703,-0.014950900894403457
1761478015176081200,3.0180810546875,0.19345979435145855,0.05756020856499672,-0.06398118152320384
1761478015186066200,3.028066162109375,0.17052461670488117,0.04321925626248121,-0.0696522128969431
1761478015196051200,3.03805126953125,0.10996668762862681,0.043482291112840174,-0.0843085147589445
1761478015206036000,3.048035888671875,0.08000760269463061,0.031220483171939848,-0.10498013138771056
1761478015216021000,3.05802099609375,0.07416822901666165,0.02816168012320995,-0.07454232302606105
1761478015226006000,3.068006103515625,0.1210731880545616,0.035059622943401335,-0.037323476222157474
1761478015235991000,3.077990966796875,0.1574801339536905,0.03436930259168148,0.012447393640875815
1761478015245976000,3.08797607421875,0.16084522647261618,0.04096300176829099,0.038942601856589314
1761478015255961000,3.097961181640625,0.16140929009616373,0.06150456227660179,0.0486637854039669
1761478015265947100,3.107947021484375,0.12160831784456967,0.032900983604788776,0.04595452644526958
1761478015275932200,3.11793212890625,0.06857786166369914,0.030412966181337833,0.0029530045866966244
1761478015285917000,3.1279169921875,0.12965163130760193,0.038381168581545354,-0.04468611394464969
1761478015295902000,3.13790185546875,0.19325404264628887,0.044078503440320486,-0.020037410378456116
1761478015305887000,3.147886962890625,0.1678115583539009,0.03940992710739374,0.017182605469226835
1761478015315872300,3.157872314453125,0.13260463589429855,0.042293665850162504,-0.0016290625065565108
1761478015325857300,3.167857177734375,0.09426029219180344,0.043705286213755606,-0.011243863070011139
1761478015335842000,3.177842041015625,0.09190671480298042,0.0558332386419177,-0.04334288264214992
1761478015345827000,3.1878271484375,0.10741232697069644,0.06894581819325685,-0.04781447509825229
1761478015355812000,3.19781201171875,0.11423545098900795,0.06867664586305618,-0.09048398852348327
1761478015365797000,3.207797119140625,0.13637830921411515,0.04778934065699577,-0.09751637137830257
1761478015375783000,3.217782958984375,0.1700426784068346,0.05137684375494718,-0.030527824732661246
1761478015385768200,3.227768310546875,0.14583938052058218,0.05554506935030221,-0.008421791386604309
1761478015395753200,3.237753173828125,0.1629874991983175,0.0670268328294158,-0.0008908113598823546
1761478015405738200,3.24773828125,0.1614022758334875,0.03668868544995785,-0.004182838642597198
1761478015415723000,3.257722900390625,0.2010784526616335,0.010532499930262566,-0.06324877559542656
1761478015425708000,3.2677080078125,0.15772212601602076,-0.004549333867430686,-0.06578033989965916
1761478015435693000,3.277693115234375,0.12221768191456794,-0.012359423096477985,-0.06434592318236827
1761478015445678000,3.287677978515625,0.14222645072042941,0.003075169661641121,-0.026694530180096626
1761478015455662800,3.297662841796875,0.14369973814338444,0.018865443989634512,-0.0226566529661417
1761478015465648000,3.307648193359375,0.16683891392946243,0.03445493504852056,0.0021679916888475417
1761478015475633200,3.317633056640625,0.16017594890892506,0.0736757693246007,0.002828501424193382
1761478015485619000,3.327618896484375,0.15959727223813533,0.07244856561720371,-0.010958616387844086
1761478015495604000,3.33760400390625,0.1773573853343725,0.09517214633971452,0.003307224851846695
1761478015505589200,3.34758935546875,0.08594049987494945,0.12543839752674102,0.04356090930700302
1761478015515574300,3.35757421875,0.07423895616531372,0.13228490242063998,0.048718145939707753
1761478015525559300,3.367559326171875,0.09991086529940366,0.12211100666970014,0.05140986924171447
1761478015535544000,3.3775439453125,0.08169277930259704,0.0969946855917573,0.028881226569414137
1761478015545529000,3.387529052734375,0.11942834345698355,0.06526391481012106,-0.005605564922094345
1761478015555514000,3.39751416015625,0.15059183574467896,0.0533259319961071,-0.026196517530083653
1761478015565499400,3.40749951171875,0.17494418671280146,0.06961568027883767,-0.05361527033150196
1761478015575484200,3.417484130859375,0.20126374610066414,0.09056348350048064,-0.07946575090289115
1761478015585469200,3.42746923828125,0.1701952386200428,0.08680880714207888,-0.07935469174385071
1761478015595455200,3.437455322265625,0.11540829416066407,0.11156301690936088,-0.05205576592981815
1761478015605440300,3.447440185546875,0.09921966816484927,0.10634119060784578,0.012335749959945679
1761478015615425000,3.457425048828125,0.08457973291575908,0.0994298037841916,0.04155424565970897
1761478015625410300,3.467410400390625,0.0906941241428256,0.08138678209334611,0.03380699253380298
1761478015635395300,3.477395263671875,0.101031101500988,0.08172025183141231,0.017037644040584565
1761478015645380400,3.48738037109375,0.11344605417698621,0.09146335494965314,-0.015761048233509063
1761478015655365000,3.497365234375,0.13672785330414772,0.09899988793432712,-0.0491734884917736
1761478015665350100,3.50735009765625,0.17081541634500025,0.10996785667240619,-0.06910042423307895
1761478015675335200,3.517335205078125,0.1497609378784895,0.09453998591601848,-0.051606268596649164
1761478015685320200,3.5273203125,0.10577449663579463,0.08460925127118825,-0.019927520263195036
1761478015695305200,3.53730517578125,0.0851975725531578,0.0857464386075735,0.02074000568985939
1761478015705290200,3.547290283203125,0.0855810189127922,0.06696516577005386,0.02585340318083763
1761478015715276300,3.5572763671875,0.028118425503373144,0.07081570371836424,0.04647358188331127
1761478015725261300,3.56726123046875,0.08689736220836639,0.052939270766079426,0.020172434934973716
1761478015735246000,3.57724609375,0.1585331501379609,0.05707973157167434,-0.02797171050906181
1761478015745231000,3.587231201171875,0.1484033857896924,0.06046089844256639,-0.022847207102179527
1761478015755216100,3.597216064453125,0.11985679800212383,0.07029401793181896,0.00001695113480091095
1761478015765201200,3.607201171875,0.1769265927016735,0.06849544407725333,-0.0014326631516218184
1761478015775186200,3.617186279296875,0.1690747101575136,0.042616321933269495,-0.0016565350353717804
1761478015785171200,3.627171142578125,0.11101005920171737,0.04279313980489969,-0.0385901351571083
1761478015795156200,3.63715625,0.16057108570635317,0.010750526595115661,-0.0909399155974388
1761478015805141200,3.647141357421875,0.1459562848985195,0.019937164874374864,-0.08220949665307999
1761478015815126300,3.657126220703125,0.20201018055379388,0.02992985883951187,-0.0394528894662857
1761478015825111000,3.667111083984375,0.19101883094012737,0.03677110303640366,-0.04190437427163124
1761478015835097300,3.677097412109375,0.0658826312303543,0.03558335455656052,-0.07782265987098216
1761478015845082400,3.687082275390625,0.057658992764353746,0.06199380709826946,-0.07974456784427165
1761478015855067100,3.697067138671875,0.07546119143664837,0.07900427087098359,-0.021945289826393127
1761478015865052200,3.70705224609375,0.06717150199711322,0.07701017444431782,-0.05095160408020019
1761478015875037200,3.717037109375,0.06364303561002016,0.07195581366419791,-0.08897709109187125
1761478015885022200,3.727022216796875,0.0651858811378479,0.07739069819450378,-0.10390344206690788
1761478015895007200,3.73700732421875,0.08087620222270488,0.05490618692487478,-0.05616612385809421
1761478015904992000,3.746991943359375,0.14059972630143164,0.027196049961447713,-0.03726268594563007
1761478015914977300,3.756977294921875,0.14757657957673073,0.02552314831316471,-0.016505729120969773
1761478015924962300,3.76696240234375,0.09802724350988865,0.04207067074924707,-0.0239811795681715
1761478015934947300,3.776947265625,0.17532967889904974,0.024231062676012514,-0.09828560218513012
1761478015944933000,3.78693310546875,0.15784779822230338,0.016731646831333637,-0.11528934395611286
1761478015954918100,3.796918212890625,-0.015386954224109649,0.03772299693375826,-0.06707797849476337
1761478015964903200,3.806903076171875,-0.09966975001990795,0.047432782304286956,-0.04503741160035133
1761478015974888200,3.81688818359375,0.039831367389857764,0.06210661982297897,-0.009106851041316985
1761478015984873200,3.826873291015625,0.07917085960954427,0.08249883498847484,0.015393383964896201
1761478015994858200,3.836858154296875,0.06327624812424182,0.05809884548634291,0.014997662645578384
1761478016004843300,3.84684326171875,0.08953121784329414,0.04767711245417595,-0.03159749979078769
1761478016014828300,3.856828369140625,0.09912965179383754,0.03267068198025226,-0.0352834948271513
1761478016024813000,3.86681298828125,0.05486790074110031,0.06650514704287051,-0.013373276314139365
1761478016034798000,3.876798095703125,0.0982692355722189,0.10098872366398573,-0.022665420794487
1761478016044783000,3.886783203125,0.11049743350446224,0.1415162566244602,-0.004756254616379738
1761478016054768000,3.89676806640625,0.07236848611831664,0.1277943130031228,-0.024001053312420844
1761478016064754200,3.906754150390625,0.13096534425467252,0.10754472117871046,-0.05758534300625324
1761478016074739200,3.9167392578125,0.13245324472486972,0.07402648245841265,-0.08883388322889804
1761478016084724200,3.92672412109375,0.03649696227014065,0.07379822666049003,-0.0987695863097906
1761478016094709200,3.936709228515625,-0.010648527525365352,0.0875002965375781,-0.08163198902606963
1761478016104694000,3.946694091796875,0.038972120212018485,0.10725567510426044,-0.04342880735993385
1761478016114679000,3.956678955078125,0.11852408809363842,0.09099749100357293,-0.062408817639946934
1761478016124664300,3.966664306640625,0.20054361513257027,0.10737608661353587,-0.028211949005723
1761478016134649300,3.9766494140625,0.14652619374096393,0.13149609013050795,0.02920212908685207
1761478016144634400,3.98663427734375,0.031789222970604894,0.08413403497487307,0.04956453363597393
1761478016154619100,3.996619140625,0.03798573952317238,0.0348041868776083,0.04731529340445995
1761478016164603100,4.00660302734375,0.08890957881361246,0.06379179643094539,-0.015989596292376517
1761478016174588200,4.016588134765625,0.20804361549913883,0.020689444546401498,-0.053476738643646236
1761478016184573200,4.0265732421875,0.1887818656682968,0.03274637756496668,-0.06758885062634945
1761478016194559000,4.03655908203125,0.1425222187966108,0.027545594051480292,-0.049590837121009826
1761478016204544300,4.046544189453125,0.11275018086731434,0.02678659237772226,-0.04028174150586128
1761478016214529300,4.056529296875,0.04180325198471546,0.007338672325015068,-0.02220481754541397
1761478016224514300,4.066514404296875,-0.022783786477148533,0.00452478394806385,-0.03183890733122825
1761478016234499300,4.076499267578125,0.04063946890234947,0.033142391145229336,-0.05762976666986942
1761478016244484000,4.086484130859375,0.1444493874669075,0.035082711558043954,-0.08614215992689132
1761478016254469000,4.09646923828125,0.20604338159263133,0.0679389792382717,-0.10867664781808853
1761478016264454100,4.1064541015625,0.1771703383296728,0.07610328873246908,-0.09925707756578922
1761478016274439200,4.116439208984375,0.06340571972280741,0.08458148648142814,-0.022739655074477193
1761478016284424200,4.126424072265625,0.03165653650164604,0.08962649491131305,0.04952127901613712
1761478016294409200,4.1364091796875,0.06778875711262226,0.058796180100739,0.03909633111357689
1761478016304395300,4.146395263671875,0.1415416833266616,0.03283288680464029,-0.0036760581642389296
1761478016314380300,4.15638037109375,0.15093874948620795,0.03167290311455726,-0.05553308665156364
1761478016324365000,4.166364990234375,0.11425766282081604,0.03164133893251419,-0.0812327605754137
1761478016334350000,4.17635009765625,0.09536679212898015,0.049022097322344776,-0.12545944031476974
1761478016344335400,4.18633544921875,0.08550444654524327,0.055149348030984396,-0.13583704194426535
1761478016354320400,4.1963203125,0.11959434767365455,0.0534913516908884,-0.08733400005996227
1761478016364305200,4.20630517578125,0.06001344693601131,0.06860621097534894,-0.04971300219595432
1761478016374290200,4.216290283203125,0.045370004555582995,0.07304127081334591,-0.007584756040573119
1761478016384275200,4.226275146484375,0.1215653554856777,0.08204933765530585,0.026481179690361022
1761478016394260200,4.23626025390625,0.16732055996656417,0.08027092980593442,0.0686801529943943
1761478016404245200,4.246245361328125,0.13133096269667147,0.07370119602680206,0.09089432289004325
1761478016414230000,4.25622998046875,0.1246376025378704,0.06967208664119243,0.03356616951525211
1761478016424216300,4.26621630859375,0.11526830116808413,0.03298603153973818,-0.05166764339506626
1761478016434201300,4.276201416015625,0.05065232887268066,0.02482552143782377,-0.09972937125265598
1761478016444186000,4.28618603515625,0.043609424623847,0.035929391515254976,-0.08489128308296204
1761478016454171100,4.296171142578125,0.11135960329174995,0.06728577602654695,-0.09296469942331313
1761478016464156200,4.30615625,0.14024872090667487,0.08313567158728838,-0.09640753335356712
1761478016474141200,4.31614111328125,0.11022300047725439,0.09141600867658853,-0.07134031211435794
1761478016484126200,4.326126220703125,0.12556640782058237,0.07313362527191639,-0.030410335832834243
1761478016494111200,4.336111328125,0.12756108876913785,0.08159282605946064,-0.004007482075691223
1761478016504091600,4.346091552734375,0.09447627303004265,0.07571341263204813,0.01719897208213806
1761478016514076700,4.35607666015625,0.07995499572455883,0.059872284899652004,-0.0009802432090044021
1761478016524061700,4.366061767578125,0.0992535704344511,0.07689268554449082,-0.022558453288674354
1761478016534046700,4.376046630859375,0.14459551793932915,0.07204261516481637,-0.026893267622590065
1761478016544032800,4.38603271484375,0.16485212402641772,0.06156622933596372,-0.007469605228304863
1761478016554017800,4.396017822265625,0.17289280714094638,0.050097325338423246,0.01571487100422382
1761478016564002800,4.4060029296875,0.1697363889366388,0.0047118309527635575,0.013611761245131491
1761478016573987800,4.41598779296875,0.16844401103854179,-0.026505729609727857,-0.005167758026719093
1761478016583972600,4.42597265625,0.14875819057673215,-0.023346096535027026,0.0018313070803880691
1761478016593957600,4.43595751953125,0.10248363839685916,-0.004934533792734146,0.022536241456866262
1761478016603942700,4.445942626953125,0.13136866435855626,0.011614449948072432,0.03782674956917763
1761478016613927700,4.455927734375,0.11314707123041153,0.02354337267279625,0.048533437022566794
1761478016623912700,4.46591259765625,0.11423252837955951,0.035783261042833324,0.06002864450514316
1761478016633897700,4.475897705078125,0.13466361425071954,0.023525252494215963,0.049426001948118206
1761478016643882800,4.4858828125,0.112525139939785,0.028735388357937333,-0.011638415345549583
1761478016653868800,4.495868896484375,0.11376491086781024,0.06242606103569269,-0.06339198345839978
1761478016663853600,4.505853515625,0.08276070079505443,0.08812690400332211,-0.06888473565578461
1761478016673838600,4.515838623046875,0.10303834967017172,0.10153583615273237,-0.068593059232831
1761478016683823600,4.52582373046875,0.1685799123778939,0.06760258689075709,-0.08225450483858585
1761478016693809000,4.535808837890625,0.18646920481175183,0.0482411760777235,-0.13825637804567814
1761478016703793700,4.545793701171875,0.17912702535539865,0.03383943349868059,-0.1610106461673975
1761478016713778700,4.55577880859375,0.12775836490690706,0.05375906271636486,-0.11112404097020626
1761478016723763700,4.565763671875,0.07785247048735618,0.07251257076412439,-0.03530862926840782
1761478016733748700,4.575748779296875,0.09261983150839805,0.08345569732189179,-0.021783377262949943
1761478016743733800,4.585733642578125,0.1461181974619627,0.07499854236096143,-0.0024736966371536255
1761478016753718500,4.595718505859375,0.14034312119185924,0.07633008322566748,0.015852818170189856
1761478016763704800,4.605704833984375,0.10748889933824539,0.07020896999686956,0.03083352968096733
1761478016773689900,4.61568994140625,0.1089694932848215,0.04220481852293014,-0.007465513575077056
1761478016783674600,4.625674560546875,0.11571136876046657,0.04354132782369852,-0.019824644410610198
1761478016793659600,4.63565966796875,0.09517126955687999,0.058624622926115984,-0.015863339564204215
1761478016803644700,4.645644775390625,0.07805763767063617,0.07649988683462143,-0.05283668717443943
1761478016813629700,4.655629638671875,0.07985913413465022,0.12358341730982064,-0.04338438369631767
1761478016823614700,4.66561474609375,0.13829904814362526,0.13348843299150467,-0.006180734461545944
1761478016833599700,4.675599853515625,0.17667524828910827,0.10485650500804185,-0.0014934534281492232
1761478016843584800,4.685584716796875,0.13644786731898784,0.06183394036144018,-0.0029699557214975356
1761478016853569800,4.69556982421875,0.11877250989675521,0.026819617864489553,-0.0190969146579504
1761478016863554800,4.705554931640625,0.11075754574537276,0.03671528119593859,-0.006449030008912086
1761478016873539600,4.71553955078125,0.0907704042494297,0.046991760538518425,0.011768179205060004
1761478016883525600,4.725525634765625,0.12422405330091714,0.046314591929316515,-0.011470073041319846
1761478016893511000,4.735510986328125,0.1558592547535896,0.0682096128731966,0.013139467558264731
1761478016903495700,4.74549560546875,0.12257833192050456,0.06295008490979671,0.05794950014352798
1761478016913480700,4.755480712890625,0.09565934533476829,0.044915831047296524,0.05679623845517635
1761478016923465700,4.7654658203125,0.12951894483864307,0.019978958189487455,0.0447206007361412
1761478016933450800,4.77545068359375,0.13787351620793342,0.0031789222970604893,-0.0018780688315629959
1761478016943435800,4.785435791015625,0.10034195019304752,-0.013241758888959884,-0.01758241844177246
1761478016953420500,4.795420654296875,0.09495090480446815,0.027753683844208715,-0.06459843663871288
1761478016963405600,4.805405517578125,0.13383856160342691,0.07176555178910493,-0.1104898347198963
1761478016973390800,4.815390869140625,0.14327449846863746,0.10810703123658895,-0.10805705461502074
1761478016983376000,4.8253759765625,0.1265522039875388,0.13273235392719507,-0.0800040955632925
1761478016993361700,4.835361572265625,0.1205289981752634,0.13271218792200087,-0.035950434303283686
1761478017003346700,4.8453466796875,0.10834756199419497,0.08815613009780644,0.0014560440272092818
1761478017013331700,4.855331787109375,0.12438479682058096,0.06069558398127556,0.02997428250312805
1761478017023316700,4.865316650390625,0.1310354868814349,0.032522213420271874,0.010904255852103233
1761478017033301500,4.875301513671875,0.1163482053592801,0.03872136032134294,-0.01287292557656765
1761478017043286800,4.885286865234375,0.16878829443156718,0.04835194297581911,-0.015580430969595908
1761478017053271800,4.895271728515625,0.1622773051023483,0.05652794290781021,-0.02625847685039043
1761478017063256800,4.9052568359375,0.11907236962616442,0.05143441916108131,-0.053363925918936725
1761478017073241600,4.91524169921875,0.08251520160138606,0.0436316364556551,-0.06689268505573272
1761478017083226600,4.9252265625,0.10097381835579872,0.06929185515195131,-0.06131868431568145
1761478017093211600,4.935211669921875,0.11618979992717504,0.0960293476909399,-0.021664719319343564
1761478017103197700,4.94519775390625,0.06708616180121899,0.11439502546489239,0.02338029106557369
1761478017113182700,4.9551826171875,0.11150339567661285,0.10676847610920667,0.007833762365579604
1761478017123167700,4.965167724609375,0.17916063536405563,0.10325257694274187,0.014316694644093513
1761478017133152800,4.97515283203125,0.16702216154187915,0.07555354589521884,-0.011151508611440658
1761478017143137800,4.9851376953125,0.17473405109345913,0.07048895598202944,-0.04481178615093231
1761478017153122600,4.99512255859375,0.15599311026632784,0.06397445952147245,-0.04210778788924217
1761478017163107600,5.005107666015625,0.0932668972402811,0.08673077346980572,-0.02070551889836788
1761478017173092600,5.015092529296875,0.07503682854473591,0.07921586779505015,-0.0015688567519187926
1761478017183078000,5.025077880859375,0.09784779528975486,0.06314180808961391,-0.011112345644831656
1761478017193062700,5.035062744140625,0.133948451718688,0.04998363583087921,-0.014303835162520408
1761478017203047700,5.045047607421875,0.15127747992128132,0.045235564520955084,-0.013617021942138671
1761478017213033700,5.05503369140625,0.14700783977806567,0.027060440883040427,-0.01483224295079708
1761478017223018800,5.065018798828125,0.1171867020100355,0.027212124313414094,-0.03594342004060745
1761478017233003500,5.07500341796875,0.10387012431919575,0.03548369357436895,-0.03723462889492511
1761478017242988500,5.084988525390625,0.10430267051756381,0.0653951399743557,-0.04014613242745399
1761478017252973800,5.094973876953125,0.1263549278497696,0.07573708576858043,-0.043567339047789574
1761478017262958800,5.104958740234375,0.15205693986117838,0.08355243569463491,-0.027454408636689184
1761478017272943600,5.114943603515625,0.10597644894868134,0.06543605650663376,0.00789630620777607
1761478017282928600,5.1249287109375,0.07752367692440748,0.055767772190272805,0.0076876318931579585
1761478017292913700,5.13491357421875,0.09134674283266067,0.0745054981470108,0.01599953316450119
1761478017302898700,5.144898681640625,0.12748948483765124,0.038246728546917436,0.06689034696817397
1761478017312883700,5.1548837890625,0.11148410645425319,0.12980302247703074,-0.04098550586104393
1761478017322869800,5.164869873046875,0.13026830190122127,0.1040899045497179,-0.11138123060166835
1761478017332854800,5.174854736328125,0.10612199489921331,0.09813654910326003,-0.09122165514826774
1761478017342839800,5.18483984375,0.07276654552519321,0.07554127093553542,-0.0939507878512144
1761478017352824600,5.194824462890625,0.0728217828437686,0.08180150037407874,-0.0590291120737791
1761478017362809600,5.2048095703125,0.09743804544508457,0.10562222868353127,-0.009600187516212463
1761478017372794600,5.214794677734375,0.08367956920564174,0.10181143822371959,0.016007131949067114
1761478017382779600,5.224779541015625,0.08093056275844573,0.07101648698747158,0.014226678273081779
1761478017392765000,5.234764892578125,0.11196370666474104,0.06520809296965599,0.002647299638390541
1761478017402749700,5.244749755859375,0.14821955365538597,0.05434416912794113,0.0346469504892826
1761478017412734700,5.254734619140625,0.14453005148768425,0.05483575203716755,-0.009344166928529738
1761478017422720800,5.264720703125,0.10415595552325248,0.06389262645691633,-0.05538929426670074
1761478017432705500,5.27470556640625,0.10472264949530362,0.06111673200279474,-0.0753507167994976
1761478017442690600,5.284690673828125,0.1052072181418538,0.06957359470278024,-0.07957505649626255
1761478017452675800,5.29467578125,0.1044908865660429,0.06780892311781644,-0.04558160147964954
1761478017462660900,5.304660888671875,0.12547054623067377,0.07350216632336377,-0.03362053005099296
1761478017472645600,5.314645751953125,0.12225070740133523,0.0693903470903635,-0.03482756775319576
1761478017482630700,5.324630615234375,0.11780074225515126,0.06280453895926476,-0.004250643181800842
1761478017492615700,5.33461572265625,0.10776420914828777,0.09693184948861598,0.020194646766781805
1761478017502605300,5.344605224609375,0.0924149565860629,0.08393442074954509,0.019472762233018873
1761478017512590000,5.354590087890625,0.06088789168298244,0.05286065257191658,0.021271336087584494
1761478017522576100,5.364576171875,0.06533902587294578,0.051018531836569306,0.021972762355208397
1761478017532561200,5.37456103515625,0.09196341342628002,0.026367782443761825,-0.03200549606978893
1761478017542546000,5.3845458984375,0.11842121224105358,0.02901654338687658,-0.09921148485839366
1761478017552531000,5.394531005859375,0.17323182983696458,0.04941781864166259,-0.11254326011836528
1761478017562516200,5.40451611328125,0.1771539717167616,0.0413856110945344,-0.12669921124279498
1761478017572501200,5.414501220703125,0.1115706156939268,0.08478869949132203,-0.07853869918584823
1761478017582486300,5.424486328125,0.05090133519768714,0.1177820375546813,-0.023821020570397377
1761478017592471000,5.434470947265625,0.026259645894169806,0.0707236415207386,0.013294950380921364
1761478017602456000,5.4444560546875,0.032766543570160865,0.029542613087594507,0.024433599510788915
1761478017612441000,5.454441162109375,0.10991524970233439,0.011921616201102733,-0.0023860183537006375
1761478017622426000,5.464426025390625,0.15066168611049652,0.014199498005211352,-0.024306173738837242
1761478017632412200,5.474412109375,0.16251637455523013,0.05076514159739017,-0.03721300158500671
1761478017642397200,5.484397216796875,0.15052373894453047,0.07102700838148593,-0.01514028598666191
1761478017652382200,5.49438232421875,0.10543255133032799,0.06351034914106131,-0.0051852936834096905
1761478017662367200,5.5043671875,0.07760171059668064,0.06376695425063371,-0.019178747722506523
1761478017672352000,5.51435205078125,0.09835340672433376,0.06099105979651212,-0.032656068933010096
1761478017682337000,5.5243369140625,0.1624047308743,0.09886223302930593,-0.0586456657141447
1761478017692322000,5.534322021484375,0.19057050265073774,-0.05935059911310672,-0.13059914129078387
1761478017702307300,5.544307373046875,0.006123159055411815,0.02666121243238449,-0.09218494722247123
1761478017712292000,5.5542919921875,0.10446925925612449,0.048366848284006114,-0.0472346293836832
1761478017722277000,5.564277099609375,0.09219254600703716,0.06451748035699129,-0.0699479809731245
1761478017732263200,5.57426318359375,0.06315174496173859,0.04800561375617981,-0.04865560209751129
1761478017742248000,5.584248046875,0.06291676716208458,0.05286942040026187,-0.029410803401470183
1761478017752233000,5.59423291015625,0.08384645020514726,0.05961947918236255,-0.011244447591900825
1761478017762218200,5.60421826171875,0.0901250920832157,0.04959960494935512,-0.03737725223600864
1761478017772203300,5.614203369140625,0.09862491714209318,0.03445756539702415,-0.08381108663082122
1761478017782188300,5.624188232421875,0.1338128426402807,0.025533961968123912,-0.11303250494003295
1761478017792173000,5.634173095703125,0.12175941675305366,0.04800473697334528,-0.08743921400010585
1761478017802158000,5.644157958984375,0.07793547259569168,0.06798194159716367,-0.048719899505376814
1761478017812143000,5.65414306640625,0.02845627915561199,0.062407064074277874,-0.02772562679350376
1761478017822128000,5.664128173828125,0.06850012025237083,0.05396422989964485,-0.041457215026021
1761478017832114200,5.6741142578125,0.06508885050415993,0.045696752291917796,-0.01967909846007824
1761478017842099200,5.68409912109375,0.059841597500443454,0.0487839046522975,0.03542611816823482
1761478017852084200,5.694084228515625,0.0912672478556633,0.0532233484044671,0.0332920287489891
1761478017862069200,5.7040693359375,0.1050181253105402,0.04717033197581768,0.014658055427670479
1761478017872054000,5.714053955078125,0.089585578379035,0.04517185163497925,-0.03356149334013462
1761478017882039000,5.7240390625,0.12123626966178416,0.05689502265453338,-0.06457330219745636
1761478017892024000,5.734024169921875,0.08770429467707871,0.04979541978240013,-0.07562544208765029
1761478017902009000,5.744009033203125,0.10346066673547029,0.052818859256803984,-0.0558095655053854
1761478017911994000,5.753994140625,0.1290723701149225,0.05780132384449243,-0.04295885176062584
1761478017921979100,5.763979248046875,0.09200696030706167,0.044291853930056094,-0.06529577125310898
1761478017931964200,5.773964111328125,0.0702004944294691,0.03830985691100359,-0.06468962205350398
1761478017941950200,5.7839501953125,0.08399784137457608,0.03785889827311039,-0.06811959650218487
1761478017951935000,5.79393505859375,0.11334171701967716,0.04776216038912534,-0.037678865531086916
1761478017961920000,5.803919921875,0.10519611222594975,0.06085194358676672,-0.0154500825881958
1761478017971905300,5.8139052734375,0.13605652991384268,0.08049509395062923,-0.046692777591943735
1761478017981890300,5.823890380859375,0.10483984613418579,0.07707242602556943,-0.038602410116791726
1761478017991875000,5.833875,0.10649404308199882,0.06579086129367351,-0.05057809459269046
1761478018001860000,5.843860107421875,0.11005553495585918,0.07288987964391708,-0.06311082842946052
1761478018011845000,5.85384521484375,0.13064298043251038,0.08211977254301309,-0.054125557941198346
1761478018021830100,5.863830078125,0.12208207283616065,0.10327917268872261,0.0145873282790184
1761478018031815200,5.873815185546875,0.0519838697373867,0.09891951617449521,0.04236848465204238
1761478018041801200,5.88380126953125,0.08558043439090252,0.04775368482172489,0.006257306829094886
1761478018051786200,5.8937861328125,0.08124795814454555,0.021374211940169332,-0.02324702007472515
1761478018061771300,5.903771240234375,0.09869009133279323,0.012863573226332664,-0.03733165952861309
1761478018071756000,5.913756103515625,0.13616291289776564,0.013029577443003653,-0.07683832500874996
1761478018081741000,5.923740966796875,0.13167583061158655,0.03179769853800535,-0.052610477203130716
1761478018091726000,5.93372607421875,0.1182999239489436,0.04014204077422619,-0.012404723542928695
1761478018101711000,5.943711181640625,0.1164940435707569,0.048829205098748205,-0.04334463620781898
1761478018111696100,5.953696044921875,0.10704583174586295,0.044511341899633405,-0.046399932125210756
1761478018121681200,5.96368115234375,0.0814852740317583,0.06704816787838935,-0.0158247611194849
1761478018131666200,5.973666259765625,0.08666881414949894,0.06557371141165494,-0.007225859600305556
1761478018141652200,5.98365234375,0.09686112233996391,0.05576134244948625,-0.062035308152437206
1761478018151637000,5.993636962890625,0.12179214997887611,0.043215164609253405,-0.11644611277580261
1761478018161622000,6.0036220703125,0.08520107968449592,0.029504034642875192,-0.11041443139612674
1761478018171607000,6.01360693359375,0.06957973218262195,0.02770341496169567,-0.09325988297760486
1761478018181592300,6.02359228515625,0.10193535686433315,0.023349603666365144,-0.09031330813169479
1761478018191577000,6.0335771484375,0.10641367132216692,0.0423874816134572,-0.08866846353411674
1761478018201562000,6.04356201171875,0.06069236911088228,0.030074820268154143,-0.03293605491816997
1761478018211547100,6.053547119140625,0.05850128880739212,0.028168986646831033,-0.024722353324294087
1761478018221532200,6.0635322265625,0.1495867503553629,-0.002808335418999195,-0.015094693279266356
1761478018231517200,6.07351708984375,0.06956745722293853,0.012257424026727675,-0.006524433332681655
1761478018241503000,6.0835029296875,0.00457359152585268,0.03039864539504051,0.020740590211749076
1761478018251488300,6.09348828125,0.06644406450539828,0.04160217645466328,-0.003551555001735687
1761478018261473300,6.103473388671875,0.15552870762497187,0.05030658417493104,-0.04789221650958061
1761478018271458000,6.1134580078125,0.14443360537588595,0.06206950268298387,-0.0766056852966547
1761478018281443000,6.123443115234375,0.09951368267536163,0.09038520432412624,-0.0999900680154562
1761478018291428000,6.133427978515625,0.0908709420144558,0.1089823527663946,-0.12105272978842258
1761478018301413000,6.1434130859375,0.10396832399666309,0.14520517427027224,-0.1042810432076454
1761478018311398100,6.153398193359375,0.22894845636188982,0.06090542733967304,-0.053474985077977176
1761478018321383200,6.163383056640625,0.04983633631467819,-0.017683832989633084,0.024418401941657064
1761478018331368200,6.1733681640625,-0.0009644611179828644,0.0314078224375844,0.08762567648291587
1761478018341354200,6.183354248046875,-0.014183131392300128,-0.019689327593147753,0.04219195904135704
1761478018351339000,6.193339111328125,0.00030804303586483,-0.009290683175623416,-0.017124153280258177
1761478018361324000,6.203323974609375,0.049439445951581,0.037766251553595066,-0.07254559625089169
1761478018371309000,6.21330908203125,0.11061024622917175,0.06664777038395404,-0.054984220597147936
1761478018381294000,6.223294189453125,0.13882277975678442,0.07831804217249154,-0.08159925580024718
1761478018391279000,6.233279052734375,0.16051497160494327,0.07841624184995889,-0.09684767833650111
1761478018401264000,6.24326416015625,0.13559008144587278,0.09516630112081766,-0.08661854526698588
1761478018411249200,6.253249267578125,0.10129150600284337,0.08909721034020185,-0.049665655922889705
1761478018421234200,6.263234130859375,0.07807984950244426,0.07820289136022329,-0.06838146230876445
1761478018431219200,6.27321923828125,0.07430383809506892,0.07807897271960973,-0.05556757344305515
1761478018441205000,6.283205078125,0.08090835092663765,0.07895137163996696,-0.009728782331943511
1761478018451190300,6.293190185546875,0.10250292761921882,0.044514849030971526,-0.002592354580760002
1761478018461175300,6.30317529296875,0.10406184749901294,0.012148702955245972,-0.0583931522578001
1761478018471160000,6.31316015625,0.08830079926550388,0.008643617443740367,-0.07997954564392566
1761478018481145000,6.32314501953125,0.09413198963701724,0.03925999724268913,-0.08725684317052364
1761478018491130000,6.333130126953125,0.12742343386411667,0.04595014253109693,-0.03240297095477581
1761478018501115100,6.343115234375,0.12339490900039672,0.028253157798945903,-0.018276830446720124
1761478018511095800,6.353095703125,0.14836451508402823,0.014209727138280868,-0.051906128326058384
1761478018521081000,6.3630810546875,0.14197569082975386,0.017444471275806426,-0.07193827800750732
1761478018531065900,6.37306591796875,0.1143444643214345,0.039672377435863014,-0.05459902067184448
1761478018541052000,6.383052001953125,0.07672697358876467,0.053284723202884195,-0.019191022682189942
1761478018551037000,6.393036865234375,0.10078414100259542,0.08228080832362175,-0.03231412362754345
1761478018561021700,6.403021728515625,0.12930968600213527,0.0743131904453039,-0.049530046844482416
1761478018571006700,6.4130068359375,0.12444704840183257,0.0736623253211379,-0.05611351688802242
1761478018580992000,6.422991943359375,0.11293138265311717,0.08324936109483241,-0.04064589864313602
1761478018590977000,6.43297705078125,0.09475392092764377,0.0909276406377554,-0.055444823846220966
1761478018600962000,6.442962158203125,0.09500877247154713,0.08396627719253301,-0.08002280026376248
1761478018610946800,6.45294677734375,0.11767653135359286,0.10097323383390903,-0.09305997649133205
1761478018620931800,6.462931884765625,0.1030178914040327,0.12479162405580281,-0.054633507463335985
1761478018630918000,6.47291796875,0.08098609233796596,0.09039017276018857,0.016593991926312446
1761478018640902700,6.482902587890625,0.09148702808618545,0.05154401701539755,0.07606792515814303
1761478018650888000,6.492887939453125,0.05465162764191627,-0.000765139153599739,0.07813830169141292
1761478018660873000,6.502873046875,0.08391133213490247,-0.007547346639633178,0.03219078950881958
1761478018670858000,6.51285791015625,0.10666238538622856,0.006567103430628776,-0.026575872236490248
1761478018680842800,6.5228427734375,0.13189765666872263,0.035220658724009986,-0.08322714926302432
1761478018690827800,6.532827880859375,0.12082301268577575,0.07944353907108306,-0.09348843103647231
1761478018700812800,6.542812744140625,0.08862696247994899,0.12728548669815062,-0.08766893110275269
1761478018710797800,6.5527978515625,0.0971095441430807,0.12661620913445948,-0.08203530912995338
1761478018720782800,6.562782958984375,0.1108732810795307,0.14062427622079848,-0.03451777115166187
1761478018730769000,6.572768798828125,0.08025894710719585,0.1031070309922099,0.01854921764731407
1761478018740754000,6.58275390625,0.06426876629292964,0.06826777280122041,0.05341477932333946
1761478018750739000,6.592739013671875,0.09231295751631259,0.03572130172252655,0.029936873102188108
1761478018760723700,6.6027236328125,0.08153028221726417,0.02053308494091034,-0.007237550038099288
1761478018770708700,6.612708740234375,0.08718407019525766,0.01149433069974184,-0.04009937067627906
1761478018780693800,6.62269384765625,0.10097177252918481,0.023279168778657912,-0.09808686474263667
1761478018790679000,6.632678955078125,0.0844569833189249,0.05759206500798463,-0.14348375730514526
1761478018800664000,6.6426640625,0.09925123234689236,0.09162555977404117,-0.08889759611487388
1761478018810648800,6.65264892578125,0.07524345703274012,0.10862345632612705,-0.047077977517247196
1761478018820633900,6.6626337890625,0.053716100357472894,0.09163549664616584,-0.013882394880056381
1761478018830620000,6.672619873046875,0.061361062152683735,0.06636544631123542,0.004482698372006416
1761478018840604700,6.682604736328125,0.07249941902160643,0.03383358827978372,-0.01154138471186161
1761478018850589700,6.692589599609375,0.10720540622174739,0.008498656015098095,-0.033386136773228645
1761478018860575000,6.702574951171875,0.13598843311369418,0.012013093876838684,-0.06634323447942733
1761478018870560000,6.71256005859375,0.15898995399475097,0.014255319845676422,-0.09292202932536602
1761478018880545000,6.722544921875,0.08976035042405128,0.02945318123847246,-0.07405483177006245
1761478018890529800,6.73252978515625,0.038161388351023194,0.03469663484990597,-0.06988426808714866
1761478018900514800,6.742514892578125,0.05848199958503246,0.0680719579681754,-0.06702478700280189
1761478018910499800,6.752499755859375,0.05994008943885564,0.09395575628727675,-0.07898527390956878
1761478018920484900,6.76248486328125,0.05582593211829662,0.10343933168649673,-0.07452946354448794
1761478018930471000,6.772470947265625,0.1409793732687831,0.08174275592416524,-0.07836801879405975
1761478018940456000,6.7824560546875,0.12657763068974018,0.07504062793701886,-0.039454058510065074
1761478018950441000,6.79244091796875,0.11525076551139354,0.02690641936510801,-0.015586276188492775
1761478018960425700,6.80242578125,0.10864216102659702,0.015033318480849265,-0.02338204463124275
1761478018970410800,6.81241064453125,0.10775251871049403,0.023427052816748617,-0.016478256592154503
1761478018980395800,6.822395751953125,0.09905746334046125,0.03234071937352419,-0.03452770802378654
1761478018990380800,6.832380859375,0.06633797378242015,0.02462210782021284,-0.03167407215833664
1761478019000366000,6.842365966796875,0.0810106422573328,0.03386252211332321,-0.06120528706908226
1761478019010350800,6.852350830078125,0.09691606739759445,0.040084465368092057,-0.0558048893302679
1761478019020337000,6.8623369140625,0.112916769605875,0.038061727368831635,-0.03577332417070865
1761478019030322000,6.872322021484375,0.12634323741197584,0.055068976271152495,-0.036355507972836494
1761478019040306700,6.882306640625,0.09829963071048259,0.05315115995109081,-0.03545066808760166
1761478019050291700,6.892291748046875,0.0895809022039175,0.06002864450514316,-0.003881809869408607
1761478019060277000,6.902277099609375,0.08524199621677399,0.04756868364363909,-0.008354571369290352
1761478019070262000,6.912261962890625,0.10755261222422122,0.03912672625184059,-0.035144963139295576
1761478019080247000,6.9222470703125,0.09667582890093326,0.04296820411086082,-0.05125438641905784
1761478019090231800,6.932231689453125,0.08960019142627716,0.033494273322820664,-0.046156186497211454
1761478019100216800,6.942216796875,0.10651391682624817,0.03952683148533106,-0.07630348747968674
1761478019110201900,6.952201904296875,0.09589783026576042,0.04255523939579725,-0.11192074430584907
1761478019120187600,6.962187744140625,0.08291033839881419,0.04033902465105056,-0.07460778947770595
1761478019130173000,6.9721728515625,0.049725861677527426,0.053310734426975245,-0.011325111612677574
1761478019140158000,6.982157958984375,0.08285013264417648,0.07915858464986085,-0.02040799725651741
1761478019150143000,6.99214306640625,0.11444821695685387,0.06262158360779285,-0.016041034218668936
1761478019160128000,7.0021279296875,0.11817454400360583,0.05916501341313123,-0.021630817049741742
1761478019170112800,7.01211279296875,0.08496727092862129,0.055933776406943796,-0.05702770912349224
1761478019180097800,7.022097900390625,0.05985971767902374,0.052966158773005007,-0.06339665963351726
1761478019190082800,7.032082763671875,0.07034194872677325,0.05299480034559965,-0.08635083424150944
1761478019200067800,7.04206787109375,0.11442308251559734,0.07467471723407507,-0.08314297811090945
1761478019210054000,7.052053955078125,0.12358663218021392,0.07130319497436284,-0.02353285127878189
1761478019220039000,7.062038818359375,0.09155570940822362,0.06142945121377706,0.022645547050237653
1761478019230024000,7.07202392578125,0.08687485811561345,0.04681465040594339,0.001679331389069557
1761478019240008700,7.0820087890625,0.07111760927438736,0.02910889784544706,-0.015718378135561942
1761478019249993700,7.09199365234375,0.090299864128232,0.03507482051253319,-0.03020516864955425
1761478019259978800,7.101978759765625,0.09780570971369743,0.05067395618259907,-0.05305179122984409
1761478019269964000,7.111964111328125,0.11625965029299258,0.09254501270651817,-0.05057049580812454
1761478019279949000,7.121948974609375,0.09389934992492198,0.0928226606041193,-0.02561725633740425
1761478019289934800,7.131934814453125,0.07734335192143917,0.07408142751604319,-0.016624387064576147
1761478019299920000,7.141919921875,0.05802344216257333,0.05905307747125625,-0.05999357319176197
1761478019309905000,7.15190478515625,0.055554713961482045,0.054149815599620336,-0.09269348126649855
1761478019319889700,7.1618896484375,0.09174714032709598,0.07318067928403615,-0.05027940390706062
1761478019329874700,7.171874755859375,0.08206336618065833,0.08184767760336399,-0.06649228756129741
1761478019339860000,7.18185986328125,0.08207301079183817,0.07593290060162544,-0.10598843164741992
1761478019349845000,7.191844970703125,0.10181845248639583,0.07720628153830766,-0.10563128877282142
1761478019359830000,7.201830078125,0.10370762723386287,0.06384001948684453,-0.04411445153653622
1761478019369814800,7.211814697265625,0.09654606504142284,0.04929039286971092,-0.006053893211483955
1761478019379799800,7.2217998046875,0.07699205426573753,0.03096738519370556,0.002926116579771042
1761478019389785900,7.231785888671875,0.0697542119666934,0.02526741998642683,0.026786884638667106
1761478019399771000,7.24177099609375,0.054363458350300785,0.03030921354591846,0.014962006810307502
1761478019409756000,7.251755859375,0.03605214111208915,0.030894612218439577,-0.04622925173342227
1761478019419741000,7.261740966796875,0.09941051456183195,0.053721653315424917,-0.0968786579966545
1761478019429726000,7.271725830078125,0.12793050660341979,0.07691197476685047,-0.09438508761525154
1761478019439711000,7.2817109375,0.11961977437585591,0.11318360384851693,-0.07077975562214851
1761478019449695700,7.29169580078125,0.010833236442506312,0.105281452421844,-0.034763854867219925
1761478019459680800,7.3016806640625,-0.033439328265190124,0.054468087768554684,0.02151858884692192
1761478019469665800,7.311665771484375,0.04608429030478001,0.0432502359226346,0.027805121770501134
1761478019479651800,7.32165185546875,0.09617021746635436,0.053358665221929544,-0.024738135415315627
1761478019489636900,7.331636962890625,0.12481237458288669,0.02501519879102707,-0.04677987135350704
1761478019499622000,7.341621826171875,0.13045768699347973,0.04184855243116617,-0.0526245057284832
1761478019509607700,7.351607666015625,0.11960486906766891,0.04378916510492563,-0.03561608778238296
1761478019519592700,7.3615927734375,0.08810293860584496,0.04741787699609994,-0.035358898150920866
1761478019529578000,7.371577880859375,0.05715805750489235,0.031216976040601727,-0.06329203021526336
1761478019539563000,7.38156298828125,0.08597557118833064,0.03234539554864168,-0.09255378053486346
1761478019549548000,7.391548095703125,0.1090828905314207,0.03769961605817079,-0.09031798430681229
1761478019559533800,7.401533935546875,0.10835136138647794,0.03882189808636904,-0.09938859499096869
1761478019569518800,7.411518798828125,0.08917582853436469,0.02904986113458872,-0.08587854055464267
1761478019579503900,7.42150390625,0.0829495013654232,0.03407616486400366,-0.09776713126897811
1761478019589489000,7.431489013671875,0.04470540316700935,0.04744827213436365,-0.093889997574687
1761478019599474000,7.441473876953125,0.05487082335054874,0.06657441288679838,-0.0841261439293623
1761478019609459000,7.451458984375,0.08530103292763233,0.065159577652812,-0.05686755012571811
1761478019619444000,7.46144384765625,0.07174597030580043,0.054636722333729265,-0.024487375524640084
1761478019629428700,7.4714287109375,0.07767068417966365,0.03508241929709911,0.005875614035129547
1761478019639413800,7.481413818359375,0.048208442851901054,0.009036416153609752,0.01026654247045517
1761478019649399800,7.49139990234375,0.05724105961322784,-0.009778466692566871,-0.007503507497906684
1761478019659385000,7.501385009765625,0.09678805710375309,-0.011234510719776153,-0.07494447408616542
1761478019669369900,7.511369873046875,0.0969198667898774,0.034273148740828034,-0.09777005387842655
1761478019679355000,7.52135498046875,0.09992401704192161,0.06140519355535507,-0.12174597274959087
1761478019689340000,7.53133984375,0.12198708802908659,0.045801966232061384,-0.1418529412329197
1761478019699325000,7.541324951171875,0.13230302259922028,0.06934943055808544,-0.1090869821846485
1761478019709309700,7.551309814453125,0.12494506105184554,0.1041074402064085,-0.03512918104827404
1761478019719294700,7.561294677734375,0.0788368053495884,0.09502835395485162,0.008289104917645455
1761478019729279700,7.57127978515625,0.10140753359794616,0.04807078794687986,0.0026344401568174363
1761478019739265800,7.581265869140625,0.13667992250919342,0.01149520748257637,0.0464940401494503
1761478019749250800,7.591250732421875,0.10602233391702175,-0.013406009539961815,0.047961190092563624
1761478019759235800,7.60123583984375,0.044617724883556364,-0.026314590951800346,0.008360416588187217
1761478019769220900,7.611220947265625,0.04244242667108774,-0.008317746490240096,-0.03611819208562374
1761478019779206000,7.621205810546875,0.10211246699690818,0.03933072439134121,-0.0792027160525322
1761478019789190700,7.631190673828125,0.1214849837258458,0.060416767039895056,-0.11563479639291763
1761478019799176000,7.641176025390625,0.09693740244656801,0.0848141261935234,-0.07907704384624957
1761478019809161000,7.651160888671875,0.09247282425314188,0.09554302547872066,-0.054952071893215174
1761478019819146000,7.66114599609375,0.08197393433153628,0.08501870885491371,-0.011743044763803482
1761478019829131800,7.6711318359375,0.06187690272033214,0.05663461815267801,-0.029153029248118398
1761478019839116800,7.68111669921875,0.09177519737780093,0.016008885514736174,-0.053901686057448384
1761478019849101800,7.691101806640625,0.1297176822811365,0.03126753718405962,-0.01874269439280033
1761478019859086800,7.7010869140625,0.11365151362121105,0.03739244980514049,-0.05778466497063636
1761478019869072000,7.71107177734375,0.09266045577973127,0.03667494918555021,-0.053343467652797696
1761478019879057000,7.721056884765625,0.07916326082497835,0.05035743757933378,-0.011970423778891563
1761478019889042000,7.7310419921875,0.08820201506614685,0.066597501501441,-0.01321837801337242
1761478019899027000,7.74102685546875,0.07650836240202188,0.06505524049550294,-0.013218962535262106
1761478019909012700,7.7510126953125,0.08581219732016325,0.09355331296622753,-0.022799276307225225
1761478019918997800,7.760997802734375,0.05254617979526519,0.09641542439907788,-0.049375148543715476
1761478019928983000,7.770983154296875,0.05148118091225624,0.06305471432805061,-0.057660746330022807
1761478019938968000,7.780968017578125,0.10569266357123851,0.0787491270661354,-0.09129705847203731
1761478019948952800,7.790952880859375,0.09630231941342353,0.10003303037434816,-0.03464519692361354
1761478019958937900,7.800937744140625,0.09393880515247582,0.08562047414034604,-0.038650925433635706
1761478019968923000,7.8109228515625,0.1066384199887514,0.060678048324584954,-0.07986088770031928
1761478019978908000,7.820907958984375,0.0923237711712718,0.043920098008215426,-0.09096738812625407
1761478019988892700,7.830892578125,0.09907558351904153,0.041300563159584996,-0.09219546861648559
1761478019998879000,7.84087890625,0.08860182803869247,0.027376374964416025,-0.055609074497222896
1761478020008864000,7.850864013671875,0.11301876867562531,0.04080401181429624,-0.029431261667609215
1761478020018849000,7.86084912109375,0.10142448473274707,0.055278819629549975,0.012970540732145309
1761478020028833800,7.870833740234375,0.062162149402499194,0.06525222437232732,0.006762333741784096
1761478020038818800,7.88081884765625,0.05558627814352512,0.0677040014386177,-0.019131985971331596
1761478020048803800,7.890803955078125,0.07713058595359325,0.03312573227137327,-0.09365560429692268
1761478020058788900,7.900788818359375,0.08067161956131458,0.046991760538518425,-0.0654343029409647
1761478020068774000,7.91077392578125,0.09456862748861312,0.06900514716506004,-0.03435118241310119
1761478020078760000,7.920760009765625,0.142644968393445,0.08204583052396774,-0.021084873604774474
1761478020088745000,7.930744873046875,0.15395137530565262,0.06328852308392524,0.019437106397747993
1761478020098729700,7.940729736328125,0.14504735336005686,0.021959026090800762,0.022536241456866262
1761478020108714800,7.95071484375,0.10459259337484836,-0.013012626308202742,0.03491583055853843
1761478020118699800,7.96069970703125,0.06666179890930653,-0.033572014734148975,0.08728782283067703
1761478020128684800,7.970684814453125,0.01114274078309536,0.013805822512507438,0.02460778703391552
1761478020138670000,7.980670166015625,0.08608078512847422,0.022834347620606422,-0.05795066918730735
1761478020148654800,7.99065478515625,0.06853080765157937,0.06741378632038832,-0.10354045397341251
1761478020158641000,8.000640869140625,0.09380436511784791,0.08106967896819114,-0.15220716198682785
1761478020168626000,8.0106259765625,0.13466215294599532,0.08907032233327626,-0.10064473253190517
1761478020178610700,8.020610595703126,0.06394552568793296,0.06738894414007664,-0.07062544184327126
1761478020188595700,8.030595703125,0.03693301559984684,0.05789046343266964,-0.057871758732199664
1761478020198581000,8.0405810546875,0.0359586176097393,0.041808512681722636,-0.03474105851352215
1761478020208566000,8.05056591796875,0.06443798537999391,0.04994681095182895,0.0001315174251794815
1761478020218551000,8.060551025390625,0.02729337285608053,0.09347469477206469,-0.0010574000984430313
1761478020228535800,8.070535888671875,-0.061037529286742206,0.05305091444700956,-0.037004327270388604
1761478020238520800,8.080520751953125,0.1102677164018154,0.03214928845465183,-0.2087941416054964
1761478020248507000,8.0905068359375,0.14860913749486207,0.06100245797336101,-0.11883739182651042
1761478020258491600,8.10049169921875,0.15848375803828238,0.07709931403249502,-0.0816594615548849
1761478020268477000,8.110476806640625,0.1561082610785961,0.0561079639300704,-0.02366495322585106
1761478020278462000,8.1204619140625,0.043932080706954,0.03660495268926024,0.011858780097961425
1761478020288447000,8.130447021484375,-0.007590601259469985,0.01963058314323425,0.009321955096721648
1761478020298432000,8.140431884765626,0.07598492304980754,0.004985679458081722,0.037943069425225254
1761478020308416800,8.150416748046876,0.1012862453058362,0.007113193006068468,0.020961539486050604
1761478020318401800,8.16040185546875,0.10682079081833362,-0.00807400086224079,-0.06556991201937198
1761478020328388000,8.17038818359375,0.08922375932931899,-0.004915682961791753,-0.11502280197441578
1761478020338372900,8.180372802734375,0.08382569967806339,0.008143705097585916,-0.12497604071199893
1761478020348358000,8.19035791015625,0.10201835897266864,0.023207418716698885,-0.08516133219599724
1761478020358343000,8.200343017578126,0.14949381137490272,-0.0018349603421986102,-0.06585048252642155
1761478020368328000,8.210327880859374,0.1657861900061369,-0.023348873014003037,-0.09719956051409244
1761478020378312700,8.220312744140625,0.15633388652801514,-0.010549451065063477,-0.08970072919130324
1761478020388297700,8.230297607421875,0.1620341439962387,0.0004280161537230015,-0.06797288150787353
1761478020398282800,8.24028271484375,0.11665595613420009,0.019433891527354717,-0.07575695951282978
1761478020408269000,8.25026904296875,-0.013577566714584826,0.06853606834858655,-0.02257072824835777
1761478020418253800,8.26025390625,-0.13369213887006043,0.05903057337850332,0.03564589839875698
1761478020428238800,8.27023876953125,-0.1993780784845352,0.057711891995370385,0.030800211933255193
1761478020438224000,8.280223876953125,-0.028519407519698142,0.1680135106667876,-0.04499824863374233
1761478020448209000,8.290208984375,0.2911690579533577,0.1926123837418854,-0.06408464189767837
1761478020458193700,8.300193603515625,0.309167655980587,0.11678718129843473,-0.04395136992931366
1761478020468179000,8.310178955078126,0.0037272038295865055,0.03807049519717693,-0.03709025198817253
1761478020478164000,8.3201640625,-0.065692953877151,0.021469196747243402,-0.03505260868072509
1761478020488149800,8.330149658203124,0.08801789067089558,0.043537820692360396,0.003252279794216156
1761478020498134800,8.340134765625,0.10736293487101793,0.07652005283981561,0.09468670091032981
1761478020508119000,8.350119140625,0.0002104278802871704,0.12058467388525604,0.14448679686784743
1761478020518104000,8.36010400390625,-0.028445173239707945,0.19337708450406788,0.1589537136375904
1761478020528089000,8.370089111328125,0.05677373436242342,0.10220394467264413,0.024103929165005682
1761478020538074000,8.38007421875,0.3002963672608137,0.07219006081148982,-0.15657295598089693
1761478020548059000,8.390058837890624,0.5356602436229586,0.03634147944748401,-0.2833995929956436
1761478020558044200,8.400044189453125,0.4003717754721641,0.021273820305615664,-0.19493220499157904
1761478020568030200,8.4100302734375,0.020612579917907714,-0.03379252561703324,-0.0015349544823169707
1761478020578015000,8.420014892578125,-0.11812544416487217,-0.008307809618115424,0.09033259735405444
1761478020588000000,8.43,-0.01942804630845785,0.025329233176261186,0.09028875821232796
1761478020597985000,8.439985107421874,0.12376841848790644,0.046490094626694914,0.06611643998622894
1761478020607970000,8.449969970703124,0.16277707131803035,0.06780979990065097,-0.005312719455361366
1761478020617955000,8.459955078125,0.1723623535260558,0.09946516735851764,-0.06405483128130436
1761478020627940000,8.469940185546875,0.18514613951444625,0.1300673725016415,-0.09967091906368732
1761478020637925000,8.479925048828125,0.2141314109802246,0.15933613708391783,-0.1327677175015211
1761478020647911200,8.4899111328125,0.17472060708999632,0.11481763479113578,-0.14046119461357592
1761478020657896000,8.49989599609375,0.12094517776072025,0.06897504428774118,-0.07273965751826762
1761478020667881000,8.509880859375,0.04592530035078525,0.03626812195032835,0.028376784178614615
1761478020677866000,8.519865966796875,0.03831716343462467,0.025590952852368353,0.004061258089542389
1761478020687851300,8.529851318359375,0.12046703885495662,0.023211948761343956,-0.061323360490798944
1761478020697836300,8.539836181640625,0.16883184131234882,0.02938756865635514,-0.07881576256155967
1761478020707821000,8.549821044921876,0.10629384433478116,0.04893748777881264,-0.05064706817567348
1761478020717809000,8.559808837890625,0.12187222947776317,0.03124970926642418,-0.0354880774885416
1761478020727794200,8.569794189453125,0.10838409461230039,0.0720319476403296,-0.005105798706412315
1761478020737779200,8.579779296875,0.05577917036712169,0.10053849567845463,0.01809562866091728
1761478020747764200,8.58976416015625,0.06328852308392524,0.08605287420824169,-0.00909925225675106
1761478020757749000,8.5997490234375,0.06849076790213585,0.0797657567627728,-0.07475508899390697
1761478020767734000,8.609734130859374,0.11775661085247993,0.055234103704988956,-0.14567863700091838
1761478020777719000,8.619718994140625,0.13833616528362036,0.06473989093601704,-0.1753057135015726
1761478020787705000,8.629705078125,0.07408581143021584,0.055269905670732256,-0.15808862124085427
1761478020797690000,8.639690185546876,0.040865678873658176,0.035277357347309586,-0.09713409406244754
1761478020807675100,8.649675048828126,0.12871464271843433,0.03079816610664129,-0.03090542587339878
1761478020817660200,8.65966015625,0.08814180931150913,0.04669409276619553,0.048639235484600064
1761478020827645200,8.669645263671875,0.005644727888703346,0.059753773086518046,0.13097557338774204
1761478020837630000,8.6796298828125,0.005945464400947093,0.08932838874757289,0.1249514907926321
1761478020847615000,8.689614990234375,0.06750994017124176,0.06850728064551949,0.0383680168390274
1761478020857601300,8.699601318359376,0.12245792041122913,0.043416970791667696,-0.02075871039032936
1761478020867586000,8.7095859375,0.10521744727492331,0.02485840079411864,-0.10256196433007717
1761478020877571000,8.719571044921874,0.14758125575184822,0.011729746890813112,-0.12143325353860854
1761478020887556000,8.72955615234375,0.08449497724175453,0.014762392584979533,-0.1096755957275629
1761478020897541000,8.739541015625,0.0620946371242404,0.033436990177631375,-0.08099427564442158
1761478020907526100,8.749526123046875,0.08961538899540901,0.03929214594662189,-0.11746727251708507
1761478020917511000,8.759510986328126,0.01821545564830303,0.05819748355522752,-0.08318681725263595
1761478020927496200,8.76949609375,-0.012834347131848334,0.06643894993886351,-0.0401414562523365
1761478020937482200,8.779482177734375,0.047370822983980175,0.06495806373134255,-0.03818213887810707
1761478020947467000,8.789467041015625,0.09194646229147911,0.06123685125112533,-0.07368249132633209
1761478020957452000,8.7994521484375,0.08655980081707239,0.06354863532483578,-0.0781739575266838
1761478020967437000,8.80943701171875,0.13366671216785908,0.04581497184410691,-0.09400105673372745
1761478020977422000,8.819422119140626,0.1500216346412897,0.0340372941583395,-0.09630465750098229
1761478020987406800,8.82940673828125,0.09447978016138077,0.0038176585920155046,-0.10625205101966857
1761478020997392100,8.83939208984375,0.06500818648338318,0.005938011746853589,-0.08859598281979561
1761478021007377200,8.849377197265625,0.02571779410243034,0.037167993399500845,-0.0060620765179395675
1761478021017363000,8.859363037109375,0.07449731484055519,0.04813508535474539,-0.0038490766435861586
1761478021027348000,8.869347900390625,0.13325608554035426,0.040840544432401656,-0.051366614621877665
1761478021037333000,8.8793330078125,0.11880407407879828,0.04096490146443248,-0.05028057295083999
1761478021047318000,8.889318115234374,0.09716916537582873,0.033429829784482716,-0.04245031771659851
1761478021057303300,8.89930322265625,0.08922083671987056,0.031131489714235065,-0.06650339347720145
1761478021067288000,8.9092880859375,0.03744271868765354,0.018235183262079954,-0.05118891996741295
1761478021077273000,8.919273193359375,0.04648351875543594,0.02530117612555623,-0.08116612507998942
1761478021087259100,8.929259033203126,0.08968260901272296,0.048783173999935384,-0.09542729014456272
1761478021097244000,8.939243896484374,0.11098434023857116,0.04591258699968457,-0.07498188348710537
1761478021107229000,8.94922900390625,0.15737375096976755,0.0367551748149097,-0.0831628518551588
1761478021117214000,8.9592138671875,0.05337269374728203,0.030171704771369694,-0.0646849458783865
1761478021127199200,8.96919921875,0.00168313078135252,0.037423575595766305,-0.05392097527980804
1761478021137184300,8.979184326171875,0.03696165717244148,0.0625705840729177,-0.050204585105180735
1761478021147169000,8.9891689453125,0.08908172051012515,0.08454831486418843,-0.050884384062886236
1761478021157154000,8.999154052734376,0.120028062915802,0.07091214983016252,-0.055640638679265976
1761478021167140000,9.00914013671875,0.09753712190538644,0.04070698118060827,-0.06652618983089924
1761478021177124900,9.019124755859375,0.07242576926350593,0.01710939410254359,-0.07346738727092743
1761478021187110100,9.029110107421875,0.07062748766988515,0.01961626235693693,-0.08368482990264892
1761478021197095200,9.03909521484375,0.07954115422666072,-0.028983225639164445,-0.034843349844217296
1761478021207080200,9.049080078125,0.06608195319473743,-0.018912498001754284,-0.01570668769776821
1761478021217065200,9.059065185546874,0.005959200665354728,-0.005921791264414787,0.019385083949565885
1761478021227050000,9.069050048828124,0.06961421897411346,0.02285743623524904,-0.0055944590061902996
1761478021237035000,9.079034912109375,0.11204963138252497,0.07834303048327565,-0.042135844939947126
1761478021247021000,9.08902099609375,0.06669044048190116,0.09642346157506108,-0.03417933297753334
1761478021257006000,9.099006103515626,0.0472433972120285,0.08983853022679686,-0.05199731374084949
1761478021266991000,9.1089912109375,0.09869242942035197,0.0626097470395267,-0.09256839358210563
1761478021276976000,9.11897607421875,0.094056001791358,0.06010667817741632,-0.14216799853146075
1761478021286961200,9.128961181640625,0.0906704510062933,0.04118482782542705,-0.13626900362074373
1761478021296946200,9.1389462890625,0.07266483871638775,0.031071576220542192,-0.118511813133955
1761478021306931000,9.148930908203125,0.058090662179887294,0.02258665646985173,-0.09100245943963527
1761478021316917200,9.158917236328126,0.0525415036201477,0.015883505569398403,-0.05907236669361591
1761478021326902300,9.16890234375,0.03691460316032171,0.04330123545750975,-0.03577332417070865
1761478021336887000,9.178886962890624,0.013213409577310084,0.06250351018607617,-0.037300095346570014
1761478021346872000,9.1888720703125,0.06248568226844072,0.09949541636630892,-0.04641688326001167
1761478021356857000,9.198857177734375,0.09289689488410949,0.13639920587167143,-0.04533259515464306
1761478021366842000,9.208842041015625,0.07962707894444465,0.12373217813074588,-0.05389408727288246
1761478021376827000,9.218826904296876,0.029083471143245696,0.06301467457860709,-0.07277122170031071
1761478021386813200,9.228813232421874,-0.024016250881552695,0.04816606501489878,-0.04954699797928333
1761478021396798200,9.238798095703125,-0.018233575826883314,0.05665902194157242,-0.053090369674563404
1761478021406783000,9.248782958984375,0.05443652358651161,0.07055822182595729,-0.06546820521056651
1761478021416768000,9.25876806640625,0.07705226002037524,0.07979030668213963,-0.036226913157105446
1761478021426753000,9.2687529296875,0.035140871486067767,0.06632526043131948,-0.03709551268517971
1761478021436738000,9.278738037109376,0.10170622428357601,0.016274404583126307,-0.08185060021281242
1761478021446723000,9.28872314453125,0.12856734320223331,-0.0026193887181580064,-0.09042495181262493
1761478021456708000,9.2987080078125,0.0775818368524313,-0.0043324762463569635,-0.09884966580867767
1761478021466694100,9.308694091796875,0.06287994228303433,0.015171265646815299,-0.0666191288113594
1761478021476679200,9.31867919921875,0.0699789606332779,0.06276055368706583,-0.023091537252068518
1761478021486664000,9.328663818359376,0.12770225080549716,0.044761955659836525,-0.05399930121302604
1761478021496649000,9.33864892578125,0.26791853074729444,0.023894670328497885,-0.1482142929583788
1761478021506634500,9.348634521484374,0.21274492505788803,-0.00010053776502609253,-0.12698328888118265
1761478021516619800,9.358619873046875,-0.29651626420021054,0.07944353907108306,0.11875322067439556
1761478021526604500,9.3686044921875,-0.5876704168453812,0.07552928823679685,0.11455226185321807
1761478021536589600,9.378589599609375,0.050073652201890945,0.1060267178311944,0.04446925632357597
1761478021546575600,9.38857568359375,0.2766816829174757,0.12311521527618169,-0.05677870279848575
1761478021556560600,9.398560546875,0.1287812782138586,0.0790766054548323,-0.1278390289276838
1761478021566545400,9.40854541015625,0.10778525193631648,0.09134645057171582,-0.12602818011343478
1761478021576530700,9.41853076171875,0.12476269022226333,0.14988061873540282,-0.09584522329568862
1761478021586515700,9.428515625,0.1946335143059492,0.20172186513170598,-0.08738602250814437
