time,seconds_elapsed,z,y,x
1761466552888056000,0.11505615234375,0.044402036306262015,-0.016912556356191634,-0.016686054123938084
1761466552898041300,0.125041259765625,0.02910977462828159,0.019479191973805425,-0.011913871286064385
1761466552908026000,0.135026123046875,0.026670564782619473,0.049259997731447215,0.022417145121842622
1761466552918010000,0.145010009765625,0.03824263689368963,0.06027122108936309,0.050110915472358464
1761466552927995100,0.1549951171875,0.026267536939680574,0.06729132898449898,0.0373985872849822
1761466552937979100,0.164979248046875,0.02691431041061878,0.043109658408164976,0.016161884119361637
1761466552947964200,0.174964111328125,0.048119011002779,0.0052495910912752144,-0.033317601581662894
1761466552957948200,0.1849482421875,0.020429040044546126,0.012202478969097137,-0.06689779962226748
1761466552967933200,0.19493310546875,-0.03880231660306453,0.058822191324830055,-0.060099810045212504
1761466552977917200,0.204917236328125,-0.04669131628721952,0.08055822231471538,-0.024055998370051384
1761466552987902200,0.214902099609375,0.033332360759377476,0.08062193520069122,0.0022150457009673117
1761466552997886200,0.22488623046875,0.054180502998828886,0.05821838021278381,0.033046967946738004
1761466553007871200,0.234871337890625,0.024833997005224227,0.0439016855686903,0.03485913193523884
1761466553017855200,0.244855224609375,0.009119418261945247,0.009490297400951385,0.0015688567519187926
1761466553027840300,0.25484033203125,-0.004634089541435241,-0.0022556699723005292,-0.03385901498198509
1761466553037824300,0.26482421875,-0.04072247101068496,0.021437340304255485,-0.05662044349685311
1761466553047809000,0.27480908203125,-0.013825403995811938,0.05368015226125717,-0.06421747449710964
1761466553057793000,0.28479296875,0.012500585132837295,0.08111176454424858,-0.05531345255151391
1761466553067778000,0.294778076171875,-0.019699264465272426,0.10853986969590186,-0.024786942993104456
1761466553077762000,0.304761962890625,-0.05556465083360672,0.10122457824647425,0.03770136962383985
1761466553087747000,0.3147470703125,-0.03175795104950666,0.0735948130428791,0.0678983549669385
1761466553097731000,0.32473095703125,-0.004608370578289032,0.05026829799115658,0.04757511338442564
1761466553107716000,0.334716064453125,0.002511106038093567,0.041321021425724025,0.01408215523585677
1761466553117700000,0.3447001953125,-0.024358196187019347,0.004721767824888229,-0.0030764848358929156
1761466553127685000,0.35468505859375,-0.018053543084859847,0.014403203883767127,-0.034109774872660634
1761466553137669000,0.364669189453125,-0.022021569932997226,0.03593991290926933,-0.040800650813430546
1761466553147654100,0.374654052734375,-0.046670273499190805,0.057794601842761036,-0.037488311395049094
1761466553157638100,0.38463818359375,-0.01961246296465397,0.06228957517445087,-0.037556554325670004
1761466553167623200,0.394623046875,-0.0013847323566675185,0.06705342857539653,-0.027561960664391517
1761466553177607200,0.404607177734375,-0.008046820594370365,0.07061082879602909,-0.0015175649560987949
1761466553187592000,0.414592041015625,-0.01571019482910633,0.045644145321846005,-0.010382570065557956
1761466553197576000,0.424575927734375,-0.04020516913831234,0.047401802644133566,-0.03050765872746706
1761466553207561200,0.434561279296875,-0.049293607740104196,0.03395136944055557,-0.04303995417281985
1761466553217545000,0.444544921875,-0.06040273851454257,0.04483750511407852,-0.020605857916176317
1761466553227530200,0.4545302734375,-0.0582446836978197,0.05686404299437999,0.0054506666213274
1761466553237514200,0.46451416015625,-0.034357612153887745,0.050128597259521485,0.021130174051225185
1761466553247499000,0.4744990234375,-0.0010085925206542014,0.016205284869670867,0.019680705895274875
1761466553257483000,0.48448291015625,0.024685528445243833,-0.009275777867436408,-0.0027123276986181733
1761466553267468300,0.49446826171875,0.05280687655806541,0.0034779052436351775,-0.02611278476938605
1761466553277452000,0.5044521484375,0.06520867749154567,0.01786298894882202,-0.034990795490890736
1761466553287437300,0.514437255859375,0.0902101400181651,0.028231238228082656,-0.015050708007067442
1761466553297421300,0.52442138671875,0.08784954836666584,0.031000702941417692,0.010184124884009362
1761466553307406000,0.534406005859375,0.09231120395064353,0.022190204498171804,0.004659808504581451
1761466553317390000,0.54439013671875,0.11387830811440944,0.017407646396756172,-0.014250205279141663
1761466553327375000,0.554375,0.10870675069540739,-0.008065233033895492,-0.033251988999545574
1761466553337359000,0.564359130859375,0.05354395866096019,0.0072761284828186034,-0.05157441215366125
1761466553347344100,0.57434423828125,0.0018961890101432798,0.033685411980748176,-0.07849486004412173
1761466553357328100,0.584328125,-0.01626782871186733,0.0766448482632637,-0.07025134783387184
1761466553367313200,0.594313232421875,0.029197745172679423,0.08174597079455852,-0.05386997574493289
1761466553377297200,0.604297119140625,0.08396130875647068,0.07608195368349552,-0.03251256880909204
1761466553387282200,0.6142822265625,0.09408727371245622,0.042570729225873946,-0.03006473726555705
1761466553397266200,0.62426611328125,0.0949006359219551,0.033740357038378715,-0.03747311382591724
1761466553407251200,0.634251220703125,0.06348024626374245,0.027519290566444397,-0.06662000559419393
1761466553417235200,0.644235107421875,-0.017338965074717997,0.04106909249126911,-0.06978109997361898
1761466553427220200,0.65422021484375,-0.06247896026670932,0.08294131805896758,-0.04692775539159774
1761466553437204200,0.664204345703125,-0.09787176068723201,0.09796177705824374,-0.03501300732269883
1761466553447189000,0.67418896484375,-0.10863163963258265,0.10254618223905562,-0.00023936171382665631
1761466553457173000,0.684173095703125,-0.10464227773547172,0.08819207819402217,0.020718524510413408
1761466553467158000,0.694157958984375,-0.06495207238197326,0.07033961063921451,0.044448067405074836
1761466553477142000,0.70414208984375,-0.05003010532110929,0.057257426226139066,0.0606195961356163
1761466553487127000,0.714126953125,-0.05291735119521618,0.03811374981701374,0.07488441446200013
1761466553497111000,0.724111083984375,-0.047018356284499165,0.07126140165925025,0.12030176529064773
1761466553507096000,0.734095947265625,-0.06380436365157366,0.040621933245658874,0.10682912025526166
1761466553517080000,0.744080078125,-0.06714344494640827,0.011938859596848487,0.04412395001724362
1761466553527065000,0.754065185546875,-0.053581660322844976,0.014757424148917198,-0.04528393370732665
1761466553537049000,0.764049072265625,-0.007620996397733688,0.042589433926343914,-0.07056479769721627
1761466553547034000,0.7740341796875,0.04513414997309446,0.06922317382991314,-0.06838862270191312
1761466553557018000,0.78401806640625,0.07106909395754336,0.10254033702015876,-0.04117927486747503
1761466553567003100,0.794003173828125,0.05065232887268066,0.12732464966475962,-0.015194938783347605
1761466553576987100,0.803987060546875,0.025754618981480598,0.10909750357866287,-0.0208669930703938
1761466553586972000,0.813971923828125,-0.010927636727690697,0.05886544594466686,-0.03270195390135049
1761466553596956000,0.823955810546875,0.011558043585717678,0.04843815995454788,-0.027949060285836456
1761466553606941000,0.83394091796875,0.04713642970621586,0.008615268132090568,-0.03694280634149909
1761466553616925000,0.843925048828125,0.02147854909747839,-0.014196867656707763,0.009583528642356395
1761466553626910200,0.85391015625,0.028008243127167223,-0.01618774921298027,0.06915259281173348
1761466553636894000,0.86389404296875,0.07700140661597252,-0.08498539110720157,0.1793542582400143
1761466553646879200,0.873879150390625,0.09168225839734077,-0.07063362514972686,0.21071093501225113
1761466553656863200,0.88386328125,0.11467851858139037,-0.0020645313143730164,0.09109875942096114
1761466553666848300,0.89384814453125,0.12659019791036843,0.02769990783035755,-0.005797434232383966
1761466553676832300,0.903832275390625,0.08257453057318925,0.0129448217689991,-0.023956629648804663
1761466553686817300,0.9138173828125,-0.005162497329711913,0.009705401456356047,-0.04764467148929834
1761466553696801300,0.92380126953125,0.01769581568837166,0.02297814000546932,-0.07519581849873065
1761466553706786000,0.9337861328125,0.01539689109623432,0.02741933732330799,-0.10685600826218723
1761466553716771000,0.94377099609375,0.061392334073781966,-0.0007779986351728439,-0.13531652520149945
1761466553726755000,0.953755126953125,0.04274374770522117,0.00931669439971447,-0.13149345978200436
1761466553736740000,0.963739990234375,-0.06839958248734473,0.03600011866390705,-0.08167275942787527
1761466553746724000,0.97372412109375,0.07965133660286665,0.10143734421432017,-0.000736643711477518
1761466553756709000,0.983709228515625,0.1429743464782834,0.07159691722393036,-0.04713248418346047
1761466553766693000,0.993693115234375,0.05794307040274143,0.09689736269712447,-0.05560659027919173
1761466553776678100,1.00367822265625,0.01478606572151184,0.046911973300576205,-0.06472980793341994
1761466553786662100,1.013662109375,0.006525017854571342,0.04662205044329166,-0.051247226025909184
1761466553796647200,1.023647216796875,0.023451602736115455,0.043809331110119816,-0.028297727593034505
1761466553806631200,1.033631103515625,0.04328706080168485,-0.008087444865703583,-0.017064239786565304
1761466553816616000,1.043615966796875,0.020658757147192952,0.0029290391892194748,-0.03252937381342053
1761466553826600200,1.05360009765625,-0.00168225399851799,0.038054128584265705,-0.03583601414337754
1761466553836585000,1.0635849609375,-0.0012578911066055297,0.06412497390806675,-0.03233355898037553
1761466553846569000,1.07356884765625,-0.0009176993668079376,0.05483809012472629,-0.017280366755276916
1761466553856554000,1.083553955078125,0.00220335526317358,0.06080430505275726,-0.008813274922221899
1761466553866538000,1.0935380859375,0.008451894263923168,0.0850625479966402,0.006099924310296773
1761466553876523000,1.10352294921875,-0.008676058408617973,0.08663432735800743,-0.0017820611111819744
1761466553886507000,1.113507080078125,-0.01862111383974552,0.07686462849378585,0.008437281216681003
1761466553896492000,1.123491943359375,-0.06909516353607177,0.055609659019112585,0.01612915089353919
1761466553906476000,1.13347607421875,-0.057636196410655975,0.03725099550783634,0.012998159391433
1761466553916461000,1.1434609375,-0.06848112329095601,0.018681904116272924,0.01662365641221404
1761466553926445000,1.153445068359375,-0.0773334150493145,0.007405307820439338,0.04652428915724158
1761466553936430300,1.163430419921875,-0.08173954105377197,-0.0015261866539716719,0.05924845391288399
1761466553946414000,1.1734140625,-0.05246814612299203,-0.0023778350472450256,0.048732320595532654
1761466553956399000,1.183399169921875,-0.02947802341878414,0.008240589600801467,0.02476414663940668
1761466553966383000,1.193383056640625,-0.028045360267162322,0.012448562684655188,-0.0006740998692810536
1761466553976368000,1.2033681640625,-0.022096096473932264,0.020998948886990547,-0.007780717004090547
1761466553986352000,1.21335205078125,-0.011427110682427882,0.024617139384150503,-0.0012985153779387472
1761466553996337200,1.223337158203125,-0.00011456629037857055,0.04236673108637333,-0.004620937798917293
1761466554006321200,1.233321044921875,0.03764408647865057,0.04238894291818142,0.009748071554303168
1761466554016306200,1.24330615234375,0.06485942566245793,0.05019114110171795,0.04046016681268811
1761466554026290200,1.253290283203125,0.056399640353024,0.06835983499884606,0.05617533007785678
1761466554036275200,1.263275146484375,-0.017796937975287436,0.07126140165925025,0.0565130375996232
1761466554046259200,1.27325927734375,-0.05121814606189728,0.08141746949255466,0.052500002565979954
1761466554056244200,1.283244140625,-0.07913081986010075,0.10135668019354342,0.062048313764482735
1761466554066228200,1.293228271484375,-0.08342939383685588,0.0910053820490837,0.03660115329697728
1761466554076213200,1.303213134765625,-0.05016425309479236,0.08982932400703429,-0.004426584270596504
1761466554086197200,1.313197265625,-0.0066594578891992565,0.040513796696066855,-0.053411710583418606
1761466554096182000,1.32318212890625,0.04053659304976463,0.025202245795726774,-0.0743630209363997
1761466554106166000,1.333166015625,0.06276596051454544,0.017932547053694722,-0.04697276357710361
1761466554116151000,1.343151123046875,0.053123102900385855,0.04180500555038452,-0.004393851044774055
1761466554126135000,1.353135009765625,0.013270108200609683,0.04228606706559658,0.017771657403558492
1761466554136120000,1.3631201171875,-0.04902823480218649,0.03240472452044487,0.021187603326886892
1761466554146104000,1.37310400390625,-0.07306991238594054,0.04109656502008438,-0.005276917489618063
1761466554156089000,1.383089111328125,-0.07756371667385101,0.04916647422909736,-0.045735769128054375
1761466554166073000,1.393072998046875,-0.05966945580393076,0.07363689861893653,-0.06270911576077341
1761466554176058000,1.40305810546875,-0.07708499324619769,0.08401917642354964,-0.04586231811717152
1761466554186042000,1.4130419921875,-0.07231997080147266,0.08806640598773956,-0.026993805387616157
1761466554196027100,1.423027099609375,-0.04521861338615417,0.08482640115320682,-0.018151304370909928
1761466554206011100,1.43301123046875,-0.010310673873126506,0.051984454259276384,0.0007620704136788844
1761466554215996000,1.442995849609375,-0.004365209472179413,0.04071428770422935,0.01297229429781437
1761466554225980200,1.452980224609375,-0.019515432330965993,0.04618248998224735,0.031780893533676864
1761466554235965000,1.46296484375,-0.028880349786579607,0.04999532626867294,0.027669512692093848
1761466554245949200,1.47294921875,-0.020097616133093833,0.0399585009008646,0.025441753640025853
1761466554255934200,1.482934326171875,0.01945814918577671,0.0339414325684309,0.006433832439780235
1761466554265918200,1.492918212890625,0.033493688800930975,0.041591655060648915,-0.0027053134359419344
1761466554275903200,1.5029033203125,0.030172727684676645,0.03962473890185356,0.009365355847030878
1761466554285887200,1.51288720703125,0.02107201412320137,0.03390168507993221,0.007795476181805133
1761466554295872300,1.522872314453125,0.01082768348455429,0.020945757395029067,0.007326689626276492
1761466554305856300,1.532856201171875,0.009266425517201422,0.03691021924614906,0.0017531272776424884
1761466554315841300,1.54284130859375,0.024525953969359398,0.057870005166530604,-0.013695347875356673
1761466554325825300,1.5528251953125,0.07784691752940416,0.04695522792041301,-0.036955811953544616
1761466554335810300,1.562810302734375,0.11223200221210718,0.027556699967384336,-0.04734101236760616
1761466554345794300,1.572794189453125,0.10014964249134063,0.007595277434587478,-0.04850128831863403
1761466554355779000,1.582779052734375,0.07313216396719217,0.008651508489251137,-0.0530862780213356
1761466554365763000,1.59276318359375,0.047049628205597396,0.004752162963151931,-0.013032938443869352
1761466554375748000,1.602748046875,0.0652338119328022,-0.0005324994415044785,-0.006897796689718961
1761466554385732000,1.612732177734375,0.08159925580024718,-0.011012392401695251,-0.01218859657421708
1761466554395717000,1.622717041015625,0.03874327989220619,-0.013141805645823477,0.03275631443709135
1761466554405701000,1.632701171875,0.032094343397021295,0.052232291540503496,-0.02668006326332688
1761466554415686100,1.64268603515625,0.0353746802419424,0.039459903728961944,-0.03996317707598209
1761466554425670100,1.652670166015625,0.02488134327828884,0.011855272966623306,-0.017216361608356236
1761466554435655200,1.6626552734375,0.059225803689658636,0.009745148944854736,-0.03784939979240298
1761466554445639200,1.67263916015625,0.08365648059099912,0.012730302235484122,-0.03391995138898492
1761466554455624400,1.68262451171875,0.05411123715490102,0.011969839257001876,-0.0318891762137413
1761466554465608200,1.692608154296875,0.019607786789536476,0.02686813318133354,-0.050409898418933154
1761466554475593200,1.70259326171875,0.0431347928494215,0.047078562039136886,-0.05570815095752477
1761466554485577500,1.712577392578125,0.043271863232553005,0.05950082123875618,-0.06738835961818694
1761466554495562200,1.722562255859375,0.0009428338080644607,0.060710781550407406,-0.057986909544467925
1761466554505547300,1.73254736328125,-0.013045944055914879,0.06769055743515491,-0.04651625198125839
1761466554515531300,1.74253125,0.007309446230530738,0.07574351550936699,-0.03643178807944059
1761466554525516300,1.752516357421875,0.027511107259988784,0.06863982098400592,-0.02143602513000369
1761466554535500300,1.762500244140625,0.03856032454073429,0.047502340409159655,-0.0068014967083930965
1761466554545485300,1.7724853515625,0.035626024654507635,0.05349661238789558,-0.012847060482949018
1761466554555469300,1.78246923828125,0.00948269861638546,0.056581718921661375,-0.014816460859775542
1761466554565454300,1.792454345703125,-0.008570552207529544,0.06152735863029957,-0.012051380060613154
1761466554575438300,1.802438232421875,-0.013114917638897895,0.05800561424493789,-0.008818827880173921
1761466554585423000,1.812423095703125,0.014448796591162681,0.037927871856093406,-0.01688625287115574
1761466554595407400,1.822407470703125,0.05749240402579307,0.006941197440028191,-0.018527298076450822
1761466554605392100,1.83239208984375,0.14268267005532978,-0.0727455027371645,-0.06705985831618308
1761466554615376100,1.842376220703125,0.17425240505635736,-0.017149872243404387,-0.13714943971708415
1761466554625361200,1.852361083984375,0.06317308001071215,0.08316518994271754,-0.01770838290899992
1761466554635345200,1.86234521484375,0.022553192591667173,-0.04941723411977291,-0.004645779979228973
1761466554645330200,1.872330078125,0.0792635063290596,-0.029141923332214353,-0.01529386911317706
1761466554655314200,1.882314208984375,0.09539806405007839,0.08638649007678031,0.06743453684747219
1761466554665299200,1.89229931640625,0.10254501319527626,-0.04401099116206169,0.10949176359325646
1761466554675283200,1.902283203125,0.10878887602090835,-0.103065822198987,0.10432751269787549
1761466554685268200,1.912268310546875,0.07583908483833074,-0.059230772125720976,0.06936316682249308
1761466554695252200,1.922252197265625,0.04174859918802976,-0.05707447087466717,0.017266922751814125
1761466554705237200,1.9322373046875,0.034971944659948344,-0.0712462040901184,0.01433861421495676
1761466554715221200,1.94222119140625,0.10542027637064456,-0.04189034574627876,-0.016489800899475812
1761466554725206000,1.9522060546875,0.1828220804810524,0.015287000980973242,-0.03029211628064513
1761466554735190300,1.962190185546875,0.20306553482562303,0.032762451916933055,-0.02685381239503622
1761466554745175000,1.972175048828125,0.19869038848131895,0.02544774498939514,-0.05479907328858971
1761466554755159000,1.982158935546875,0.15576806933879853,0.04103402117788792,-0.07812441929653287
1761466554765144000,1.99214404296875,0.06891629983782768,0.033949031352996824,-0.066714990401268
1761466554775128000,2.002128173828125,0.01825344957113266,0.026301146948337552,-0.04514613267183304
1761466554785113300,2.01211328125,-0.017054595175385476,0.05289046318829059,-0.01693944436311722
1761466554795097000,2.02209716796875,-0.042536826956272124,0.053964814421534536,0.024340222138911485
1761466554805082400,2.032082275390625,-0.0546963435664773,0.02547171038687229,0.031297201669961215
1761466554815066400,2.04206640625,-0.03434884432554245,0.01708089866042137,0.022106471737474202
1761466554825051400,2.052051513671875,0.008176292192935943,-0.01259703124463558,0.011115852776169777
1761466554835035400,2.062035400390625,0.017459668844938277,-0.012327566653490066,0.008392126900702715
1761466554845020400,2.0720205078125,0.03541881164461374,-0.03520867602527141,-0.0012599369332194328
1761466554855004400,2.08200439453125,0.06862608471959829,-0.04898293435573577,-0.030840690074115988
1761466554864989200,2.0919892578125,0.0797685332417488,0.0005208090037107468,-0.03520107724070549
1761466554874973200,2.10197314453125,0.10857844814062118,0.03647241235077381,-0.02540419810861349
1761466554884958200,2.111958251953125,0.11916121695339679,0.04595043479204178,-0.024875498059391973
1761466554894942200,2.121942138671875,0.08707330329716205,0.06168927119374275,-0.021122575266659258
1761466554904927200,2.13192724609375,0.047236382949352264,0.066480012601614,0.016901158179342745
1761466554914911200,2.1419111328125,0.041941199150681494,0.05516483786106109,0.03972790701538324
1761466554924896300,2.151896240234375,0.05996902327239513,0.04706394899189472,0.03126841396689415
1761466554934880300,2.16188037109375,0.01250292322039604,0.06705635118484497,0.01686784043163061
1761466554944865300,2.171865234375,-0.017898644784092903,0.05183949283063411,0.007752952214330434
1761466554954849300,2.181849365234375,0.006577624824643135,0.046753567868471145,0.004212356998026371
1761466554964834300,2.191834228515625,0.04374211109280586,0.04615326388776302,0.0008162848189473151
1761466554974818300,2.201818359375,0.05065642052590847,0.019019173246622084,0.006335486631840467
1761466554984803000,2.211802978515625,0.017140519893169403,0.011199439406394958,0.0125613754093647
1761466554994787300,2.221787353515625,0.0002726794615387916,0.018014964640140532,0.005676876592636108
1761466555004772000,2.231772216796875,-0.018255787658691406,0.03585983341038227,-0.002466682374477386
1761466555014756000,2.241756103515625,-0.029824644899368286,0.06396890656352043,-0.01085866314470768
1761466555024741000,2.2517412109375,-0.07336451141834259,0.06393208168447018,-0.016264467711001634
1761466555034725000,2.26172509765625,-0.09928571913838385,0.10147300004959106,-0.01602466760575771
1761466555044710100,2.271710205078125,-0.07683890953063964,0.12206278361380099,-0.021445962002128362
1761466555054694100,2.281694091796875,-0.045969724014401435,0.1249947454124689,-0.04021817475035786
1761466555064679200,2.29167919921875,-0.03203209181576967,0.12609598465263844,-0.04171206656992435
1761466555074664200,2.301664306640625,-0.02681494168937206,0.10665654016733168,-0.02924640661999583
1761466555084648200,2.311648193359375,-0.025922376763820646,0.09568389525413512,-0.01945084266215563
1761466555094633200,2.32163330078125,0.004261164575815201,0.07498129896521567,-0.0046603930264711374
1761466555104617200,2.3316171875,0.011133388432860374,0.05644201819002628,0.0159685535043478
1761466555114602200,2.341602294921875,0.009403495900332928,0.05643208131790161,0.02999737111777067
1761466555124586200,2.351586181640625,0.008873042285442351,0.07065525245964527,0.0339313495658338
1761466555134571300,2.3615712890625,-0.0025666356176137924,0.08524959500133991,0.03546484274342656
1761466555144555300,2.37155517578125,-0.014748364059627055,0.07631868504881859,0.036950258995592594
1761466555154540300,2.381540283203125,-0.0014519523739814758,0.05373451279699802,0.06236103297546505
1761466555164524300,2.391524169921875,0.024507249268889426,0.02396539747714996,0.06294993877932428
1761466555174509300,2.40150927734375,0.020620763224363327,0.0061275429695844645,0.003798953891545534
1761466555184493300,2.411493408203125,0.030244623877108096,-0.015842296776175498,-0.032007834157347675
1761466555194478300,2.421478271484375,0.03684592183828354,-0.025467034211754797,-0.015275602804124355
1761466555204462300,2.43146240234375,0.044511926421523094,-0.02524082424044609,0.011693798794597386
1761466555214447400,2.441447265625,0.04589548973441124,-0.02113864961862564,0.05678615545257926
1761466555224431400,2.451431396484375,0.05237666844725609,-0.03148351802229881,0.08802300523743033
1761466555234416000,2.461416015625,0.050097617599368094,-0.049048400807380675,0.06551189822182059
1761466555244400400,2.471400390625,0.02866319990456104,-0.028563831183314323,0.030892566391825676
1761466555254385700,2.4813857421875,0.017651392024755477,0.0010755202770233153,-0.0049675592795014375
1761466555264369400,2.491369384765625,0.01712707588970661,0.04739245029389858,-0.02080591053292155
1761466555274354700,2.501354736328125,0.028670798689126968,0.0692944855004549,-0.020615502527356146
1761466555284338700,2.511338623046875,0.02481295421719551,0.06025719256401062,0.005957154838740825
1761466555294323700,2.52132373046875,0.04096095594167709,0.062059858071804044,0.01176598724797368
1761466555304307700,2.5313076171875,0.05894903257489204,0.051475335693359374,0.016503391033411027
1761466555314292700,2.541292724609375,0.031359599381685255,0.07360007373988628,0.0022857728496193884
1761466555324276700,2.55127685546875,0.005556465083360672,0.08388648995459079,-0.0016448445975780486
1761466555334261800,2.56126171875,-0.009356441888213158,0.07711188125312328,-0.010627484737336636
1761466555344245800,2.571245849609375,-0.05635580121129751,0.05958616143465042,-0.016902181092649696
1761466555354230500,2.58123046875,-0.035490123315155504,0.04365443280935287,-0.02924085366204381
1761466555364214800,2.59121484375,-0.0011176058530807495,0.03596037117540836,-0.057760991834104054
1761466555374199600,2.601199462890625,0.023671090705692767,0.020122750574350357,-0.06854220582842827
1761466555384183600,2.61118359375,0.03199351337105036,-0.009856792625784873,-0.060020899590104815
1761466555394168600,2.62116845703125,0.019645196190476416,0.0031219314128160475,-0.04060337467566132
1761466555404152600,2.631152587890625,0.023091537252068518,0.007290741530060768,-0.016488339594751596
1761466555414137600,2.6411376953125,0.030025135907530785,0.03124386404752731,-0.017433803751319647
1761466555424121600,2.65112158203125,0.027357378003001212,0.05208966819941997,-0.02231470766067505
1761466555434106600,2.661106689453125,-0.0003606500059366226,0.07319207746088505,-0.0006242693781852722
1761466555444091600,2.671091552734375,-0.022568390160799024,0.0586982726842165,0.013987462689727543
1761466555454075600,2.68107568359375,0.023483459179103373,0.042139352071285247,-0.008181552889943123
1761466555464060700,2.691060791015625,0.028296120157837865,0.029480946028232573,-0.01985328598320484
1761466555474044700,2.701044677734375,0.024659809482097624,0.01006955859363079,-0.011588000332564114
1761466555484029400,2.711029541015625,0.057365855036675927,-0.006064999127388,-0.010944441732019186
1761466555494013400,2.721013427734375,0.06348550696074962,-0.003939093014597893,-0.004462532366812229
1761466555503998500,2.73099853515625,0.04728372922241687,-0.003391396003961563,-0.0014243337146937847
1761466555513982500,2.740982421875,0.06661795976758003,-0.0164390936255455,0.011620733558386564
1761466555523967500,2.750967529296875,0.06797521959543228,0.0018704700469970702,0.025917700588703154
1761466555533951500,2.760951416015625,0.05679711523801088,0.01872691230177879,0.04281915102899074
1761466555543936500,2.7709365234375,0.059202130553126335,0.018705869513750074,0.05631400789618492
1761466555553920500,2.78092041015625,0.07265548636615275,0.034548166289925575,0.048311026443541044
1761466555563905800,2.79090576171875,0.04155833731293678,0.06069149232804775,0.02177694752216339
1761466555573889500,2.8008896484375,-0.006129881057143211,0.04717150101959705,0.005725245779007673
1761466555583874800,2.810874755859375,0.01125379994213581,0.05260521650612354,-0.006512450633943081
1761466555593858800,2.82085888671875,0.01730535506606102,0.05356733953654766,-0.00954758054614067
1761466555603843600,2.830843505859375,0.031948212924599644,0.030707272952795028,0.0025356559574604034
1761466555613827600,2.84082763671875,0.040114275984466076,0.014784896677732466,0.03598243687674403
1761466555623812600,2.8508125,0.08348609246015548,-0.00841477712392807,0.035624417219311
1761466555633796600,2.860796630859375,0.06488017618954181,0.015550620353221892,0.011963409516215323
1761466555643781600,2.87078173828125,0.003390519221127033,0.02384264788031578,0.006571048953384161
1761466555653765600,2.880765625,-0.03604658815413713,0.043996378114819525,-0.0007373743638396262
1761466555663750700,2.890750732421875,-0.014660393515229225,0.0513823967128992,-0.0045502106502652165
1761466555673734700,2.900734619140625,0.020994272711873055,0.04263561115562915,-0.004345774119347333
1761466555683719700,2.9107197265625,0.05712795462757349,0.02898819407522678,-0.0034242753602564333
1761466555693703700,2.92070361328125,0.06237257728278636,0.028365093740820885,-0.001449760416895151
1761466555703688700,2.930688720703125,0.0672860682874918,0.029262919363379478,0.01005801428630948
1761466555713672700,2.940672607421875,0.06574702215194701,0.010080664509534836,0.027029315092414616
1761466555723657700,2.95065771484375,0.01651362016648054,0.032415245914459226,0.027325959951430556
1761466555733641700,2.960641845703125,-0.0277238732278347,0.05497077659368515,0.0006697159551084041
1761466555743626500,2.97062646484375,-0.03560878125876188,0.051560675889253615,-0.018755407743901012
1761466555753610500,2.980610595703125,0.005937865616381168,0.037869419667124746,-0.01868248863816261
1761466555763595500,2.990595458984375,0.030858664122223853,0.016294716718792915,0.01302738548591733
1761466555773580500,3.00058056640625,0.011634323692321777,0.020231471645832062,0.051934769898653026
1761466555783564500,3.010564453125,-0.020660802973806857,0.03292261091470718,0.06252645267024635
1761466555793549600,3.020549560546875,-0.016245032358169556,0.03471826215982437,0.05004018832370639
1761466555803533600,3.030533447265625,0.0035819501399993892,0.03907879545688629,-0.0010321195267140864
1761466555813518600,3.0405185546875,0.01914309188723564,0.05954466038048267,-0.05078793795108795
1761466555823502600,3.050502685546875,0.0255932909399271,0.062275546649098394,-0.08050283886566757
1761466555833487600,3.060487548828125,0.02387976502031088,0.08522738316953182,-0.05874927221909165
1761466555843471600,3.0704716796875,-0.014550503399968146,0.0703746819525957,0.004892740477621555
1761466555853456400,3.080456298828125,-0.015740589967370034,0.04319850573539734,0.04348565211370587
1761466555863440600,3.090440673828125,0.022345687320828436,0.02882452794611454,0.05682181128785014
1761466555873425700,3.10042578125,0.05216711734980344,0.008476736444234847,0.058199967773258685
1761466555883409400,3.110409423828125,0.029332769729197024,0.014144845208525656,0.05349573560506105
1761466555893394700,3.120394775390625,-0.011669979527592658,0.03132394354641437,0.04335223499238491
1761466555903378400,3.13037841796875,0.008375029635429382,0.045423196047544474,-0.007234627428650856
1761466555913363700,3.14036376953125,0.011285071863234042,0.07430734522640704,-0.047970834703743456
1761466555923347700,3.15034765625,-0.031764380790293215,0.0633645109295845,-0.014590397018939256
1761466555933332700,3.160332763671875,-0.02978518967181444,0.03639467093944549,0.014127894073724745
1761466555943316700,3.170316650390625,0.02934942860305309,0.02599894913136959,-0.011835545352846383
1761466555953301800,3.1803017578125,0.04184124590754509,0.023598902252316475,-0.023353256928175685
1761466555963285800,3.19028564453125,-0.030858956383168695,0.0322118322968483,0.0019761223785579205
1761466555973270500,3.2002705078125,-0.0433373296841979,0.01598901177048683,0.005535860686749219
1761466555983254800,3.2102548828125,-0.007996259450912474,0.03874561797976494,-0.00895545987188816
1761466555993239600,3.220239501953125,-0.025132979951798914,0.0778694216221571,-0.004637742803245783
1761466556003223600,3.2302236328125,-0.04114771068543196,0.09591770401000976,0.010080956770479679
1761466556013208600,3.24020849609375,-0.018786533534526823,0.06464695195555686,-0.019764877047389745
1761466556023192600,3.250192626953125,-0.014770868152379988,0.05029986217319965,-0.053189300004392856
1761466556033177600,3.260177490234375,-0.046912557822465895,0.06239245102703571,-0.023080577466636894
1761466556043162600,3.27016259765625,-0.04017506626099348,0.03587736906707287,-0.003798953891545534
1761466556053146600,3.280146728515625,0.0322881124034524,0.030989597025513647,-0.039569209322333335
1761466556063131600,3.290131591796875,0.027222937968373297,0.05110767142474651,-0.04219327421560883
1761466556073115600,3.30011572265625,-0.015728315007686615,0.05176525855064392,-0.007738485297560691
1761466556083100700,3.3101005859375,-0.010089432337880134,0.04334112907648086,-0.01876782883405685
1761466556093084700,3.320084716796875,0.013463000424206256,0.04105681753158569,-0.03390489995032549
1761466556103069400,3.3300693359375,-0.01219838731586933,0.06617664574086665,-0.025886574798077343
1761466556113053400,3.340053466796875,-0.02395721417069435,0.06883212868571281,-0.027426059325039383
1761466556123038500,3.35003857421875,-0.0006692775636911391,0.06473755284845828,-0.04257219053059816
1761466556133022500,3.3600224609375,0.015264789149165153,0.042680619341135026,-0.0697603494465351
1761466556143007500,3.370007568359375,-0.010863631580770016,0.031576457002758976,-0.04994973356127739
1761466556152991500,3.379991455078125,-0.0029050737917423247,0.044265258184075354,-0.027063948014378544
1761466556162976500,3.3899765625,-0.008601531867682933,0.053071664974093435,-0.015818185248225928
1761466556172960500,3.39996044921875,-0.007256254738569259,0.07027180610001087,0.00828252904638648
1761466556182945500,3.409945556640625,-0.0060471712097525596,0.07450199101567268,0.02244812478199601
1761466556192929500,3.419929443359375,-0.016289456021785734,0.07384265032410621,0.0011931553073227404
1761466556202914800,3.429914794921875,-0.04063537724912166,0.08563479492664337,-0.03353285176753998
1761466556212898600,3.439898681640625,-0.03922814079970121,0.05011223064661026,-0.04740501751452684
1761466556222883600,3.449883544921875,-0.039084640675783155,0.042014848908782,-0.03186652599051595
1761466556232867800,3.459867919921875,-0.020410627605021,0.0241904384046793,0.009039631024003028
1761466556242856000,3.46985595703125,0.004940379011631012,0.013798808249831198,0.0480460918970406
1761466556252840000,3.47983984375,0.022506430840492246,0.022376082459092138,0.051278497947007416
1761466556262825000,3.489824951171875,0.027683541217446327,0.04668225619792938,0.03850567174404859
1761466556272809000,3.49980908203125,-0.0036959319084882733,0.061491118273138995,0.033637627316266294
1761466556282794000,3.5097939453125,0.001452244634926319,0.07929623955488205,0.033318770625442265
1761466556292778000,3.519778076171875,-0.005922083525359631,0.07471767959296703,0.020741613125056027
1761466556302763000,3.529762939453125,-0.040756957802176474,0.10033142879903316,-0.013754969108104705
1761466556312748000,3.539748046875,-0.06978723745346069,0.11182137558460235,-0.042458793283998965
1761466556322732000,3.54973193359375,-0.04790449146926403,0.1021726727515459,-0.035825785010308024
1761466556332717000,3.559717041015625,-0.011021452490985392,0.07829670712351798,-0.005922521916776895
1761466556342701000,3.569701171875,0.009110358172655104,0.04883563483953476,0.04036649717986583
1761466556352685800,3.579685791015625,0.021191548849642274,0.027218261793255805,0.05463920655176043
1761466556362669800,3.589669921875,0.013032500052452087,0.018380290821194648,0.04836728667542338
1761466556372654800,3.59965478515625,-0.042836686685681344,0.014343582651019095,0.027421529280394315
1761466556382638800,3.609638916015625,-0.049635260784626004,0.0026157354563474656,-0.0025094986028969288
1761466556392623900,3.619623779296875,-0.03614800270199776,0.025356559574604032,-0.04836436406597495
1761466556402607900,3.62960791015625,-0.011239771416783333,0.06780220111608505,-0.05583002377152443
1761466556412593000,3.639593017578125,-0.03283054871708155,0.0830102916419506,-0.04267945029735565
1761466556422577000,3.649576904296875,-0.01977612909376621,0.08434066346287727,-0.033505233108252284
1761466556432562000,3.65956201171875,0.030558219870924948,0.058225978997349735,-0.006314589974284171
1761466556442546000,3.6695458984375,0.03304652955532074,0.04190028261840343,0.014229016360640525
1761466556452531000,3.679531005859375,0.00293839153945446,0.031332126852869985,0.05222440049499273
1761466556462515000,3.689514892578125,-0.008899345770478248,0.05179565368890762,0.03397577322944999
1761466556472500000,3.6995,-0.014962299071252344,0.06597615473270416,0.00406052743718028
1761466556482484000,3.70948388671875,-0.0213996386423707,0.0761310535222292,-0.013567483711987733
1761466556492469000,3.719468994140625,-0.03202566207498312,0.02673135505914688,0.015411211882531643
1761466556502453000,3.729452880859375,-0.010467033478617667,0.02497252869307995,0.011862433359771966
1761466556512438000,3.73943798828125,0.01786474251449108,0.03119827134013176,0.011580255417525767
1761466556522422000,3.749422119140625,0.028141221857070922,0.018692425510287283,0.019850801765173672
1761466556532407000,3.759406982421875,0.01737023699581623,0.01701777029633522,0.009487959313392639
1761466556542392000,3.76939208984375,0.012411737805604934,0.03575052781701088,-0.02059811300113797
1761466556552376000,3.7793759765625,0.0025561142235994336,0.07010404831767082,-0.022052111201733348
1761466556562361000,3.789361083984375,-0.022881693893671035,0.0835071352481842,0.007372428464144468
1761466556572345000,3.799344970703125,-0.02212473804652691,0.051697454011440276,0.009362287107110023
1761466556582330000,3.809330078125,0.0026660043388605117,0.036813773134350775,-0.0165261873871088
1761466556592314000,3.819314208984375,0.0057584173962473865,0.052094344374537464,-0.023401918375492093
1761466556602299000,3.829298828125,0.027693185828626156,0.040705519875884055,-0.02332885313928127
1761466556612283000,3.839282958984375,0.05866583171933889,0.02333762096762657,-0.05142725876793265
1761466556622268000,3.849267822265625,0.046078737346827985,0.01837444560229778,-0.018891162952780722
1761466556632252000,3.859251953125,0.039729368320107455,0.05435761313140392,-0.02129033304899931
1761466556642237000,3.86923681640625,0.04678922370374203,0.049826983964443204,-0.01078501338660717
1761466556652221000,3.879220947265625,0.025576924327015874,0.08909633355736732,-0.01732259846180677
1761466556662206000,3.8892060546875,0.01661854184567928,0.09422259052991866,0.004659223982691764
1761466556672190000,3.89918994140625,0.026908757452666757,0.07998013016581534,0.0018459201276302337
1761466556682175000,3.909175048828125,0.060252516388893125,0.04285889851748943,-0.0388540467903018
1761466556692159000,3.919158935546875,0.03875497032999992,0.06789397105276584,-0.02560644268244505
1761466556702144000,3.92914404296875,0.02020633720457554,0.059066521474719046,-0.03998831151723861
1761466556712128000,3.9391279296875,0.042540334087610245,0.023295535391569137,-0.02278364034667611
1761466556722112800,3.94911279296875,0.04687105676829815,-0.04166004412174225,0.006352876158058643
1761466556732097000,3.959096923828125,0.06316811157464981,-0.06990355730950831,0.031831746938079594
1761466556742081800,3.969081787109375,0.07006108595877886,-0.016855273211002348,0.06198401635661721
1761466556752065800,3.979065673828125,0.04260989219248294,-0.025683891832828522,0.07169701659753919
1761466556762050800,3.98905078125,0.022129998743534086,-0.010731237372756004,0.04068564613163471
1761466556772036000,3.9990361328125,0.006023498073220252,0.01790273643732071,0.021932868736237288
1761466556782020000,4.00902001953125,0.020582184779644012,0.001672317126393318,0.037031215277314185
1761466556792005000,4.019005126953125,0.002810381245613098,0.02224398051202297,0.052949353768676516
1761466556801989000,4.028989013671875,-0.0005769231051206588,0.04003799587786198,0.03221840816810727
1761466556811974100,4.03897412109375,0.0015185878694057465,0.06694470750391483,0.014857377392053603
1761466556821958100,4.048958251953125,0.01073532902598381,0.08489011403918266,-0.008833440927416086
1761466556831943000,4.05894287109375,0.037754853376746174,0.08276946862339973,-0.01418956113308668
1761466556841927200,4.06892724609375,0.03542202651500702,0.09246844033896923,-0.0033668460845947264
1761466556851912000,4.078911865234375,0.03278466374874115,0.07818447892069816,0.011245032113790512
1761466556861896000,4.08889599609375,0.053445174461603163,0.05110591785907745,0.028768998366594314
1761466556871881000,4.098880859375,0.042816520680487156,0.0267827929854393,0.014161796343326568
1761466556881865000,4.108864990234375,0.03740238667726516,0.03547755609452724,-0.026425503980368373
1761466556891850000,4.11885009765625,0.04049509199559689,0.016193594431877137,-0.04477598418518901
1761466556901834000,4.128833984375,0.06366203257143498,-0.003927987098693847,-0.028882834004610777
1761466556911819000,4.138819091796875,0.0857592980891466,-0.009607201778888701,-0.0005424363136291504
1761466556921803000,4.148802978515625,0.0922515827178955,-0.03539513850808143,0.019580021999776362
1761466556931788000,4.1587880859375,0.10150544101446866,-0.04449789789617061,0.03414952236115932
1761466556941772000,4.16877197265625,0.07504501185119151,-0.05345861846506595,0.007681932804733514
1761466556951757000,4.178757080078125,0.02786123587191105,-0.029218495699763296,-0.02140928325355053
1761466556961741000,4.188740966796875,-0.004767652793228626,0.0009632920742034911,-0.02939297548383474
1761466556971725800,4.198725830078125,0.015170681124925613,0.0071639002799987785,-0.02329743508771062
1761466556981710000,4.2087099609375,0.0369172335088253,0.067115972417593,-0.005602057790756225
1761466556991694800,4.21869482421875,0.007260930913686752,0.11578501851856708,0.04061082732975483
1761466557001678800,4.228678955078125,-0.027225276055932043,0.10394728120863438,0.053541474442929025
1761466557011664000,4.238663818359375,-0.019091361699998376,0.08211655767261981,0.03452916932851076
1761466557021648000,4.24864794921875,0.04311491910517216,0.0643014995187521,0.03840031167343259
1761466557031633000,4.2586328125,0.04168167143166065,0.06469254466295242,0.03056026569753885
1761466557041618000,4.268617919921875,-0.028524960477650164,0.07234685880839824,0.025612434031814336
1761466557051602000,4.278601806640625,-0.08926672168821095,0.07720891188681125,0.006024520986527204
1761466557061587200,4.288587158203125,-0.07919687083363533,0.05562661015391349,-0.020771716002374888
1761466557071571000,4.298571044921875,-0.029561025527119634,0.023417115944623947,-0.03097133071646094
1761466557081556000,4.308555908203125,0.004845686465501785,0.04816109657883644,-0.041240941926836965
1761466557091540000,4.3185400390625,0.028923896667361258,0.0604103372991085,-0.03311418796405196
1761466557101525000,4.32852490234375,-0.0012003157004714011,0.06894260332286357,-0.0032192543074488636
1761466557111509000,4.338509033203125,0.000488075777888298,0.020647651231288908,0.012987199606001377
1761466557121494000,4.348493896484375,0.02621931388378143,-0.005070142871141433,-0.002555529701709747
1761466557131478000,4.35847802734375,0.02342296116352081,0.011213467931747436,-0.018015695292502642
1761466557141463000,4.368463134765625,0.012685001789033413,0.004490297156572342,-0.012183335877209902
1761466557151447000,4.378447021484375,-0.019679682981967924,0.01483750364780426,0.00876008343026042
1761466557161432000,4.38843212890625,-0.00820785637497902,0.006371288597583771,0.017257862662523982
1761466557171416000,4.398416015625,0.000180032742023468,0.0034054245293140407,0.01674889022707939
1761466557181401000,4.408401123046875,0.013655308125913142,0.0190881468296051,0.020781652874499557
1761466557191385000,4.418385009765625,0.02836100208759308,0.03919803792238235,0.028669775775820014
1761466557201370000,4.4283701171875,0.05032645791918039,0.056526189342141146,0.03426993387043476
1761466557211354000,4.43835400390625,0.055908057443797586,0.04549450771808624,0.010745412028580903
1761466557221339000,4.4483388671875,0.042696693693101403,0.04849018240272999,-0.02664177707955241
1761466557231323000,4.458322998046875,0.024514263531565664,0.035808980005979534,-0.011024375100433826
1761466557241308000,4.468307861328125,-0.0033709377378225323,0.015792027893662453,0.03304229177162051
1761466557251289000,4.4782890625,0.02716010186523199,0.020327917757630348,0.05506590753123164
1761466557261273000,4.488273193359375,0.058363341641426085,0.03944587520360946,0.04559373030886054
1761466557271258000,4.498258056640625,0.035979075875878334,0.07044014840424061,0.0037599370554089544
1761466557281242000,4.5082421875,0.0022813889354467392,0.05365735590755939,-0.01078676695227623
1761466557291227100,4.51822705078125,-0.005533376468718052,0.035649405530095095,-0.03354527285769582
1761466557301211100,4.528211181640625,-0.01332388421446085,0.07380699448883533,-0.016867694301158188
1761466557311196200,4.538196044921875,-0.037357963013648986,0.08417699733376502,0.00953150619417429
1761466557321180200,4.54818017578125,-0.04244593380242586,0.06264788709282874,0.029967414370924234
1761466557331165200,4.558165283203125,0.01741641422510147,0.018449848926067353,0.028587504319846628
1761466557341149200,4.568149169921875,0.06010083295851946,-0.004374561822414398,-0.010527969885617494
1761466557351134000,4.578134033203125,0.022146949878334998,0.017006664380431174,-0.013870996703207492
1761466557361118000,4.588117919921875,0.009293021263182162,0.02918517795205116,-0.007964110746979712
1761466557371103000,4.59810302734375,0.016677578556537627,0.038766660767793656,0.00012172668352723121
1761466557381087000,4.6080869140625,0.04784662380218505,0.0485766916424036,-0.008508008365333079
1761466557391072000,4.618072021484375,0.04737023846209049,0.043293782803416246,-0.03350976315289736
1761466557401056000,4.628055908203125,0.02688333075046539,0.037380174845457075,-0.03824190624132752
1761466557411041000,4.638041015625,0.03315934228003025,0.024468086302280423,-0.031776217358559365
1761466557421025000,4.64802490234375,0.057580666831135746,0.020015783068537712,-0.02875014753565192
1761466557431010000,4.658010009765625,0.04516425285041332,0.04567980115711689,-0.013286328683048486
1761466557440994000,4.667994140625,0.023073417073488235,0.04314823685288429,0.03581219487637281
1761466557450979000,4.67797900390625,0.04489887991249561,0.03183481567800045,0.04174991436228156
1761466557460963000,4.687963134765625,0.01455868670642376,0.04683656997680664,-0.021961802569776773
1761466557470948000,4.697947998046875,-0.03342939139306545,0.055660512423515315,-0.06061272800341248
1761466557480933000,4.70793310546875,-0.012983692474663256,0.03282791836857796,-0.049478901179134845
1761466557490917000,4.717917236328125,0.04596329427361488,0.01068739823102951,-0.020283786354959008
1761466557500901000,4.727901123046875,0.06307341902852058,0.02576046420037746,0.0010088847815990446
1761466557510886100,4.73788623046875,0.054074704536795616,0.04264028733074665,0.01757175091728568
1761466557520871200,4.74787109375,0.04277472736537456,0.05315466708242893,0.031196225513517854
1761466557530855200,4.757855224609375,0.010922960552573203,0.045373511686921116,0.03014759324342012
1761466557540840200,4.767840087890625,-0.004497603680193424,0.03815817348062992,-0.01604936365559697
1761466557550824200,4.77782421875,-0.011863748534023761,0.06314473069906235,-0.07930413060039282
1761466557560809200,4.787809326171875,-0.010006722490489482,0.07421031459271907,-0.09736234986037015
1761466557570793200,4.797793212890625,-0.010208674803376198,0.04295359106361866,-0.050705666495114564
1761466557580778200,4.8077783203125,-0.0025157822132110593,0.04287234252095222,-0.004640373151749372
1761466557590762200,4.81776220703125,0.027774142110347746,0.04179799128770828,0.010465279912948608
1761466557600747000,4.8277470703125,0.04022387383878231,0.03730710960924625,0.02794745285063982
1761466557610731000,4.83773095703125,-0.0027601123631000517,-0.0014788403809070586,0.04130874646604061
1761466557620716000,4.847716064453125,-0.018213994343578815,-0.008260463345050812,0.02710705650374293
1761466557630700000,4.857699951171875,-0.03448562244772911,0.02288286293745041,0.006573094779998063
1761466557640685000,4.86768505859375,0.0018164017722010612,0.05310615176558494,-0.019546411991119384
1761466557650669000,4.8776689453125,0.010386953979730605,0.05009235690236091,-0.024473493129760025
1761466557660654000,4.887654052734375,0.0005395137041807175,0.0605149667173624,-0.023353110797703264
1761466557670638000,4.89763818359375,-0.026160277172923088,0.05793313353061676,-0.02609203424230218
1761466557680623000,4.907623046875,-0.0019008651852607725,0.04166764290630817,-0.027207009746879337
1761466557690607000,4.917607177734375,-0.006654781714081764,0.020340777239203453,-0.029009529124200344
1761466557700592000,4.927592041015625,-0.012979308560490607,0.017661913418769836,-0.021607290043681858
1761466557710576000,4.937576171875,-0.015766308930516244,0.03145487644970417,-0.02327288516834378
1761466557720561200,4.94756103515625,0.011612111860513686,0.03861176246702671,-0.02624780932590365
1761466557730545200,4.957545166015625,0.037862405404448504,0.03294423822462558,-0.027291327029466628
1761466557740530000,4.967530029296875,0.01687690052092075,0.05778641853630542,-0.038516485399007795
1761466557750514000,4.977513916015625,-0.0036447862431406974,0.07051262911856174,-0.026130320426076648
1761466557760499000,4.9874990234375,-0.013461831380426883,0.05387070639729499,0.0012108370944857597
1761466557770483000,4.99748291015625,-0.007474865925312042,0.0481149193495512,0.004561754957586527
1761466557780468000,5.007468017578125,0.01773936256915331,0.037570728981494904,-0.012673165220767259
1761466557790453200,5.017453369140625,0.03364800257980823,0.02884966238737106,-0.015649550683051346
1761466557800437200,5.027437255859375,0.03532002744525671,0.014287468549609184,-0.028157588469982144
1761466557810422300,5.03742236328125,-0.00298369198590517,0.03680734339356422,-0.019675883589684962
1761466557820406300,5.04740625,-0.010814531742036343,0.0421761769503355,0.00765226831883192
1761466557830391300,5.057391357421875,0.017362053689360616,0.030320903983712195,0.020590660347044466
1761466557840375300,5.067375244140625,-0.001244154842197895,0.03747603643536567,0.016263590928167104
1761466557850360000,5.077360107421875,-0.02855038717985153,0.06272153685092925,0.0032271453529596327
1761466557860344000,5.087343994140625,-0.03435176693499088,0.08100304347276688,0.0012340718396008014
1761466557870329000,5.0973291015625,-0.027219138576090336,0.08302315112352371,-0.02160232160761952
1761466557880313000,5.10731298828125,-0.009289514131844043,0.08580898244976996,-0.02904138556718826
1761466557890298000,5.117298095703125,0.012314122650027274,0.05236205540001392,-0.012653145346045494
1761466557900282000,5.1272822265625,0.03132511259019374,0.02054945155382156,0.010728607024252414
1761466557910267100,5.13726708984375,0.0574237227037549,0.02050210528075695,-0.00012187281399965285
1761466557920251100,5.147251220703125,0.04263882602602243,0.0037479543566703794,-0.0032281682662665843
1761466557930236200,5.157236083984375,0.020655250015854835,0.01571545552611351,0.014746172102540731
1761466557940220200,5.16722021484375,0.018230945478379727,0.04203063099980354,0.0423854357868433
1761466557950205200,5.177205078125,0.010694997015595436,0.030530162820219992,0.058575815348327155
1761466557960189200,5.187189208984375,0.009233107769489287,0.017249825486540794,0.042061464529484505
1761466557970174000,5.197174072265625,0.025122166296839714,0.02143500221669674,0.017599807967990634
1761466557980158200,5.207158203125,0.039248891326785086,0.02932254059612751,0.012266045724600553
1761466557990143000,5.21714306640625,0.0077414079070091246,0.0429255340129137,0.024833997005224227
1761466558000127000,5.227126953125,-0.0118795306250453,0.03780570678114891,0.03357069955989718
1761466558010112000,5.237112060546875,0.01577946067303419,0.031005379116535184,0.031337387549877166
1761466558020096000,5.247095947265625,0.017539456082880496,0.01809212152957916,0.018866905294358728
1761466558030081000,5.2570810546875,0.019133739537000656,0.015572832185029983,0.03210164992064237
1761466558040065000,5.26706494140625,0.04554740694910288,0.027292496073246,0.0379366396844387
1761466558050050000,5.277050048828125,0.05340542697310447,0.04131576072871685,0.0432340154401958
1761466558060034000,5.287033935546875,0.006636661535501479,0.03310673530995845,0.03707710024565458
1761466558070019000,5.29701904296875,-0.01576718571335077,0.040546529921889306,0.0072968790099024764
1761466558080003000,5.307003173828125,0.004437397925555706,0.05729483562707901,-0.02849704955741763
1761466558089988000,5.316988037109375,0.02912994063347578,0.05283844074010849,-0.006176204416900873
1761466558099972000,5.32697216796875,0.04663607896864414,0.043378538477420805,0.03124284113422036
1761466558109957000,5.33695703125,0.06757745244950056,0.03152501907646656,0.03263780262395739
1761466558119942100,5.346942138671875,0.034415772081911565,0.03084872725009918,0.0345261005885899
1761466558129926100,5.356926025390625,-0.014243044885993003,0.01846738458275795,0.020228110644966362
1761466558139911200,5.3669111328125,-0.029465163937211034,0.023995208093523977,-0.01345540163964033
1761466558149895200,5.376895263671875,-0.011132219389081,0.06687865653038025,-0.02990340922400355
1761466558159880200,5.386880126953125,-0.03201251033246517,0.08488485334217548,-0.014235446101427077
1761466558169864200,5.3968642578125,-0.02314239065647125,0.07916472212970256,0.003388035003095865
1761466558179849200,5.40684912109375,0.024245967984199524,0.04765197801291942,0.009960837522149085
1761466558189833200,5.416833251953125,0.06999824985563755,0.016631401327252385,0.002647153507918119
1761466558199818200,5.426818359375,0.05016337631195783,0.022921441382169724,0.01951864720135927
1761466558209802200,5.43680224609375,0.012043489015102386,0.02584814248383045,0.049601796906441446
1761466558219787000,5.446787109375,0.0011143909826874733,0.02919745291173458,0.03162599523290992
1761466558229771300,5.456771240234375,0.014584405669569969,0.014482698860764502,0.013513415437191725
1761466558239756000,5.466756103515625,-0.009080547556281088,0.03966039473712444,-0.016432371623814106
1761466558249740300,5.476740234375,-0.028830957686901092,0.0751198306530714,-0.0406457525126636
1761466558259725300,5.486725341796875,-0.0429781409829855,0.08892214603424071,-0.03268880215883255
1761466558269709300,5.496709228515625,-0.034089316606521605,0.08175064696967602,-0.045530455814301964
1761466558279694300,5.5066943359375,-0.03585457271337509,0.053884734922647476,-0.03857537597939372
1761466558289678300,5.51667822265625,-0.02104191124588251,0.061540802633762354,-0.03201616359427571
1761466558299663400,5.526663330078125,-0.019116203880310056,0.07070026064515113,-0.02623158884346485
1761466558309647400,5.5366474609375,-0.04166881195008754,0.05848316862881183,-0.0338205826677382
1761466558319632400,5.54663232421875,-0.04212240093648433,0.0460363595098257,-0.03678206282183528
1761466558329616400,5.556616455078125,-0.049100423255562776,0.05340133531987667,-0.020392361295968293
1761466558339601200,5.56660107421875,-0.025345453658699987,0.04690554355978965,-0.017217092260718346
1761466558349585400,5.57658544921875,-0.020891396859288213,0.05524842449128627,-0.024225801979005337
1761466558359570200,5.586570068359375,-0.005530161598324776,0.061418053036928176,-0.01937134768515825
1761466558369554200,5.59655419921875,-0.00561316370666027,0.06407412050366401,-0.028987755683809516
1761466558379539200,5.606539306640625,0.0003077507749199867,0.06352408540546893,-0.04695902731269598
1761466558389523200,5.616523193359375,0.012599369332194327,0.04765782323181629,-0.06474091384932398
1761466558399508200,5.62650830078125,-0.016134849981963635,0.05292319641411304,-0.044654403632134194
1761466558409492200,5.6364921875,-0.05218523752838373,0.059682023024559015,-0.015154168381541967
1761466558419477200,5.646477294921875,-0.023032500541210175,0.04272562752664089,0.014129939900338648
1761466558429461200,5.656461181640625,0.019589082089066505,0.04147182807326317,0.001864332567155361
1761466558439446300,5.6664462890625,0.019563363125920295,0.03714928869903088,-0.020443068569898606
1761466558449430300,5.67643017578125,-0.021254384952783582,0.0756383015692234,-0.03360314052477479
1761466558459415300,5.686415283203125,-0.022785832303762434,0.07342413265109062,-0.03175006000399589
1761466558469399300,5.6963994140625,0.019274024790525434,0.06996668567359447,-0.03799947578758001
1761466558479384000,5.706384033203125,0.0010515548795461654,0.06853519156575202,-0.03311170374602079
1761466558489368300,5.716368408203125,-0.011881284190714358,0.054229602837562556,0.0072812430493533606
1761466558499353000,5.72635302734375,-0.005091477920114993,0.03702244744896888,0.014626491245627402
1761466558509338400,5.73633837890625,0.00983516531586647,0.012481295910477638,0.011007570096105337
1761466558519322000,5.746322021484375,0.021096564042568204,0.01208732815682888,-0.01099456448405981
1761466558529307400,5.756307373046875,-0.0028939678758382794,0.015570494097471237,-0.022204233023524284
1761466558539291400,5.76629150390625,-0.020399813950061796,0.01617898138463497,-0.0079788699246943
1761466558549276400,5.7762763671875,0.006551321339607239,0.013346972829103469,-0.010587737248837947
1761466558559260400,5.786260498046875,0.0107096100628376,0.018480244064331054,-0.011930530159920454
1761466558569245400,5.796245361328125,0.001708265222609043,0.020653496450185774,-0.016783084757626056
1761466558579229400,5.8062294921875,0.0006324526846408844,0.037521044620871545,-0.01506575944572687
1761466558589214200,5.816214111328125,-0.0067830842688679695,0.04054886800944805,-0.0015294015243649483
1761466558599198500,5.826198486328125,-0.002199555870890617,0.03128770318925381,-0.009821282920986413
1761466558609183200,5.836183349609375,0.020516133806109428,0.03930968160331249,-0.007697714895755052
1761466558619167200,5.846167236328125,0.009705401456356047,0.029842180556058882,-0.015693535955250262
1761466558629152300,5.85615234375,0.023270400950312613,0.03320025881230831,-0.011276157904416322
1761466558639136300,5.86613623046875,0.05124795667827129,0.027067455145716665,-0.02530219903886318
1761466558649121300,5.876121337890625,0.04195230506658554,0.026677579045295715,-0.011194178709387778
1761466558659105300,5.886105224609375,0.0370522580653429,0.03818213887810707,0.017894553130865097
1761466558669090300,5.89609033203125,0.06669687022268772,0.04060439758896828,0.025523002182692288
1761466558679074300,5.90607421875,0.035327626229822634,0.04191197305619716,0.00046703298985958095
1761466558689059300,5.916059326171875,-0.0033960721790790554,0.053878305181860923,-0.028361440479010343
1761466558699043300,5.926043212890625,-0.0037245734810829162,0.0690069007307291,-0.054511488518863914
1761466558709028400,5.9360283203125,0.02838262939751148,0.040890813314914704,-0.038256519288569685
1761466558719012400,5.946012451171875,0.029327216771245,0.026439094114303587,0.007530980026721954
1761466558728997000,5.9559970703125,0.04792436521351337,0.027943653458356855,0.04097074668332934
1761466558738981000,5.965981201171875,0.060707274419069285,0.027481881165504454,0.02381225274205208
1761466558748966100,5.975966064453125,0.027601415891945362,-0.003759644794464111,-0.00020180618241429326
1761466558758950100,5.9859501953125,0.017846330074965954,-0.010799041911959647,-0.0336734292820096
1761466558768935200,5.99593505859375,0.04098170646876097,0.044182256075739855,-0.06606383301615715
1761466558778919200,6.005919189453125,0.03474836503714323,0.084117376101017,-0.07270604750961066
1761466558788904200,6.015904296875,0.01594078871458769,0.08270809382498263,-0.057647740717977285
1761466558798888200,6.02588818359375,0.019934242264926433,0.07318564772009849,-0.008508008365333079
1761466558808873200,6.035873291015625,0.038246436285972595,0.07044014840424061,0.030070728614926337
1761466558818857200,6.045857177734375,0.033899346992373465,0.05906769051849842,0.03455854155346751
1761466558828842200,6.05584228515625,0.030868893255293368,0.05500818599462509,0.04560585913807153
1761466558838826200,6.065826171875,0.016567396180331706,0.020076573345065116,0.04911547469422221
1761466558848811300,6.075811279296875,0.016869301736354828,0.020634791749715803,0.02265212292149663
1761466558858795300,6.085795166015625,0.007755436432361602,0.04466273306906223,0.00032367899641394613
1761466558868780300,6.0957802734375,0.0023684826970100403,0.0402548534989357,-0.0030396599568426608
1761466558878764000,6.105763916015625,0.022325813576579093,0.024164719441533086,-0.00889583863914013
1761466558888749300,6.115749267578125,0.04789923077225685,0.0171492877215147,-0.034722792204469444
1761466558898733300,6.1257333984375,0.07255816347151994,0.01960311061441898,-0.05870850181728601
1761466558908718300,6.13571826171875,0.052205403533577915,0.0103828623265028,-0.02511222942471504
1761466558918702300,6.145702392578125,0.045916532522439955,-0.007014262676239013,0.016045418132841587
1761466558928687400,6.155687255859375,0.04356792356967926,0.00433656789958477,-0.0065327627696096895
1761466558938671400,6.16567138671875,0.02397767243683338,0.02125321590900421,0.009911737683415413
1761466558948656400,6.175656494140625,0.019379238730669022,0.037241058635711664,0.02525938281044364
1761466558958640400,6.185640380859375,0.03680032913088798,0.02979308071732521,0.043370647431910034
1761466558968625400,6.19562548828125,0.08276917636245489,0.004547580301761627,0.012931962287425994
1761466558978609400,6.205609375,0.09284545695781707,0.008613514566421508,-0.01756210630610585
1761466558988594200,6.21559423828125,0.0668500149577856,0.004994739547371864,0.0017645254544913767
1761466558998578400,6.225578369140625,0.09418459660708904,0.002241056925058365,-0.0030126258194446563
1761466559008563200,6.235563232421875,0.09496259524226187,0.023538111975789068,-0.007787000614404678
1761466559018547200,6.245547119140625,0.06843056214749813,0.016363105779886245,0.019672522588819265
1761466559028532200,6.2555322265625,0.04353285225629806,0.009067103552818298,0.03225143365487456
1761466559038516200,6.26551611328125,0.039217911666631695,0.033199089768528936,0.03277165813669562
1761466559048501200,6.275501220703125,0.0002639116331934929,0.03427461004555225,0.021189210762083528
1761466559058485200,6.2854853515625,0.002153378641605377,0.037518706533312796,0.0051170507527887816
1761466559068470300,6.29547021484375,0.003141805157065391,0.052446226552128786,-0.014611585937440394
1761466559078454300,6.305454345703125,-0.018549802169203756,0.06259411107897758,-0.027821780644357204
1761466559088439300,6.315439208984375,-0.011971885083615779,0.06191197403371334,-0.018326514807343482
1761466559098423300,6.32542333984375,0.021631109310686587,0.05007072959244251,0.0011899404369294642
1761466559108408300,6.335408203125,0.06076806469559669,0.03681786478757858,-0.017164485290646552
1761466559118393000,6.34539306640625,0.05561725780367851,0.04561959540247917,-0.005874737252295017
1761466559128377000,6.355377197265625,0.028479075509309767,0.03286182063817978,0.012693185095489024
1761466559138361000,6.365361083984375,0.02269289332330227,0.019985972452163697,0.005413695611804724
1761466559148346000,6.37534619140625,0.023809330132603643,0.011935936987400054,0.0200521695561707
1761466559158330000,6.385330078125,0.0007896890729665756,0.010931143859028816,0.01641673566326499
1761466559168315100,6.395315185546875,0.02025982095748186,0.02123801833987236,-0.007708090159296989
1761466559178299100,6.405299072265625,0.01670797369480133,0.035361236238479615,-0.013128361642360687
1761466559188284200,6.4152841796875,-0.01932078654170036,0.04544073170423507,0.005966653319448232
1761466559198269400,6.42526953125,-0.032986616061627866,0.04276771310269832,0.01839914165213704
1761466559208253400,6.43525341796875,0.006655950757861137,0.04104804970324039,0.008071078252792357
1761466559218237200,6.4452373046875,0.009222586375474929,0.03357143021225929,0.015494652382284401
1761466559228222500,6.455222412109375,0.016558920612931252,0.02892857284247875,0.0020684768371284005
1761466559238207200,6.465207275390625,0.03850041104704141,0.02310147412419319,-0.0067751932233572005
1761466559248191700,6.475191650390625,0.030050854870676994,0.041593408626317975,-0.011030658710747956
1761466559258176800,6.4851767578125,0.003058510787785053,0.037976971694827076,0.024488398437947034
1761466559268160800,6.495160888671875,0.010513795229792594,0.035518472626805304,0.059419864957034586
1761466559278145800,6.505145751953125,0.03502805876135826,0.02703238383233547,0.04137114417776465
1761466559288129800,6.5151298828125,0.019960838010907173,0.026064415583014488,0.009589519991725682
1761466559298114800,6.52511474609375,-0.0037426936596632,0.046446693876385683,-0.014259996020793914
1761466559308098800,6.535098876953125,0.01075315694361925,0.04119768730700016,-0.023845570489764212
1761466559318083800,6.545083740234375,0.0445160180747509,0.04202946195602417,-0.0023364801235496997
1761466559328067800,6.55506787109375,0.02814823611974716,0.029759178447723387,0.03992708284929394
1761466559338052900,6.565052978515625,0.012660159608721732,0.02260521503984928,0.07409823252037168
1761466559348036900,6.575036865234375,0.036113223649561405,0.0118511813133955,0.050706251017004246
1761466559358021600,6.585021728515625,0.036655952224135396,0.011971008300781249,0.009058627985417842
1761466559368005600,6.595005615234375,-0.020863339808583257,0.019576807129383086,-0.003947130190581083
1761466559377990700,6.60499072265625,-0.028146774815022944,0.06046060618162155,-0.020322218669205902
1761466559387974700,6.614974609375,0.010999240659177303,0.07716215013563632,-0.03346051718369126
1761466559397959700,6.624959716796875,0.023888825109601018,0.0685322689563036,-0.01933145406618714
1761466559407943700,6.634943603515625,-0.017150456765294073,0.0534784922093153,0.032710137207806106
1761466559417928700,6.6449287109375,-0.018351649248600006,0.039755087283253665,0.07684387796670197
1761466559427912700,6.65491259765625,0.01132744970023632,0.026215222230553625,0.07858531480655073
1761466559437897700,6.664897705078125,0.02479951021373272,-0.005138531932234764,0.07675210803002118
1761466559447881700,6.6748818359375,0.058497197154164314,-0.0022848960667848587,0.042715544524043796
1761466559457866800,6.68486669921875,0.0330962139159441,0.006578209346532821,0.0037841947138309477
1761466559467850800,6.694850830078125,-0.015217442876100539,0.028729250878095625,-0.011331687483936547
1761466559477835800,6.704835693359375,-0.0326756504163146,0.030650574329495427,0.006058569386601448
1761466559487819800,6.71481982421875,-0.0019248305827379226,0.01823649843633175,0.0217635035187006
1761466559497804800,6.7248046875,0.019772037440538404,0.027464930030703542,0.012226005975157021
1761466559507788500,6.73478857421875,0.024696342100203036,0.061954644131660457,0.0014808862075209616
1761466559517773800,6.74477392578125,0.025131518647074698,0.03199555919766426,-0.016853373514860867
1761466559527757800,6.7547578125,0.03096680067181587,0.04709434413015842,-0.00480170119330287
1761466559537742800,6.764742919921875,0.0056529111951589585,0.04595686453282833,0.020015344677120447
1761466559547726800,6.774726806640625,-0.00628156448751688,0.0520493361890316,0.02483779639750719
1761466559557712000,6.7847119140625,0.011973930910229682,0.061759413820505135,0.01564706646502018
1761466559567696000,6.79469580078125,0.04830547348558902,0.014983634120225905,-0.006223404559493065
1761466559577681000,6.804680908203125,0.027997721733152865,0.004710077387094497,-0.013174977263063192
1761466559587665000,6.814664794921875,-0.004378945736587047,0.020738836646080016,-0.016886106740683315
1761466559597650000,6.82464990234375,0.0020677461847662926,0.0254015677601099,-0.006002309154719114
1761466559607634000,6.834634033203125,0.07429390122294426,0.017653145590424538,-0.019140607669204474
1761466559617618700,6.84461865234375,0.07835574383437634,0.01700724890232086,-0.03625102468505501
1761466559627602700,6.854602783203125,0.03080342680364847,0.03865618613064289,-0.015676146429032086
1761466559637587700,6.864587646484375,0.00921557211279869,0.04018178826272487,0.022047435026615856
1761466559647571700,6.87457177734375,0.05098199921846389,0.02393792494833469,0.044985535282641646
1761466559657556700,6.884556640625,0.05660100814402103,0.029403204616904256,0.03630786943882704
1761466559667540700,6.894540771484375,0.006155600020289421,0.07543956412672996,0.048391690464317794
1761466559677525800,6.90452587890625,-0.013479659298062325,0.050261868250370025,0.059649728190153836
1761466559687509800,6.914509765625,0.06794687028378248,-0.024339491486549375,-0.01186725566536188
1761466559697494800,6.924494873046875,0.06269874049723148,0.0370218629270792,-0.04241290831565857
1761466559707478800,6.934478759765625,-0.0107575408577919,0.04466097950339317,-0.01996156866326928
1761466559717463800,6.9444638671875,-0.025555589278042315,0.04414075502157211,0.034836920103430744
1761466559727447800,6.95444775390625,0.044570670871436596,0.01872574325799942,0.06642594432681799
1761466559737432800,6.964432861328125,0.08676818287074566,0.019703063857555388,0.04124108805730939
1761466559747416800,6.974416748046875,0.022900398594141006,0.04395136992931366,0.011563158152252435
1761466559757401600,6.984401611328125,-0.012607844899594782,0.048398996987938876,0.01818520664051175
1761466559767385600,6.994385498046875,0.02045534352958202,0.009021510845422744,0.026571488322317597
1761466559777370600,7.00437060546875,0.08802285910695791,0.021079028385877607,-0.0026451076813042164
1761466559787354600,7.014354736328125,0.051367783665657044,0.023610592690110205,-0.0036306115873157977
1761466559797339600,7.024339599609375,-0.017271452796459197,0.029720015481114387,0.021878362070024013
1761466559807323600,7.03432373046875,-0.006527355942130089,0.03892623524367809,0.02671893396899104
1761466559817308700,7.04430859375,0.036678748577833174,0.05078209273219108,0.017414076137542724
1761466559827292700,7.054292724609375,0.03907470380365848,0.05356850858032703,0.025724662234634158
1761466559837277700,7.064277587890625,0.019163550153374672,0.021445523610711097,0.013438304374366997
1761466559847261700,7.07426171875,0.05388005874752998,-0.016068506747484206,-0.03906768954098224
1761466559857247000,7.0842470703125,0.0541819643035531,0.03275660669803619,-0.0579476004473865
1761466559867230700,7.094230712890625,0.0061550154983997345,0.04720072711408138,-0.037868542884290216
1761466559877215700,7.1042158203125,-0.001708265222609043,0.04666004436612129,0.014362141221016644
1761466559887200000,7.114199951171875,0.02343523612320423,0.06653846479058265,0.0334196006514132
1761466559897184800,7.124184814453125,0.030335224770009515,0.09764613523781299,0.022783786477148533
1761466559907168800,7.134168701171875,0.006223989081382751,0.08376666296720504,-0.01063157639056444
1761466559917153800,7.14415380859375,-0.014969021072983741,0.06304770006537437,-0.07407017546966671
1761466559927137800,7.1541376953125,-0.04263561115562915,0.07804945436418056,-0.13364479259699583
1761466559937122800,7.164122802734375,-0.05889145716875791,0.05405483079254627,-0.13298121412172914
1761466559947106800,7.17410693359375,-0.03279723096936941,0.011471242085099219,-0.09288739640340209
1761466559957091800,7.184091796875,-0.011674947963654994,-0.018413608568906784,-0.05917538867667317
1761466559967075800,7.194075927734375,0.029599019449949263,0.0035281741261482236,-0.032032384076714514
1761466559977060900,7.204060791015625,0.0738081635326147,0.007800444617867469,-0.024940964511036872
1761466559987044900,7.214044921875,0.08725771995335817,-0.017723872739076614,-0.050027621103078124
1761466559997030000,7.22402978515625,0.02509527828991413,0.014770868152379988,-0.09436229126155377
1761466560007014000,7.234013916015625,-0.009679390232264995,0.07796177608072757,-0.12695771604850886
1761466560016998700,7.24399853515625,0.0064370473101735114,0.09611410336494446,-0.12166852359920739
1761466560026983000,7.25398291015625,0.06217559340596199,0.0884083512932062,-0.09763590610474347
1761466560036967700,7.2639677734375,0.03340834860503673,0.09171849875450133,-0.05741670844107866
1761466560046951700,7.27395166015625,0.0035199908196926113,0.0907744959026575,-0.013548340620100498
1761466560056936700,7.283936767578125,0.020464403618872164,0.04775836099684238,-0.0029508126296103
1761466560066920700,7.293920654296875,0.05726473274976015,0.01227729777097702,-0.021794044787436722
1761466560076905700,7.30390576171875,0.005000877027213573,0.020235563299059865,-0.03821048818975687
1761466560086889700,7.3138896484375,-0.05857026239037513,0.02761106050312519,-0.05015928465873003
1761466560096874800,7.323874755859375,-0.05955985794961452,0.027696985220909118,-0.028442396760731934
1761466560106858800,7.333858642578125,-0.011077566592395305,0.050720717933773994,-0.019892010558396577
1761466560116843800,7.34384375,0.02624590962976217,0.05386310761272907,-0.02461407064422965
1761466560126827800,7.353827880859375,0.02425824294388294,0.016395839005708693,-0.01370659992173314
1761466560136812800,7.363812744140625,0.02183130805790424,0.014134908336400985,-0.005188070162385702
1761466560146796800,7.373796875,-0.0024389175847172734,0.021940029129385946,0.013038345271348952
1761466560156781600,7.383781494140625,-0.03370002502799034,0.0178857853025198,0.02548836926072836
1761466560166765600,7.393765625,-0.04294949941039085,0.04851356327831745,0.06313786256685852
1761466560176750600,7.40375048828125,-0.009788403564691543,0.05035246914327144,0.06097571609690785
1761466560186734600,7.413734619140625,0.02042319482564926,0.04643500343859196,0.021649375619739293
1761466560196719900,7.423719970703125,0.020125965444743633,0.06498480560779571,-0.006279372530430555
1761466560206703600,7.43370361328125,0.002771218279004097,0.03248363497555256,-0.009947685779631137
1761466560216689000,7.44368896484375,0.03168050189912319,-0.006379471904039383,-0.01291121176034212
1761466560226673000,7.4536728515625,0.044189270338416096,0.01687573147714138,-0.02387815758511424
1761466560236658000,7.463657958984375,0.01979191118478775,0.03445347374379635,-0.008872603894025086
1761466560246642000,7.473641845703125,0.003927987098693847,0.052715106621384615,0.036058570852875706
1761466560256627000,7.483626953125,0.02683423091173172,0.06271218450069427,0.053300651424378155
1761466560266610700,7.493610595703125,0.015594459494948386,0.06846154180765152,0.0372547949001193
1761466560276595700,7.503595703125,0.0015083587363362311,0.04830722705125808,0.02258198029473424
1761466560286580000,7.513580078125,0.02294599130153656,0.021631986093521117,0.005980389583855867
1761466560296564700,7.523564697265625,0.020109306570887563,0.018149989196658133,-0.015752426535636185
1761466560306548700,7.533548828125,0.0009738134682178497,0.012618658554553986,-0.03433291610404849
1761466560316533800,7.54353369140625,-0.02002104376554489,-0.011831892091035842,-0.016346154645085334
1761466560326517800,7.553517822265625,-0.01004471641331911,-0.0017255086183547972,0.007764204260706901
1761466560336502800,7.563502685546875,0.024915245547890662,0.04177168780267238,0.025670447829365728
1761466560346486800,7.57348681640625,0.06992343105375766,0.01660217523276806,0.03148907098025083
1761466560356471800,7.583471923828125,0.08405220191031694,0.019763269612193105,0.035033319458365436
1761466560366455800,7.593455810546875,0.046286827139556404,0.02011398274600506,0.04514554814994335
1761466560376440800,7.60344091796875,0.01876782883405685,0.014313187512755393,0.03894976224973797
1761466560386424800,7.6134248046875,0.026985914342105385,0.014863807132840155,0.03632818157449364
1761466560396409900,7.623409912109375,0.03847732243239879,0.0132236387103796,0.029748072531819342
1761466560406393900,7.633393798828125,0.03651274436116218,0.03137421242892742,0.036546646630764006
1761466560416378600,7.643378662109375,0.04372252960950136,0.00891629690527916,0.04250058659911155
1761466560426363000,7.65336279296875,0.03280687558054924,-0.0026338556349277493,0.03242971283122897
1761466560436347600,7.66334765625,0.006721417209506034,0.021301731225848195,0.048713615895062685
1761466560446331600,7.67333154296875,-0.004649287110567093,0.021865210327506063,0.05686375073343515
1761466560456316700,7.683316650390625,0.01851999155282974,0.016408698487281798,0.0361253524787724
1761466560466300700,7.69330078125,0.025694413226842877,0.032874095597863195,0.04541822761148214
1761466560476285700,7.70328564453125,0.011538462102413176,0.03445931896269321,0.05489566553086042
1761466560486269700,7.713269775390625,0.012150748781859875,0.05054828397631645,0.03911109029129147
1761466560496254700,7.723254638671875,0.025223873105645177,0.047048751422762866,0.020263035827875135
1761466560506238700,7.73323876953125,0.03352992915809154,0.03594283551871776,0.0048706747762858865
1761466560516223700,7.7432236328125,0.025883213797211646,0.030071313136816023,-0.013759206891804933
1761466560526207700,7.753207763671875,0.030436054795980452,0.022200725892186163,-0.01547141763716936
1761466560536192800,7.76319287109375,0.07827537207454442,0.004467500802874565,0.0011820493914186953
1761466560546176800,7.7731767578125,0.07438362533301114,0.00796644883453846,0.0028705870002508163
1761466560556161500,7.78316162109375,0.03772095110714435,0.03386895185410976,-0.016922493228316307
1761466560566145500,7.7931455078125,0.02466740826666355,0.06104805068075657,-0.03876812207251787
1761466560576130600,7.803130615234375,0.04469371272921562,0.054664487123489376,-0.04650076215118169
1761466560586114600,7.813114501953125,0.057633858323097226,0.035305706658959386,-0.028909575881063937
1761466560596099600,7.823099609375,0.06852233208417892,0.02202887645661831,-0.016675532729923725
1761466560606083600,7.83308349609375,0.07225508887171744,0.021199439895153046,-0.02382745031118393
1761466560616068900,7.84306884765625,0.0612885814383626,0.009494973576068877,-0.025822715781629084
1761466560626052600,7.853052490234375,0.051341772441565986,-0.004507248291373253,-0.051599108203500506
1761466560636038000,7.863037841796875,0.04419979173243046,0.023624621215462684,-0.09707637252584099
1761466560646022000,7.87302197265625,0.07843290072381497,0.049314358267188066,-0.12932313000559806
1761466560656007000,7.8830068359375,0.0372831442117691,0.05636836843192577,-0.11269041350409388
1761466560665991000,7.892990966796875,0.018155249893665314,0.05983341419398784,-0.058848202548921105
1761466560675975700,7.9029755859375,0.034765023910999296,0.058494859066605565,0.0036162908010184762
1761466560685960000,7.9129599609375,0.06962064871490001,0.02217208431959152,0.04061491898298263
1761466560695944000,7.92294384765625,0.0934153658002615,0.009774375039339065,0.04530570714771747
1761466560705928700,7.9329287109375,0.07458236277550459,0.004963175365328788,0.04909370125383138
1761466560715912700,7.94291259765625,0.0306692790299654,-0.0011725509107112884,0.01813376871421933
1761466560725897700,7.952897705078125,0.019399112474918365,0.006259060394763946,-0.020364742636680602
1761466560735881700,7.9628818359375,-0.0049517771884799,0.024715923583507535,-0.02843231375813484
1761466560745866800,7.97286669921875,0.024281039297580718,0.02446165656149387,-0.03572948502898216
1761466560755850800,7.982850830078125,0.03033727059662342,0.05510229401886463,-0.04859919573515653
1761466560765835800,7.992835693359375,0.01592237627506256,0.06290566124618054,-0.01884118633121252
1761466560775819800,8.00281982421875,0.014618015678226947,0.03971943144798278,0.0047914720602333545
1761466560785804800,8.0128046875,0.032198680554330346,0.019637012884020803,0.0018690087422728538
1761466560795788800,8.022788818359375,0.0205740014731884,0.019790742141008375,0.008900076422840356
1761466560805773800,8.03277392578125,0.013064064234495161,-0.00041793315112590785,-0.00039791327640414237
1761466560815757800,8.0427578125,0.040159576430916784,0.011150924089550972,-0.007554214771836995
1761466560825742800,8.052742919921876,0.032247488132119174,0.04324643653035164,0.0017795768931508063
1761466560835726800,8.062726806640624,-0.020720131945610044,0.07145195579528808,0.0375153455324471
1761466560845711600,8.072711669921874,-0.0292684723213315,0.040566403666138645,0.05621697726249694
1761466560855695600,8.082695556640624,0.017882278171181678,0.032470775493979455,0.029545827957987783
1761466560865680600,8.0926806640625,0.03382569723427296,0.05543196436464786,0.02328589078038931
1761466560875664600,8.10266455078125,0.010004092141985893,0.038815760606527326,0.02842792984396219
1761466560885649700,8.112649658203125,0.013314239603281021,0.02393500233888626,0.004620937798917293
1761466560895633700,8.122633544921875,0.024854455271363256,0.03613455869853496,0.013357055831700562
1761466560905618700,8.13261865234375,0.025321488261222838,0.014752747973799704,0.058915568696707485
1761466560915602700,8.142602783203126,0.028854630823433397,-0.004229600393772125,0.08662453661635518
1761466560925587700,8.152587646484376,0.022043489503860474,0.005112812969088554,0.0879363498672843
1761466560935571700,8.16257177734375,-0.0049491468399763105,0.03055237465202808,0.07324833769276738
1761466560945556700,8.172556640625,-0.02434445992261171,0.026325112345814704,0.06006970716789364
1761466560955540700,8.182540771484375,-0.008303717964887618,0.020296353575587272,0.030554566609114407
1761466560965525500,8.192525390625,-0.019220833298563954,0.04003916492164135,0.01657923274859786
1761466560975509800,8.202509765625,-0.02715922508239746,0.04778641804754734,0.018260756094753743
1761466560985494500,8.21249462890625,0.012404723542928695,0.042349195429682726,0.02559314480945468
1761466560995478500,8.222478515625,0.03432604797184467,0.033170448195934295,0.026909488105028866
1761466561005463800,8.2324638671875,0.03442249408364296,0.03836977040469646,0.036744361159950494
1761466561015447600,8.242447509765626,0.028104981499910354,0.02630699216723442,0.038917175154387945
1761466561025432800,8.252432861328124,0.030161914029717445,0.0077162734657526015,0.02849880312308669
1761466561035416800,8.262416748046874,0.03374474095255136,0.01965630210638046,0.005805617538839578
1761466561045401900,8.27240185546875,0.0033890579164028165,0.05395721563696861,-0.0004677636422216892
1761466561055385900,8.2823857421875,-0.029274902062118052,0.04500643194019794,0.03359437269642949
1761466561065371000,8.292370849609375,-0.018975041843950748,0.028638649985194206,0.02789353070631623
1761466561075355000,8.30235498046875,-0.004573299264907836,0.041237434795498844,-0.003067717007547617
1761466561085340000,8.31233984375,-0.0007213000118732452,0.053117257681488984,-0.01006955859363079
1761466561095324000,8.322323974609375,-0.0010807809740304947,0.06904781726300716,-0.0036326574139297005
1761466561105308700,8.33230859375,0.015920038187503812,0.08576222069859504,-0.010717939499765634
1761466561115292700,8.342292724609376,0.004368424342572689,0.07834580696225166,-0.022469605961441992
1761466561125277700,8.352277587890624,-0.007361760939657688,0.07297580436170101,-0.027723288705945013
1761466561135261700,8.36226171875,0.022144027268886566,0.05732523076534271,-0.028509032256156204
1761466561145246700,8.372246826171875,0.05889233395159244,0.030879706910252568,-0.02135594563111663
1761466561155230700,8.382230712890625,0.06218143862485885,0.0015530746608972549,-0.0003964519716799259
1761466561165215700,8.3922158203125,0.053098260720074175,-0.005964461362361908,0.02396422843337059
1761466561175199700,8.40219970703125,0.010341653533279895,0.03269464737772941,0.0024584990680217743
1761466561185184800,8.412184814453125,-0.04025222315043211,0.07263561262190342,-0.03420154480934143
1761466561195168800,8.422168701171875,-0.030611119101941583,0.0764268215984106,-0.052744917237758634
1761466561205153800,8.43215380859375,0.04386544521152973,0.06701075847744942,-0.03731792326420545
1761466561215137800,8.4421376953125,0.04911036012768745,0.05154255571067333,-0.012517097876220941
1761466561225122800,8.452122802734374,0.025495968045294283,0.02674129193127155,0.014439151979982853
1761466561235106800,8.46210693359375,0.015560849486291408,-0.0048860184758901595,0.017894553130865097
1761466561245091600,8.472091552734375,0.002692307823896408,-0.021018238109350204,0.00012260346636176108
1761466561255075300,8.482075439453125,-0.0016670564293861387,-0.0021159692406654356,-0.014919482842832803
1761466561265060400,8.492060302734375,0.02772036609649658,0.011876900276541709,-0.042807168330252166
1761466561275044400,8.50204443359375,0.23269290358722208,0.06790332340300083,-0.08413885728046297
1761466561285029400,8.512029296875,0.10817746612429618,0.05178396325111389,-0.06924743148833513
1761466561295013400,8.522013427734375,-0.1116360821455717,-0.022049334722757337,-0.03214271258339286
1761466561304998400,8.531998291015626,0.0296627323359251,0.07631517791748046,-0.015424071364104747
1761466561314982400,8.541982421875,0.018154665371775625,0.036057401809096334,0.025541268491744994
1761466561324967400,8.551967529296874,-0.03850187235176563,0.0324468100965023,0.07430603005215525
1761466561334951400,8.561951416015624,-0.045506782677769655,0.059093409481644626,0.06914148689582944
1761466561344936400,8.5719365234375,-0.05243132124394178,0.07290683077871798,0.03340966377928853
1761466561354920400,8.58192041015625,-0.06924947731494903,0.06333236222565174,-0.0038515608616173265
1761466561364905500,8.591905517578125,-0.0557528668820858,0.028955460849404334,-0.0407929058983922
1761466561374889500,8.601889404296875,0.014108020329475402,0.01950958711206913,-0.07386880767866968
1761466561384874500,8.61187451171875,0.08542144443690776,0.005039747732877731,-0.0820334094338119
1761466561394858200,8.621858154296875,0.12405103482156991,-0.006323942324519157,-0.05527092858403921
