time,seconds_elapsed,z,y,x
1761466530418533000,0.110533203125,0.04449322172105312,0.0223994633346796,-0.03749327983111143
1761466530428518400,0.120518310546875,0.05500818599462509,0.025397476106882092,-0.05343406854569912
1761466530438502400,0.13050244140625,0.03176116591989994,0.060002341020107264,-0.03283347132652998
1761466530448487200,0.140487060546875,-0.005931143614649772,0.07021978365182877,-0.00046411038041114806
1761466530458471400,0.150471435546875,0.02184358301758766,0.03094108170866966,0.001873831047862768
1761466530468456200,0.160456298828125,0.06301905849277972,0.031529110729694367,-0.012692746704071759
1761466530478440200,0.170440185546875,0.046400516647100445,0.0427688821464777,-0.006033727206289768
1761466530488425200,0.18042529296875,-0.00985387001633644,0.06311959625780582,0.023175562273710964
1761466530498409200,0.1904091796875,-0.010963877084851264,0.02073299142718315,0.008847761713713407
1761466530508394200,0.200394287109375,0.07960837424397468,-0.010026303973793983,-0.034506811366230246
1761466530518378200,0.210378173828125,0.09546265371888875,0.020076573345065116,-0.040327334213256835
1761466530528363300,0.22036328125,0.019055413603782653,0.048798225438594814,0.010488806919008492
1761466530538347300,0.23034716796875,-0.018734218825399874,0.057524552729725835,0.061695262543112035
1761466530548332300,0.240332275390625,0.015453005197644233,0.056528527429699896,0.039068127932399506
1761466530558316300,0.25031640625,0.02229366487264633,0.057789925667643544,-0.015954817239940165
1761466530568301300,0.26030126953125,-0.025193477967381476,0.04397708889245987,-0.046080783173441886
1761466530578285300,0.270285400390625,-0.039890696361660954,0.04564706793129444,-0.047413931473344564
1761466530588269300,0.280269287109375,-0.012565467062592506,0.05820552073121071,-0.02985197129771113
1761466530598254000,0.290254150390625,0.02580371882021427,0.04412555745244026,-0.02544686820656061
1761466530608238300,0.30023828125,0.07373129890412092,0.003939677536487579,-0.0264843945607543
1761466530618223000,0.31022314453125,0.0680482848316431,0.003853752818703651,-0.03328472222536802
1761466530628207000,0.32020703125,0.04054594539999962,0.005569909086823463,-0.03663227908760309
1761466530638192000,0.330192138671875,0.03379237948656082,0.012127660167217254,-0.009577391162514687
1761466530648176000,0.340176025390625,0.036864626538753505,-0.001415127494931221,0.011315174740552901
1761466530658161200,0.3501611328125,0.0491106523886323,0.005117489144206047,-0.01030570543706417
1761466530668145200,0.360145263671875,0.03556055820286274,0.02228372800052166,-0.03283917041495442
1761466530678130200,0.370130126953125,0.02097878288179636,0.039221418797969816,-0.026236265018582342
1761466530688114200,0.3801142578125,0.0019844518154859543,0.031714404168725015,-0.004204027561098337
1761466530698099200,0.39009912109375,-0.0014057751446962356,0.04136778317689895,0.009882073197513818
1761466530708083200,0.400083251953125,-0.023414193335175512,0.023296119913458823,0.01790215191543102
1761466530718068200,0.410068115234375,-0.026156477780640123,0.0255845231115818,-0.0005026888251304626
1761466530728052200,0.42005224609375,0.0026432079851627347,0.030958617365360257,0.00009250058904290199
1761466530738037000,0.430037109375,0.054609834326803684,0.022131752309203147,0.01104775597602129
1761466530748021200,0.440021240234375,0.08932721970379352,0.019675591328740118,0.01257569619566202
1761466530758006000,0.450006103515625,0.05959317569732666,0.005093523746728897,0.036815526700019835
1761466530767990000,0.459989990234375,0.005099953487515449,0.0076315177917480465,0.040394992621988056
1761466530777975000,0.46997509765625,-0.010886720195412635,0.02346738482713699,0.02800707408338785
1761466530787959000,0.479958984375,0.0036190672799944873,0.042753100055456156,-0.01454728852957487
1761466530797944300,0.4899443359375,0.042131461025774475,0.05821253499388694,-0.04689268407821655
1761466530807928000,0.499927978515625,0.004269932404160499,0.06561316663920878,-0.06384469566196203
1761466530817912000,0.509912109375,-0.03321194925010204,0.040163083562254905,-0.04799962240681052
1761466530827897300,0.5198974609375,0.02392798807621002,0.03583411444723606,-0.008322276534885167
1761466530837881000,0.529881103515625,0.04075491197556257,0.029518355429172513,0.039422055936604736
1761466530847866400,0.539866455078125,0.011386486411094665,0.0353401934504509,0.08790829281657933
1761466530857850000,0.54985009765625,-0.005241992306709289,0.02016483615040779,0.08645020296275616
1761466530867835400,0.55983544921875,0.00029927520751953123,0.02798047833740711,0.05248801986724138
1761466530877819400,0.5698193359375,-0.02529839964658022,0.06313596287071704,0.013410247323662042
1761466530887804200,0.57980419921875,-0.06150339323282242,0.07061316688358783,-0.0208528184145689
1761466530897788200,0.5897880859375,-0.06058218673467636,0.061467737397551535,-0.04477028509676456
1761466530907773200,0.599773193359375,-0.01556026496440172,0.04444821353554725,-0.04401303698867559
1761466530917757200,0.609757080078125,0.06727963854670524,0.012722703450918197,-0.03689370650276542
1761466530927742200,0.6197421875,0.12901508696973324,-0.013211948272585868,-0.05061857273355126
1761466530937726200,0.629726318359375,0.10659633441269398,-0.008318331012129783,-0.058236646521836515
1761466530947711200,0.639711181640625,0.04873392803072929,0.013455693900585174,-0.061156333360821005
1761466530957695200,0.6496953125,-0.022864742758870123,0.035361236238479615,-0.038424861592799425
1761466530967680300,0.65968017578125,-0.04122106818258762,0.04816986440718174,-0.02118219649940729
1761466530977664300,0.669664306640625,-0.021870471024513245,0.06030804596841335,0.0011450783818960188
1761466530987649300,0.679649169921875,-0.03393237247914076,0.07578034038841724,0.02205737189874053
1761466530997633300,0.68963330078125,-0.03572130172252655,0.06124035838246345,0.05477554628252983
1761466531007617300,0.6996171875,-0.003205518043041229,0.033708208334445953,0.061213031984120606
1761466531017602300,0.709602294921875,0.02242489003688097,0.04295066845417023,0.028513708431273696
1761466531027586300,0.71958642578125,0.03979980320781469,0.04443886118531227,-0.030825200244039296
1761466531037571000,0.729571044921875,0.0374532400816679,0.01618950277864933,-0.05387582096382975
1761466531047555300,0.739555419921875,0.050450084298849104,-0.007329904496669769,-0.05197670934423804
1761466531057540000,0.7495400390625,0.05686930369138717,-0.00551905568242073,-0.04321048843413591
1761466531067524000,0.759524169921875,0.04576981752812862,-0.019026187509298322,0.013645809645205736
1761466531077509000,0.769509033203125,0.018678104723989963,0.009904138898849486,0.048174102190881966
1761466531087493000,0.7794931640625,0.014297113160789012,0.03896247560083866,0.062180415711551904
1761466531097478100,0.78947802734375,0.00182516960054636,0.051588148418068885,0.039544367142021655
1761466531107462100,0.799462158203125,-0.007791676789522171,0.051880993884801864,-0.00038183892443776127
1761466531117447200,0.809447265625,-0.013422960674762724,0.06083820732235908,-0.025135610300302504
1761466531127431200,0.81943115234375,0.005050853648781776,0.049826983964443204,-0.03919789179190993
1761466531137416200,0.829416259765625,0.02331277878731489,0.03426467317342758,-0.015893734702467917
1761466531147400200,0.839400146484375,0.017196633994579314,0.03310205913484096,0.018312047890573738
1761466531157384200,0.84938427734375,0.03776654381453991,0.030977322065830228,0.02592091545909643
1761466531167369200,0.859369140625,0.04188274696171283,0.031036358776688575,0.015314035118371247
1761466531177353200,0.869353271484375,-0.0002554360657930374,0.04690437451601028,0.01687470856383443
1761466531187338200,0.879338134765625,-0.02154518459290266,0.04338146108686924,0.014660685776174067
1761466531197322200,0.889322265625,-0.014387129531800746,0.043075171616673465,-0.009283961173892021
1761466531207307000,0.89930712890625,-0.045620179924368856,0.05762158336341381,-0.013445172506570815
1761466531217288000,0.909287841796875,-0.047344519498944276,0.05901391450464725,0.004473638282716274
1761466531227273000,0.91927294921875,-0.031123452538251876,0.031069092002511022,0.003200695737451315
1761466531237257000,0.929257080078125,-0.016185411125421524,0.019569208344817162,0.0033985563971102237
1761466531247242000,0.939241943359375,-0.018221885389089584,0.03882452843487263,-0.0029744857661426066
1761466531257226000,0.94922607421875,0.0004956745624542236,0.020088263782858846,-0.013599632415920495
1761466531267211000,0.9592109375,0.01613075832873583,0.003243511965870857,-0.023578736247122287
1761466531277195000,0.969195068359375,-0.01264408525675535,0.033386136773228645,-0.012397270888835191
1761466531287180300,0.97918017578125,-0.019919336956739423,0.03763794899880886,0.04328530723601579
1761466531297164000,0.9891640625,0.02715922508239746,0.004329553636908531,0.038270693944394585
1761466531307149000,0.999149169921875,0.05054711493253707,0.021660627666115758,0.007745207299292087
1761466531317133000,1.009133056640625,0.018974749583005903,0.04107084605693817,0.0017655483677983283
1761466531327117000,1.019116943359375,-0.018625790014863013,0.045889059993624685,-0.008237959252297878
1761466531337102000,1.02910205078125,-0.04007335945218801,0.05383505056202411,-0.0015342238299548626
1761466531347086000,1.039086181640625,-0.020906302167475223,0.060952189090847965,0.014150398166477679
1761466531357071000,1.049071044921875,-0.044803602844476695,0.04721884729266167,0.001993658035248518
1761466531367055000,1.05905517578125,-0.011071429112553596,0.05706102687120437,-0.019966390968859195
1761466531377040100,1.0690400390625,0.04370908560603857,0.06625847880542278,-0.037531419884413476
1761466531387024100,1.079024169921875,0.0275496857047081,0.06418401061892509,-0.005916676697880029
1761466531397009200,1.089009033203125,0.020489245799183844,0.07239946577847003,0.021433833172917364
1761466531406993200,1.0989931640625,0.005283493360877037,0.06570026040077209,0.0411783980846405
1761466531416978200,1.108978271484375,-0.015969722548127174,0.03472293833494186,0.008315554533153772
1761466531426962200,1.118962158203125,-0.03137596599459648,0.010850479838252066,-0.04152911121845245
1761466531436947200,1.128947265625,-0.03679536069482565,0.03782148887217045,-0.06329524508565663
1761466531446931200,1.13893115234375,-0.030151977157592772,0.045963878795504565,-0.08688304142206907
1761466531456916000,1.148916015625,-0.002610474759340286,0.0589157148271799,-0.0991955566368997
1761466531466900200,1.158900146484375,0.0035948096215724945,0.07580722839534282,-0.08632014684230088
1761466531476884200,1.16888427734375,0.007782324439287185,0.08125672597289085,-0.043496173507720226
1761466531486869000,1.178868896484375,0.006932429611682891,0.06422551167309284,-0.012231558933109045
1761466531496853000,1.18885302734375,0.016527356430888176,0.04724982695281505,0.0017566344089806078
1761466531506838000,1.198838134765625,0.034326632493734355,0.006299976927042007,-0.0024127602301537987
1761466531516822000,1.208822021484375,0.016299392893910407,0.02669160757064819,-0.015041794048249721
1761466531526807000,1.21880712890625,0.009519815756380558,0.04208206892609596,-0.020555735164135693
1761466531536791000,1.228791015625,-0.013711422227323054,0.035242578294873234,-0.01904006990417838
1761466531546776000,1.238776123046875,-0.024312018957734105,0.03717793027162552,-0.017983254327625035
1761466531556760000,1.248760009765625,-0.004456394886970519,0.03987608331441879,-0.020957155571877956
1761466531566745000,1.2587451171875,0.029879005435109136,0.024160043266415594,-0.03675415190160274
1761466531576729000,1.26872900390625,0.07216185763031244,0.024146599262952803,-0.04857552259862423
1761466531586714000,1.278714111328125,0.1016062710404396,0.030299861195683477,-0.06490516450032592
1761466531596698000,1.288697998046875,0.05665449189692735,0.041057986575365066,-0.06317191096693277
1761466531606683100,1.29868310546875,0.0027644962772727013,0.06064940675199031,-0.033460955575108524
1761466531616667100,1.308667236328125,-0.010577215854823588,0.07850187430679798,-0.009613777650147676
1761466531626651100,1.318651123046875,-0.026973347121477125,0.1093704753011465,0.004957476276904345
1761466531636636000,1.328635986328125,-0.034493805754184724,0.08366670972406863,0.004043722432851791
1761466531646620200,1.3386201171875,-0.02792904041111469,0.06740823336243629,0.002857435257732868
1761466531656605000,1.34860498046875,-0.006504559588432312,0.07168401098549365,-0.003322130160033703
1761466531666589000,1.3585888671875,0.02537935592830181,0.07004851873815059,-0.04174026975110173
1761466531676574000,1.368573974609375,-0.0002741407662630081,0.10954290925860405,-0.02316547927111387
1761466531686558000,1.378557861328125,-0.026331249825656412,0.09938742594718933,0.015477262856066227
1761466531696543000,1.38854296875,-0.001267243456840515,0.06477437772750855,0.015937281583249568
1761466531706527000,1.39852685546875,0.004945639708638191,0.028318916511535643,-0.01755582269579172
1761466531716512000,1.408511962890625,0.004378068953752518,0.02986146977841854,-0.02858224362283945
1761466531726496000,1.41849609375,0.0011713818669319151,0.04784370119273662,-0.024672522833198308
1761466531736481000,1.42848095703125,-0.002924363014101982,0.04385609286129474,-0.016507044295221568
1761466531746465000,1.438465087890625,-0.02076338656544685,0.06206804137825966,-0.023270693211257458
1761466531756450300,1.4484501953125,-0.024282792863249778,0.07524258024990559,-0.03037467999756336
1761466531766434000,1.45843408203125,-0.0001315174251794815,0.06543254937529563,-0.030775662013888358
1761466531776418000,1.46841796875,0.01106207676231861,0.039410219368338585,-0.02207695338204503
1761466531786403000,1.478403076171875,0.027533319091796873,0.01760813740491867,-0.015804448983818293
1761466531796387000,1.488386962890625,0.05071545723676681,0.022445640563964843,-0.0031441432446241376
1761466531806372000,1.4983720703125,0.021175474497675893,0.016927753925323485,0.016010639080405235
1761466531816356000,1.508356201171875,-0.003951952496170997,0.001409282276034355,0.0247217688024044
1761466531826341000,1.518341064453125,0.04074234475493431,0.012740239107608794,0.02391965863928199
1761466531836325000,1.5283251953125,0.03895896846950054,0.026836568999290464,0.024209581496566532
1761466531846310100,1.53831005859375,0.018466800060868264,0.04576806396245956,0.014153466906398534
1761466531856294100,1.548294189453125,0.007054594686627388,0.04719721998274326,-0.007336041976511478
1761466531866279200,1.558279052734375,-0.012521627920866012,0.024898878934979437,-0.02753565717935562
1761466531876263200,1.56826318359375,-0.01861643766462803,0.024115035080909727,-0.04339198248088359
1761466531886248200,1.578248291015625,-0.012906535585224628,0.05654197143316268,-0.039507980654388666
1761466531896232200,1.588232177734375,-0.032445348791778086,0.06037585050761699,-0.023241174855828283
1761466531906217200,1.59821728515625,-0.008636310920119286,0.04989361945986748,-0.01521218217909336
1761466531916201200,1.608201171875,0.005558510909974575,0.04961947869360447,-0.021634178050607442
1761466531926185200,1.618185302734375,-0.010092062686383723,0.05262158311903476,-0.014178747478127479
1761466531936170000,1.628169921875,-0.04065174386203289,0.057798693495988845,0.010521540144830942
1761466531946154200,1.638154296875,-0.046992929582297796,0.03977729911506176,0.01431026490330696
1761466531956139000,1.648138916015625,-0.03952332435399294,0.039891280883550644,0.017853782729059457
1761466531966123000,1.658123046875,-0.0389519542068243,0.05607260035574436,-0.0025743805326521397
1761466531976108000,1.66810791015625,-0.020517595110833644,0.05270049357414245,-0.02023220229819417
1761466531986092000,1.678092041015625,0.006113514444231987,0.045076574566960334,-0.004753478137403727
1761466531996077000,1.6880771484375,0.028358079478144643,0.04231646220386028,0.01103007418885827
1761466532006061000,1.69806103515625,0.019989479583501814,0.050663434788584705,0.028511808735132215
1761466532016046000,1.708046142578125,-0.004342120857536792,0.05419102439284324,0.037099750468879936
1761466532026030000,1.718030029296875,-0.03661152856051922,0.053985857209563254,0.02264773900732398
1761466532036015000,1.72801513671875,-0.052902153626084324,0.045615503749251364,-0.00266585820838809
1761466532045999000,1.7379990234375,-0.038492520001530646,0.04541618178486824,-0.023185499145835637
1761466532055983000,1.747983154296875,-0.016048048481345174,0.063721653804183,-0.03482654483988881
1761466532065968000,1.757968017578125,-0.011359013882279395,0.06950082172751426,-0.01976721513494849
1761466532075952000,1.7679521484375,-0.0311006561845541,0.07289397129714488,0.004620499407500029
1761466532085937000,1.77793701171875,-0.009812368962168694,0.05247837525606155,0.0159172617085278
1761466532095921200,1.787921142578125,-0.010692074406147003,0.04394610923230648,0.03129880910515785
1761466532105906000,1.797906005859375,0.0010179448708891867,0.05192892467975616,0.03857873698025942
1761466532115890000,1.807889892578125,0.013349310916662216,0.029230770659446716,0.014896248097717762
1761466532125875000,1.817875,0.020298691663146018,0.026802082207798957,-0.024760054986178875
1761466532135859000,1.82785888671875,-0.0407166257917881,0.030298692151904106,-0.019568185431510208
1761466532145844000,1.837843994140625,-0.04485007233470678,0.027599370065331457,-0.007801175270229578
1761466532155828000,1.847827880859375,0.026942075200378893,0.02088204450905323,-0.02790580566599965
1761466532165813000,1.85781298828125,0.03434562945514917,0.035313889965415,-0.03207110865190625
1761466532175797000,1.867796875,0.004816752631962299,0.0557224717438221,-0.018466215538978575
1761466532185781000,1.877781005859375,0.00873626416325569,0.041866964870691296,-0.018008827160298824
1761466532195766000,1.88776611328125,0.042460839110612866,0.033334698846936225,-0.03852116157412529
1761466532205750000,1.89775,0.031098025836050508,0.03472936807572841,-0.041433834150433536
1761466532215737600,1.907737548828125,-0.013183306699991225,0.02651566648185253,-0.012559329582750797
1761466532225721600,1.9177216796875,-0.017044073781371117,0.020462357792258263,-0.0035129765570163724
1761466532235707000,1.927706787109375,0.020122750574350357,0.03661854282319545,-0.027001550302654505
1761466532245690600,1.937690673828125,0.01085866314470768,0.04338087656497955,-0.03964066712334752
1761466532255676000,1.947676025390625,-0.012693769617378711,0.041807928159832954,0.0036871640801429744
1761466532265660000,1.957659912109375,-0.00907090294510126,0.04907645785808563,0.020009937849640846
1761466532275644700,1.967644775390625,0.046294133663177486,0.06221943254768848,-0.0033481413841247557
1761466532285628700,1.977628662109375,0.06988543713092804,0.06880816328823566,-0.049209144327044485
1761466532295613700,1.98761376953125,0.004839256724715232,0.06655716949105263,-0.048622430480271574
1761466532305597700,1.99759765625,-0.017343348988890648,0.030296354064345356,-0.007770634001493453
1761466532315581700,2.007581787109375,0.019045768992602824,0.03068739920854568,0.00361482949629426
1761466532325566700,2.017566650390625,0.07545037778168916,0.04009118736982345,-0.012326982131600378
1761466532335550700,2.02755078125,0.03587386193573475,0.04824702129662037,-0.0025884090580046175
1761466532345535700,2.03753564453125,0.006125789403915405,0.03622574411332607,0.033960867921262974
1761466532355519700,2.047519775390625,0.04305734369903803,0.02521159814596176,0.03498480414152145
1761466532365504800,2.0575048828125,0.04464052123725414,0.04584814346134662,-0.005111205533891916
1761466532375488800,2.06748876953125,0.014139876772463322,0.0712765992283821,-0.027725188402086494
1761466532385473800,2.077473876953125,-0.04127513645738363,0.05943184765577316,-0.0029180794037878513
1761466532395457800,2.087457763671875,-0.03488280507177114,0.025188801792263984,0.009771014038473367
1761466532405442800,2.09744287109375,0.011072013634443283,0.03015782237648964,-0.0008978256225585938
1761466532415426800,2.1074267578125,0.042433366581797596,0.022169746232032776,0.008530804719030857
1761466532425411600,2.11741162109375,0.0522802223354578,0.01863105071187019,0.011770225031673907
1761466532435395800,2.127395751953125,0.053693011742830275,0.00654079994559288,0.014057166925072669
1761466532445379800,2.1373798828125,0.04269318656176328,0.017145196068286895,-0.00033098552003502844
1761466532455364600,2.147364501953125,-0.005222703084349632,0.04898761053085327,-0.0037520460098981853
1761466532465348600,2.1573486328125,-0.015811901637911796,0.03380465444624424,0.014559855750203132
1761466532475333600,2.167333740234375,0.025613164684176442,0.01315524964928627,-0.015882190395146607
1761466532485317600,2.177317626953125,0.02626782920062542,0.03869593361914157,-0.025613310814648866
1761466532495302700,2.187302734375,-0.0015308628290891647,0.06370294910371303,0.016706804651021957
1761466532505286700,2.19728662109375,0.030591829879581926,0.05130757791101932,0.028707039046287536
1761466532515271700,2.207271728515625,0.07669540940672159,0.03138298025727272,-0.03594327391013503
1761466532525255700,2.217255615234375,0.07523088981211185,0.040787937462329865,-0.06756736944690346
1761466532535240700,2.22724072265625,0.016275427496433258,0.032282559445500375,-0.028409663534909486
1761466532545224700,2.237224609375,0.005821838021278381,0.0017798691540956495,0.0373573784917593
1761466532555209700,2.247209716796875,0.04368716603517532,-0.002763619494438171,0.044673838984966276
1761466532565193700,2.25719384765625,0.009053659549355506,0.02688333075046539,-0.03634907823204994
1761466532575177700,2.267177734375,-0.028868367087841032,0.05418693273961544,-0.08225771970897912
1761466532585162800,2.277162841796875,0.03213292184174061,0.046855274677276605,-0.07793708003088831
1761466532595146800,2.287146728515625,0.08005202635824679,0.0457446830868721,-0.04699132214710116
1761466532605131500,2.297131591796875,0.029870237606763838,0.04732581479847431,-0.012457330513000488
1761466532615115500,2.307115478515625,-0.03128887223303318,0.04053834661543369,0.05050020705088973
1761466532625100500,2.3171005859375,-0.03537234215438366,0.02308101585805416,0.06985021968707442
1761466532635084500,2.32708447265625,0.021060323685407636,-0.007319967624545097,0.01742006748691201
1761466532645069600,2.337069580078125,0.035386955201625825,0.010786182430386542,-0.07166998246014118
1761466532655053600,2.347053466796875,-0.004240414048731327,0.06763268976807595,-0.09295943872630595
1761466532665038600,2.35703857421875,-0.015721885266900062,0.07306932786405086,-0.04102130782678723
1761466532675022600,2.367022705078125,0.05221709397137165,0.051913142588734626,-0.026624679814279077
1761466532685008000,2.3770078125,0.06262889013141393,0.06639408788383007,-0.006306260537356138
1761466532694991600,2.38699169921875,-0.0014008067086338997,0.06578910772800445,0.03591156359761953
1761466532704975600,2.3969755859375,-0.015096154583990573,0.02370762332379818,0.07962824798822403
1761466532714960600,2.406960693359375,-0.007687924154102802,0.007494739669561386,0.0728387339785695
1761466532724944600,2.416944580078125,-0.028429975670576094,-0.0051315176695585244,0.04366568485572934
1761466532734930000,2.426929931640625,-0.055173021167516705,0.032277883270382876,0.010875322018563748
1761466532744913700,2.43691357421875,-0.054206221961975096,0.05489829587936401,-0.006309767668694257
1761466532754898700,2.446898681640625,0.007833470104634761,0.041244449058175085,-0.05453136226311326
1761466532764882700,2.456882568359375,0.08080605959594249,0.03380173183679581,-0.09937003642097116
1761466532774867700,2.46686767578125,0.026908465191721916,0.03824877437353134,-0.06895341697782277
1761466532784851700,2.476851806640625,-0.01910422118157148,0.033652678754925724,0.0034824352882802485
1761466532794836700,2.486836669921875,-0.025878537622094154,0.02713642872869968,0.04214183628931641
1761466532804820700,2.49682080078125,-0.007888122901320457,0.01931435680091381,0.029595804579555986
1761466532814805800,2.5068056640625,-0.0438274512887001,0.049686114189028734,0.003794423846900463
1761466532824789800,2.516789794921875,-0.0615410948947072,0.07508475933969021,0.010435761557519435
1761466532834773800,2.526773681640625,-0.03723696698248386,0.06364975761175155,0.025207652623206376
1761466532844758800,2.5367587890625,0.10296353086829185,0.0038823943912982936,-0.033143852449953555
1761466532854742800,2.54674267578125,0.12302198403477668,-0.003712298521399498,-0.09736892573162913
1761466532864727800,2.556727783203125,0.013017010222375391,0.023545126238465306,-0.05742664531320333
1761466532874711800,2.5667119140625,-0.02991290770471096,0.04446691823601723,0.0011518003836274147
1761466532884696800,2.57669677734375,-0.01058452237844467,0.05737842225730419,0.020190262852609157
1761466532894680800,2.586680908203125,0.0009527706801891326,0.06548281825780868,0.027003449998795986
1761466532904665600,2.59666552734375,-0.01587795261144638,0.06051029054224491,0.033828473713248965
1761466532914649600,2.606649658203125,-0.01744593258053064,0.05743336731493473,0.014255612106621265
1761466532924634600,2.616634521484375,0.05814736080318689,0.022032383587956426,-0.05083309226706624
1761466532934618600,2.62661865234375,0.11802198379039763,0.0043897593915462494,-0.10545520155355334
1761466532944602600,2.6366025390625,0.055717211046814916,0.013586042281985282,-0.06847483968064189
1761466532954587600,2.646587646484375,-0.012680617874860764,0.02053133137524128,0.0028621114328503607
1761466532964571600,2.656571533203125,-0.018976795409619808,0.023589549902081487,0.049380847632139915
1761466532974556700,2.666556640625,0.011621464210748672,0.018095044139027596,0.05498378220573067
1761466532984540700,2.676540771484375,0.017453239104151724,0.023170447707176207,0.042430443972349165
1761466532994525700,2.686525634765625,0.013968904119729996,0.03319324454963207,0.021863456761837003
1761466533004509700,2.696509765625,0.03466740875542164,0.02978431288897991,-0.017902590306848286
1761466533014494700,2.70649462890625,0.08937515049874782,0.037676527443528174,-0.04347951463386416
1761466533024478700,2.716478759765625,0.060870356026291844,0.05720598829984665,-0.04848842883706093
1761466533034463700,2.726463623046875,0.011982114216685295,0.052885202491283416,-0.008178338019549846
1761466533044447700,2.73644775390625,-0.010489829832315445,0.0563584315598011,0.02821107222288847
1761466533054432500,2.7464326171875,0.0012736731976270674,0.04902677349746227,0.04557882500067353
1761466533064416800,2.756416748046875,0.023531389974057675,0.03817278652787209,0.023139175786077975
1761466533074400800,2.76640087890625,0.019566285735368727,0.046503392499685284,0.012680325613915919
1761466533084385500,2.776385498046875,0.008688917890191078,0.05981061784029006,0.002815203551203012
1761466533094369500,2.78636962890625,0.022838147012889384,0.058605918225646016,-0.015559972703456878
1761466533104354600,2.7963544921875,0.01764905393719673,0.047674189844727516,-0.04384557146728039
1761466533114338600,2.806338623046875,0.01840367169678211,0.016198855128884315,-0.03445405826568603
1761466533124323600,2.816323486328125,0.014152443993091582,0.008707038068771362,-0.0010081541292369365
1761466533134307600,2.8263076171875,0.03517477375566959,0.01097322943508625,0.012701222271472214
1761466533144292600,2.836292724609375,0.0495440753698349,0.007503507497906684,-0.010634499000012874
1761466533154276600,2.846276611328125,0.04962415486872196,0.0008323591709136962,-0.008676204539090394
1761466533164261600,2.85626171875,0.07400807001888751,-0.011909633502364158,0.01308963706716895
1761466533174245600,2.86624560546875,0.06218231540769338,0.02572130123376846,-0.014658932210505007
1761466533184231000,2.87623095703125,-0.02021101337969303,0.0686404055058956,-0.05983546002060174
1761466533194214700,2.886214599609375,-0.016570611050724982,0.06361351725459098,-0.0637546792909503
1761466533204198700,2.89619873046875,0.05218699109405279,0.04622632912397384,-0.03019713147357106
1761466533214183700,2.90618359375,0.06640928545296192,0.04587035529315471,-0.002076660143584013
1761466533224164000,2.9161640625,0.046536125725507735,0.050347208446264266,0.03861600025072694
1761466533234149000,2.926149169921875,0.043129824413359164,0.007709843724966049,0.04609919561296701
1761466533244133000,2.936133056640625,0.049876960586011404,0.012321136912703513,0.010591244380176067
1761466533254118100,2.9461181640625,0.050962417735159395,0.03322071707844734,-0.03595291852131486
1761466533264102100,2.95610205078125,0.02347586039453745,0.04686988772451877,-0.0853042477980256
1761466533274087200,2.966087158203125,-0.016757073533535,0.07215104397535324,-0.09829787714481353
1761466533284071200,2.9760712890625,-0.026577041280269623,0.07910042472183704,-0.045830315543711184
1761466533294056200,2.98605615234375,0.004742518351972103,0.06607961510717869,-0.00006546645164489745
1761466533304040200,2.996040283203125,0.04255144000351429,0.03642681964337825,0.027759821324050426
1761466533314024200,3.006024169921875,0.036543139499425885,0.0047404725253582,0.03430573583617806
1761466533324009200,3.01600927734375,0.026773732896149156,0.00009878419935703278,0.03933510830551386
1761466533333993200,3.0259931640625,0.0004401449829339981,0.021676409757137298,0.03934343774244189
1761466533343978200,3.035978271484375,-0.012020108139514922,0.037647301349043844,0.00935761093199253
1761466533353962200,3.045962158203125,0.005143792629241943,0.04758066634237766,-0.014610416893661021
1761466533363947300,3.055947265625,-0.016872808867692945,0.049318449920415876,-0.028680151039361952
1761466533373931300,3.06593115234375,-0.021533201894164085,0.046347325155138966,-0.028833149643987414
1761466533383916000,3.075916015625,-0.01119067157804966,0.03501870641112327,-0.029248890838026998
1761466533393900000,3.085900146484375,0.01369768596291542,0.028130700463056563,-0.013757599456608295
1761466533403885000,3.095885009765625,0.04190554331541061,0.012767711636424064,-0.006316489670425653
1761466533413869000,3.105869140625,0.03062164049595594,0.01428805307149887,0.004640519282221794
1761466533423853000,3.11585302734375,0.02163490870296955,0.025830606827139852,-0.00028948446586728096
1761466533433838000,3.125838134765625,0.011622633254528045,0.050667526441812515,-0.004740764786303043
1761466533443822000,3.135822021484375,-0.019446458747982977,0.0660831222385168,0.017836685463786126
1761466533453807000,3.14580712890625,-0.04166588934063911,0.050235564765334126,0.02097352218478918
1761466533463791000,3.155791015625,-0.03480243331193924,0.01727612897157669,0.007929331694543362
1761466533473776000,3.165776123046875,0.014851532173156738,0.007825579059123993,-0.013107611115276812
1761466533483760000,3.175760009765625,0.0636655397027731,0.010574000984430312,-0.010528262146562337
1761466533493745200,3.1857451171875,0.05154781640768051,0.04212766163349151,-0.006028904900699854
1761466533503729200,3.195729248046875,0.018543956950306893,0.03409691539108753,-0.006771101570129394
1761466533513714200,3.205714111328125,0.022953590086102486,0.03482815227508545,-0.024020927056670187
1761466533523698200,3.2156982421875,-0.001118190374970436,0.04077215537130832,-0.016566373267024755
1761466533533683000,3.225682861328125,-0.005229132825136184,0.05363339051008224,0.006033142684400081
1761466533543667200,3.235667236328125,0.0034290976658463476,0.046212885120511055,0.011707388928532599
1761466533553651200,3.245651123046875,0.012775602681934832,0.049015667581558224,0.007614566656947135
1761466533563636000,3.255635986328125,0.012812135300040245,0.06436112075150012,0.012409399718046188
1761466533573620000,3.265619873046875,0.011787468427419661,0.05203647670745849,0.006811871971935033
1761466533583605000,3.27560498046875,0.03156944274008274,0.030562311524152754,0.0026718495577573776
1761466533593589000,3.285589111328125,0.0284428351521492,0.024264088162779807,0.0012095219202339648
1761466533603574000,3.295573974609375,0.028476152899861332,0.018501871374249457,0.022996844705939292
1761466533613558000,3.30555810546875,0.04630173244774341,0.01125906063914299,0.02395297638699412
1761466533623543000,3.31554296875,0.05334639026224613,0.019716507861018178,0.0310264219045639
1761466533633527000,3.325527099609375,0.058380585037171834,0.014520108261704445,0.03508037347048521
1761466533643512000,3.335511962890625,0.027169746476411818,0.008839140015840529,0.03762874277904629
1761466533653496000,3.34549609375,0.022390110984444617,0.012160393393039703,0.03162745653763413
1761466533663480000,3.35547998046875,0.006460428185760974,0.018507716593146324,0.010323387224227189
1761466533673465000,3.365465087890625,-0.011391747108101844,0.04252162938714027,0.00024169980138540268
1761466533683449000,3.375448974609375,-0.036250001771748065,0.053366264006495474,0.016090426318347454
1761466533693434000,3.38543408203125,-0.03126958301067352,0.06864566620290279,0.018724428083747625
1761466533703418000,3.395418212890625,-0.0007084405303001403,0.06612579233646393,0.02760404624044895
1761466533713403100,3.405403076171875,-0.0021989713490009307,0.05875672487318515,0.013902122493833302
1761466533723387000,3.415386962890625,-0.005809270800650119,0.05181611195504665,-0.019496727630496025
1761466533733372200,3.4253720703125,0.024942718076705932,0.04332885411679745,-0.04000014808550477
1761466533743356200,3.435356201171875,0.004923427876830101,0.04475917918086052,-0.02292319494783878
1761466533753341200,3.445341064453125,-0.011268412989377976,0.03858896611332893,-0.00010419102683663367
1761466533763325200,3.4553251953125,-0.03501549154073,0.03402385015487671,0.00021130466312170029
1761466533773309000,3.465308837890625,-0.031790099753439424,0.049741059246659274,0.021939152346551416
1761466533783294200,3.475294189453125,-0.00971358476281166,0.03041442748606205,0.04741626956090331
1761466533793278200,3.4852783203125,0.01594283454120159,0.025079496198892593,0.04116787669062614
1761466533803263200,3.49526318359375,-0.0135591542750597,0.048940848779678345,-0.01749181754887104
1761466533813247200,3.505247314453125,-0.02208499055802822,0.06100421153903007,-0.052192982443422076
1761466533823232300,3.515232177734375,0.03253858003318309,0.03382160558104515,-0.061926002559065815
1761466533833216300,3.52521630859375,0.05303425557315349,0.044728199520707126,-0.045380233688652516
1761466533843201300,3.535201171875,0.0189835174113512,0.05148351899981499,-0.024382161584496496
1761466533853185300,3.545185302734375,0.01438917535841465,0.043855508339405054,0.02368029692545533
1761466533863170000,3.555170166015625,-0.009762684601545333,0.014900632011890411,0.03495718548223376
1761466533873154000,3.565154052734375,-0.022439795345067976,0.007139350360631943,0.002589285840839147
1761466533883139000,3.57513916015625,-0.018736849173903464,0.019741642302274702,-0.050350861708074804
1761466533893123000,3.585123046875,-0.014870236873626708,0.032677111721038814,-0.06894187267050146
1761466533903107000,3.595107177734375,-0.01869534811973572,0.057066287568211554,-0.06758198249414563
1761466533913092000,3.605092041015625,-0.03585018879920244,0.08850947358012198,-0.023324030833691358
1761466533923076000,3.615076171875,-0.017478958067297934,0.07849252195656299,0.021256430779397487
1761466533933061000,3.62506103515625,0.01869476359784603,0.03029401597678661,0.06487418484017253
1761466533943045000,3.635045166015625,0.04123042053282261,0.021138065096735954,0.063914692158252
1761466533953030100,3.645030029296875,0.023315993657708166,0.030170097336173055,0.04629340301081538
1761466533963014100,3.65501416015625,-0.016148586246371267,0.02333060670495033,0.025743951456993815
1761466533972999200,3.664999267578125,-0.03801525787860155,0.021401684468984602,-0.010470540609955788
1761466533982983200,3.674983154296875,-0.03765139300227165,0.054092824715375895,-0.03828866799250245
1761466533992968200,3.68496826171875,-0.013475567644834518,0.0559223782300949,-0.03975201854333281
1761466534002952200,3.6949521484375,-0.022267945909500122,0.0417360319674015,-0.03557736320719123
1761466534012936200,3.704936279296875,-0.016013561689853666,0.05526362206041813,-0.03788374045342207
1761466534022921000,3.7149208984375,-0.013057634493708609,0.06034896250069141,-0.054984512858092784
1761466534032905200,3.7249052734375,0.002183481518924236,0.036623803520202634,-0.039847295611351724
1761466534042890000,3.734889892578125,0.011849135486781596,0.029280455020070074,-0.03358808908611536
1761466534052874000,3.7448740234375,-0.000040332010388374324,0.025173019701242444,-0.040775516372174025
1761466534062859000,3.75485888671875,-0.0028571429967880245,0.03763677995502949,-0.04141176844909787
1761466534072843000,3.764843017578125,0.013140928862988947,0.06217150175273418,-0.026908465191721916
1761466534082828000,3.774828125,-0.004628536583483219,0.07135726324915885,-0.01296089612096548
1761466534092812000,3.78481201171875,0.0040343700826168056,0.04396013775765895,-0.010542436802387237
1761466534102797000,3.794797119140625,0.050692660883069035,0.03287935629487038,-0.02797594829276204
1761466534112781000,3.804781005859375,0.04972644619941711,0.0236368961751461,-0.05078983764722943
1761466534122765000,3.81476513671875,0.036416005988419056,0.04130757742226124,-0.05347966125309467
1761466534132750000,3.82475,0.02339811898320913,0.05531564450860023,-0.060339756280928844
1761466534142734000,3.834734130859375,0.020615502527356146,0.05306698879897594,-0.03474149690493941
1761466534152719000,3.844718994140625,0.015385785180330276,0.04858312138319015,-0.01683423042297363
1761466534162703000,3.854703125,0.00706102442741394,0.03450082001686096,-0.02078442935347557
1761466534172688100,3.864688232421875,0.026176059263944625,0.03171908034384251,-0.009756985513120889
1761466534182672100,3.874672119140625,0.007115384963154793,0.03977729911506176,0.0015669570557773113
1761466534192657000,3.884656982421875,0.020896657556295394,0.037409985461831094,-0.003941284971684217
1761466534202641000,3.894640869140625,0.045349546289443966,0.051370706275105475,-0.011770809553563594
1761466534212626200,3.904626220703125,0.03510433886796236,0.06357844594120979,-0.026923955021798607
1761466534222610400,3.9146103515625,0.0308610022097826,0.030042087042331692,-0.026601445069164037
1761466534232594400,3.924594482421875,0.011513327661156654,0.025073650979995726,0.0077327862091362476
1761466534242579500,3.934579345703125,-0.0029576807618141173,0.027206571355462072,0.004967851540446281
1761466534252563500,3.9445634765625,0.01598375107347965,-0.0011246201157569884,0.023471768741309643
1761466534262548500,3.954548583984375,0.049694882017374035,-0.00637304216325283,0.014491758950054645
1761466534272532500,3.964532470703125,0.03872165258228778,0.024904139631986618,0.0008775134868919849
1761466534282517500,3.974517578125,0.02696136442273855,0.0336713834553957,0.016960925542563197
1761466534292501500,3.98450146484375,0.03264583979994058,0.03582885375022888,0.007809796968102455
1761466534302486500,3.994486572265625,0.04177753302156925,0.006868132203817367,0.02299509114027023
1761466534312467500,4.004467529296875,0.03230126414597034,0.021705635851621625,0.0052723874449729915
1761466534322451700,4.01445166015625,0.010913023680448532,0.03707330085337162,-0.0004018587991595268
1761466534332436500,4.0244365234375,0.02600537887215614,0.04344751206040382,0.009291998349875211
1761466534342420500,4.03442041015625,0.028141221857070922,0.016464228066802023,-0.001201192483305931
1761466534352405500,4.044405517578125,0.06370236458182335,0.0017266776621341704,-0.0017709551952779293
1761466534362389500,4.054389404296875,0.07503215236961841,0.022845453536510466,-0.005658025761693716
1761466534372374500,4.06437451171875,0.06263385856747627,0.028667876079678533,0.005584960525482892
1761466534382358500,4.074358642578125,0.05390928484201431,0.028144144466519354,0.05442600219249725
1761466534392343600,4.084343505859375,0.030206629954278467,0.041508068430423734,0.043515316599607466
1761466534402327600,4.09432763671875,0.03585281914770603,0.048936757126450535,0.0032309447452425954
1761466534412311600,4.1043115234375,0.05600187320709228,0.048670215144753455,-0.014178601347655057
1761466534422296600,4.114296630859375,0.08298691076636314,0.04227028497457504,-0.0035268589518964288
1761466534432280600,4.124280517578125,0.08598083188533782,0.046805590316653246,0.0030975276239216328
1761466534442265600,4.134265625,0.053987610775232314,0.04152735765278339,0.04389934748113155
1761466534452249600,4.14424951171875,0.029181670820713042,0.022422844210267065,0.05918108776509762
1761466534462234600,4.154234619140625,0.017210077998042105,0.0051508068919181825,0.03358019804060459
1761466534472218600,4.164218505859375,0.015367080479860304,0.021268998000025748,-0.02140942938402295
1761466534482203400,4.174203369140625,0.017123568758368492,0.03497311370372772,-0.06056260525137186
1761466534492187400,4.1841875,-0.004589081355929375,0.04772621229290962,-0.07110781853273511
1761466534502172400,4.19417236328125,-0.05034750070720911,0.0665711980164051,-0.02271978133022785
1761466534512156400,4.204156494140625,-0.05832359415292739,0.06614391251504421,0.0261792741343379
1761466534522141400,4.214141357421875,0.004548457084596157,0.048149406141042704,0.04910173842981457
1761466534532125400,4.22412548828125,0.01993950296193361,0.04227028497457504,0.0545633648365736
1761466534542109400,4.234109375,0.001685176607966423,0.038543373405933376,0.024713877756893633
1761466534552094500,4.244094482421875,-0.017903320959210395,0.03150982150733471,0.0021840660408139227
1761466534562078500,4.254078369140625,-0.042029169695079326,0.048721653071045874,-0.0149174370162189
1761466534572063500,4.2640634765625,-0.052452071771025656,0.06790624601244927,-0.018297873234748838
1761466534582047500,4.274047607421875,-0.03971417075097561,0.0543237108618021,-0.0165261873871088
1761466534592032500,4.284032470703125,-0.0077425769507884976,0.05788578725755214,-0.006015022505819798
1761466534602016500,4.2940166015625,0.03415770566761493,0.053065819755196565,-0.018311024977266787
1761466534612001500,4.30400146484375,0.03436228832900524,0.040924715584516526,-0.01897869510576129
1761466534621985500,4.313985595703125,0.017186989383399486,0.04272153587341308,-0.0028014672867953776
1761466534631970300,4.32397021484375,-0.0055222705528140065,0.02989186491668224,-0.01818316081389785
1761466534641954300,4.333954345703125,-0.017867665123939513,0.048370939937233924,-0.025694413226842877
1761466534651938600,4.3439384765625,-0.01163286238759756,0.051337388527393335,-0.01857289078384638
1761466534661923300,4.35392333984375,-0.0034229601860046384,0.04903378776013851,-0.010508534532785415
1761466534671907300,4.3639072265625,-0.01298573830127716,0.05711012670993804,-0.0067952130980789656
1761466534681892400,4.373892333984375,-0.005846095679700374,0.038186230531334873,-0.0024219664499163626
1761466534691876400,4.38387646484375,0.004134907847642899,0.01681903285384178,-0.00469341851323843
1761466534701861400,4.393861328125,0.026284195813536644,0.027459669333696365,-0.024320786786079407
1761466534711845400,4.403845458984375,0.04138648787736893,0.02159925286769867,-0.032406039694696666
1761466534721830400,4.413830322265625,0.05638122791349887,0.02191898634135723,-0.050614334949851035
1761466534731814400,4.423814453125,0.03678337799608707,0.047507016584277154,-0.04426321235746145
1761466534741798400,4.43379833984375,0.0039016836136579513,0.03904313962161541,-0.019516016852855683
1761466534751783400,4.443783447265625,0.013763736936450003,0.021028759503364563,-0.0020168927803635595
1761466534761767400,4.453767333984375,0.027111002026498316,0.0341506914049387,0.008619505915790795
1761466534771752700,4.463752685546875,0.022435119169950484,0.033652678754925724,0.003072539313137531
1761466534781736400,4.473736328125,0.011640461172163486,0.034006899020075795,-0.0003286474324762821
1761466534791721500,4.483721435546875,-0.011949673251807688,0.060358899372816084,-0.016773294015973807
1761466534801705500,4.49370556640625,-0.008333528581261634,0.07715805848240852,-0.02701104878336191
1761466534811690500,4.5036904296875,-0.0013040683358907699,0.07361936296224594,-0.0195458274692297
1761466534821674500,4.513674560546875,0.001297054073214531,0.02001812115609646,-0.037949206905066965
1761466534831659500,4.523659423828125,0.028441666108369824,-0.010348960056900978,-0.0294939516402781
1761466534841643500,4.5336435546875,0.013692717526853084,0.02470481766760349,-0.009860445887595415
1761466534851627500,4.54362744140625,0.004662438853085041,0.040024551874399183,0.014610563024133444
1761466534861612500,4.553612548828125,0.04593932887613773,0.03943827641904354,0.0030488661766052243
1761466534871596500,4.563596435546875,0.039031449183821676,0.04637070603072643,-0.022992899183183906
1761466534881581600,4.57358154296875,-0.021151509100198744,0.08672960442602634,-0.028027093958109615
1761466534891565600,4.583565673828125,-0.07737900775671004,0.10493863033354282,-0.014568331317603588
1761466534901552400,4.593552490234375,-0.030223288828134534,0.07338496968448162,-0.0037866789318621156
1761466534911536400,4.603536376953125,0.06637333735674619,0.023740941071510313,-0.06289090206846594
1761466534921521400,4.613521484375,0.06449293043762445,0.055025137129426,-0.10700403843075036
1761466534931505400,4.62350537109375,-0.036818157048523426,0.06272796659171581,-0.08060162306502461
1761466534941490400,4.633490478515625,-0.058632221710681914,0.045239071652293204,-0.011369535276293754
1761466534951474400,4.643474365234375,-0.022045535330474375,0.02666471956372261,0.02498699560984969
1761466534961459500,4.65345947265625,0.051859074313938616,-0.001602174499630928,0.014022826264053581
1761466534971443500,4.663443359375,0.10247954674363136,-0.008073416340351105,-0.02987038373723626
1761466534981427500,4.673427490234375,0.03075549600869417,0.02537058809995651,-0.06709273767247796
1761466534991412500,4.68341259765625,-0.02227291434556246,0.04771919803023338,-0.0686335373736918
1761466535001396500,4.693396484375,0.009152736009657382,0.0537310056656599,-0.048635582222789527
1761466535011381500,4.703381591796875,0.04822393268197775,0.052151042997837065,-0.003358662778139114
1761466535021365500,4.713365478515625,0.02389876198172569,0.04438333160579204,0.03361673065871
1761466535031350300,4.723350341796875,0.0024485621958971024,0.04111819233000278,0.05187295670881867
1761466535041334300,4.733334228515625,0.011781623208522796,0.002822656205296516,0.045164545111358166
1761466535051319600,4.743319580078125,0.03286298968195915,-0.009130816438794136,-0.00048442251607775684
1761466535061303300,4.75330322265625,0.025080372981727123,0.03297930953800678,-0.06073226272985339
1761466535071288600,4.76328857421875,0.027497078734636304,0.0544499675899744,-0.09675137835517525
1761466535081272600,4.7732724609375,0.025637130081653595,0.06232055483460426,-0.09441884375438094
1761466535091256300,4.78325634765625,-0.013331190738081932,0.05711421836316585,-0.05356821631938219
1761466535101241600,4.79324169921875,-0.010689736318588257,0.047754853865504265,-0.011303338172286749
1761466535111225300,4.803225341796875,-0.003872457519173622,0.024969606083631513,0.013978840991854667
1761466535121210600,4.813210693359375,0.01196048690676689,0.020615502527356146,0.027412030799686907
1761466535131194600,4.823194580078125,0.032066870868206025,0.023237667724490166,0.0301332724571228
1761466535141179600,4.8331796875,0.03461830891668796,0.030364158603549,0.02325944116488099
1761466535151163600,4.84316357421875,0.0037426936596632,0.03375029391050339,0.01710033401325345
1761466535161148700,4.853148681640625,0.00035012861192226406,0.024859715968370437,-0.0025078911677002907
1761466535171132700,4.863132568359375,0.00768061763048172,0.022025953847169873,-0.010736205808818339
1761466535181117400,4.873117431640625,0.02872515922486782,0.030379356172680852,-0.01887596538364887
1761466535191101400,4.883101318359375,0.01625263114273548,0.011990297523140906,-0.015618863283842802
1761466535201085400,4.89308544921875,0.04943710786402225,0.01475683962702751,-0.024550503888726233
1761466535211070500,4.903070556640625,0.029986557462811467,0.024345336705446242,-0.015793050806969404
1761466535221054200,4.91305419921875,0.04227963732481003,0.017044658303260803,-0.005149345587193966
1761466535231039200,4.923039306640625,0.039139001211524006,0.01966506993472576,0.010228986939042806
1761466535241023200,4.933023193359375,0.014725275444984436,0.05551555099487304,0.013620090682059525
1761466535251008300,4.94300830078125,0.0013818097472190856,0.056548985695838924,0.0020230302602052687
1761466535260992300,4.9529921875,0.014024141438305377,0.055012862169742584,0.012591770547628401
1761466535270977300,4.962977294921875,0.012753098589181899,0.02224573407769203,0.010788228257000446
1761466535280961300,4.972961181640625,0.032581834653019906,0.01995557731389999,0.00728387339785695
1761466535290946300,4.9829462890625,0.037166824355721474,0.029275778844952582,-0.024741642546653748
1761466535300930300,4.992930419921875,0.025931729114055634,0.020080080476403236,-0.04946136552244425
1761466535310914300,5.002914306640625,0.018369477166235444,0.04605681777596474,-0.03341492447629571
1761466535320899300,5.0128994140625,0.020467033967375755,0.0459492657482624,-0.013103519462049006
1761466535330883300,5.02288330078125,0.022892215287685393,0.03473521329462528,0.0011478548608720301
1761466535340868400,5.032868408203125,0.029736966615915298,0.02963701337277889,0.009001198709756136
1761466535350852400,5.042852294921875,0.038652094477415085,0.01611409945487976,-0.0009099544517695903
1761466535360837000,5.052837158203125,0.02622019066661596,0.029898294657468794,0.002209931134432554
1761466535370821000,5.062821044921875,0.014612462720274924,0.04862696052491665,-0.005787643490731716
1761466535380806100,5.07280615234375,0.00009644611179828643,0.0466115290492773,-0.024557664281874895
1761466535390790100,5.0827900390625,-0.005487491500377655,0.038729835888743396,-0.04289747696220875
1761466535400775400,5.092775390625,0.017434534403681753,0.030744682353734967,-0.046576019344478845
1761466535410759200,5.10275927734375,0.014030863440036774,0.03806698806583881,-0.039030280140042305
1761466535420743200,5.1127431640625,0.006935936743021011,0.046293549141287804,-0.022996406314522027
1761466535430728400,5.122728515625,0.029533552998304364,0.05302139609158039,-0.020024843157827852
1761466535440712200,5.132712158203125,0.03474807277619839,0.054443537849187845,-0.012224836931377648
1761466535450697500,5.142697509765625,0.03804185362458229,0.052507016828656196,-0.005576338827610015
1761466535460681200,5.15268115234375,0.017514906163513658,0.03650280748903751,-0.011883622278273104
1761466535470666500,5.16266650390625,-0.0008761983126401901,0.016382979524135588,-0.029010552037507294
1761466535480650500,5.172650390625,-0.031257308050990106,0.027222937968373297,-0.03073927552625537
1761466535490635500,5.182635498046875,-0.03797960204333067,0.035759880167245864,-0.0007326981887221336
1761466535500619500,5.19261962890625,0.0017304770544171331,0.03323942177891731,0.02648556360453367
1761466535510603500,5.202603515625,0.02169979063272476,0.04109831858575344,0.04273366470262408
1761466535520588300,5.21258837890625,0.010825053136050701,0.046643093231320376,0.027105595199018714
1761466535530572300,5.222572265625,0.025982874779403208,0.06097323187887668,0.01520955183058977
1761466535540557300,5.232557373046875,0.04690174416750669,0.0364203899025917,-0.01825359570160508
1761466535550541300,5.242541259765625,0.042325814554095266,0.055202831783890724,-0.03799845287427306
1761466535560526300,5.2525263671875,0.021328326971828935,0.06072130294442177,-0.01897708767056465
1761466535570510300,5.26251025390625,0.008696808935701846,0.04945639708638191,0.01743847992643714
1761466535580495400,5.272495361328125,-0.0019958499923348424,0.02532616443634033,0.002370528523623943
1761466535590479400,5.282479248046875,0.001548106224834919,0.02623334240913391,-0.047141544272750614
1761466535600464400,5.29246435546875,-0.010480477482080459,0.023160510835051534,-0.0769115363754332
1761466535610448400,5.302448486328125,0.015490414598584175,0.019122049099206923,-0.06808423292785883
1761466535620432400,5.312432373046875,0.05620937847793102,0.018760814571380614,-0.026491262692958116
1761466535630417400,5.32241748046875,0.07411211491525173,0.028169278907775878,-0.0020185002155601976
1761466535640401400,5.3324013671875,0.059251522652804846,0.020043840119242668,0.011962386602908373
1761466535650386400,5.342386474609375,0.04231587768197059,0.01168517709672451,-0.00714183457866311
1761466535660370400,5.352370361328125,0.03312017931342125,0.024914076504111288,-0.04179682224392891
1761466535670355200,5.362355224609375,0.036758243554830546,0.052912090498209,-0.09040610098168253
1761466535680339500,5.37233935546875,0.02107376768887043,0.0771504596978426,-0.10740428979471325
1761466535690324200,5.38232421875,0.0011719663888216018,0.09793722713887691,-0.08458148648142814
1761466535700308200,5.39230810546875,0.005342530071735381,0.07747019317150115,-0.05576674927696585
1761466535710293200,5.402293212890625,0.022820611356198787,0.07023147408962249,-0.03980988621041179
1761466535720277200,5.41227734375,0.02348667404949665,0.03915770591199398,-0.019099252745509148
1761466535730261200,5.42226123046875,0.024539982494711874,0.04591770156621933,-0.007970540487766265
1761466535740246300,5.432246337890625,-0.0013145897299051284,0.06615618747472762,0.0023744740463793276
1761466535750230300,5.442230224609375,-0.02380114682614803,0.06348083078563213,-0.006441285093873739
1761466535760215300,5.45221533203125,-0.028671383211016654,0.08449673080742359,-0.05074380654841661
1761466535770199300,5.46219921875,-0.03183949185311794,0.09645371058285236,-0.07644391886368393
1761466535780184300,5.472184326171875,-0.054254445017874235,0.10392799198627471,-0.07781243073791265
1761466535790168300,5.482168212890625,-0.07572159593850374,0.09935527724325656,-0.03865604000017047
1761466535800153300,5.4921533203125,-0.07164601706266403,0.06596797142624855,0.014868337177485227
1761466535810137300,5.502137451171875,-0.04942541742622852,0.03453764489591121,0.053931788934767244
1761466535820122400,5.512122314453125,-0.032177930027246476,0.028075755405426023,0.042630204328149554
1761466535830106400,5.5221064453125,-0.029358780953288078,0.051046881148219106,0.008323591709136963
1761466535840090400,5.53209033203125,-0.0621229864358902,0.07240472647547722,0.012146072606742381
1761466535850075100,5.5420751953125,-0.05486147100031376,0.05276712906956672,0.020309651448577642
1761466535860059100,5.55205908203125,-0.01752659660130739,0.06261106221377849,-0.003417845619469881
1761466535870044200,5.562044189453125,0.002220014137029648,0.06820201408863068,-0.030192455298453567
1761466535880028200,5.572028076171875,0.007409399473667144,0.040020460221171374,-0.028059973314404487
1761466535890013200,5.58201318359375,0.0031280688926577566,0.0463631072461605,-0.019109774139523503
1761466535899997200,5.5919970703125,0.01724164218008518,0.036759997120499606,-0.025636253298819064
1761466535909982200,5.601982177734375,0.009055997636914252,0.03331190249323845,-0.009074994598329066
1761466535919966200,5.61196630859375,0.01633680229485035,0.02682254047393799,0.001964724201709032
1761466535929950200,5.6219501953125,0.018987609064579008,0.008846154278516769,0.010659195049852133
1761466535939935200,5.631935302734375,0.012949497944116591,0.001737199056148529,0.0200184134170413
1761466535949919200,5.641919189453125,-0.0006067337214946747,-0.007358546069264412,0.018355740901827813
1761466535959904500,5.651904541015625,0.010396890851855278,0.014856792870163917,0.0020763678826391696
1761466535969888300,5.66188818359375,0.015885551396012304,0.02406009002327919,-0.03243555805012584
1761466535979873500,5.67187353515625,-0.0065390463799238204,0.04053250139653682,-0.04717880754321813
1761466535989857500,5.681857421875,-0.03146013714671135,0.05780570775866508,-0.015542583177238702
1761466535999842300,5.69184228515625,-0.02381225274205208,0.041456630504131314,0.003547901739925146
1761466536009826300,5.701826416015625,-0.0023415946900844573,0.02998421937525272,0.010244038377702236
1761466536019811300,5.711811279296875,0.014711831441521644,-0.004282791885733604,0.0013384089969098567
1761466536029795300,5.72179541015625,0.03634615562260151,0.01013794765472412,-0.020107845266163347
1761466536039779300,5.731779296875,0.029615970584750174,0.04716390223503113,-0.014596972890198229
1761466536049764400,5.741764404296875,0.02798690807819366,0.039300329253077505,-0.0007950959004461765
1761466536059748400,5.751748291015625,0.039673254218697544,0.026083704805374145,0.009521130930632352
1761466536069733400,5.7617333984375,0.03631020752638578,0.04147241259515285,-0.000977028338611126
1761466536079717400,5.77171728515625,0.01094575690627098,0.05079261412620544,-0.0019686697244644166
1761466536089702400,5.781702392578125,-0.02232932070791721,0.03753215053677559,0.02113002792075276
1761466536099686400,5.791686279296875,-0.026036650793254373,0.034113282003998754,0.007800006226450204
1761466536109671400,5.80167138671875,-0.02706716288477182,0.053358665221929544,0.004741057047247886
1761466536119655400,5.811655517578125,-0.03566343405544758,0.058615270575881,0.015041209526360034
1761466536129639400,5.821639404296875,-0.03752162914276123,0.02864624876976013,0.01191694002598524
1761466536139624400,5.83162451171875,-0.010600888991355896,0.028515315866470336,0.008825842142850161
1761466536149608400,5.8416083984375,-0.01009264720827341,0.048695349586009976,0.007192687983065843
1761466536159593200,5.85159326171875,-0.031898236303031444,0.061976855963468545,0.02067263954207301
1761466536169577500,5.861577392578125,-0.011744506068527697,0.05110884046852588,0.0421012120179832
1761466536179562200,5.871562255859375,-0.000443067592382431,0.060147886970639226,0.018222177650034428
1761466536189546200,5.881546142578125,-0.006421557480096817,0.06330547421872615,0.02942658549249172
1761466536199531300,5.89153125,0.0032476036190986633,0.04478840527534485,0.04230857115834951
1761466536209515300,5.901515380859375,0.0008346972584724426,0.0518488451808691,0.034621231526136394
1761466536219501300,5.911501220703125,-0.03603723580390215,0.08039864783883094,-0.014839111083000898
1761466536229486300,5.921486328125,-0.04835048167109489,0.06526829872429371,-0.03439092990159988
1761466536239470300,5.93147021484375,0.02933715364336967,0.015213351222872732,-0.0352288420304656
1761466536249455000,5.941455078125,0.06864625072479248,0.015895488268136977,-0.014675737214833498
1761466536259439000,5.951439208984375,0.0419844537705183,0.01132043543756008,0.0194411980509758
1761466536269424000,5.961424072265625,0.00824175864458084,0.004325461983680725,0.06406842141523957
1761466536279408000,5.971408203125,-0.015888181744515895,0.011710311537981032,0.06223448398634791
1761466536289393400,5.981393310546875,-0.01823854426294565,0.04427811766564846,0.018394465477019548
1761466536299377200,5.991377197265625,-0.009841595056653022,0.07189151625633239,-0.029533406867831943
1761466536309362400,6.001362548828125,0.005203413861989975,0.08533551971912383,-0.0611043109126389
1761466536319346400,6.011346435546875,-0.017066285613179206,0.08400164076685905,-0.05662804228141904
1761466536329330200,6.021330078125,-0.019537936423718927,0.06953764660656452,-0.018816051889955998
1761466536339315500,6.0313154296875,0.007279051092267036,0.0553559765189886,0.032258155656605954
1761466536349299500,6.041299560546875,0.03250000158846378,0.05140168593525886,0.06538125757947563
1761466536359284500,6.051284423828125,0.04107552223205566,0.02877133645415306,0.06908756475150585
1761466536369268500,6.0612685546875,0.013522329396009444,0.02715221081972122,0.07375307234451174
1761466536379253500,6.07125341796875,-0.014947978284955024,0.02455284197628498,0.05630348650217056
1761466536389237500,6.081237548828125,-0.014074702581763267,0.030681553989648818,0.03279737709984183
1761466536399222300,6.09122216796875,-0.013012626308202742,0.03072714669704437,-0.01747223606556654
1761466536409206300,6.101206298828125,-0.03224164291322231,0.03210486479103565,-0.030252661053091285
1761466536419190500,6.1111904296875,0.0009799509480595589,0.028601240584254263,-0.016398469354212283
1761466536429175300,6.12117529296875,0.01774491552710533,0.02240881568491459,0.005343991376459598
1761466536439159300,6.1311591796875,0.026499299868941305,0.002245148578286171,-0.00332812150940299
1761466536449144300,6.141144287109375,0.03078326079845428,0.0012929624199867248,-0.005549158559739589
1761466536459128300,6.15112841796875,0.03063654580414295,0.011124036082625388,0.006608019962906837
1761466536469113300,6.16111328125,0.010218027153611182,0.03367781319618225,0.006342062503099441
1761466536479097300,6.171097412109375,0.013828034344315529,0.06541384467482567,0.012354162399470806
1761466536489082400,6.181082275390625,0.016569442006945607,0.051669981482625006,0.025439853943884372
1761466536499066400,6.19106640625,0.007758943563699722,0.012701076140999794,0.01776259731426835
1761466536509051400,6.201051513671875,0.02241436864286661,0.006785130095481872,0.032666444196552034
1761466536519035400,6.211035400390625,0.03852496096640825,0.008823357924818993,0.019054390690475702
1761466536529019400,6.221019287109375,0.05910013148337602,0.022878186762332914,-0.0001030219830572605
1761466536539004400,6.23100439453125,0.06284925488382577,0.023036007672548292,-0.018432459399849176
1761466536548988400,6.240988525390625,0.03407324225455522,0.03520809150338173,-0.016515519862622022
1761466536558973400,6.250973388671875,0.0018704700469970702,0.060276481786370274,0.0014934534281492232
1761466536568957400,6.26095751953125,0.020720131945610044,0.051370121753215786,-0.004769260228425264
1761466536578942200,6.270942138671875,0.02885930699855089,0.05327274050414562,-0.0018276538185775279
1761466536588926200,6.28092626953125,-0.016270751321315766,0.05332476295232773,0.011731208195537328
1761466536598911200,6.2909111328125,-0.013968611858785151,0.03838379893004894,0.02559504450559616
1761466536608895200,6.300895263671875,0.012740239107608794,0.020794950747489927,-0.006196808813512325
1761466536618879200,6.310879150390625,0.02510872229337692,0.042970542198419566,-0.03154167795032262
1761466536628864300,6.3208642578125,0.009322539618611335,0.05856850882470607,-0.016557459308207033
1761466536638848300,6.33084814453125,0.004445288971066475,0.03207563869655132,0.008975187485665082
1761466536648833300,6.340833251953125,0.007993921363353728,0.022809797701239583,0.004442804753035307
1761466536658817300,6.3508173828125,0.01680383528470993,0.04376841457784176,0.010726853458583355
1761466536668802300,6.36080224609375,0.004237199178338051,0.04057458697259426,0.007175152326375246
1761466536678786300,6.370786376953125,0.00023030162453651428,0.055025137129426,-0.012497954784333706
1761466536688771300,6.380771240234375,0.005557049605250358,0.0715162532031536,-0.020902356644719837
1761466536698755300,6.39075537109375,0.04195873480737209,0.07283318102061748,-0.025093086332827804
1761466536708740400,6.400740234375,0.040328210996091365,0.049180502754449844,-0.03571472585126757
1761466536718724400,6.410724365234375,0.0037830256700515743,0.05991933891177177,-0.033293343923240896
1761466536728708400,6.420708251953125,-0.01759410887956619,0.08457154960930346,-0.03975581793561578
1761466536738693000,6.430693115234375,-0.023853753796219825,0.0893324804008007,-0.016274550713598727
1761466536748677400,6.440677490234375,-0.020424363869428634,0.13294950380921364,-0.025657296086847782
1761466536758662100,6.450662109375,-0.011487608698010444,0.13538169939219952,-0.013458470379561185
1761466536768646100,6.460646240234375,-0.029393267744779586,0.026608605462312696,0.028651801727712152
1761466536778631200,6.470631103515625,-0.0163324183806777,-0.018233575826883314,0.04386617586389184
1761466536788615200,6.480615234375,0.013944646461308002,-0.03914776903986931,0.03292684869840741
1761466536798600400,6.490600341796875,0.05205751949548721,-0.06931552828848361,0.001176496433466673
1761466536808584200,6.500584228515625,0.04011953668147325,-0.07305822194814682,-0.002935468930006027
1761466536818568200,6.510568115234375,0.023443419429659842,-0.054611880153417586,0.05251227752566337
1761466536828553200,6.52055322265625,0.04945990421772003,-0.046667058628797525,0.09370251217857002
1761466536838537200,6.530537109375,0.04987374571561813,-0.0012117138773202894,0.0517867397300899
1761466536848522500,6.5405224609375,0.02866846060156822,0.06343757616579532,-0.02976633884087205
1761466536858506200,6.55050634765625,0.01641220561861992,0.08285539334118366,-0.06898761150836945
1761466536868491500,6.560491455078125,0.02256868242174387,0.06762216837406158,-0.04875365564450621
1761466536878475500,6.5704755859375,0.01660860497355461,0.07807984950244426,-0.025827538087219
1761466536888460300,6.580460205078125,0.02187982337474823,0.05769932477474212,0.005490998631715774
1761466536898444300,6.5904443359375,0.04395692288726568,0.04098784394860267,0.029085809230804442
1761466536908428500,6.600428466796875,0.014851239912211893,0.01876373718082905,0.017790362104028463
1761466536918413300,6.610413330078125,-0.005198737686872482,0.01294131463766098,-0.010207505759596823
1761466536928397300,6.620397216796875,0.01175707328915596,0.01942716952562332,-0.057244128353148696
1761466536938382300,6.63038232421875,0.04174655336141586,0.03461304821968078,-0.10280834030658006
1761466536948366300,6.640366455078125,0.005558218649029731,0.08260580249428749,-0.06955415934994816
1761466536958351400,6.650351318359375,-0.03583177635967731,0.09958090269267558,-0.014771306543797253
1761466536968335400,6.66033544921875,-0.058034255817532535,0.07555179232954978,0.03883388078510761
1761466536978320400,6.6703203125,-0.04997603704631328,0.04365969350636005,0.054795712287724015
1761466536988304400,6.680304443359375,-0.02889408605098724,0.031814941933751104,0.04631298449411988
1761466536998289400,6.690289306640625,0.007256839260458945,0.038164603221416474,0.020760317825526
1761466537008273400,6.7002734375,-0.012905366541445255,0.06340893459320068,-0.03160816731527447
1761466537018257400,6.71025732421875,-0.012729425452649592,0.026481764212250708,-0.01980725488439202
1761466537028242400,6.720242431640625,-0.0029740473747253415,0.015761048233509063,0.007815934447944164
1761466537038226400,6.730226318359375,0.018989947152137754,0.03518178801834583,-0.00023410101681947706
1761466537048211500,6.74021142578125,0.03339373555779457,0.04741700021326541,0.015209990222007036
1761466537058195500,6.750195556640625,0.05046119021475315,0.04892565121054649,0.006971300317347049
1761466537068180200,6.76018017578125,0.06472381658405064,0.05386369213461876,-0.02966112490072846
1761466537078164200,6.770164306640625,0.03369417980909347,0.06795125419795513,-0.0476147147424519
1761466537088149200,6.780149169921875,0.02106149272918701,0.059868485507369035,-0.05075900411754846
1761466537098133200,6.79013330078125,0.011551321583986281,0.043351650470495225,-0.03830547299683094
1761466537108117200,6.8001171875,0.006072013390064239,0.053937926414608955,-0.018901245955377816
1761466537118102300,6.810102294921875,-0.004994739547371864,0.0462760134845972,0.015943272932618855
1761466537128086300,6.820086181640625,0.01628010367155075,0.024324293917417524,0.05131269247755408
1761466537138071300,6.8300712890625,0.039950317594408986,0.0051829555958509445,0.04737184589728713
1761466537148055300,6.84005517578125,0.0508510663151741,0.019331892457604406,0.004115034103393554
1761466537158040300,6.850040283203125,0.020357728374004364,0.058615270575881,-0.025119682078808544
1761466537168024300,6.8600244140625,-0.022853052321076393,0.05423252544701099,-0.028261341105401513
1761466537178009300,6.87000927734375,-0.02000233906507492,0.04222995296418667,-0.013311170863360165
1761466537187993300,6.879993408203125,-0.0038259880289435383,0.03714578156769276,-0.0020120704747736452
1761466537197978400,6.889978271484375,0.005767185224592686,0.02116086145043373,0.007801613661646842
1761466537207962400,6.89996240234375,0.02082096197158098,0.006074351477622986,0.011599398509413003
1761466537217946400,6.9099462890625,0.005556465083360672,0.01114274078309536,0.009242021728307008
1761466537227929600,6.9199296875,0.02784896091222763,0.028897008660435673,-0.003622136019915342
1761466537237913600,6.92991357421875,0.016633739414811135,0.038697687184810634,0.010180763883143663
1761466537247898600,6.939898681640625,0.0019067104041576384,0.05007949742078781,0.011653174523264169
1761466537257882600,6.949882568359375,0.02666471956372261,0.053771337676048275,0.005470832626521587
1761466537267867600,6.95986767578125,0.03830956465005875,0.048104982477426526,-0.005659925457835197
1761466537277851600,6.9698515625,0.031599253356456754,0.044591421398520466,-0.011861556576937436
1761466537287836700,6.979836669921875,0.03792553376853466,0.028670798689126968,-0.022687340365350243
1761466537297820700,6.989820556640625,0.014346797521412371,0.028941432324051854,-0.00858078134059906
1761466537307804700,6.9998046875,-0.005232055434584618,0.025030980882048606,0.021148732621222733
1761466537317789400,7.00978955078125,-0.015777122585475443,0.019342998373508453,0.035090018081665036
1761466537327773700,7.019773681640625,0.00877338130325079,0.020807810229063032,0.04009703258872032
1761466537337758500,7.029758544921875,0.028442250630259513,0.011696283012628554,0.030713410432636735
1761466537347742500,7.039742431640625,0.03531622805297375,0.006501636978983879,-0.0005552957952022552
1761466537357727500,7.0497275390625,0.04746434648633003,0.023725743502378462,-0.029160920293629166
1761466537367711500,7.05971142578125,0.012783493727445602,0.053472062468528744,-0.026480156777054068
1761466537377696500,7.069696533203125,-0.0036421558946371077,0.06060965926349163,-0.01311097211614251
1761466537387680500,7.079680419921875,0.018611469228565693,0.046775779700279234,0.0032573943607509133
1761466537397665500,7.08966552734375,0.02478372812271118,0.0420411523938179,-0.0040630116552114485
1761466537407649500,7.0996494140625,0.01350771634876728,0.04030278429389,-0.00892170373275876
1761466537417633500,7.109633544921875,0.029532968476414678,0.03733282857239246,-0.018473522062599657
1761466537427618600,7.11961865234375,0.02196691713631153,0.028128946897387503,-0.02153992389589548
1761466537437602600,7.1296025390625,-0.02674216871410608,0.044294484278559684,-0.029762685579061508
1761466537447587800,7.139587890625,-0.03117196785509586,0.06774491797089577,-0.030888913130015135
1761466537457571600,7.149571533203125,-0.006961071184277534,0.06644084963500499,-0.01738265808597207
1761466537467556600,7.159556640625,0.015056114834547041,0.0447989266693592,0.0051939153812825675
1761466537477540600,7.16954052734375,0.02390928337574005,0.034628830310702324,0.015536299566924571
1761466537487525600,7.179525634765625,0.06806348240077495,0.03256312995254993,0.0230738554649055
1761466537497509600,7.189509521484375,0.0902843742981553,0.003229483440518379,-0.002676233471930027
1761466537507493400,7.199493408203125,0.04668751689493656,-0.009142506876587866,-0.03455196568220854
1761466537517478700,7.209478759765625,0.005851648637652397,0.008069909209012984,-0.056017947559058666
1761466537527462700,7.219462646484375,0.03353752794265747,0.012238134804368018,-0.06225757260099053
1761466537537447700,7.22944775390625,0.02441781741976738,0.03638882572054863,-0.045840398546308274
1761466537547431700,7.239431640625,-0.018708207601308823,0.06593699176609516,-0.004548018693178892
1761466537557416700,7.249416748046875,0.007141980709135532,0.04597264662384987,0.03586582475975156
1761466537567400700,7.259400634765625,0.03761456812322139,0.03151040602922439,0.042681934515386814
1761466537577385700,7.2693857421875,0.0026636662513017653,0.03779986156225204,0.040865386612713335
1761466537587369700,7.27936962890625,-0.012420505633950233,0.03229132727384567,0.020237024603784085
1761466537597353700,7.289353759765625,0.0068956047326326365,0.034086978518962856,0.0019951193399727345
1761466537607338800,7.2993388671875,0.019610417138040064,0.020389877077937126,-0.0315482538215816
1761466537617322800,7.30932275390625,0.005896656823158264,0.03683656948804855,-0.03161167444661259
1761466537627307800,7.319307861328125,-0.007219429859519004,0.04707914656102657,-0.01042918568626046
1761466537637291800,7.329291748046875,0.015676877081394196,0.046236265996098515,0.004866729253530502
1761466537647276500,7.339276611328125,0.0669958531692624,0.03871580736339092,0.01737754351943731
1761466537657260500,7.349260498046875,0.04903028062880039,0.03401508232653141,0.024038462713360784
1761466537667245600,7.35924560546875,-0.00274842192530632,0.028670798689126968,0.026176789916306734
1761466537677229600,7.3692294921875,0.0038487843826413154,0.018980010280013084,-0.014520985044538973
1761466537687214600,7.379214599609375,0.03860942437946796,0.03496200778782368,-0.03905497618988156
1761466537697198600,7.389198486328125,0.027711598268151283,0.03464461240172386,-0.029107144279778
1761466537707182600,7.3991826171875,-0.029654256768524644,0.04514437910616398,0.009295797742158173
1761466537717167600,7.409167724609375,-0.026458383336663244,0.036514497926831244,0.05313260138109326
1761466537727151600,7.419151611328125,0.03071487173736095,0.0016109423279762267,0.04620747829303145
1761466537737136600,7.42913671875,0.07763327477872371,-0.008706453546881675,0.02971855417639017
1761466537747120600,7.43912060546875,0.08280570898056029,-0.02484042674601078,-0.0011544307321310042
1761466537757105700,7.449105712890625,0.06460837351083755,0.004666238245368003,-0.03766279117912054
1761466537767089700,7.459089599609375,0.04307107996344566,0.04660743739604949,-0.025141163258254526
1761466537777074700,7.46907470703125,0.02801438060700893,0.02538110949397087,0.020122604443877933
1761466537787058700,7.47905859375,0.038739188238978386,0.007986322578787803,0.03713233756422996
1761466537797042700,7.489042724609375,0.05519114134609699,0.017894553130865097,0.039933512590080496
1761466537807027500,7.49902734375,0.040754327453672884,0.015334347254037857,0.025218466278165576
1761466537817011700,7.50901171875,0.02555237440764904,0.004619476494193077,0.020773323437571524
1761466537826996500,7.51899658203125,0.04809153847396373,0.0075333181142807,-0.006231295605003833
1761466537836980500,7.52898046875,0.024921675288677215,0.04178805441558361,-0.027505846562981603
1761466537846965500,7.538965576171875,-0.011687515184283256,0.06947276467680931,-0.005250760135054588
1761466537856949500,7.548949462890625,-0.016806173372268675,0.05369768791794777,0.026779139723628758
1761466537866934500,7.5589345703125,0.0249310276389122,0.021087796214222906,0.014352788870781659
1761466537876918500,7.56891845703125,0.049151276659965513,0.016927753925323485,0.00332812150940299
1761466537886903600,7.578903564453125,0.038299043256044385,0.0037052842587232586,-0.009405687857419251
1761466537896887600,7.588887451171875,0.03262187440246343,-0.02511047585904598,0.001643821684271097
1761466537906871600,7.59887158203125,0.0940337899595499,-0.05923018760383129,-0.0033259295523166655
1761466537916856600,7.608856689453125,0.042972880285978315,0.1082119529157877,0.030455928540229795
1761466537926840600,7.618840576171875,0.022091420298814772,-0.027534488135576247,-0.0032397125735878943
1761466537936825600,7.62882568359375,0.0194324302226305,0.014364625439047813,0.0450607924759388
1761466537946809600,7.6388095703125,0.05411386750340461,0.01051087262034416,0.028397242444753647
1761466537956794600,7.648794677734375,0.06646306146681308,0.007876432463526725,0.0016175181992352007
1761466537966778600,7.658778564453125,0.008912205252051353,0.006061491996049881,-0.0012197510533034802
1761466537976763600,7.668763671875,0.005937865616381168,0.009019172757863998,-0.00864551713988185
1761466537986747400,7.678747314453125,0.07578793917298317,0.0055360068172216415,-0.02209755777865648
1761466537996731400,7.6887314453125,0.10555705449283122,0.021628478962182996,-0.03112126058116555
1761466538006716700,7.698716552734375,0.05702361747026443,0.02312836213111877,-0.004484890329092741
1761466538016700400,7.708700439453125,0.031772271835803986,0.022854221364855765,0.01925342039391398
1761466538026685700,7.718685791015625,0.062245736032724375,0.030389293044805525,0.009243775293976068
1761466538036669400,7.72866943359375,0.018854630334675312,0.03715630296170711,-0.01974924108684063
1761466538046654700,7.73865478515625,-0.011322773525118826,0.043563831916451454,-0.03425824343264103
1761466538056638700,7.748638671875,0.00452478394806385,0.04303308604061603,-0.037661768265813585
1761466538066623700,7.758623779296875,0.029516601863503453,0.07124561956822872,-0.013462123641371726
1761466538076607700,7.768607666015625,0.04671382037997245,0.06111936235129833,0.023367285453528164
1761466538086592800,7.7785927734375,0.07673428011238574,0.03407996425628662,0.04007467462643981
1761466538096576800,7.78857666015625,0.0747539199501276,0.02397884148061275,0.011611527338624
1761466538106560800,7.798560791015625,0.01820288842767477,0.042429859450459476,-0.0368618500597775
1761466538116545800,7.8085458984375,-0.02775397610515356,0.05820785881876945,-0.07742065494135021
1761466538126529800,7.81852978515625,-0.019381576818227768,0.07473989142477512,-0.09403934291750192
1761466538136514600,7.8285146484375,0.0014554595053195953,0.07018938851356506,-0.07604673623964191
1761466538146498600,7.83849853515625,0.013631634989380836,0.06343231546878814,-0.03777501938194036
1761466538156483600,7.848483642578125,0.04072042518407106,0.06251987679898738,-0.0019195698857307434
1761466538166467600,7.858467529296875,0.06085574297904968,0.040895489490032196,0.005045592951774597
1761466538176452600,7.86845263671875,0.06469663631618022,0.00559270544052124,0.010324994659423827
1761466538186436600,7.8784365234375,0.055366497913002966,-0.020094693523645398,0.031364860078692436
1761466538196420600,7.888420654296875,0.04159720801860094,-0.019686697244644166,0.03239858704060316
1761466538206405600,7.898405517578125,0.02562280929535627,-0.01106733745932579,0.029986995854228732
1761466538216389600,7.9083896484375,-0.01795066723227501,0.011783376774191856,0.02800532051771879
1761466538226374400,7.91837451171875,-0.008689502412080764,0.014519523739814758,0.025942396638542413
1761466538236358400,7.9283583984375,0.02203063002228737,0.012660159608721732,-0.01274418463036418
1761466538246343400,7.938343505859375,0.03539192363768816,0.03606967676877975,-0.04428279384076595
1761466538256327400,7.948327392578125,0.02060088948011398,0.03565057457387447,-0.05356397853568196
1761466538266312400,7.9583125,0.02511222942471504,0.02629822433888912,-0.05625482505485415
1761466538276296400,7.96829638671875,0.0224669756129384,0.025491584131121636,-0.021442747131735086
1761466538286280400,7.978280517578125,0.0066594578891992565,0.007401800689101219,0.02156213572770357
1761466538296265500,7.988265380859375,-0.004820259763300419,0.01943944448530674,0.0585815144367516
1761466538306249500,7.99824951171875,0.0027732641056179997,0.028763737669587133,0.05343377628475427
1761466538316232200,8.008232177734374,0.01251958209425211,0.040946342894434926,0.03292962517738342
1761466538326216200,8.01821630859375,0.012629179948568343,0.03793137898743153,0.00024126140996813772
1761466538336201500,8.028201416015625,0.016332126119732854,0.02200140392780304,-0.027101941937208173
1761466538346185200,8.038185302734375,0.041299394115805625,0.007314122405648231,-0.04565817384719848
1761466538356169200,8.048169189453125,0.030582185268402097,0.029627076500654218,-0.0356669411867857
1761466538366154500,8.058154541015625,0.02926496518999338,0.044669162809848784,-0.016822101593762635
1761466538376138200,8.06813818359375,0.015736498314142228,0.040742929276824,-0.012903466845303774
1761466538386123500,8.07812353515625,-0.01772971795797348,0.0598918663829565,-0.009357318671047688
1761466538396107500,8.088107421875,-0.04111497745960951,0.08773147494494915,-0.0020345745675265786
1761466538406092300,8.09809228515625,-0.0506526211336255,0.07428396435081959,0.02339884963557124
1761466538416076500,8.10807666015625,-0.04313771545886993,0.05704758286774158,0.0456792166352272
1761466538426061300,8.118061279296874,-0.049935120514035224,0.04900631523132324,0.04804901450648903
1761466538436045300,8.12804541015625,-0.04486819251328707,0.04176701162755489,0.025021336270868777
1761466538446030300,8.1380302734375,-0.029916122575104235,0.05139876332581043,0.0034926644213497636
1761466538456014300,8.148014404296875,-0.029932196927070616,0.0649719461262226,-0.01042465564161539
1761466538465998300,8.157998291015625,-0.02682546308338642,0.05672609582841396,-0.00650090632662177
1761466538475983400,8.1679833984375,-0.004645195457339287,0.06264613352715968,0.0012985153779387472
1761466538485967400,8.17796728515625,-0.004483575154840946,0.05384031125903129,0.007119038224965333
1761466538495952400,8.187952392578126,0.007645546317100524,0.031080197918415067,0.013259879067540168
1761466538505936400,8.197936279296876,0.015601181496679783,-0.012397709280252456,0.016556582525372503
1761466538515921400,8.20792138671875,0.02496317634284496,-0.0031073183655738828,0.00313902867808938
1761466538525905400,8.217905517578124,0.011405191111564636,0.02043546978533268,-0.0025410627849400042
1761466538535890400,8.227890380859375,-0.01331862351745367,0.05073299289345741,0.014343290390074252
1761466538545874400,8.23787451171875,-0.03457446977496147,0.039459903728961944,0.006394523342698812
1761466538555858400,8.2478583984375,-0.020288462530076504,0.04994096573293209,0.008735971902310848
1761466538565843500,8.257843505859375,-0.010362111799418925,0.06334054553210736,0.020666063670814035
1761466538575827500,8.267827392578125,-0.002762450450658798,0.046378889337182046,0.013064064234495161
1761466538585812200,8.277812255859375,0.001803250029683113,0.02462123103737831,0.01412745568230748
1761466538595796200,8.287796142578125,0.04041121310442686,0.013636311164498328,0.002266191366314888
1761466538605781200,8.29778125,0.07483779884129763,0.018393734824657438,-0.026359891398251054
1761466538615765200,8.30776513671875,0.04334112907648086,0.01680032815337181,-0.02312280917316675
1761466538625750300,8.317750244140624,-0.005276479098200798,0.04168050238788128,-0.007680325369536876
1761466538635734300,8.327734375,-0.0038432314246892928,0.042293665850162504,0.01998728762641549
1761466538645718300,8.33771826171875,-0.0011994389176368714,0.019094576570391653,0.0018777765706181526
1761466538655703300,8.347703369140625,-0.03753302731961012,0.03316109584569931,-0.0029163258381187914
1761466538665687300,8.357687255859375,-0.035357729107141495,0.05762450597286224,-0.007572627211362123
1761466538675672300,8.36767236328125,0.03063742258697748,0.06732347768843173,-0.02094064282849431
1761466538685656300,8.37765625,0.05804068555831909,0.07535305488705635,-0.00755640672892332
1761466538695641300,8.387641357421876,0.028704700958728787,0.05712473975718021,0.02389671615511179
1761466538705625300,8.397625244140626,0.016395254483819007,0.006539630901813507,0.028516923301666972
1761466538715610400,8.4076103515625,0.005041793559491634,-0.011000117442011832,0.015801234113425017
1761466538725594400,8.417594482421874,-0.03722878367602825,0.015534838262200354,-0.005244622655212879
1761466538735579100,8.4275791015625,-0.022755437165498733,0.024384499672055242,-0.028945962368696926
1761466538745563400,8.4375634765625,0.008250526472926139,0.06963643080592155,-0.061340165495127434
1761466538755547400,8.44754736328125,-0.01068564466536045,0.09459317740797996,-0.055822132726013655
1761466538765532200,8.4575322265625,-0.0028431144714355467,0.09963584775030612,-0.03377192122042179
1761466538775516200,8.46751611328125,0.010462065042555332,0.07487491598129271,-0.029841303773224352
1761466538785501200,8.477501220703125,0.006322773280739784,0.04789806172847748,-0.016370850694924593
1761466538795485200,8.487485107421875,0.02374941663891077,0.025824761608242985,0.008322276534885167
1761466538805470200,8.49747021484375,0.028493980817496774,0.012011340311169624,0.02048530027642846
1761466538815454200,8.5074541015625,-0.010885551151633262,0.0369563964754343,0.017259031706303357
1761466538825439200,8.517439208984374,-0.06568097117841243,0.04384147981405258,0.0008528174370527267
1761466538835423200,8.52742333984375,-0.03953706061840057,0.03796820386648178,-0.013200988487154244
1761466538845407200,8.5374072265625,0.004948562318086624,0.023414193335175512,-0.04246010845825076
1761466538855392300,8.547392333984375,0.017331658551096914,0.04155366113781929,-0.03826046481132507
1761466538865376300,8.557376220703125,0.023387889850139617,0.033579028996825216,-0.007435556828230619
1761466538875361300,8.567361328125,0.0325426716864109,0.027833178821206093,-0.00918809958398342
1761466538885345300,8.57734521484375,0.021661212188005447,0.032712183034420014,-0.008075023775547743
1761466538895330300,8.587330322265625,0.010021043276786804,0.052071548020839686,0.0007877893768250941
1761466538905314300,8.597314208984375,0.023224223721027372,0.04884148005843162,-0.0005653787977993488
1761466538915299300,8.60729931640625,0.018166648070514203,0.054769116541743275,-0.012406623239070177
1761466538925283300,8.617283447265624,-0.022537995022535322,0.0618570289760828,-0.01117562013939023
1761466538935267300,8.627267333984374,-0.034359950241446495,0.03954582844674587,0.007025222461670637
1761466538945252400,8.63725244140625,-0.002750467751920223,0.006442600268125534,0.013637041816860436
1761466538955236400,8.647236328125,0.04509586378931999,0.006563596299290657,0.01305675771087408
1761466538965221400,8.657221435546875,0.09047112904191017,0.0013069909453392028,0.018811521845310927
1761466538975205400,8.667205322265625,0.08053250335156917,0.007989245188236236,0.009718114807456732
1761466538985190400,8.6771904296875,0.03898556421548128,0.041159108862280844,0.012001987960934638
1761466538995174400,8.68717431640625,0.011441723729670047,0.04268295742869377,0.011035188755393027
1761466539005159400,8.697159423828126,-0.0011959317862987517,0.018535189121961594,0.008130407224595546
1761466539015143400,8.707143310546876,0.1662918014407158,0.005257774397730827,-0.008790186307579278
1761466539025127400,8.71712744140625,0.32738194258511066,0.05145546194911003,-0.038083062417805194
1761466539035112400,8.727112548828124,-0.10503946035951375,0.0021662381231784818,0.005976005669683217
1761466539045096400,8.737096435546874,-0.02783493238687515,0.00559270544052124,-0.0494252712957561
1761466539055081500,8.74708154296875,-0.024884265887737272,0.12151684016883373,-0.015128303287923335
1761466539065065500,8.7570654296875,-0.10512041664123535,0.08230068206787108,0.04083236112594604
1761466539075050200,8.76705029296875,-0.060575172472000116,0.0988093337982893,0.00069864978864789
1761466539085034500,8.777034423828125,-0.025470541343092918,0.13567045320570467,0.006582739391177892
1761466539095019300,8.787019287109375,-0.04700462002009153,0.09745675014555454,-0.0076366323582828044
1761466539105003300,8.797003173828125,-0.06063654727041721,0.06815466781556606,-0.012289134339243174
1761466539114987300,8.8069873046875,-0.05077975464463234,0.04819149171710014,-0.027887539356946944
1761466539124972300,8.81697216796875,0.0014548749834299086,0.029155367335677144,-0.022340280493348835
1761466539134956300,8.826956298828126,0.04154781591892242,0.007069207733869552,0.0012048457451164722
1761466539144941300,8.83694140625,0.09744593649059534,-0.04227379210591316,0.03208601396009326
