time,seconds_elapsed,z,y,x
1761466491794135800,0.1421357421875,0.08948328704833984,-0.00986263784468174,-0.16795973465293645
1761466491804120800,0.152120849609375,0.05163257208168506,-0.014634090030193328,-0.15274930603951214
1761466491814104800,0.162104736328125,0.03760346220731735,-0.010135025045275688,-0.12999620696157216
1761466491824089900,0.17208984375,0.028948446586728096,0.022920856860280035,-0.11383782997354865
1761466491834074600,0.18207470703125,0.027315876948833463,0.052663668695092196,-0.11004852069318294
1761466491844059000,0.192058837890625,0.05399637860357761,0.051425066810846326,-0.10429536399394274
1761466491854043600,0.202043701171875,0.09776771579086779,0.037009003445506096,-0.12196209971830248
1761466491864027600,0.212027587890625,0.13687047664523125,0.021038696375489233,-0.10153890489265321
1761466491874012700,0.2220126953125,0.13738719399571417,0.004988894328474998,-0.0765564393274486
1761466491883996700,0.23199658203125,0.13825988517701626,-0.026133389165997504,-0.06800459182038902
1761466491893981700,0.241981689453125,0.1202501812338829,-0.01704991900026798,-0.04898264209479093
1761466491903965700,0.251965576171875,0.10991641874611377,0.02035948193967342,-0.06556698940992355
1761466491913950700,0.26195068359375,0.06624854193329811,0.028182138389348983,-0.0967712520994246
1761466491923934700,0.271934814453125,0.019921090522408483,0.04692424826025963,-0.11840543015003203
1761466491933919700,0.281919677734375,0.002121229937672615,0.035117490610480306,-0.13112228838205336
1761466491943903700,0.29190380859375,-0.015105214673280715,0.03818681505322456,-0.13133359304517506
1761466491953888800,0.301888671875,-0.01640168422460556,-0.0016617957323789595,-0.08529401866495609
1761466491963873500,0.31187353515625,0.033413609302043915,-0.07191606617569923,-0.04406695913299918
1761466491973857500,0.321857421875,0.08312018175721168,-0.09850888954699039,0.004089169009774923
1761466491983842800,0.3318427734375,0.1330991414129734,-0.10259235946834087,0.017854221120476722
1761466491993826600,0.34182666015625,0.211756498542428,-0.0745668729454279,0.010074965421110391
1761466492003811800,0.351811767578125,0.23787702822685242,-0.04616787693500519,-0.024927228246629237
1761466492013795800,0.3617958984375,0.1805477058082819,-0.035790859827399255,-0.06711290367767214
1761466492023780900,0.37178076171875,0.10933189685642719,-0.0076589903205633155,-0.11798778925985097
1761466492033764900,0.381764892578125,0.026554244926571845,0.036681671187281606,-0.16325842509418725
1761466492043750000,0.39175,0.01880465371310711,0.10345160664618015,-0.16302768507823348
1761466492053734000,0.40173388671875,0.03774316293895244,0.10932722068130969,-0.1409590611331165
1761466492063719000,0.411718994140625,0.030925299617648123,0.10672668279409409,-0.11134119085222483
1761466492073703700,0.42170361328125,0.046886838859319685,0.06979016006290913,-0.08356821778565644
1761466492083687700,0.431687744140625,0.07639934906959533,0.059336570587754246,-0.030843758814036844
1761466492093672700,0.441672607421875,0.09211772720515728,-0.025371757143735883,0.01998275758177042
1761466492103656700,0.45165673828125,0.11116904915571212,-0.12042670684456824,0.02634089443683624
1761466492113641700,0.461641845703125,0.1268938570320606,-0.20716215648949146,-0.011138210738450288
1761466492123625700,0.471625732421875,0.18578794454932213,-0.2262783603698015,-0.048227293682843446
1761466492133610800,0.48161083984375,0.19483049818277356,-0.24389292751550673,-0.14195084864944219
1761466492143594800,0.4915947265625,0.10397475373744965,-0.09373276118636131,-0.19981047855243086
1761466492153579800,0.501579833984375,-0.2112730989396572,0.06065525197088718,-0.22403788796663282
1761466492163563800,0.511563720703125,-0.1983715317904949,0.14985329233705996,-0.21001652300730347
1761466492173548800,0.521548828125,-0.03764379421770572,0.1804997750133276,-0.20719722780287264
1761466492183531800,0.53153173828125,0.016017653343081473,0.14980068536698818,-0.1656019194804132
1761466492193517000,0.54151708984375,0.12939268811047078,0.12336217577457427,-0.1339667180277407
1761466492203501800,0.551501708984375,0.20348025310635565,0.05145604647099972,-0.15517287992462514
1761466492213486000,0.561486083984375,0.16693477551937103,0.15086977590322492,-0.10549451065063475
1761466492223470800,0.571470947265625,0.10567921956777572,0.25019056635499,-0.014375585224479437
1761466492233454800,0.581454833984375,0.04411065214425325,0.46490416113734245,0.1916030605688691
1761466492243439900,0.59143994140625,0.19267887310683726,0.3604676351070404,0.2251118008084595
1761466492253423900,0.601423828125,0.2991863601922989,0.22306875067353246,0.16849778705239296
1761466492263409000,0.611408935546875,0.2567722828328609,0.1806950053244829,0.037610914861410855
1761466492273393000,0.621392822265625,0.08699585414677857,0.17227438298165798,-0.045178719767183066
1761466492283378000,0.6313779296875,-0.0557744941920042,0.19478432095348833,-0.11445289313197135
1761466492293362000,0.64136181640625,-0.0721399380594492,0.21714052966833114,-0.16915522804781793
1761466492303347000,0.651346923828125,-0.04193476940989494,0.1773006867110729,-0.21512904371544717
1761466492313331000,0.6613310546875,-0.034067104774713516,0.12498422401845455,-0.23563114899620413
1761466492323316000,0.67131591796875,-0.012514613658189773,0.08389116612970829,-0.24567206601724026
1761466492333300700,0.68130078125,-0.019716215600073337,0.03492869004011154,-0.23347660131081938
1761466492343284700,0.69128466796875,-0.06585048252642155,-0.059413142955303186,-0.24433248797655105
1761466492353269800,0.701269775390625,-0.10515344212800264,-0.08068915521800518,-0.2635487912304699
1761466492363253800,0.711253662109375,-0.11744126129299401,-0.08505261112451552,-0.2856866810195148
1761466492373238800,0.72123876953125,-0.04625409391373396,-0.04816168110072613,-0.24705986711382866
1761466492383222800,0.731222900390625,0.04830781157314777,-0.004717676171660423,-0.18238705006465314
1761466492393207800,0.741207763671875,0.07336568046212195,0.031099487140774724,-0.12587459698691963
1761466492403191800,0.75119189453125,0.040341947260499,0.0743266344487667,-0.09205226075351237
1761466492413176800,0.7611767578125,-0.010317980396747589,0.05181435838937759,-0.1384498547911644
1761466492423160800,0.771160888671875,-0.019579437477886676,0.07712298716902732,-0.13356281340196727
1761466492433145900,0.781145751953125,-0.0005997194588184357,0.10298924983143806,-0.11397563100904226
1761466492443129900,0.7911298828125,0.001391162097454071,0.10392799198627471,-0.07547346639633178
1761466492453114600,0.801114501953125,-0.011986790391802787,0.09392974506318569,-0.04731777762249112
1761466492463100000,0.811099853515625,-0.021584639820456504,0.08320318386554718,0.03034180064126849
1761466492473084000,0.821083984375,0.03316080358475446,-0.1007610523879528,0.10011457117795944
1761466492483069000,0.83106884765625,0.2001186677187681,-0.2919663458108902,0.04633431954309344
1761466492493053000,0.841052978515625,0.28228257166445253,-0.29048750542998314,-0.11894772033318876
1761466492503038000,0.851037841796875,0.19804303048849103,-0.1758545795559883,-0.2421104280129075
1761466492513022000,0.86102197265625,0.11999357612431048,-0.11640168911218643,-0.2989851385317743
1761466492523007000,0.871007080078125,0.051503392744064326,-0.0693903470903635,-0.23879297402799127
1761466492532991000,0.880990966796875,-0.017961773148179053,-0.02786415848135948,-0.0895174815788865
1761466492542976000,0.89097607421875,-0.1460015853449702,-0.07782850508987903,0.009822159703820943
1761466492552960000,0.9009599609375,-0.2670037539899349,-0.10498831469416618,0.10651567039191723
1761466492562944800,0.91094482421875,-0.07052139694690704,-0.18205986393690107,0.08827288834527135
1761466492572929000,0.920928955078125,0.37021658344417807,-0.11983750877976417,-0.06881254720240831
1761466492582913800,0.930913818359375,0.41870647358596325,0.0625806670755148,-0.09121551766842603
1761466492592898800,0.94089892578125,0.09806114577949046,0.03250993846058845,-0.016812603113055227
1761466492602882800,0.9508828125,-0.05793254900872707,0.04733458262681961,0.04180778202936053
1761466492612867800,0.960867919921875,0.008669044145941733,0.013916297149658202,0.06178323308750987
1761466492622851800,0.970851806640625,0.04309884475320577,0.010621931779384612,0.06392039124667644
1761466492632836900,0.9808369140625,0.1433969558045268,0.23110943378806112,0.017797960888594387
1761466492642820900,0.99082080078125,0.20608020647168157,0.2836100208759308,0.014543050745874642
1761466492652806000,1.000805908203125,0.131356097137928,0.2323264083623886,0.052530982226133345
1761466492662790000,1.010789794921875,0.03865267899930477,0.28920097275078294,0.019335399588942526
1761466492672775000,1.02077490234375,-0.020814239969849584,0.351760597038269,0.018143851716816425
1761466492682759000,1.030759033203125,0.012616320466995238,0.24633739805817603,0.024690789142251014
1761466492692743700,1.04074365234375,0.12959084103107452,0.06351122592389583,-0.015274726021289825
1761466492702727700,1.050727783203125,0.19370266319662333,-0.001631400594115257,-0.09683905663862824
1761466492712712700,1.060712646484375,0.2190089538887143,0.00315232655107975,-0.13373407831564546
1761466492722696700,1.07069677734375,0.21790976047515867,-0.09721300451755523,-0.156704327275604
1761466492732681700,1.080681640625,0.2506552612572908,-0.13708791878819465,-0.21376403897255658
1761466492742667000,1.0906669921875,0.25367723942697046,-0.08826631247401237,-0.25043109711259604
1761466492752651000,1.100651123046875,0.23761428563743828,-0.08019348065555096,-0.2555453713864088
1761466492762636000,1.110635986328125,0.17692893078923225,-0.0047118309527635575,-0.2596206580013037
1761466492772620000,1.1206201171875,0.1317833826392889,0.07038286525905132,-0.24448037201464173
1761466492782605000,1.13060498046875,0.10157090746611357,0.08623977508246898,-0.194779352517426
1761466492792589000,1.140589111328125,0.06847878520339727,0.07335983524322509,-0.1590057360857725
1761466492802573800,1.15057373046875,0.10728899285197258,0.027128829944133757,-0.13650047428905962
1761466492812557800,1.160557861328125,0.17047580912709234,-0.04704056811630725,-0.07058072591871023
1761466492822542800,1.17054296875,0.09069500092566013,-0.002979308071732521,-0.2866102256052196
1761466492832526800,1.18052685546875,0.09033084378838539,0.010432546687126159,-0.22721695639416575
1761466492842512000,1.190511962890625,0.14549626617133615,-0.06433715535402297,-0.298898044770211
1761466492852496000,1.200495849609375,0.17268588639199733,0.08988836071789263,-0.4325583271972835
1761466492862481000,1.21048095703125,-0.03183598472177982,0.270371769118309,-0.4877133743166923
1761466492872466000,1.2204658203125,-0.1495686301767826,0.17570552647411822,-0.3767765264816582
1761466492882450000,1.230449951171875,-0.16642039625644683,0.10396247877776622,-0.1948975720696151
1761466492892435000,1.24043505859375,-0.07930266929566859,0.0972100819081068,-0.10632087847217916
1761466492902419000,1.2504189453125,-0.044264673662185665,0.13269699035286903,-0.10187471271827817
1761466492912403700,1.26040380859375,-0.02931201920211315,0.1547188525468111,-0.09175590815544128
1761466492922387700,1.2703876953125,0.020399813950061796,0.1324976683884859,-0.11396160248368978
1761466492932372700,1.280372802734375,0.11167407606840132,0.11787059262096881,-0.15246902779340743
1761466492942356700,1.290356689453125,0.17300240499526262,0.05346913985908031,-0.18862696736752985
1761466492952341800,1.300341796875,0.15650807405114173,0.05046528186798095,-0.20834479040279982
1761466492962325800,1.31032568359375,0.11081365984678268,0.058733928519487374,-0.20930822860747575
1761466492972310800,1.320310791015625,0.0739458184376359,0.022926117557287216,-0.1912764589630067
1761466492982294800,1.330294677734375,0.07875614132881165,0.0030757541835308073,-0.16341186209022998
1761466492992279800,1.34027978515625,0.11981120529472827,-0.005939911442995071,-0.15768077109232545
1761466493002265000,1.35026513671875,0.14038754485547542,-0.04516425285041332,-0.13878756231293082
1761466493012248800,1.360248779296875,0.16339754130393266,-0.0687672467559576,-0.12807546803206205
1761466493022233900,1.37023388671875,0.2173117945820093,-0.06680968294739723,-0.09183364956676959
1761466493032217900,1.3802177734375,0.2378419569134712,-0.09977788656949996,-0.07359568982571363
1761466493042203000,1.390202880859375,0.22845248953849076,-0.06448094773888588,-0.05399345599412918
1761466493052187000,1.400186767578125,0.16407821704447267,-0.03411971174478531,-0.00814852740317583
1761466493062172000,1.410171875,0.06297492709010839,0.01026654247045517,-0.012961188381910323
1761466493072156000,1.420156005859375,0.020397768123447894,0.07087795529961585,-0.009117080174386501
1761466493082141000,1.430140869140625,0.041296763767302035,0.0808487296938896,-0.016790829672664404
1761466493092125000,1.440125,0.08903262067139148,0.08042378228008747,-0.025823446433991194
1761466493102110000,1.45010986328125,0.1581780530899763,0.04533025706708431,-0.052603170679509634
1761466493112094000,1.460093994140625,0.17751579076647758,0.03771685945391655,-0.07304945411980152
1761466493122079000,1.470078857421875,0.16222031421810387,0.0016389993786811827,-0.08652589854747056
1761466493132063000,1.48006298828125,0.14125439081788063,-0.03709375911951065,-0.08871288719773292
1761466493142048000,1.490048095703125,0.13938742790222167,-0.03939151466786861,-0.08863909130915999
1761466493152032800,1.50003271484375,0.13811609279215334,-0.016765256839990614,-0.09909501887187361
1761466493162016800,1.510016845703125,0.131531453704834,-0.010942834296822548,-0.10698752568736672
1761466493172001800,1.520001708984375,0.10401596253067254,0.07955167562067508,-0.11074541691616177
1761466493181986300,1.529986328125,0.021091887867450712,0.12321838338971138,-0.11182765919491648
1761466493191971300,1.539971435546875,-0.009416647642850875,0.09406301605403422,-0.11275398025959729
1761466493201955300,1.549955322265625,0.02269669271558523,0.04808920038640499,-0.13189254210218787
1761466493211940400,1.5599404296875,0.041788638937473296,0.04921966572105884,-0.14634996039122342
1761466493221924400,1.56992431640625,0.0911821999207139,0.027045243313908576,-0.15872458105683326
1761466493231909400,1.579909423828125,0.11683715792000293,0.003933247795701027,-0.16503259515985846
1761466493241893400,1.589893310546875,0.07765022591352462,0.0743441701054573,-0.2156929612085223
1761466493251878100,1.599878173828125,0.04158668662458658,0.11179448757767677,-0.2660055367328226
1761466493261863200,1.60986328125,0.014393267011642456,0.08112579306960105,-0.3202450764425099
1761466493271847200,1.61984716796875,0.02531272043287754,0.14326923777163028,-0.3545446747988462
1761466493281832200,1.629832275390625,-0.016974223415553567,0.21454875960946082,-0.3468775011718273
1761466493291816200,1.639816162109375,-0.019102759876847265,0.15064590401947497,-0.3061914166487753
1761466493301801200,1.64980126953125,0.004876666125655174,0.07084814468324184,-0.2702152633823454
1761466493311785200,1.65978515625,0.03593552899509668,0.005672784939408302,-0.2526663088187575
1761466493321770200,1.669770263671875,0.10793138240873813,-0.014829904863238335,-0.2280713812664151
1761466493331754200,1.679754150390625,0.16581541610062123,-0.011799158865213393,-0.18326558646485208
1761466493341739300,1.6897392578125,0.1289513740837574,-0.011053893455862999,-0.09320026174485684
1761466493351723300,1.69972314453125,0.06607669249773025,0.012307108387351036,-0.02322232402488589
1761466493361708300,1.709708251953125,0.09029635699689388,0.05351122543513775,0.004988309806585311
1761466493371692300,1.7196923828125,0.16329904936552048,0.03285539089739323,0.013575374757498503
1761466493381677000,1.729677001953125,0.13613456358611584,0.031712066081166265,-0.005252513700723648
1761466493391661000,1.7396611328125,0.054253568235039705,0.04643967961370945,-0.06459668307304382
1761466493401646000,1.74964599609375,0.05397124416232109,0.04158697888553142,-0.12405264225676656
1761466493411630000,1.759630126953125,0.0324272286131978,0.07313771692514419,-0.10483619287237525
1761466493421615000,1.769614990234375,0.036030806063115595,0.06225918003618717,-0.074462243527174
1761466493431600400,1.779600341796875,0.05062982477992773,0.06315700565874577,-0.023548779500275847
1761466493441584400,1.78958447265625,0.05157762702405452,0.019347674548625945,0.012849106309562921
1761466493451569400,1.7995693359375,0.05453764587342739,0.0020966800183057784,0.01948050714805722
1761466493461553400,1.809553466796875,0.04919219319224357,0.032927287089824675,0.026367928574234246
1761466493471538400,1.819538330078125,0.007211831074953079,0.01870002429485321,0.030783553059399126
1761466493481522400,1.8295224609375,0.011587854202091694,0.003553893089294433,0.06483049182891845
1761466493491507200,1.839507080078125,0.015896949572861193,0.005104045140743255,0.07044336327463388
1761466493501491200,1.8494912109375,0.024170564660429952,0.007548515683412552,0.07370046537443994
1761466493511476200,1.859476318359375,0.02277560317069292,0.010956278300285338,0.033494565583765505
1761466493521460200,1.869460205078125,0.04007043684273958,0.009398527464270591,-0.026076690542697904
1761466493531445200,1.8794453125,0.06940934405177832,0.03203472216427326,-0.03130143945366144
1761466493541429200,1.88942919921875,0.06018471184968948,0.02966974659860134,-0.010852817925810812
1761466493551414300,1.899414306640625,0.06590776567161083,0.007414660170674324,0.038599779768288135
1761466493561399300,1.9093994140625,0.048210196417570114,-0.006413374173641204,0.06370075714662671
1761466493571383300,1.91938330078125,0.01773760900348425,0.004897708913683891,0.08661620717942714
1761466493581368300,1.929368408203125,0.049721185502409934,-0.03152969525158405,0.07612243182435631
1761466493591352300,1.939352294921875,0.12102438047677277,-0.0398147085160017,0.003233575093746185
1761466493601337000,1.949337158203125,0.15247458075135945,-0.04973170689642429,-0.06798764068558812
1761466493611321000,1.959321044921875,0.11133856050372123,-0.02750993821620941,-0.11820698496848345
1761466493621306000,1.96930615234375,0.1110655887812376,0.014038462224602699,-0.12262363236695527
1761466493631290000,1.9792900390625,0.1582934961631894,0.046318099060654636,-0.08833017149046063
1761466493641275100,1.989275146484375,0.1750964546650648,0.04091010253727436,-0.0673272770807147
1761466493651259100,1.999259033203125,0.11545476365089416,0.06849485955536365,-0.04386734490767121
1761466493661244200,2.009244140625,0.004580898049473763,0.08074234670996666,-0.02033274006322026
1761466493671228200,2.019228271484375,-0.06623275984227657,0.08987667028009891,-0.006340016676485538
1761466493681213200,2.029213134765625,-0.06502630666196346,0.07595102078020573,0.004678513205051422
1761466493691198500,2.039198486328125,-0.0618611206293106,0.09582768763899803,-0.012113485511392354
1761466493701182200,2.04918212890625,-0.04760024782568216,0.10018237571716308,-0.03072334730476141
1761466493711167200,2.059167236328125,-0.0067787003546953195,0.03999240317046642,-0.03667319561988115
1761466493721151200,2.069151123046875,0.0036374797195196148,0.049501405271887775,-0.03656666650548577
1761466493731136300,2.07913623046875,0.003717559218406677,0.06696575029194354,-0.011041472365707159
1761466493741120300,2.089120361328125,0.0028758476972579957,0.05370528670251369,-0.0006260229438543319
1761466493751105300,2.099105224609375,-0.011487024176120757,0.04479249692857265,0.006544599337875843
1761466493761089300,2.10908935546875,-0.04296177437007427,0.0579442394465208,-0.004308510848879814
1761466493771074300,2.11907421875,-0.019282792618870732,0.05734042833447456,-0.02808276966810226
1761466493781058300,2.129058349609375,0.015287000980973242,0.06573591623604297,-0.02373261163458228
1761466493791043300,2.139043212890625,0.030972645890712736,0.07251695467829704,-0.022686901973932982
1761466493801027300,2.14902734375,0.01441226397305727,0.06058452482223511,-0.027248218540102242
1761466493811012400,2.159012451171875,-0.007905658558011055,0.04621346964240074,-0.02626183785125613
1761466493820997000,2.1689970703125,0.00402852486371994,0.03384907810986042,-0.03463496779054403
1761466493830981400,2.1789814453125,0.02942833905816078,0.030299861195683477,-0.04705956507772207
1761466493840966100,2.188966064453125,0.03109218061715364,0.02514671621620655,-0.045076282306015486
1761466493850950100,2.1989501953125,0.06893500453829765,0.028525252738595006,-0.03314136823192239
1761466493860935200,2.20893505859375,0.0881692818403244,0.013491934257745742,-0.0443188880674541
1761466493870919200,2.218919189453125,0.13112608777433632,0.0011707973450422286,-0.05713803763017058
1761466493880904200,2.228904296875,0.15520342119336128,0.0074526540935039515,-0.08435849138051271
1761466493890888200,2.23888818359375,0.09565817629098891,0.026588147196173667,-0.08003609813675285
1761466493900873200,2.248873291015625,0.04154781591892242,0.03553542376160621,-0.06332549409344793
1761466493910857200,2.258857177734375,0.017082067704200742,0.016107669714093206,-0.05845043540298939
1761466493920842200,2.26884228515625,0.02675707402229309,0.0015109890848398208,-0.042072570445388556
1761466493930826200,2.278826171875,0.04193827654123306,0.023466800305247306,-0.05048062556758523
1761466493940811300,2.288811279296875,0.05465279668569564,0.057906245523691176,-0.040810733816027636
1761466493950796000,2.298796142578125,0.042161563903093335,0.08664192614257335,-0.039875937183946365
1761466493960780000,2.308780029296875,0.00869973154515028,0.07101824055314064,-0.03444602108970284
1761466493970765300,2.318765380859375,-0.004198912994563579,0.06885667860507964,-0.03560615091025829
1761466493980749000,2.3287490234375,0.013221300622820854,0.07369418176412582,-0.0546896215647459
1761466493990734300,2.338734375,0.015886135917901993,0.0343903453797102,-0.07405527016147971
1761466494000718300,2.34871826171875,0.008336451190710067,0.0051303486257791514,-0.09136427848935126
1761466494010703400,2.358703369140625,0.03272942643016576,0.021671149060130117,-0.11870397470518947
1761466494020687400,2.368687255859375,0.03469809615463018,0.045668695241212844,-0.14293810612112282
1761466494030672400,2.37867236328125,0.06626140141487122,0.003942600145936012,-0.1644185549147427
1761466494040656400,2.388656494140625,0.015990473075211047,0.011968670213222503,-0.11975523732379079
1761466494050641400,2.398641357421875,0.023841186575591564,0.05537234313189983,-0.1019317036025226
1761466494060625400,2.40862548828125,0.03707037824392319,0.07640168715715408,-0.08925473898947238
1761466494070610200,2.418610107421875,0.09412672894001006,0.08149696446955204,-0.08212006480395793
1761466494080595200,2.42859521484375,0.08343582357764244,0.08291326100826263,-0.08867986171096563
1761466494090579200,2.4385791015625,0.0407908600717783,0.08121756300628184,-0.07091565696150064
1761466494100564200,2.448564208984375,0.023268939645588398,0.04261281480193138,-0.06963818437159061
1761466494110548200,2.45854833984375,0.06484802748560906,0.024628245300054547,-0.07997092394605279
1761466494120533200,2.468533203125,0.07624561981260776,0.007951835787296295,-0.12708397277668118
1761466494130517200,2.478517333984375,0.06050678341090679,0.017444471275806426,-0.1730501896597445
1761466494140502300,2.488502197265625,0.07976151897907256,0.024139000478386876,-0.17326032527908683
1761466494150486300,2.498486328125,0.1049263553738594,0.020467033967375755,-0.1258284197576344
1761466494160471300,2.50847119140625,0.140595342387259,0.005284077882766723,-0.046414106781035656
1761466494170455300,2.518455322265625,0.1598258202970028,-0.0031061493217945098,0.017795038279145955
1761466494180440800,2.52844091796875,0.13375439045131204,0.02204407402575016,0.029418986707925796
1761466494190424800,2.5384248046875,0.08917261366397142,0.04088087644279003,-0.01574497388154268
1761466494200409900,2.548409912109375,0.045424072830379005,0.02874561749100685,-0.06162205117642879
1761466494210395100,2.55839501953125,0.06812281137257814,-0.02623334240913391,-0.10122647794261574
1761466494220379000,2.56837890625,0.13848667967021464,-0.0725315677255392,-0.1674685901351273
1761466494230364200,2.5783642578125,0.16510025356858968,-0.06438625519275665,-0.22260770903304217
1761466494240348200,2.58834814453125,0.11329261718094348,0.005791442883014679,-0.2353304124839604
1761466494250333200,2.598333251953125,0.05146598334312439,0.0714028559565544,-0.19333850605934857
1761466494260317200,2.608317138671875,0.011644845086336135,0.11139058295190334,-0.14521189627200365
1761466494270302000,2.618302001953125,-0.0011287117689847946,0.12468494881093502,-0.12321136912703513
1761466494280286000,2.628285888671875,-0.027072131320834157,0.09246785581707954,-0.11347440348863601
1761466494290271000,2.63827099609375,-0.02179740578830242,0.054850365084409713,-0.12241232770383358
1761466494300255000,2.6482548828125,0.02503916418850422,0.0669067135810852,-0.14227715799435972
1761466494310240000,2.658239990234375,0.021781039175391197,0.07665653870105743,-0.1765809941343963
1761466494320225000,2.66822509765625,-0.02135433819591999,0.11431845309734344,-0.207575121204555
1761466494330209000,2.678208984375,-0.09197919551730155,0.1594458810687065,-0.23988763739690183
1761466494340194000,2.688194091796875,-0.09683101946264505,0.16002397321760653,-0.1753610969506204
1761466494350178000,2.698177978515625,-0.02264262444078922,0.16108721853494642,-0.17331410129293798
1761466494360163000,2.7081630859375,0.022257716776430604,0.1565267787516117,-0.1778117049731314
1761466494370147000,2.71814697265625,0.0011842413485050201,0.13846388331651688,-0.1975654761046171
1761466494380131800,2.7281318359375,-0.00566635519862175,0.10990706639587879,-0.20451646428629755
1761466494390116000,2.7381162109375,0.00251227508187294,0.0899859758734703,-0.1640970678754151
1761466494400100900,2.748100830078125,0.04099076655805111,0.06302139658033848,-0.13963979522809386
1761466494410084900,2.7580849609375,0.07445522926449775,0.045319151151180265,-0.15032427084967492
1761466494420070000,2.76806982421875,0.08343114740252494,0.04412848006188869,-0.13828268153071402
1761466494430054000,2.778053955078125,0.07928834850937128,0.03078326079845428,-0.12067293669059873
1761466494440039000,2.788038818359375,0.1081526239439845,0.07093290035724639,-0.08058189545124769
1761466494450024000,2.79802392578125,0.09797346749603748,0.05436988809108734,-0.11612637930214405
1761466494460008000,2.808008056640625,0.08409867140054703,0.07741875524520873,-0.09184402483031154
1761466494469993000,2.817992919921875,0.10500818843841551,0.07642389898896217,-0.09137947605848312
1761466494479977000,2.82797705078125,0.12096271341741084,0.04733107549548149,-0.0859657804466784
1761466494489962000,2.8379619140625,0.08774287312179803,0.058518239942193025,-0.06955795874223113
1761466494499946000,2.847946044921875,0.046128129446506495,0.05861351701021194,-0.09169424109607935
1761466494509931000,2.857930908203125,0.026881869445741176,0.019296236622333526,-0.0967483096152544
1761466494519915000,2.8679150390625,-0.014466332247853278,-0.009554010286927223,-0.1487168356530368
1761466494529900000,2.877900146484375,-0.011714987713098526,-0.013765490502119063,-0.17102131418064237
1761466494539884000,2.887884033203125,0.0681090751081705,-0.031036358776688575,-0.09703034142702817
1761466494549869000,2.897869140625,0.0996694577589631,-0.029980712243914603,-0.09690101595893502
1761466494559854000,2.90785400390625,0.11675357128977774,-0.027476035946607587,-0.11130991893112659
1761466494569838000,2.917838134765625,0.10602847139686346,-0.0009498480707406997,-0.0927963571190834
1761466494579823000,2.927822998046875,0.05666121389865875,0.04843640638887882,-0.11276099452227353
1761466494589807000,2.93780712890625,0.04999532626867294,0.09122691584527493,-0.13381781107634305
1761466494599792000,2.947792236328125,0.033117256703972815,0.10825286944806575,-0.1371652218081057
1761466494609776000,2.957776123046875,0.031361352947354315,0.13897709353566168,-0.14611512872204183
1761466494619761000,2.967760986328125,0.011575871503353118,0.14996318245232104,-0.14166224096640945
1761466494629745000,2.977744873046875,-0.008200257590413092,0.11636486423313618,-0.1595762294501066
1761466494639730000,2.98772998046875,-0.001817278555035591,0.07278934187889098,-0.19516586761698126
1761466494649714000,2.9977138671875,-0.0006996727019548416,0.04311784171462059,-0.21541326748430728
1761466494659699000,3.007698974609375,-0.03054945204257965,0.03911678937971592,-0.2245101816534996
1761466494669684000,3.01768408203125,-0.08452537238001823,0.03630640813410282,-0.23624153597950934
1761466494679668000,3.02766796875,-0.1301058048158884,0.0724748691022396,-0.22190409080833196
1761466494689653000,3.037653076171875,-0.1309896019130945,0.10067688123583793,-0.2257239413574338
1761466494699637000,3.047636962890625,-0.055499184381961816,0.10128887565433979,-0.21813962370827794
1761466494709622000,3.0576220703125,0.038754678069055075,0.09305646935999393,-0.20439780634269117
1761466494719606000,3.06760595703125,0.07617138553261757,0.08219313004016876,-0.20232026941627262
1761466494729590800,3.0775908203125,0.14684358912706375,0.04220715661048889,-0.17006956641376017
1761466494739574800,3.08757470703125,0.1802250497251749,0.047507016584277154,-0.14273629993870854
1761466494749559800,3.097559814453125,0.16907617146223783,0.028647417813539505,-0.13460618497505783
1761466494759545000,3.107545166015625,0.18644553167521952,-0.002523380997776985,-0.10899521224796771
1761466494769529000,3.117529052734375,0.22461656463742255,-0.000737082102894783,-0.06884937208145857
1761466494779514000,3.12751416015625,0.1958750387996435,0.021675240713357923,-0.055446577411890026
1761466494789498000,3.137498046875,0.15550620353221892,0.011003040051460265,-0.07581687300652265
1761466494799483100,3.147483154296875,0.10431260738968849,0.0342073900282383,-0.12874708368331192
1761466494809467100,3.157467041015625,0.040673078911006445,0.061792147046327586,-0.15744798524975775
1761466494819452200,3.1674521484375,0.005113982012867928,0.050770986816287035,-0.16292144822478294
1761466494829436200,3.177436279296875,-0.014954408025741576,0.08177052071392536,-0.18754618639349938
1761466494839421000,3.1874208984375,-0.03448211531639099,0.12583002719283104,-0.1833088410846889
1761466494849405000,3.197405029296875,-0.0010416180074214936,0.1326595809519291,-0.16164353724345565
1761466494859390000,3.207389892578125,0.07022387530505657,0.11473463268280029,-0.155893010892719
1761466494869375000,3.217375,0.07405892342329025,0.11532499979138373,-0.13512421749979256
1761466494879359000,3.22735888671875,0.06118132167160511,0.0917985782533884,-0.12419818820729851
1761466494889344000,3.237343994140625,0.07285714641809463,0.07555003876388072,-0.1112694407902658
1761466494899328000,3.247327880859375,0.10021569346487522,0.09611819501817226,-0.10902911451756954
1761466494909313000,3.25731298828125,0.07253507485687732,0.059974868491291994,-0.11647095495611429
1761466494919297000,3.267297119140625,0.039295068556070324,0.02545651281774044,-0.11002309399098158
1761466494929282000,3.277281982421875,0.016760580664873122,0.022494740402698516,-0.10197262013480067
1761466494939266000,3.28726611328125,0.04921498954594135,-0.008588380125164986,-0.10515680312886834
1761466494949250800,3.297250732421875,0.05764408745616674,-0.0007218845337629318,-0.1000758466027677
1761466494959235800,3.30723583984375,0.07127192305326462,0.018558569997549054,-0.09236761031299828
1761466494969219800,3.3172197265625,0.08235562712550162,0.028855507606267927,-0.07829334612265229
1761466494979204900,3.327204833984375,0.0645762248069048,0.051364861056208605,-0.07303162620216608
1761466494989188900,3.33718896484375,0.02839256626963615,0.061411038774251935,-0.055435033104568716
1761466494999174000,3.347173828125,-0.011930091768503188,0.08060849119722843,-0.030122312671691177
1761466495009158000,3.357157958984375,-0.013945230983197688,0.07561550521552562,-0.020908347994089124
1761466495019143200,3.36714306640625,-0.03208616009056568,0.06656243018805981,-0.022605361170321702
1761466495029127000,3.377126953125,-0.028521745607256888,0.05681669672131538,-0.03927840968221426
1761466495039112200,3.3871123046875,0.030841712987422942,0.004381576085090637,-0.09230009803473949
1761466495049097000,3.397096923828125,0.019765023177862166,0.009317278921604156,-0.12449074141308665
1761466495059081000,3.4070810546875,-0.019544073903560638,0.0362941331744194,-0.1111560435436666
1761466495069066000,3.41706591796875,-0.006701251204311847,0.040380525705218315,-0.09842442613393068
1761466495079050000,3.427050048828125,0.034573300731182095,0.045008185505867,-0.08121624783203005
1761466495089035000,3.437034912109375,0.03446282609403133,0.04285422234237194,-0.06610007337331772
1761466495099019000,3.44701904296875,0.053283846420049664,-0.013888240098953246,-0.045729193256795406
1761466495109004000,3.457004150390625,0.10518588309288024,-0.03896773629784584,0.027933716586232185
1761466495118989000,3.466989013671875,0.06218640706092119,-0.0016407529443502424,0.006665010847151279
1761466495128973000,3.47697314453125,0.05389934796988964,0.02700315773785114,-0.03623246611505747
1761466495138958000,3.4869580078125,-0.01480477042198181,0.024076456636190412,-0.09030380965098739
1761466495148942000,3.496942138671875,-0.059388593035936355,0.05877192244231701,-0.10974983000755309
1761466495158926800,3.5069267578125,0.0391457232132554,0.04074526736438274,-0.11588687145784497
1761466495168911000,3.5169111328125,0.14002367997914553,0.063995794570446,-0.16005042283311485
1761466495178895400,3.526895263671875,0.07817512657046317,0.034544659158587454,-0.12960983799248932
1761466495188879400,3.53687939453125,0.07840659723877906,-0.01282499478161335,-0.09212108820602297
1761466495198864400,3.546864501953125,0.022444763781130313,0.005961538752913474,-0.13088584927767513
1761466495208849400,3.556849365234375,0.1193064706429839,-0.013362754920125007,-0.047492257406562564
1761466495218833400,3.56683349609375,0.06563304038345813,0.05308393993377685,-0.03073328417688608
1761466495228818400,3.576818359375,0.024397066892683505,0.05747779097855091,-0.042656800074130294
1761466495238802400,3.586802490234375,0.10586918918192385,0.051422144201397894,-0.07209843700528144
1761466495248787500,3.596787353515625,0.13723638734817503,0.07070902847349643,-0.133915864623338
1761466495258771500,3.606771484375,0.08230711180865764,0.08791267673075198,-0.16345044053494928
1761466495268756500,3.616756591796875,0.031275428229570384,0.08429799336493014,-0.15116802819743752
1761466495278740500,3.626740478515625,0.042619536803662775,0.04788695581257343,-0.13330956929326057
1761466495288725500,3.6367255859375,0.08281623037457465,0.02255377711355686,-0.14691723888516425
1761466495298710300,3.646710205078125,0.09504267474114894,0.04697685523033142,-0.14060045695379375
1761466495308694300,3.6566943359375,0.04582447032481432,0.08134440425634383,-0.09900237215235828
1761466495318679300,3.66667919921875,0.0577308889567852,0.06855915696322917,-0.07816942748203873
1761466495328663300,3.676663330078125,0.07700491374731064,0.044593759486079215,-0.10201704379841685
1761466495338648300,3.6866484375,0.04297872550487518,0.07027297514379025,-0.1423154441781342
1761466495348632300,3.69663232421875,-0.02576806298494339,0.10838672496080398,-0.15029182988479733
1761466495358617300,3.706617431640625,-0.0014414309799671173,0.09958090269267558,-0.12741305860057472
1761466495368601300,3.716601318359375,0.06687748748660087,0.08070084565579891,-0.11789645771458744
1761466495378586400,3.72658642578125,0.13710545444488526,0.07693301755487919,-0.13805603316798806
1761466495388571100,3.736571044921875,0.1478127264201641,0.06861760915219783,-0.12598755584210156
1761466495398555400,3.746555419921875,0.11522270846068858,0.04190320522785187,-0.10461612038090824
1761466495408540200,3.7565400390625,0.07494593539088965,0.005531330642104149,-0.07424392460137605
1761466495418524200,3.766524169921875,0.053393152013421055,-0.004657470417022705,-0.04978489838838577
1761466495428509400,3.776509521484375,0.10804624096006155,-0.006568272474408149,-0.0571577652439475
1761466495438493200,3.7864931640625,0.15308014542907475,-0.006487023931741714,-0.05635872382074594
1761466495448478500,3.796478515625,0.13805880964696407,-0.010380524238944052,-0.021504852582514285
1761466495458463500,3.80646337890625,0.1488981835693121,-0.015887304961681364,-0.010550912369787693
1761466495468447500,3.816447509765625,0.2010267224743962,-0.025661095479130744,-0.04612184583619237
1761466495478432500,3.8264326171875,0.2156260334521532,-0.040407413712143896,-0.04652253559157252
1761466495488416500,3.83641650390625,0.18764263250529764,-0.06026888300180435,-0.013879180009663105
1761466495498401300,3.8464013671875,0.1600520302683115,-0.03817044844031334,-0.024423808769136666
1761466495508385500,3.856385498046875,0.12222235808968543,-0.001205284136533737,-0.037235359547287225
1761466495518370300,3.866370361328125,0.10759820493161677,-0.011617372557520865,-0.04152034339010715
1761466495528355300,3.876355224609375,0.09067746526896953,-0.02202127767205238,-0.05873991986885666
1761466495538339300,3.88633935546875,0.10252017101496458,-0.00450257211625576,-0.08569967685639858
1761466495548324400,3.896324462890625,0.09916647667288779,-0.021644261053204536,-0.06461261129453778
1761466495558308400,3.906308349609375,0.11073416486978531,-0.04017945017516613,-0.02955167317688465
1761466495568293400,3.91629345703125,0.15357494320869444,-0.0548725769162178,-0.028298604375869035
1761466495578277400,3.92627734375,0.1698328350484371,-0.06699088473320007,-0.03827171685770154
1761466495588262400,3.936262451171875,0.13106792784631252,-0.0572428131788969,-0.05205342784225941
1761466495598247200,3.9462470703125,0.11318915680646896,-0.04044073145985603,-0.06497691456228494
1761466495608231400,3.9562314453125,0.1300146194010973,-0.038109658163785934,-0.08229249876141548
1761466495618216200,3.96621630859375,0.10555997710227966,-0.017116554495692254,-0.0985379695110023
1761466495628200200,3.9762001953125,0.12454933973252773,0.009759177470207214,-0.11806392323598265
1761466495638183400,3.986183349609375,0.12759937495291232,0.008723989203572273,-0.12064590255320072
1761466495648167400,3.99616748046875,0.12071487613618373,0.011785714861750602,-0.13526114175245166
1761466495658152400,4.00615234375,0.11273381425440311,0.03605097206830978,-0.14463205055743455
1761466495668136400,4.016136474609375,0.10164601852893829,0.058984688410162925,-0.15654270697310566
1761466495678121200,4.026121337890625,0.12393676079213618,0.03639174832999706,-0.19104937220886348
1761466495688106200,4.036106201171875,0.09209960702657699,0.06055763681530952,-0.17948840601369737
1761466495698090200,4.04609033203125,0.09863076236099004,0.07271686116456985,-0.1998931883998215
1761466495708075300,4.0560751953125,0.11355272942185402,0.0693207889854908,-0.20815365174487233
1761466495718059300,4.066059326171875,0.06088672263920307,0.05192658659219741,-0.1795471504636109
1761466495728044300,4.076044189453125,0.02701630948036909,0.05602934573590755,-0.17867694350033997
1761466495738028300,4.0860283203125,-0.0007148702710866927,0.05562894824147224,-0.18885113151222466
1761466495748013300,4.096013427734375,0.014143676164746283,0.0638829818457365,-0.18943784535899758
1761466495757998600,4.10599853515625,0.005865092641115188,0.07379179691970347,-0.20011574510931968
1761466495767982600,4.115982666015625,0.0265519068390131,0.08722995516359805,-0.1998473034314811
1761466495777967400,4.12596728515625,0.053824529168009755,0.06770926213562488,-0.1905282709442079
1761466495787951400,4.135951416015625,0.02642155845761299,0.03833469909131527,-0.13586115347221492
1761466495797936400,4.145936279296875,0.03695756551921368,0.02795534389615059,-0.11426906099766493
1761466495807920400,4.15592041015625,0.10766016425192355,0.03142857296466827,-0.13910466543808578
1761466495817905400,4.165905517578125,0.10878215401917696,0.027101941937208173,-0.14185118766725063
1761466495827890400,4.175890380859375,0.06511895338147879,0.005737666869163513,-0.0892244899816811
1761466495837874400,4.18587451171875,0.05983809036910533,0.0072702832639217375,-0.0688955493107438
1761466495847859500,4.195859375,0.12922317676246164,0.009376900154352188,-0.08784238797351718
1761466495857843500,4.205843505859375,0.165398067471385,-0.01739595595896244,-0.11230419066548347
1761466495867828500,4.215828369140625,0.11993687750101088,-0.03344634252786636,-0.10180135522112249
1761466495877812500,4.2258125,0.09313830242455005,-0.007508183673024177,-0.10100041410177946
1761466495887797200,4.23579736328125,0.10896014093458652,-0.007903904992341995,-0.09536664599850773
1761466495897781200,4.24578125,0.11479250034987926,-0.017556699478626252,-0.05851385602802038
1761466495907766300,4.255766357421875,0.0943517698675394,-0.02662029590010643,-0.041245325841009615
1761466495917751300,4.265751220703125,0.10738310087621211,-0.0014624737679958342,-0.07005830947980285
1761466495927735300,4.2757353515625,0.08273965800702571,0.021423311778903005,-0.09712138071134686
1761466495937720300,4.28572021484375,0.09764321262836456,-0.004626490756869316,-0.10213862435147165
1761466495947704300,4.295704345703125,0.1386193661391735,0.010499182182550429,-0.047886663551628586
1761466495957689300,4.305689453125,0.11076309870332479,0.014490882167220115,-0.03480126426815987
1761466495967674400,4.31567431640625,0.059490884366631504,0.005235562565922737,-0.013568360494822263
1761466495977658400,4.325658447265625,0.05475274992883205,0.04587853859961032,-0.02471884619295597
1761466495987643400,4.335643310546875,0.10178367343395948,0.026857027265429496,-0.051324967437237495
1761466495997627100,4.345627197265625,0.12199614811837672,0.022606384083628653,-0.08399886428788304
1761466496007612400,4.3556123046875,0.09303075039684772,0.016197101563215254,-0.09890899478048086
1761466496017596400,4.365596435546875,0.08136895417571068,-0.0028840310037136076,-0.11259689000174403
1761466496027581400,4.37558154296875,0.04953647658526897,0.031242695003747937,-0.09156140849664807
1761466496037566500,4.38556640625,0.014002806389331816,0.03652735740840435,-0.08929170999899506
1761466496047550500,4.395550537109375,-0.01668225473165512,0.024357027143239972,-0.10941197635531424
1761466496057535500,4.405535400390625,0.0076864628493785855,0.022000234884023664,-0.1259160980410874
1761466496067519500,4.41551953125,0.03820113583952188,0.040563481056690213,-0.14173589072450996
1761466496077504500,4.42550439453125,0.051580549633502955,0.06263853474259376,-0.1428149181328714
1761466496087489300,4.4354892578125,0.04654635485857725,0.08241466383635997,-0.13320683957114815
1761466496097473300,4.445473388671875,0.07259440382868051,0.08203063295483588,-0.08180617654919624
1761466496107458300,4.455458251953125,0.05694061536192894,0.06765899325311184,-0.06366130191907286
1761466496117442300,4.4654423828125,0.017798691540956497,0.0884960295766592,-0.05229352020844817
1761466496127427300,4.47542724609375,-0.01944149031192064,0.09846154327392577,-0.048071080207824704
1761466496137411300,4.485411376953125,-0.035004385624825954,0.09041326137483119,-0.03810425133630633
1761466496147396400,4.495396240234375,-0.03112842097431421,0.08059563171565533,-0.03258139626160264
1761466496157381400,4.50538134765625,0.024150398655235765,0.05332827008366584,-0.06379398838803171
1761466496167365400,4.515365478515625,0.06204612180739641,0.02687982361912727,-0.08169964743480086
1761466496177350400,4.525350341796875,0.0695624887868762,-0.005480477237701416,-0.0463252594538033
1761466496187338000,4.535337890625,0.06641805328130722,-0.03237023772895336,-0.01653466295450926
1761466496197322800,4.54532275390625,0.12070610830783843,-0.01624035618305206,-0.014850216998904943
1761466496207306800,4.555306640625,0.13395488145947457,-0.016221651482582092,-0.025844343091547487
1761466496217294000,4.565294189453125,0.031869886991381643,0.03410919035077095,-0.046251317434757945
1761466496227278800,4.57527880859375,0.0273883576631546,0.043371524214744564,-0.03209755826741457
1761466496237262800,4.585262939453125,0.0741045161306858,0.004686696511507034,0.010512187794595956
1761466496247248000,4.595247802734375,0.11433131257891654,-0.008299041789770126,0.02224573407769203
1761466496257233000,4.60523291015625,0.11370645867884159,-0.023872458496689796,0.022904928638786078
1761466496267217000,4.615216796875,0.10564619408100843,-0.03448854505717754,0.022698300150781867
1761466496277202000,4.625201904296875,0.06172258894145488,-0.007015431720018387,0.021075959645956755
1761466496287186000,4.63518603515625,0.07361205643862485,0.025997780087590214,0.008322861056774855
1761466496297171000,4.6451708984375,0.09693769470751284,0.060846390628814695,-0.007705167549848556
1761466496307155000,4.655155029296875,0.12071136900484561,0.05230360321104526,-0.033577275431156156
1761466496317140000,4.665139892578125,0.10415829361081123,0.019024433943629265,-0.05735752559974789
1761466496327124700,4.675124755859375,-0.004310264414548874,0.06924304757416248,-0.1272334642499685
1761466496337108700,4.685108642578125,0.013372107270359992,0.016289456021785734,-0.13682707589492202
1761466496347093800,4.69509375,0.06050123045295477,0.009512509232759475,-0.009564093289524317
1761466496357077800,4.705077880859375,0.07182868015319109,0.042269115930795666,0.04485869403257966
1761466496367062800,4.715062744140625,0.08643792800307273,0.05540332279205322,0.02799742947220802
1761466496377047800,4.7250478515625,0.0958592518210411,0.04301788847148418,-0.0018489888675510882
1761466496387031800,4.73503173828125,0.10103285506665706,0.007399462601542473,-0.05419847704693675
1761466496397016800,4.745016845703125,0.13817396045923233,-0.05329436781406402,-0.08330971297994255
1761466496407000800,4.755000732421875,0.17469108873456715,-0.0811193633288145,-0.04566767232790589
1761466496416985900,4.76498583984375,0.1822071634531021,-0.09216974965333938,-0.029673692121356725
1761466496426969900,4.774969970703125,0.14653554609119893,-0.09192541950345039,-0.04589578199535608
1761466496436955000,4.784954833984375,0.018127192842960358,-0.0052174423873424525,-0.053914983930438753
1761466496446940000,4.79493994140625,0.02383563361763954,-0.021001286974549293,-0.12335413859859108
1761466496456924000,4.804923828125,-0.007703998506069183,0.02428454642891884,-0.12698504244685171
1761466496466909000,4.814908935546875,0.014347674304246901,0.020666940453648565,-0.1111601351968944
1761466496476893000,4.824892822265625,0.04995616330206394,-0.0184434191852808,-0.10808379649147391
1761466496486878000,4.8348779296875,0.13269172965586185,-0.004729366609454154,-0.09052885057851671
1761466496496863000,4.844863037109375,0.16270400608181954,-0.011895020455121993,-0.10198621026873587
1761466496506847000,4.854846923828125,0.13388006265759467,0.017476035457849502,-0.12119520699903369
1761466496516832000,4.86483203125,0.07477174786776304,0.05826748005151748,-0.11766031087115407
1761466496526816000,4.87481591796875,0.03537292667627334,0.08219897525906562,-0.12330591554269194
1761466496536800800,4.88480078125,0.015041501787304878,0.10365092861056327,-0.14073358181416987
1761466496546784800,4.89478466796875,-0.0022813889354467392,0.11520166567265987,-0.1506331906683743
1761466496556769800,4.904769775390625,-0.005389584083855152,0.12473112604022026,-0.13713102727755905
1761466496566754800,4.9147548828125,-0.0035772739648818968,0.11717910322546958,-0.12101415134370326
1761466496576738800,4.92473876953125,0.044826691459119314,0.09083762426674366,-0.10035042576044798
1761466496586723800,4.934723876953125,0.056310208503901955,0.07901274643838405,-0.11552081462442874
1761466496596707800,4.944707763671875,0.04761106148064136,0.04454465964734554,-0.18506021479666232
1761466496606692900,4.95469287109375,0.0383113182157278,0.03100654816031456,-0.2203800961114466
1761466496616678000,4.964677978515625,0.088225980463624,0.04346797032654285,-0.22182313452661037
1761466496626662000,4.974661865234375,0.10803367373943329,0.058246437263488764,-0.20746727691590786
1761466496636646700,4.984646728515625,0.11043050574809313,0.07919628631174563,-0.16244696258082986
1761466496646630700,4.994630615234375,0.059577978128194806,0.08451485098600386,-0.1160119591422379
1761466496656616000,5.004615966796875,0.04482201528400182,0.07690379146039486,-0.10137100097984075
1761466496666601000,5.01460107421875,0.0256499895632267,0.052342181655764576,-0.1553926601551473
1761466496676585000,5.0245849609375,0.03482990584075451,0.017062778481841085,-0.2462352528579533
1761466496686570000,5.034570068359375,0.057930210921168325,-0.027029461222887036,-0.37769729458838697
1761466496696554000,5.044553955078125,0.13742226530909538,0.06717033295333386,-0.3962546955421567
1761466496706539000,5.0545390625,0.19706103371381758,0.1476993291735649,-0.2829319754838943
1761466496716523800,5.064523681640625,0.13138941488564013,0.07027297514379025,-0.15102584324777124
1761466496726507800,5.0745078125,0.09298866482079028,-0.01981236945092678,-0.05722337782606482
1761466496736492800,5.084492919921875,-0.03977642233222723,0.14986732086241245,0.11254837468490003
1761466496746476800,5.094476806640625,-0.09822598095238208,0.032041151905059816,0.16287877812683582
1761466496756461800,5.1044619140625,0.008070493730902671,-0.05122866745591163,0.07347893157824874
1761466496766446800,5.11444677734375,0.010789105039834976,-0.0185872115701437,0.042280660238116975
1761466496776430800,5.124430908203125,-0.013564999493956564,0.023165771532058715,0.006663111151009798
1761466496786415900,5.134415771484375,-0.03377688965648413,0.08296937510967255,0.003197773128002882
1761466496796399900,5.14439990234375,-0.053476738643646236,0.08150982395112515,-0.015909224532544612
1761466496806385000,5.154385009765625,-0.027860066828131674,0.04619651850759983,-0.04714285944700241
1761466496816369700,5.16436962890625,0.016011808124184606,0.048806993266940116,-0.05967836976274848
1761466496826353700,5.174353759765625,0.07526391529887914,0.0758300247490406,-0.060257777085900306
1761466496836338700,5.184338623046875,0.12595102322399615,0.030065467917919156,-0.07762669890746474
1761466496846322700,5.19432275390625,-0.0038958383947610854,0.10099778375327587,-0.1391992118537426
1761466496856308000,5.204307861328125,-0.011158230613172053,0.08301146068572998,-0.1400108204975724
1761466496866291700,5.214291748046875,0.006772270613908767,0.056307578155398365,-0.24418401941657064
1761466496876277000,5.224277099609375,0.020433716219663618,0.11202245111465453,-0.1854758098602295
1761466496886262000,5.234261962890625,0.028117256459593773,0.05345978750884533,-0.20250658576861022
1761466496896246000,5.24424609375,0.07495411869734525,0.03717383861839771,-0.1944108114659786
1761466496906231000,5.25423095703125,0.0806312875509262,0.0426250897616148,-0.20479118957445025
1761466496916215000,5.264215087890625,0.07721446484476327,0.038056466671824454,-0.1712991082087159
1761466496926199800,5.27419970703125,0.07668634931743144,0.028111995762586592,-0.13421747791841626
1761466496936184800,5.284184814453125,0.0842436328291893,-0.020831191104650496,-0.08115706499069929
1761466496946168800,5.2941689453125,0.11640928789675235,-0.024459318473935125,-0.04535393020361662
1761466496956153900,5.30415380859375,0.1143506018012762,0.013446341550350188,-0.04262421297878027
1761466496966137900,5.314137939453125,0.0688388506874442,-0.032444472008943556,-0.01221694588586688
1761466496976123000,5.324122802734375,0.07512976752519607,0.017071546310186383,0.019998539672791957
1761466496986108000,5.33410791015625,0.07268763507008552,-0.0016138649374246596,0.028848201082646845
1761466496996092000,5.344091796875,0.1060962759360671,-0.023299042522907255,0.02633884861022234
1761466497006077000,5.354076904296875,0.08224573701024054,-0.0342594124764204,-0.0021593699909746647
1761466497016061000,5.36406103515625,0.0581663577646017,-0.05821721116900444,-0.04077361667603254
1761466497026045700,5.374045654296875,0.05824585274159908,-0.014386252748966216,-0.06331380365565419
1761466497036030700,5.38403076171875,0.06218757610470056,-0.00015606734454631804,-0.06619535044133663
1761466497046014700,5.3940146484375,0.06626081689298152,0.0397492420643568,-0.05140723889321089
1761466497055999700,5.403999755859375,0.03732055361270904,0.03339490460157394,-0.05744593453556299
1761466497065983700,5.413983642578125,0.05219546666145324,0.05256546901762485,-0.0394933676071465
1761466497075969000,5.423968994140625,0.07443652456402779,0.022135843962430953,-0.026617519421130418
1761466497085954000,5.4339541015625,0.10141250203400849,0.03626198447048664,-0.031588585831969974
1761466497095938000,5.44393798828125,0.09654021982252597,0.005032733470201492,-0.06066606562584638
1761466497105922800,5.4539228515625,0.09458820897191762,0.0036947628647089003,-0.033822774624824525
1761466497115907000,5.463906982421875,0.05053834710419178,0.019474515798687933,0.0045874739207327365
1761466497125891800,5.473891845703125,0.04326075731664896,0.016130466067790984,-0.006963701532781124
1761466497135876900,5.483876953125,0.01310644207149744,0.03358370517194271,0.002540332132577896
1761466497145860900,5.49386083984375,0.028302257637679577,0.04846972413659095,0.0071007719159126275
1761466497155846000,5.503845947265625,0.05708236192017793,0.04424830704927444,-0.03902808818295598
1761466497165830000,5.513829833984375,0.014075579364597796,0.07709142298698425,-0.04570873499065637
1761466497175815000,5.52381494140625,-0.013583996455371379,0.09644143562316894,-0.03320303529128432
1761466497185796900,5.533796875,0.02798281642496586,0.08768295962810516,-0.04933773914277553
1761466497195781000,5.543781005859375,0.05292787258923053,0.0996937154173851,-0.08047361277118324
1761466497205766000,5.553765869140625,0.05591302587985992,0.04746317744255066,-0.09434957791045308
1761466497215750000,5.56375,0.13293021458685397,0.01955225721001625,-0.1136323705293238
1761466497225735000,5.57373486328125,0.1626706883341074,0.0046603930264711374,-0.09775807117968797
1761466497235720000,5.583719970703125,0.12061726098060607,-0.017760697618126868,-0.042321138378977774
1761466497245704000,5.593703857421875,0.07605155854523181,0.014808862075209617,-0.02190481168553233
1761466497255689000,5.60368896484375,0.02310147412419319,0.024417232897877693,0.0032116555228829382
1761466497265673000,5.6136728515625,-0.0034048400074243542,0.01267594169974327,0.014624007027596234
1761466497275658000,5.623657958984375,0.03025280718356371,0.004793079495429993,-0.016895166829973458
1761466497285643000,5.63364306640625,0.04462415462434292,0.028521161085367203,-0.041787762154638766
1761466497295626800,5.643626708984375,0.04962473939061165,0.05116203196048736,-0.045746728913486
1761466497305612000,5.653612060546875,0.05888765777647495,0.06261573838889599,-0.046127837185561654
1761466497315596000,5.663595947265625,0.06734978117346763,0.05388181231319904,-0.0450486636467278
1761466497325581000,5.6735810546875,0.07536971376091241,0.03710252694785595,-0.02196794004961848
1761466497335566000,5.683566162109375,0.08436696694791317,0.03194529031515121,-0.031144787587225435
1761466497345550000,5.693550048828125,0.06910451588630676,0.003351648515462875,-0.03386427567899227
1761466497355535000,5.70353515625,0.050101124730706215,-0.0005102876096963882,-0.03715981009304523
1761466497365519000,5.71351904296875,0.04028378733247518,0.018944938966631887,-0.07546250661090016
1761466497375504100,5.723504150390625,0.05156944371759891,0.028452772024273872,-0.09849880654439329
1761466497385489000,5.733489013671875,0.08580430627465248,0.03703764501810074,-0.11218480206951498
1761466497395473000,5.743472900390625,0.09385025008618832,0.03478431313335895,-0.11862681781575082
1761466497405458000,5.7534580078125,0.09598170915693044,0.026610359027981756,-0.11026873931512236
1761466497415443000,5.76344287109375,0.1305897889405489,0.0071843585461378095,-0.09646028645411134
1761466497425427000,5.773427001953125,0.11427198360711335,0.0014186346262693404,-0.08666501475721597
1761466497435412000,5.783411865234375,0.061355509194731706,0.036514497926831244,-0.08800181631892919
1761466497445396000,5.79339599609375,0.042754269099235534,0.035920623686909674,-0.1050397526204586
1761466497455381000,5.803381103515625,0.05768120459616184,0.029424247404932973,-0.12795096486955881
1761466497465365800,5.81336572265625,0.04327420132011175,0.049909986072778696,-0.14296923191174865
1761466497475350000,5.82335009765625,-0.00092412910759449,0.06058627838790416,-0.1372267427369952
1761466497485334800,5.833334716796875,0.029330139380693433,0.04050795147716999,-0.13004983684495092
1761466497495318800,5.84331884765625,0.0688894118309021,-0.004309679892659187,-0.12788038385137915
1761466497505304000,5.853303955078125,0.04357669139802456,0.0037111294776201245,-0.13580123997852206
1761466497515289000,5.8632890625,0.015316811597347258,0.018097966748476028,-0.11882730882391333
1761466497525273000,5.873273193359375,0.06883797390460968,0.045965632361173625,-0.12951017701029777
1761466497535258000,5.883258056640625,0.16944880416691302,0.04276362144947052,-0.1770171935945749
1761466497545242000,5.8932421875,0.12243980023264885,0.04940554368197918,-0.1968890381477773
1761466497555227100,5.90322705078125,0.05434942982494831,0.06501403170228004,-0.16709361934289335
1761466497565212000,5.9132119140625,0.019015081593394278,0.0571861145555973,-0.11585253079682588
1761466497575196000,5.92319580078125,0.053549511618912214,0.03350654828250408,-0.10606938792914151
1761466497585181000,5.933180908203125,0.0544783169016242,0.049881929022073744,-0.10094342321753501
1761466497595165000,5.9431650390625,0.03315934228003025,0.0745271254569292,-0.09727832483872771
1761466497605150000,5.95314990234375,0.05902560494244098,0.03772504276037216,-0.1075233861297369
1761466497615135000,5.963135009765625,0.06912088249921798,0.0043599487751722335,-0.09745835758075118
1761466497625119000,5.973118896484375,0.04179652998298406,0.021112346133589744,-0.07945026107281446
1761466497635104000,5.98310400390625,0.052227615365386004,0.028518238475918768,-0.07096256484314799
1761466497645088000,5.993087890625,0.07810586072653532,0.033785949745774264,-0.05754691069200635
1761466497655073000,6.003072998046875,0.055739422878623004,0.027998598515987395,-0.0592545913927257
1761466497665057800,6.013057861328125,0.006931260567903518,0.027356208959221837,-0.07156710660755634
1761466497675041800,6.023041748046875,0.02401741992533207,0.03536532789170742,-0.07113806754052639
1761466497685026800,6.03302685546875,0.05337970800995826,0.046859950852394104,-0.09224939076080918
1761466497695010800,6.0430107421875,0.024375439582765102,0.03092763770520687,-0.07302402741760015
1761466497704995800,6.052995849609375,0.0035813656181097027,0.014162380865216255,-0.031322043850272895
1761466497714981000,6.062981201171875,0.06168839441090822,-0.005949263793230056,-0.026844606175273657
1761466497724965000,6.072965087890625,0.08179565515518188,-0.017480711632966994,-0.027959581679850815
1761466497734950100,6.0829501953125,0.07475450447201729,-0.0273883576631546,-0.05189560693204403
1761466497744935000,6.092934814453125,0.07666121487617492,-0.011859364619851112,-0.06893544292971492
1761466497754919200,6.102919189453125,0.0592424625635147,0.005606149443984031,-0.073259297478199
1761466497764904000,6.112904052734375,0.05708060835450887,0.033062896168231964,-0.06757321466580032
1761466497774888000,6.122887939453125,0.08776303912699222,0.049560441982746124,-0.040759588150680065
1761466497784873000,6.132873046875,0.07402852828502654,0.05988543664216995,-0.0064433309204876416
1761466497794858000,6.14285791015625,0.019850363373756407,0.06595160481333733,-0.027475159163773057
1761466497804842000,6.152842041015625,0.005018120422959327,0.06516483834981918,-0.046801790924370285
1761466497814827000,6.162826904296875,0.03385083167552948,0.05889233395159244,-0.03902370426878333
1761466497824811000,6.17281103515625,0.06407938120067119,0.0495136802315712,-0.027532880700379608
1761466497834796000,6.182796142578125,0.0906008929014206,0.034871991416811944,0.005136778366565704
1761466497844780800,6.19278076171875,0.1096317565858364,0.04814882161915302,0.020671178237348795
1761466497854765000,6.20276513671875,0.08838321685194969,0.022597616255283354,0.008059387814998627
1761466497864749800,6.212749755859375,0.033171324978768825,0.00867313579916954,-0.019293606273829936
1761466497874733800,6.22273388671875,0.012801029384136199,0.03678045538663864,-0.04328837597593665
1761466497884718800,6.23271875,0.05769523312151432,0.04757540564537048,-0.06939356196075677
1761466497894704000,6.2427041015625,0.08312339662760496,0.04941197342276573,-0.07569616923630237
1761466497904687900,6.25268798828125,0.0793614137455821,0.043736265873909,-0.06949526876956225
1761466497914673200,6.262673095703125,0.09629910454303026,0.039921091499924656,-0.060227674208581446
1761466497924658200,6.272658203125,0.07662351321429013,0.01740413926541805,-0.05469926617592573
1761466497934642200,6.28264208984375,0.052315293648838995,0.007760697129368782,-0.04777019756510854
1761466497944627000,6.292626953125,0.019932196438312528,0.03491816864609718,-0.03921922684088349
1761466497954611000,6.30261083984375,-0.004917582657933235,0.01302840839922428,-0.0361503407895565
1761466497964596000,6.312595947265625,0.004829319852590561,0.01887596538364887,-0.03720540280044079
1761466497974581000,6.3225810546875,0.03495996196120977,0.0006172551155090331,-0.05945610531419515
1761466497984565000,6.33256494140625,0.06796849759370088,-0.005111059403419494,-0.07643924268856644
1761466497994550000,6.342550048828125,0.0548071104645729,0.0035959786653518675,-0.04766878301724791
1761466498004534000,6.352533935546875,0.037760406334698196,0.017164485290646552,0.009696341367065906
1761466498014519000,6.36251904296875,0.06928513315021992,0.035309798312187196,0.003167524120211601
1761466498024504000,6.372504150390625,0.0447206007361412,0.03332359293103218,-0.014792641592770814
1761466498034488000,6.382488037109375,-0.007147533667087555,0.015469956332445144,-0.019006898286938665
1761466498044472800,6.392472900390625,0.0060118076354265205,0.022878771284222603,-0.060467328183352945
1761466498054457900,6.402457763671875,0.04809183073490858,0.028576690664887428,-0.10754340600445866
1761466498064441900,6.41244189453125,0.0381458985209465,0.04400046976804733,-0.08638780525103211
1761466498074427000,6.422427001953125,0.03319499811530113,0.03166588885188103,-0.04125117105990648
1761466498084411000,6.432410888671875,0.11511048025786876,0.01753974834382534,-0.06645853142216801
1761466498094396000,6.44239599609375,0.13797814562618732,0.0009387421548366546,-0.11329627044275402
1761466498104381200,6.452381103515625,0.07436521289348602,-0.014658055427670479,-0.08105126652866601
1761466498114365200,6.462365234375,0.04709463639110326,0.0005132102191448212,-0.010154314267635346
1761466498124350000,6.472349853515625,0.08202741808444261,-0.014504910692572592,-0.03687529406324029
1761466498134334200,6.482334228515625,0.14509703772068022,-0.024902386066317558,-0.07590601259469985
1761466498144319000,6.492319091796875,0.08428396483957767,0.034165888974070545,-0.07772577536776662
1761466498154304000,6.502303955078125,-0.001133095683157444,0.08227671667039393,-0.01889540073648095
1761466498164288000,6.5122880859375,-0.02624327928125858,0.05694295344948768,0.03941811041384935
1761466498174273000,6.52227294921875,0.023281506866216658,0.060600891435146326,0.008509469670057297
1761466498184260900,6.5322607421875,0.011738368588685988,0.06610650311410426,-0.00038023148924112317
1761466498194244600,6.54224462890625,-0.05292728806734085,0.06683657095432281,0.03374590999633074
1761466498204230000,6.55222998046875,-0.0438753820836544,0.06622925271093845,0.017757628878206012
1761466498214214000,6.5622138671875,-0.014820260252058504,0.07479191387295722,-0.03974968045577407
1761466498224199000,6.572198974609375,0.01790215191543102,0.0762310067653656,-0.05769567151293158
1761466498234183700,6.58218359375,0.06358078402876853,0.044944472619891165,-0.03503945693820715
1761466498244167700,6.592167724609375,0.061899991334974765,0.030654081460833548,-0.004185468991100788
1761466498254152700,6.602152587890625,0.019553718514740467,0.03756429924070835,0.001645575249940157
1761466498264136700,6.61213671875,0.0014937456890940666,0.05175649072229862,-0.015440291846543549
1761466498274121700,6.622121826171875,0.00807400086224079,0.03381985201537609,-0.04724325108155608
1761466498284106800,6.632106689453125,-0.0071533788859844205,0.003837386205792427,-0.03260594618096947
1761466498294090800,6.6420908203125,-0.03858662802577018,0.0032476036190986633,-0.014223755663633346
1761466498304075800,6.65207568359375,-0.023629881912469862,0.02382745031118393,0.011584493201225995
1761466498314059800,6.662059814453125,0.04121814557313919,0.02307224802970886,-0.001950695676356554
1761466498324044800,6.672044921875,0.08789017263799906,0.02438333062827587,-0.060722618118673556
1761466498334029600,6.682029541015625,0.021843875278532505,0.04815057518482208,-0.07566621248945593
1761466498344013600,6.692013671875,-0.01717588346749544,0.06254618028402328,-0.06527239037752151
1761466498353998600,6.70199853515625,-0.011032558406889438,0.05221650944948196,-0.013706746052205562
1761466498363983600,6.711983642578125,0.013484043212234974,0.03861760768592357,-0.007839753714948891
1761466498373967600,6.721967529296875,0.04321662591397762,0.03135667677223682,-0.030396453437954187
1761466498383953000,6.731952880859375,0.010248422291874885,0.04079378268122673,-0.03625453181639313
1761466498393936600,6.7419365234375,-0.009334230056405067,0.047155134406685825,-0.05808788570091128
1761466498403922000,6.751921875,0.025804303342103957,0.025685060876607893,-0.09963307127133011
1761466498413906700,6.76190673828125,0.03241816852390766,0.030187048470973966,-0.10760828793421387
1761466498423891000,6.771890869140625,0.024713293235003948,0.062494742357730865,-0.10984876033738254
1761466498433875700,6.781875732421875,0.03793927003294229,0.053961307290196416,-0.05932502628043294
1761466498443860700,6.79186083984375,0.04740881690680981,0.02446399464905262,-0.008951806610077618
1761466498453844700,6.8018447265625,0.025166005438566206,0.005493336719274521,-0.009082447252422571
1761466498463829800,6.811829833984375,0.0007896890729665756,-0.005935819789767265,-0.0444518667973578
1761466498473813800,6.821813720703125,0.0013373860836029053,0.016917232531309126,-0.07742781533449888
1761466498483798800,6.831798828125,0.021847674670815467,0.03494038047790527,-0.08107727775275707
1761466498493783800,6.84178369140625,-0.019717092382907867,0.05313070168495178,-0.06359042863994836
1761466498503767800,6.851767822265625,-0.022922610425949095,0.08102993147969245,-0.03837663853690028
1761466498513752600,6.861752685546875,0.020226795470714567,0.09040683163404464,-0.01789221504330635
1761466498523736800,6.87173681640625,0.013335282391309737,0.0638175153940916,0.013240882106125354
1761466498533721600,6.8817216796875,0.008513561323285103,0.03182078715264797,0.035140871486067767
1761466498543706600,6.89170654296875,0.020996026277542112,0.027683541217446327,0.02437953123599291
1761466498553690600,6.901690673828125,-0.015923545318841933,0.03950198930501938,0.009924451034516096
1761466498563675600,6.911675537109375,-0.0026361937224864958,0.03891629837155342,-0.016247370445728302
1761466498573661000,6.921660888671875,-0.009641980831325054,0.034578561428189276,-0.06055617551058531
1761466498583644700,6.931644775390625,-0.033845278717577455,0.053180970567464826,-0.07040551548227668
1761466498593630000,6.9416298828125,-0.00931143370270729,0.04703823002874851,-0.05342749267444014
1761466498603614000,6.951614013671875,0.04590191947519779,0.023404840984940528,-0.05377952098250389
1761466498613598700,6.9615986328125,0.07501403219103812,0.03493979595601558,-0.07640709398463368
1761466498623583700,6.971583740234375,0.026021160963177678,0.07097440141141415,-0.03989230379685759
1761466498633567700,6.981567626953125,-0.0043324762463569635,0.06800503021180629,-0.002936345712840557
1761466498643552800,6.991552734375,0.005057283389568328,0.06202770936787128,-0.026380349664390085
1761466498653536800,7.001536865234375,-0.015107845021784305,0.0727536860436201,-0.058133770669251676
1761466498663521800,7.011521728515625,-0.015625439155101777,0.06611001024544239,-0.04826426469236612
1761466498673506800,7.0215068359375,-0.01580780998468399,0.0334054259955883,-0.037528789535909886
1761466498683490800,7.03149072265625,0.004382452867925167,0.01737842030227184,-0.06000467910766601
1761466498693475800,7.041475830078125,0.01189998889118433,0.03888590323328971,-0.06789470170512794
1761466498703459800,7.0514599609375,0.03207359286993742,0.045482817280292506,-0.03995601668283343
1761466498713444600,7.061444580078125,0.07052344277352095,0.024021511578559872,-0.04075140484422445
1761466498723429600,7.0714296875,0.05403729513585567,0.03666530457437038,-0.052112902944535015
1761466498733413600,7.08141357421875,0.00021218144595623015,0.05646773715317249,-0.037040129236131904
1761466498743398700,7.091398681640625,-0.04420446790754795,0.05086567936241627,-0.021377280680090188
1761466498753383700,7.1013837890625,0.006604220570623875,0.0409603714197874,-0.0121779290497303
1761466498763367700,7.11136767578125,0.03585691080093384,0.04143734128177166,-0.023520137927681206
1761466498773352700,7.121352783203125,0.02801496512889862,0.04535656055212021,-0.026169629523158072
1761466498783336700,7.131336669921875,0.030958617365360257,0.05047288065254688,-0.026231296582520006
1761466498793321700,7.14132177734375,0.03801847274899482,0.0380979677259922,-0.03306830299571156
1761466498803306800,7.151306640625,0.03555295941829681,0.035355391019582745,-0.030098639535158872
1761466498813290800,7.161290771484375,0.02062543939948082,0.04258066609799862,-0.011965455342829227
1761466498823275800,7.17127587890625,0.018042729429900647,0.04082885399460792,-0.00999152492135763
1761466498833260800,7.1812607421875,0.020910978342592715,0.028289690417051313,-0.009171586840599774
1761466498843244800,7.191244873046875,0.018055004389584062,0.047718028986454004,-0.0026446692898869513
1761466498853229800,7.201229736328125,0.021612404610216615,0.05300502947866916,0.015499474687874316
1761466498863213800,7.2112138671875,-0.0000225040927529335,0.03216448602378368,0.0273404268682003
1761466498873198800,7.22119873046875,0.0020437807872891425,0.026687515917420385,0.029502427207678556
1761466498883183600,7.23118359375,0.029734044006466863,0.02346621578335762,0.019878712685406207
1761466498893167600,7.241167724609375,0.053852586218714714,0.01084638818502426,0.0022448563173413276
1761466498903152600,7.251152587890625,0.04128185845911503,0.023970073652267453,-0.0003070201225578785
1761466498913136600,7.26113671875,0.04286240564882755,0.01704874995648861,-0.004723521390557289
1761466498923121700,7.27112158203125,0.052851300221681594,0.010188216537237166,-0.020012860459089277
1761466498933106700,7.281106689453125,0.027043489748239516,0.03242109113335609,-0.012937076853960752
1761466498943090700,7.291090576171875,0.04376373840272426,0.0045329672545194625,-0.013992138864845037
1761466498953075700,7.30107568359375,0.08992840046733618,-0.01513327172398567,-0.021846944018453357
1761466498963059700,7.311059814453125,0.07467121010273695,0.00037292496562004086,-0.035215105766057964
1761466498973044700,7.321044677734375,0.018928864614665506,-0.0077712185233831405,-0.02263020335063338
1761466498983029800,7.33102978515625,0.045267420963943004,-0.033329438149929044,-0.01937500094696879
1761466498993013500,7.341013427734375,0.08368892155587673,-0.04959434425234795,-0.02807984705865383
1761466499002998800,7.350998779296875,0.0677782357186079,-0.01964461166858673,-0.034871114633977414
1761466499012983800,7.36098388671875,0.03661445116996765,-0.0196153855741024,-0.036949674473702905
1761466499022967800,7.3709677734375,0.052666006782650945,-0.02589958041012287,-0.0645830929391086
1761466499032952800,7.380952880859375,0.08105272783339024,-0.003947860842943191,-0.08141863853633403
1761466499042936800,7.390936767578125,0.10970979025810956,0.007395955470204353,-0.05519172586798667
1761466499052921900,7.400921875,0.11302022998034954,0.019390344646573066,-0.01710194144845009
1761466499062906600,7.41090673828125,0.09980974301248788,0.03948445364832878,0.01175005902647972
1761466499072891000,7.420890869140625,0.042912674531340594,0.041404023534059524,0.012066285368800162
1761466499082875600,7.430875732421875,0.025954525467753408,0.029552257698774335,0.0005658171892166138
1761466499092859600,7.440859619140625,0.04630290149152279,0.03707622346282005,-0.02093713569715619
1761466499102844700,7.4508447265625,0.05258475823998451,-0.033353403547406194,-0.07133622046113014
1761466499112829700,7.46082958984375,0.0784656339496374,0.06850771903693675,-0.04321940239295363
1761466499122813700,7.470813720703125,0.06471504875570536,0.08020283300578594,-0.08935834549441933
1761466499132798700,7.480798828125,0.08485679629147053,0.06595277385711669,-0.1359434249281883
1761466499142783700,7.49078369140625,-0.016909049224853513,0.10812310558855533,-0.028191198478639126
1761466499152767700,7.500767822265625,0.013798515988886356,0.07273381229937076,-0.024527415274083614
1761466499162752500,7.51075244140625,0.04249707946777344,0.053685412958264345,-0.045092795049399136
1761466499172736800,7.52073681640625,0.0013736264407634734,0.030908348482847212,0.003288081759959459
1761466499182718000,7.530718017578125,-0.030065175656974315,0.014206804528832434,0.008604454477131367
1761466499192703200,7.540703125,-0.031098610357940194,0.035381109982728955,0.009622545478492974
1761466499202687200,7.550687255859375,-0.03243278157114982,0.05336100330948829,0.024330577527731656
1761466499212672300,7.56067236328125,0.018904022434353827,0.023646248525381088,0.003929010012000799
1761466499222656300,7.57065625,0.04779460135400295,0.015594459494948386,-0.011226911935210228
1761466499232641300,7.580641357421875,0.042374622131884095,0.019371639946103095,-0.009704963064938782
1761466499242626300,7.590626220703125,0.029472178199887275,0.03156125943362713,-0.023138299003243445
1761466499252610300,7.6006103515625,0.014226093751192092,0.019917583391070366,-0.02406885785162449
1761466499262595000,7.610594970703125,-0.0037400633111596107,0.046157355540990826,-0.03306099647209048
1761466499272580000,7.620580078125,0.014175824868679045,0.07101064176857472,-0.04384644825011492
1761466499282564000,7.630564208984375,0.03159691526889801,0.07941197488903999,-0.05660714562386274
1761466499292549000,7.640549072265625,0.017619243320822715,0.08249883498847484,-0.0477639139547944
1761466499302533000,7.650533203125,0.013520283569395542,0.06392740550935268,-0.04377338301390409
1761466499312518100,7.66051806640625,0.03664543083012104,0.04911620534658432,-0.06697466425076126
1761466499322503200,7.670503173828125,0.06653788026869296,0.03644143269062042,-0.0927254838399589
1761466499332487200,7.680487060546875,0.05975216565132141,0.030209260302782058,-0.0833957838281989
1761466499342472200,7.69047216796875,0.054116790112853044,0.034089901128411294,-0.10449848535060882
1761466499352456200,7.700456298828125,0.053614978070557116,0.022075638207793236,-0.10286650023460388
1761466499362441000,7.71044091796875,0.050526656666398044,0.02361468434333801,-0.0781860863558948
1761466499372426200,7.72042626953125,0.05606997000724077,-0.0019587328523397443,-0.09024535746201873
1761466499382410000,7.730409912109375,0.041506607125699514,0.020631284618377686,-0.08973112432956695
1761466499392395300,7.740395263671875,-0.0009743979901075362,0.01255436114668846,-0.08389964169710874
1761466499402379300,7.750379150390625,-0.004649287110567093,0.023363924452662468,-0.0846142197072506
1761466499412364300,7.7603642578125,0.038678982484340665,0.04886135380268097,-0.09569222469106316
1761466499422349300,7.770349365234375,0.05094254399091005,0.07212532501220703,-0.08950564501062035
1761466499432333300,7.780333251953125,0.04276420597136021,0.07364157479405403,-0.07009484209790826
1761466499442318000,7.790318115234375,0.04599076680243015,0.048290275916457175,-0.07269611063748598
1761466499452303000,7.80030322265625,0.05734919616281986,0.027761867150664327,-0.08339563769772648
1761466499462287000,7.810287109375,0.07735825722962618,0.01919628337919712,-0.07216375732645391
1761466499472272100,7.820272216796875,0.07305909873098135,0.03141337539553642,-0.07897592155933379
1761466499482256100,7.830256103515625,0.0527528082832694,0.011389993542432784,-0.08015066442713141
1761466499492241200,7.8402412109375,0.03271861277520657,0.028909868142008778,-0.04547755658328533
1761466499502226200,7.85022607421875,0.0417623354524374,0.015843465819954872,-0.03588482172116637
1761466499512210200,7.860210205078125,0.08092004136443137,0.016770517536997796,-0.04702770863473415
1761466499522195200,7.8701953125,0.06269523336589336,0.02341828498840332,-0.05842237835228443
1761466499532179200,7.88017919921875,0.017479834850132464,0.027879940572381016,-0.055410775446146726
1761466499542164000,7.8901640625,0.011673778919875621,0.02054477537870407,-0.04403422590717673
1761466499552149000,7.90014892578125,0.007792845833301544,0.012435118681192398,-0.014163696039468049
1761466499562133000,7.910133056640625,0.02827098571658134,0.021307576444745062,-0.006578647737950086
1761466499572118000,7.920117919921875,0.053634559553861615,0.00507072739303112,-0.019617577531188726
1761466499582103300,7.930103271484375,0.04979746560901403,0.006264905613660812,-0.01889817721545696
1761466499592087300,7.94008740234375,0.018750293177366255,0.027180267870426177,-0.009170563927292824
1761466499602072300,7.950072265625,0.004544657692313194,0.027253917628526685,0.006478402233868837
1761466499612056300,7.960056396484375,0.02041091986596584,0.012898060017824172,0.013277706985175608
1761466499622041300,7.970041259765625,0.057768590618669985,0.022909166422486305,-0.006602905396372079
1761466499632026000,7.980026123046875,0.0644797786951065,0.01262450377345085,-0.029441198539733884
1761466499642008000,7.990008056640625,0.061467152875661846,0.013827449822425841,-0.028547464570403098
1761466499651993300,7.999993408203125,0.06371171693205833,0.014046061009168625,-0.047711453115195035
1761466499661977000,8.00997705078125,0.0828185684621334,0.015606149932742118,-0.037276422210037706
1761466499671962400,8.01996240234375,0.07815408378243446,0.009257657688856124,-0.020478432144224644
1761466499681946000,8.029946044921875,0.0905111687913537,0.02034603793621063,-0.01493175780251622
1761466499691931100,8.03993115234375,0.06924597018361091,0.04331424106955528,0.010498743791133166
1761466499701916200,8.049916259765626,0.04303367056250572,0.03453238419890404,0.02057590116932988
1761466499711900200,8.059900146484376,0.021325404362380503,0.02346095508635044,-0.008341858018189667
1761466499721885200,8.06988525390625,0.005498012894392014,0.04476093274652958,-0.058709963122010225
1761466499731870200,8.0798701171875,0.07772036854028701,0.01393733993768692,-0.08972162584885954
1761466499741854200,8.089854248046874,0.11229396153241396,-0.013540449574589728,0.0077111588992178435
1761466499751839200,8.099839111328125,0.08857318646609783,0.03399637762606144,-0.01897694154009223
1761466499761823200,8.1098232421875,0.07906184627711772,0.040163083562254905,-0.0157660166695714
1761466499771808300,8.119808349609375,0.0974497358828783,-0.00011573533415794372,-0.006046148296445608
1761466499781793000,8.12979296875,0.14234627770781516,-0.014434183543920516,-0.01503916369974613
1761466499791777000,8.139777099609375,0.09392565340995788,0.013367431095242499,-0.006870470291376113
1761466499801762000,8.149761962890626,0.0747410604685545,0.02055880390405655,0.02202113154157996
1761466499811746000,8.15974609375,0.08565437640994787,0.02143617126047611,0.025317542738467452
1761466499821731000,8.16973095703125,0.09975333665013313,0.021566519641876218,0.018393004172295332
1761466499831716000,8.179716064453125,0.08199906877279281,0.034710663375258445,0.01325564128383994
1761466499841700000,8.1897001953125,0.08814531644284725,0.030379356172680852,0.004488835851848125
1761466499851685000,8.19968505859375,0.11234861432909965,-0.00239244809448719,-0.02891688240468502
1761466499861669000,8.209669189453125,0.08661036196053028,-0.0017027122646570204,-0.048052813898772
1761466499871654400,8.219654296875,0.027916180929541585,0.018883564168214798,-0.025479309171438216
1761466499881639200,8.22963916015625,0.009175532363355159,0.027695231655240057,0.010230155982822179
1761466499891623200,8.239623046875,0.018907529565691947,0.005512041419744491,0.018823212283104657
1761466499901608200,8.249608154296874,0.04271481387168169,-0.005457680884003639,-0.0015812778420746325
1761466499911593200,8.25959326171875,0.02296031208783388,0.025618425381183623,0.007778378916531801
1761466499921577200,8.2695771484375,0.010355097536742687,0.04422960234880447,0.015170973385870456
1761466499931562200,8.279562255859375,0.04493424348682165,0.014213234269618987,0.0007280220136046409
1761466499941546200,8.289546142578125,0.07881926969289779,-0.008364508241415023,-0.0196828978523612
1761466499951531300,8.29953125,0.05651274533867836,0.008422960430383682,-0.037671559007465834
1761466499961516000,8.30951611328125,0.035496260794997216,0.019315525844693184,-0.050926031247526406
1761466499971500000,8.3195,0.024833997005224227,0.016091303101181984,-0.039659079562872644
1761466499981485000,8.329485107421876,0.07011573875546455,0.017854805642366408,-0.049278556301444766
1761466499991469000,8.339468994140624,0.08452303429245948,0.05019464823305607,-0.05367956773936748
1761466500001454000,8.3494541015625,0.049234863290190695,0.03880465469062328,-0.03829582838565111
1761466500011439000,8.359439208984375,0.009681728319823741,0.006620294922590256,-0.02221548506990075
1761466500021423000,8.369423095703125,0.030217735870182512,0.013833295041322708,-0.03681041213348508
1761466500031408000,8.379408203125,0.049852702927589414,0.04630874671041965,-0.03762903503999114
1761466500041392000,8.38939208984375,0.06693126350045203,0.03490706273019314,-0.041972178810834884
1761466500051377200,8.399377197265625,0.05996434709727764,0.032439795833826064,-0.06377616047039628
1761466500061362200,8.409362060546876,0.05324585249722004,0.05317512534856796,-0.0541582911670208
1761466500071346000,8.419345947265626,0.05861906996816396,0.03998071273267269,-0.018684388334304095
1761466500081331200,8.429331298828124,0.04490589417517185,0.023782442125678063,-0.012527911531180142
1761466500091315200,8.439315185546874,0.02785977456718683,0.04881400752961635,-0.014300620292127132
1761466500101300200,8.44930029296875,0.005313303977251053,0.07621464015245437,-0.0007449731484055519
1761466500111285200,8.45928515625,-0.01680734241604805,0.06405190867185592,-0.019954116009175776
1761466500121269200,8.469269287109375,0.00960340238660574,0.06520224775075913,-0.05817731755003333
1761466500131254300,8.479254150390625,0.014502572605013846,0.03803483936190605,-0.07966974904239177
1761466500141239000,8.489239013671876,0.01181844808757305,0.004876081603765487,-0.06672784988284111
1761466500151223300,8.499223388671876,0.03848258312940597,-0.033837387672066684,-0.05670870630219579
1761466500161208000,8.5092080078125,0.049798634652793404,-0.011006547182798384,-0.05652034412324428
1761466500171192000,8.519192138671874,0.10029840331226586,0.02320259641110897,-0.05110591785907745
1761466500181177000,8.529177001953125,0.11370762772262095,0.02697276259958744,-0.06451967231407761
1761466500191162000,8.539162109375,0.07309417004436254,0.049669747576117515,-0.05606222509220242
1761466500201146000,8.54914599609375,0.03243278157114982,0.0626280133485794,-0.027156302472949027
1761466500211131100,8.559131103515625,0.014877835658192633,0.04331248750388622,-0.025957886468619108
1761466500221115100,8.569115234375,-0.009150105661153794,0.014136077380180358,-0.05255202501416206
1761466500231103200,8.579103271484374,0.03839695067256689,-0.009709493109583854,-0.09540142505094408
1761466500241088300,8.589088134765625,0.034248598821461196,-0.024402619850635528,-0.041567105141282076
1761466500251072300,8.599072265625,0.07497019304931163,-0.005657002848386764,-0.00215367090255022
1761466500261057000,8.60905712890625,0.08071078252792357,0.007108370700478554,0.025657442217320203
1761466500271042000,8.6190419921875,0.0732046446815133,0.0074228434771299355,0.016459844152629376
1761466500281026000,8.629026123046875,0.06605389614403248,0.023127777609229086,-0.00644493835568428
1761466500291011000,8.639010986328126,0.04088350679129362,0.03900514569878578,-0.04589855847433209
1761466500300996000,8.64899609375,0.031205870124697683,0.020615502527356146,-0.06942761036083102
1761466500310980000,8.65897998046875,0.04911795891225338,0.029219664743542668,-0.09206132084280252
1761466500320965000,8.668965087890625,0.04941255794465541,0.060060208687186235,-0.0951274304151535
1761466500330949000,8.67894921875,0.03134557085633278,0.09103519266545772,-0.0682082976989448
1761466500340934100,8.68893408203125,0.0060381111204624175,0.09945932213962078,-0.019019903898984194
1761466500350919000,8.6989189453125,0.009003975188732147,0.08713175548613071,0.03167319537550211
1761466500360903000,8.70890283203125,0.016676409512758256,0.08045242385268211,0.06690452162399887
1761466500370888200,8.71888818359375,0.02740063262283802,0.07458031694889068,0.06632993660643696
1761466500380872000,8.728871826171876,0.006018237376213074,0.07059153957366943,0.04088730618357658
1761466500390857200,8.738857177734374,-0.03547171087563038,0.07329612235724925,0.0024418401941657063
1761466500400842200,8.74884228515625,-0.05305763644874096,0.07298398766815661,0.0011319266393780708
1761466500410826200,8.758826171875,-0.02761982833147049,0.033977672925591465,-0.03191314161121845
1761466500420811300,8.768811279296875,-0.01333995856642723,0.011869886013865471,-0.0518434383533895
1761466500430795300,8.778795166015625,0.009500818794965744,-0.002090250277519226,-0.03790390645861626
1761466500440780300,8.7887802734375,0.03875117093771696,-0.007191372808814048,-0.03344473509266972
1761466500450765000,8.79876513671875,0.05393061989098787,0.020667524975538254,-0.035181641887873406
1761466500460749000,8.8087490234375,0.029269933626055716,0.04309621440470218,-0.007103256133943796
1761466500470734000,8.818734130859376,0.005233224478363991,0.054010991650819774,-0.0007977262489497661
1761466500480718000,8.828718017578124,0.0024009236618876455,0.07819850744605064,-0.006900280907750129
1761466500490703000,8.838703125,-0.008290858483314513,0.08085515943467617,-0.008756722429394721
1761466500500688100,8.848688232421875,-0.008978840747475623,0.07045593049526214,-0.02238251219987869
1761466500510672100,8.858672119140625,0.0147682378038764,0.03240121738910675,-0.040615211243927474
1761466500520657200,8.8686572265625,0.03154664638638496,-0.008189736196398735,-0.049328240662068125
1761466500530641200,8.87864111328125,0.06287058993279934,-0.023587796336412427,-0.07293766430839896
1761466500540626200,8.888626220703125,0.04147358163893223,-0.0066857613742351526,-0.06622457653582095
1761466500550611000,8.89861083984375,0.011571779850125313,0.01809095248579979,-0.008626666308939457
1761466500560595000,8.908594970703126,0.004886310736835002,0.025840543699264525,0.02679258372709155
1761466500570580000,8.918580078125,0.024720307497680186,0.03330255014300346,0.02252615845426917
1761466500580565200,8.928565185546875,0.010732990938425063,0.05250935491621494,0.021051994248479602
1761466500590549200,8.93854931640625,0.012673603612184524,0.04403320299386978,-0.0030951895363628863
1761466500600534300,8.9485341796875,0.013099720069766044,0.04030395333766937,-0.052462447034567594
1761466500610518300,8.958518310546875,-0.0047165071278810495,0.03994447237551212,-0.06464885165169834
1761466500620503300,8.96850341796875,0.001101239240169525,0.03824351367652416,-0.06911854441165924
1761466500630488000,8.978488037109376,-0.0025637130081653595,0.024406126981973645,-0.05304433857575059
1761466500640472000,8.98847216796875,0.009609832127392292,0.02689502118825912,-0.03642681964337825
1761466500650457000,8.99845703125,0.027749592190980908,0.02016308258473873,-0.02850260251536965
1761466500660441000,9.008441162109374,0.04226210166811943,0.040647652208805084,-0.04131736816391349
1761466500670426000,9.018426025390625,0.03042348757535219,0.05848550671637058,-0.04688347785845399
1761466500680411100,9.0284111328125,0.03170738990604877,0.06140519355535507,-0.030946050144731996
1761466500690395100,9.03839501953125,0.09688684130311012,0.05234919591844082,-0.04698153140544891
1761466500700380200,9.048380126953125,0.14839607926607132,0.038411855980753896,-0.06291004516035319
1761466500710364200,9.0583642578125,-0.022723872983455656,-0.025952187380194662,-0.08570844468474388
1761466500720349200,9.06834912109375,-0.05321428831517696,0.02679506794512272,-0.09478460832685232
1761466500730334000,9.078333984375,-0.028180677084624767,0.04994856451749801,-0.05034793909862637
1761466500740318000,9.08831787109375,-0.06360650299191474,0.054223173096776,-0.012244272284209727
1761466500750303000,9.098302978515624,-0.07001052481532097,0.04217383886277675,-0.026717472664266825
1761466500760287000,9.108286865234374,-0.046609190961718554,0.057117725494503974,-0.04310249801501632
1761466500770272000,9.11827197265625,-0.03196925571262836,0.06655950757861137,-0.05284165561050176
1761466500780257300,9.12825732421875,-0.0340460619866848,0.06331774917840957,-0.051119654123485084
1761466500790241000,9.138240966796875,-0.043376200389862056,0.08157061422765255,-0.0470246398948133
1761466500800226300,9.148226318359375,-0.020645897665619847,0.08497954588830471,-0.047846185410767794
1761466500810210300,9.158210205078126,-0.020960370442271233,0.09783084415495395,-0.028964959330111742
1761466500820195000,9.168195068359376,0.018267478096485136,0.07602233245074748,-0.03594385843202472
1761466500830180000,9.17818017578125,0.08187690369784832,0.02021978120803833,-0.05481500151008367
1761466500840164000,9.1881640625,0.047884325464069843,-0.013441080853343008,-0.09719371529519558
1761466500850149000,9.198149169921875,-0.011420973202586173,-0.01876373718082905,-0.11637976954132317
1761466500860133000,9.208133056640625,0.01099018056988716,0.0038069910675287244,-0.09709507722631096
1761466500870118100,9.2181181640625,0.046480011624097824,0.0045329672545194625,-0.03863309751600027
1761466500880103200,9.228103271484375,0.017447393885254858,0.02600537887215614,0.013864128571003675
1761466500890087200,9.238087158203125,-0.003271569016575813,0.026456629770994184,0.041247956189513206
1761466500900072200,9.248072265625,-0.020244331127405167,0.031227497434616086,0.02377878886386752
1761466500910056200,9.25805615234375,-0.05775602339804172,0.03682546357214451,-0.00630114597082138
1761466500920041000,9.268041015625,-0.08788228159248829,0.04540858300030231,-0.028602117367088793
1761466500930026000,9.27802587890625,-0.042273207584023476,0.05502630617320537,-0.0808021140731871
1761466500940010000,9.288010009765625,-0.0038169279396533962,0.0754419022142887,-0.09291881445497274
1761466500949995000,9.2979951171875,0.05271627566516399,0.05187748675346374,-0.08533362002298235
1761466500959979000,9.30797900390625,0.06494973429441452,0.031548984473943706,-0.07577171869054436
1761466500969964000,9.317964111328125,0.04161795854568481,0.06152502054274082,-0.03302256415784359
1761466500979949000,9.327948974609376,0.09150514826476573,0.03680558982789516,0.0250039467446506
1761466500989933000,9.33793310546875,0.14109773895144462,0.00861468361020088,0.049754210989177226
1761466500999918300,9.34791845703125,0.16004676957130431,0.03523731759786606,0.07372282333672046
1761466501009903000,9.357903076171874,0.15318740519583224,0.025527239966392515,0.06819426917359232
1761466501019887000,9.36788720703125,0.1694634172141552,-0.004874912559986114,0.018732319129258393
1761466501029872000,9.3778720703125,0.140888187853992,0.008207271853089332,-0.023888240587711333
1761466501039856000,9.387856201171875,0.05316372717171907,0.022402970466017722,-0.026861557310074568
1761466501049841200,9.397841064453125,0.048911330424249166,-0.0029208558827638624,-0.016854688689112662
1761466501059826200,9.407826171875,0.08033405817002058,-0.011387070932984352,-0.01910319826826453
1761466501069810200,9.41781005859375,0.02308627655506134,-0.0029138416200876235,-0.01866276102438569
1761466501079795200,9.427795166015626,-0.013009995959699153,0.002150456032156944,0.009492343227565288
1761466501089779200,9.437779296875,0.06459843663871288,-0.025091186636686323,0.01647007328569889
1761466501099764200,9.44776416015625,0.13215630760490893,-0.010920622465014457,-0.013644348340481519
1761466501109749000,9.4577490234375,0.08003916687667369,0.03198562232553959,-0.008877572330087423
1761466501119733000,9.46773291015625,0.0070595631226897234,0.051552492582798,0.04230257980898022
1761466501129718000,9.477718017578125,0.00853372732847929,0.03904723127484321,0.05673574043959379
1761466501139702000,9.487701904296875,0.0601402881860733,0.008490764969587325,0.02622019066661596
1761466501149687000,9.49768701171875,0.0945610287040472,0.007563128730654716,-0.019433891527354717
1761466501159672000,9.507672119140626,0.11020809516906738,0.011920154896378517,-0.026634178294986485
1761466501169656000,9.517656005859376,0.05504208826422691,-0.0028571429967880245,-0.008990531185269355
1761466501179641000,9.52764111328125,-0.011626432646811008,0.015016951867938041,0.000867138223350048
1761466501189632500,9.537632568359374,-0.023892916762828825,0.050422027248144145,0.017323036853224037
1761466501199617300,9.5476171875,-0.00028203181177377697,0.05149111778438091,0.008239274426549672
1761466501209602600,9.5576025390625,-0.01503916369974613,0.05831657989025116,-0.009212503372877835
1761466501219586300,9.56758642578125,-0.01972176855802536,0.06631167029738426,-0.03810045194402337
1761466501229571600,9.577571533203125,0.013125439032912254,0.08044540959000587,-0.03584390518888831
1761466501239555600,9.5875556640625,0.0719043757379055,0.05107669176459312,-0.03154197021126747
1761466501249540600,9.59754052734375,0.07171966682076454,0.01975099465250969,-0.03263371097072959
1761466501259525600,9.607525634765626,0.044911739394068714,0.03245440888106823,-0.0015066051706671714
1761466501269509600,9.617509521484376,0.061136021225154394,0.022076807251572607,0.012658113782107829
1761466501279494400,9.627494384765624,0.058519993507862085,0.007550853770971298,-0.006091302612423896
1761466501289478700,9.637478759765624,0.03416208958178758,0.02078969005048275,-0.019502134457975624
1761466501299463400,9.64746337890625,0.03141337539553642,0.056310500764846796,-0.001276741937547922
1761466501309448400,9.657448486328125,0.10644143611192702,0.027501754909753796,-0.0019897125124931333
1761466501319432400,9.667432373046875,0.14455050975382328,0.022216507983207703,-0.028713030395656824
1761466501329417500,9.67741748046875,0.09504559735059738,0.03717500766217709,-0.03044672232046723
1761466501339401500,9.6874013671875,0.047992462013661856,0.016653028637170792,-0.01758592557311058
1761466501349386500,9.697386474609376,0.02946808654665947,0.01687222434580326,-0.024231793328374624
1761466501359371500,9.70737158203125,0.052125616295635696,0.012428104418516158,-0.03786883514523506
1761466501369355500,9.71735546875,0.045510289809107776,0.03338496772944927,-0.030297230847179887
1761466501379340300,9.72734033203125,0.04806465046703815,0.04643967961370945,-0.024160335527360438
1761466501389324500,9.737324462890625,0.05738017582297325,0.0452782346189022,-0.054039340962469574
1761466501399309300,9.747309326171875,0.02238426576554775,0.06542495059072971,-0.0487576011672616
1761466501409294600,9.757294677734375,-0.030777123318612574,0.04257598992288113,-0.03105374830290675
1761466501419278300,9.7672783203125,-0.010372340932488441,0.02941314148902893,-0.032710721729695795
1761466501429263600,9.777263671875,-0.014643442380428313,0.03976853128671646,-0.03870864697024226
1761466501439247600,9.78724755859375,-0.033683658415079115,0.03971592431664467,-0.02756853653565049
1761466501449232600,9.797232666015624,0.009757423904538154,0.024454642298817632,-0.021407091296464204
1761466501459216600,9.807216552734374,0.04562836323082447,0.014746318233013152,-0.04011442211493849
1761466501469201700,9.81720166015625,0.03966127151995897,0.02145487596094608,-0.030347645860165355
1761466501479186400,9.8271865234375,0.02022796451449394,0.03966799352169036,-0.04385317025184631
1761466501489170400,9.83717041015625,-0.021150340056419373,0.05802081181406975,-0.08978928425759077
1761466501499155500,9.847155517578125,-0.0350567003339529,0.08527706753015518,-0.093917031712085
1761466501509140500,9.857140380859375,0.008843231669068335,0.07919453274607657,-0.0725612322114408
1761466501519124500,9.86712451171875,0.015414426752924919,0.07742576950788498,-0.05724880452826619
1761466501529109500,9.877109619140626,0.009231938725709914,0.07175123100280761,-0.030968261976540085
1761466501539093500,9.887093505859376,0.001839198125898838,0.06259703368842602,-0.009831073662638664
1761466501549078500,9.89707861328125,-0.0021928338691592215,0.03619008827805519,-0.03594531973674893
1761466501559062500,9.9070625,-0.02416676526814699,0.04057867862582207,-0.06029372518211603
1761466501569047600,9.917047607421875,-0.007052256599068641,0.0534650482058525,-0.05600625712126493
1761466501579032300,9.9270322265625,0.0595455371633172,0.04937631758749485,-0.06851458716914058
1761466501589016300,9.937016357421875,0.05563596250414848,0.05629705676138401,-0.06722016344442963
1761466501599001300,9.94700146484375,-0.008352817803621291,0.07288637251257896,-0.05018690331801772
1761466501608985300,9.9569853515625,-0.01640343779027462,0.05626140092611313,-0.03669014675468206
1761466501618970400,9.966970458984376,0.015604980888962745,0.028721067571640013,-0.029382600220292807
1761466501628955600,9.97695556640625,-0.004612462231516838,0.02490823128521442,-0.029653379985690113
1761466501638939400,9.986939453125,0.004741057047247886,0.02096446209549904,-0.026164807217568156
1761466501648924700,9.996924560546875,0.02596972303688526,0.025683891832828522,-0.049695758800208566
1761466501658908700,10.00690869140625,-0.021024667850136756,0.04623392790853977,-0.06370017262473703
1761466501668893700,10.016893798828125,-0.06379062738716602,0.039779052680730814,-0.051806028952449554
1761466501678878500,10.02687841796875,-0.013690087178349495,0.02073299142718315,-0.036031682845950125
1761466501688862500,10.036862548828125,0.050776832035183905,0.026903789016604424,-0.05064399943575263
1761466501698847500,10.046847412109376,0.058553311255574225,0.03463116839826107,-0.0632673341654241
1761466501708831500,10.05683154296875,0.02100567088872194,0.042454409369826314,-0.03836348679438233
1761466501718816500,10.06681640625,0.004110357928276062,0.05466565616726875,-0.045079204915463925
1761466501728801500,10.076801513671874,-0.03204612034112215,0.06966741046607494,-0.04836787119731307
1761466501738785500,10.08678564453125,-0.08127396936863661,0.08496727092862129,-0.0306038125783205
1761466501748770600,10.0967705078125,-0.05313070168495178,0.06565408317148685,-0.011303776563704014
1761466501758754600,10.106754638671875,-0.029120003761351106,0.06926701297163963,-0.045549891167134045
1761466501768739600,10.116739501953125,-0.03366027753949165,0.07027239062190055,-0.05335793456956744
1761466501778724400,10.126724365234375,-0.02457271572053432,0.04975684133768082,-0.06510930877029895
1761466501788708400,10.136708251953126,0.027088497933745383,0.02131809783875942,-0.08714242301061749
1761466501798693400,10.146693359375,0.021919570863246918,0.019945640441775322,-0.07310980600491165
1761466501808677400,10.156677490234374,0.02462210782021284,0.011318097350001334,-0.031668373069912194
1761466501818662400,10.166662353515624,0.063384092412889,0.001782207241654396,0.0011434709466993807
1761466501828647400,10.1766474609375,0.04866729253530502,0.02247545118033886,0.006585954261571168
1761466501838631400,10.18663134765625,0.0011453706428408623,0.04941664959788322,0.012285042686015367
1761466501848616700,10.19661669921875,-0.02650514508783817,0.07105798804163932,-0.005395867694169282
1761466501858600400,10.206600341796875,-0.03876256911456585,0.06396130777895451,-0.05087956175729632
1761466501868585500,10.21658544921875,-0.04047463372945785,0.04971241767406463,-0.07188450199365616
1761466501878570500,10.226570556640626,-0.011547229930758476,0.04126432280242443,-0.07571633524149655
1761466501888554500,10.236554443359376,-0.004961129538714885,0.034383331117033955,-0.04676262795776129
1761466501898539500,10.24653955078125,0.018240005567669866,0.04241875353455543,-0.0249614227771759
1761466501908523500,10.2565234375,0.24167145207375287,0.06698913116753101,-0.010871522626280784
1761466501918508500,10.266508544921875,0.03434036875814199,-0.06730886464118957,0.006428864003717899
1761466501928492500,10.276492431640625,-0.11756225732415913,-0.0425204603433609,-0.04963759887218475
1761466501938477600,10.2864775390625,0.03170271373093128,0.0795510910987854,-0.005472147800773382
1761466501948462600,10.296462646484375,0.043397243177890774,0.04310907388627529,0.09873232303932308
1761466501958446600,10.306446533203125,-0.020074819779396055,0.05742869113981723,0.11734043126702308
1761466501968431400,10.316431396484376,0.001253214931488037,0.046048049947619435,0.035753012035042046
1761466501978415600,10.32641552734375,0.011813771912455558,0.04349076668024063,-0.010305267045646905
1761466501988400400,10.336400390625,-0.02697393164336681,0.03022738048136234,-0.02415609774366021
1761466501998385400,10.346385498046875,0.0005664017111063003,0.024295652344822883,-0.04451426450908184
1761466502008369400,10.356369384765625,0.03857552210986614,0.0119862058699131,-0.05083674552887678
1761466502018354400,10.3663544921875,0.04301730394959449,0.014930442628264427,-0.062119479304552076
1761466502028338400,10.37633837890625,0.0737365596011281,-0.0030108722537755964,-0.07596548769697546
1761466502038323500,10.386323486328125,0.07422112824767828,-0.021084873604774474,-0.06769464908838271
1761466502048308500,10.39630859375,0.09883388371765613,-0.0406336236834526,-0.030970746194571255
1761466502058292500,10.40629248046875,0.1212953063726425,-0.03993102837204933,0.007416705997288227
1761466502068277500,10.416277587890624,0.11228139431178569,-0.007165653845667839,0.043311756851524115
1761466502078261200,10.42626123046875,0.07888181353509426,0.02467617609500885,0.1058620287887752
1761466502088246500,10.43624658203125,0.036134850959479804,0.03358779682517052,0.11641264889761804
1761466502098231600,10.4462314453125,0.0373790058016777,0.06363514456450939,0.08265373328924179
1761466502108215600,10.456215576171875,0.04970657245516777,0.0867225901633501,0.019691227289289234
1761466502118200600,10.46620068359375,0.03558510812222957,0.08312427341043949,-0.01201981587857008
1761466502128184600,10.4761845703125,0.04944938282370567,0.047133507096767426,-0.03489727198854089
1761466502138169600,10.486169677734376,0.11803162840157747,0.013946107766032218,-0.05220905679538846
1761466502148153600,10.496153564453126,0.16081249324679373,0.019838672935962677,-0.03655746028572321
1761466502158138600,10.506138671875,0.13730477640926836,0.007445639830827713,-0.040431379109621045
1761466502168123400,10.516123291015624,0.049316988615691656,-0.03439209894537926,-0.03375876947790384
1761466502178107400,10.526107421875,0.018995500110089776,-0.05507365244626999,-0.05206278019249439
1761466502188088300,10.53608837890625,0.015347791257500647,-0.05273205775618553,-0.04328486884459853
1761466502198072300,10.546072265625,-0.03833645265698433,-0.02833645216822624,-0.04335515760183334
1761466502208057300,10.556057373046874,-0.07644844890832901,0.03327157048285007,-0.038071518110483885
1761466502218042400,10.56604248046875,-0.10623919153809547,0.04071428770422935,-0.023024901756644248
1761466502228026400,10.5760263671875,-0.06065086805671453,0.06605564970970153,-0.024363164623081683
1761466502238011600,10.58601171875,0.013234160104393959,0.07434124749600887,-0.0035236440815031526
1761466502247995400,10.595995361328125,0.1010486371576786,0.06249941853284836,0.007860650372505187
1761466502257980700,10.605980712890625,0.1431473649576306,0.03655190732777119,-0.006139087276905775
1761466502267965400,10.61596533203125,0.10839607731103897,0.03749649470150471,0.01144464633911848
1761466502277949700,10.62594970703125,0.05656389100402593,0.0256412217348814,0.04058350093141198
1761466502287934500,10.6359345703125,0.048989364096522325,0.024455226820707318,0.0775549488455057
1761466502297918500,10.64591845703125,0.07117313885390758,0.01435994926393032,0.07897782125547528
1761466502307903500,10.655903564453125,0.06182488027215004,0.030407997745275497,0.05084039879068732
1761466502317887500,10.665887451171875,0.07094926697015762,0.04374561822414398,0.024914661026000977
1761466502327872500,10.67587255859375,0.0766164989516139,0.0379629431694746,-0.002486994510143995
1761466502337857500,10.685857421875,0.08305062365233898,0.033275077614188193,-0.04450198954939842
1761466502347841500,10.695841552734375,0.06933920142501593,-0.020752280649542806,-0.026959026335179805
1761466502357826600,10.70582666015625,0.018014672379195688,-0.012518705311417579,-0.019836188717931507
1761466502367810600,10.715810546875,0.008750877210497856,0.006271919876337051,-0.018917904829233882
1761466502377795600,10.725795654296874,0.05251812274456024,0.018645663759112356,-0.033295682010799646
1761466502387780400,10.7357802734375,0.13848083445131779,0.03034428485929966,-0.06983516824841499
1761466502397764400,10.745764404296875,0.27252631680369377,0.009727028766274452,-0.037024931667000056
1761466502407749400,10.755749267578125,0.06019377193897962,-0.024560440760850906,-0.14717472077757118
1761466502417733400,10.7657333984375,0.05942424887120723,0.1529068346887827,-0.05705196678191423
1761466502427718400,10.775718505859375,0.1416971661493182,0.05361293224394321,-0.015145254422724247
1761466502437703400,10.785703369140625,0.09767243872284889,0.058494274544715875,0.04664090127423405
1761466502447687400,10.7956875,0.003779810799658298,0.04953939919471741,0.0834442991450429
1761466502457672700,10.805672607421876,-0.05670213043093681,0.0749193396449089,0.06347177069634198
1761466502467656400,10.815656494140624,-0.10527969885617494,0.062248074120283124,0.024873452232778072
1761466502477641500,10.825641357421874,-0.11491846481710671,0.04076923276185989,-0.014606179109960794
1761466502487626500,10.83562646484375,-0.04684796815365553,0.015406243446469306,-0.046656391104310746
1761466502497610500,10.845610595703125,0.03072247052192688,-0.011980360651016235,-0.04218567543104291
1761466502507595500,10.855595458984375,0.06256430046260357,0.012053425887227057,-0.04542801835313439
1761466502517579500,10.86557958984375,0.0789583859026432,0.04677636422216892,-0.04224675796851515
1761466502527564500,10.875564453125,0.05527385119348764,0.029900048223137854,-0.01239274084419012
1761466502537548500,10.885548583984376,0.0422241077452898,0.03270049259662628,-0.024553134237229823
1761466502547533600,10.895533447265626,0.04734042784571647,0.022712767067551612,-0.026414982586354014
1761466502557518600,10.9055185546875,0.04649462467133999,0.05540682992339134,-0.023307371959835288
1761466502567502600,10.915502685546874,0.03406856607943773,0.06619125878810882,-0.03623655776828527
1761466502577487400,10.9254873046875,0.038272447510063645,0.04382920485436916,-0.03783478674516082
1761466502587471400,10.935471435546875,0.06286123758256434,0.03874094180464745,-0.0446213781453669
1761466502597456400,10.945456298828125,0.0809451758056879,0.020501520758867263,-0.03842120833098888
1761466502607441400,10.95544140625,0.08672171338051557,0.011136311042308807,-0.02172565572634339
1761466502617425400,10.96542529296875,0.06700842038989066,0.014102175110578536,0.004078063093870878
1761466502627410400,10.975410400390626,0.04003741135597229,0.022703414717316628,0.04671732751131057
1761466502637394400,10.98539453125,0.016080781707167625,0.012900398105382918,0.03303863850980997
1761466502647379500,10.99537939453125,-0.0007628010660409927,0.034864392632246013,-0.0007934884652495384
1761466502657363500,11.005363525390624,-0.00045709611773490905,0.0336450799703598,-0.020732260774821043
1761466502667348500,11.015348388671875,-0.03275719121992588,0.02194295173883438,-0.02065466549396515
1761466502677333500,11.02533349609375,-0.036685762840509416,0.009188684105873108,-0.009804477916657924
1761466502687317200,11.035317138671875,-0.008237666991353034,0.02072422359883785,-0.0006542261250317096
1761466502697302500,11.045302490234375,-0.004824935938417911,0.030934067445993422,0.021075082863122225
1761466502707286500,11.05528662109375,-0.03781125973910093,0.03261398335695267,0.03508139638379216
1761466502717271600,11.065271484375,-0.005911854392290115,0.012077391284704208,0.03511968256756663
1761466502727256600,11.075256591796874,0.05015080909132957,0.017985738545656202,0.0030700550951063632
1761466502737240600,11.085240478515624,0.057574237090349194,0.0198550395488739,-0.010225479807704687
1761466502747225600,11.0952255859375,0.018844985723495484,0.020768062740564346,-0.00627805735617876
1761466502757209600,11.105209716796875,0.03131225310862064,0.012620996642112732,-0.021648791097849607
1761466502767194600,11.115194580078125,0.04227817602008581,0.011446692165732382,-0.03676730364412069
1761466502777178600,11.1251787109375,0.02233984210193157,0.02675882758796215,-0.02559431385323405
1761466502787163400,11.135163330078125,0.010903671330213546,0.034629999354481696,-0.027273645242303607
1761466502797148400,11.1451484375,0.0325906024813652,0.03819558288156986,-0.005689005421847105
1761466502807132400,11.15513232421875,0.03618015140593052,0.04169394639134407,0.018117986623197795
1761466502817117400,11.165117431640626,0.04333236124813557,0.053128363597393036,0.034211043290048836
1761466502827101400,11.175101318359374,0.06399521004855632,0.05448796151280403,0.005812777931988239
1761466502837086500,11.18508642578125,0.043404257440567015,0.04028700220286846,-0.015405951185524463
1761466502847071500,11.195071533203125,0.010174188011884688,0.031606267619132995,-0.0351505160972476
1761466502857055500,11.205055419921875,0.012144026780128478,0.03803133223056793,-0.035642537397891284
1761466502867040500,11.21504052734375,0.05161678999066353,0.022701661151647567,-0.04746697683483362
1761466502877024500,11.2250244140625,0.048933249995112414,0.005441314271092414,-0.05140183206573128
1761466502887009300,11.23500927734375,0.005133271235227585,0.03080897976160049,-0.03334989641606807
1761466502896993300,11.2449931640625,-0.014949731850624084,0.04864741879105568,0.007933277217298746
1761466502906978600,11.254978515625,0.009837503403425216,0.04242167614400386,0.02691504106298089
1761466502916963600,11.264963623046874,0.01025952820777893,0.025147300738096234,0.03262698896899819
1761466502926947600,11.274947509765624,0.034003976410627364,0.03649813131392002,0.013857844960689545
1761466502936932600,11.2849326171875,0.05243336707055568,0.026202947270870205,-0.0060530164286494255
1761466502946916600,11.29491650390625,0.021543723288178444,0.0116594581335783,-0.012836392958462237
1761466502956901600,11.304901611328125,-0.049696635583043096,0.02908931636214256,-0.013402794669568539
1761466502966886400,11.314886474609375,-0.06431318995654582,0.05324760606288909,0.0010195523060858248
1761466502976870700,11.32487060546875,-0.059199207943677896,0.050447746211290355,0.006021013855189085
1761466502986855400,11.33485546875,-0.026740707409381864,0.02144669265449047,-0.02430442017316818
1761466502996839400,11.34483935546875,0.024234862068295476,0.021113515177369115,-0.05043108733743429
1761466503006824400,11.354824462890624,0.05074468333125114,0.04039338518679142,-0.04663856318667531
1761466503016808400,11.364808349609374,0.034081425561010834,0.03679623747766018,-0.0382492127649486
1761466503026793500,11.37479345703125,-0.012002280221879482,0.05529635528624057,-0.03818725344464183
1761466503036778500,11.384778564453125,-0.018585165743529794,0.0686930124759674,-0.018433482313156127
1761466503046762500,11.394762451171875,-0.014338321954011916,0.04733633619248867,0.0067826458774507044
1761466503056747500,11.40474755859375,-0.02756955944895744,0.03538929328918457,0.0035858956627547738
1761466503066731500,11.4147314453125,-0.025111644902825355,0.03665887483358383,-0.003023439474403858
1761466503076716500,11.424716552734376,-0.006886836904287338,0.020800211444497108,-0.00778626996204257
1761466503086701300,11.434701416015624,0.018312486281991003,0.009780804780125617,-0.032157325630635024
1761466503096685300,11.444685302734374,0.056126376369595526,0.014497896429896354,-0.060979077097773546
1761466503106670300,11.45467041015625,0.035602643778920175,0.04133388090729713,-0.06253960441276431
1761466503116654300,11.464654296875,0.007670096236467361,0.07156184591054916,-0.03586874736919999
1761466503126639600,11.4746396484375,0.017023615515232085,0.073455112311244,-0.0035572540901601312
1761466503136623400,11.484623291015625,0.021880992418527603,0.06505027205944061,0.008846008148044347
1761466503146608600,11.494608642578125,0.024371347929537296,0.05021335293352604,-0.014805793335288761
1761466503156593700,11.50459375,0.021201485721766947,0.0321112945318222,-0.03317103271782398
1761466503166577700,11.51457763671875,0.036221944721043106,0.021902619728446007,-0.03426788804382085
1761466503176562400,11.5245625,0.03568330779969692,0.019158873978257177,-0.03510901504307985
1761466503186543400,11.53454345703125,0.009133154526352882,0.008718728506565094,-0.018314970500022173
1761466503196528400,11.5445283203125,0.002743161228299141,0.023744448202848434,-0.0017087036140263079
1761466503206512400,11.554512451171876,0.028153496816754338,0.03169686851203441,-0.0018025193773210048
1761466503216497400,11.564497314453124,0.032409692956507204,0.027466683596372603,0.0008998714491724967
1761466503226482400,11.574482421875,0.01497252820432186,0.02518938631415367,0.004825520460307597
1761466503236466400,11.584466552734375,0.015720716223120688,0.026615035203099248,0.013755261369049549
1761466503246451500,11.594451416015625,0.03577390869259834,0.012964695513248442,0.015852964300662277
1761466503256435500,11.604435546875,0.024227263283729553,0.027890461966395375,0.008156564579159021
1761466503266420500,11.61442041015625,0.032304186755418775,0.010011106404662132,-0.006900427038222551
1761466503276404500,11.624404541015625,0.03884995513707399,0.012458499556779861,-0.029463994893431662
1761466503286389500,11.634389404296876,0.026659751127660274,0.02924479918479919,-0.02451397127062082
1761466503296374500,11.64437451171875,0.01971300072968006,0.03861176246702671,-0.003338204512000084
1761466503306358500,11.654358642578124,-0.0025087679505348204,0.04039338518679142,0.02212050026282668
1761466503316343600,11.664343505859375,0.009491466444730758,0.03505027059316635,0.028559301138669252
1761466503326327600,11.67432763671875,0.024218495455384254,0.029019173735380172,0.01846577714756131
1761466503336312600,11.6843125,0.03640226972401142,0.039841596522927285,-0.003838847510516643
1761466503346297600,11.694297607421875,0.01087912141084671,0.050696168014407156,-0.015363427218049763
1761466503356281600,11.704281494140625,0.007348024675250053,0.03744096512198448,-0.004317717068642378
1761466503366266400,11.714266357421875,0.029925767186284064,0.030869185516238212,-0.005651157629489898
1761466503376250600,11.724250732421876,0.03147358115017414,0.03329495135843753,0.000873714094609022
1761466503386235400,11.7342353515625,0.022635025656223298,0.03331657866835594,0.020005553935468195
1761466503396219400,11.744219482421874,0.030991935113072393,0.02485094814002514,-0.019436229614913463
1761466503406204400,11.754204345703124,0.03499211066514253,0.018575521132349965,-0.03564662905111909
1761466503416189400,11.764189453125,0.005771569138765335,0.02924187657535076,-0.029734190136939287
1761466503426173400,11.77417333984375,0.027814766381680962,0.03537994093894958,-0.024591712681949138
1761466503436158500,11.784158447265625,0.019698387682437896,0.04303074795305729,-0.048005175364762544
1761466503446142500,11.794142578125,0.015128887809813021,0.05813888523578643,-0.07002060781791805
1761466503456127500,11.80412744140625,0.03175064452588558,0.07272738255858421,-0.06484174387529491
1761466503466111500,11.814111572265626,0.05837532434016466,0.07382803727686404,-0.0406119963735342
1761466503476096500,11.824096435546876,0.07867781539559364,0.029739304703474044,-0.006414981608837842
1761466503486081500,11.83408154296875,0.08012012315839528,0.024240707287192343,0.007418313432484865
1761466503496065300,11.844065185546874,0.011098609380424023,0.014511340433359145,-0.01168079318255186
1761466503506050600,11.854050537109375,0.2276905652552843,0.017114800930023193,0.019191314943134783
1761466503516034600,11.86403466796875,0.23276421525776386,-0.05139525619447231,0.009207388806343078
1761466503526019600,11.87401953125,-0.10126169538646936,-0.12199381003081798,-0.1371450558029115
1761466503536004600,11.884004638671875,-0.17379969285279512,0.00033200843334198,-0.180937289647758
1761466503545988600,11.893988525390625,-0.05310206011235714,0.06497603777945041,-0.027373744615912434
1761466503555973600,11.9039736328125,-0.052441550377011294,0.1372954240590334,0.07730112021490931
1761466503565957600,11.91395751953125,-0.03995966994464397,0.11025427239835262,0.07255217212215065
1761466503575942400,11.9239423828125,0.02564472886621952,0.08039280261993408,-0.006488631366938352
1761466503585926700,11.9339267578125,0.028960137024521826,0.08599076875746249,-0.0421795379512012
1761466503595911400,11.943911376953125,0.06367430753111838,0.08596680335998534,-0.07297215109989047
1761466503605896400,11.953896484375,0.07230009705722332,0.11585749923288821,-0.047399464556574816
1761466503615880400,11.96388037109375,0.0787146402746439,0.04881342300772667,-0.0010762509293854236
1761466503625865500,11.973865478515625,0.16103987226188182,-0.0169271694034338,-0.04325695792436599
