time,seconds_elapsed,z,y,x
1761466573241029400,0.119029296875,-0.22840835813581942,0.041516251736879346,-0.05923398699611425
1761466573251013400,0.129013427734375,-0.1768739857316017,0.00689852734208107,-0.07136924594789743
1761466573260998100,0.138998046875,-0.06618395226448774,0.07739245176017284,-0.07318404028490186
1761466573270982100,0.148982177734375,0.034489129579067225,0.1018675523251295,-0.043931642315536736
1761466573280967200,0.15896728515625,0.1086643728584051,0.10033610497415066,0.005957739360630512
1761466573290951200,0.168951171875,0.1537400706425309,0.10641337906122207,0.028549072005599734
1761466573300935200,0.17893505859375,0.18960136535763739,0.10532207669317721,0.05558525523021817
1761466573310920200,0.188920166015625,0.1778042523190379,0.08431669806540013,0.06127265321686864
1761466573320904200,0.198904296875,0.19012451244890688,0.04555588251650333,0.050451253342628476
1761466573330889200,0.20888916015625,0.21376725384294987,-0.0058937342137098305,0.0337659298710525
1761466573340873200,0.218873291015625,0.17896832766234874,-0.03494038047790527,-0.0021573241643607615
1761466573350858200,0.228858154296875,0.12960253146886824,-0.014819967991113661,-0.04681757301539182
1761466573360842200,0.23884228515625,0.11888824523091315,-0.004240121787786483,-0.06832768629491329
1761466573370827300,0.2488271484375,0.12002981648147105,0.03223462865054607,-0.06981529450416564
1761466573380811300,0.258811279296875,0.09308627997636794,0.045480479192733764,-0.06775339353829622
1761466573390796500,0.268796630859375,0.06501870787739754,0.05918401037454605,-0.04557926339209079
1761466573400780300,0.2787802734375,0.07229279053360223,0.04820318215489387,-0.040939328631758684
1761466573410765300,0.288765380859375,0.11125614291727542,0.03990647845268249,-0.0355164268001914
1761466573420749300,0.298749267578125,0.08973696954846382,0.021333879929780957,-0.045832361370325085
1761466573430734300,0.308734375,0.028466216027736663,0.017163316246867177,-0.04027019719853997
1761466573440718300,0.31871826171875,-0.005057283389568328,0.020713117682933806,-0.009399258116632699
1761466573450703400,0.328703369140625,-0.039703649356961246,0.004914075526595115,0.03263049610033631
1761466573460687400,0.338687255859375,-0.0032753684088587757,0.010253682988882065,0.06844488293379544
1761466573470671400,0.34867138671875,0.015897241833806038,0.011553075149655341,0.07882350747659803
1761466573480656400,0.358656494140625,-0.005619885708391666,-0.0023918635725975034,0.07666340683326124
1761466573490640400,0.368640380859375,-0.01581044033318758,0.014867898786067962,0.05665376124456525
1761466573500625400,0.37862548828125,0.019439152224361895,0.044319034197926516,0.02088482098802924
1761466573510609400,0.388609375,0.03855389479994774,0.05339782818853855,-0.013715075489133595
1761466573520594400,0.398594482421875,0.016717326045036316,0.05381868394911289,-0.043696518385410305
1761466573530578400,0.408578369140625,0.03267331232875585,0.06144669460952282,-0.06171849728822708
1761466573540563500,0.4185634765625,0.07132219193577766,0.046992637321352955,-0.06628682811707258
1761466573550547500,0.42854736328125,0.08757774568796158,0.041674072647094725,-0.06752455321848393
1761466573560532200,0.4385322265625,0.03939093014597893,0.05859072065651416,-0.06528422694578767
1761466573570516200,0.44851611328125,-0.010221242024004458,0.07449789936244487,-0.062088207383453844
1761466573580501200,0.458501220703125,-0.055360652694106095,0.0728542238086462,-0.061790978002548215
1761466573590485200,0.4684853515625,-0.05308218636810779,0.0907265651077032,-0.05565101394280791
1761466573600470300,0.47847021484375,-0.05955488951355219,0.08685352306663989,-0.05349734304025769
1761466573610454300,0.488454345703125,-0.08543225809186697,0.06954232278168201,-0.06699132312461734
1761466573620438300,0.498438232421875,-0.0857876474007964,0.06553659427165985,-0.07041165296211838
1761466573630423300,0.50842333984375,-0.0804009859263897,0.06577566372454166,-0.05838803769126534
1761466573640407300,0.5184072265625,-0.05286006805002689,0.07584580684006213,-0.039206367359310386
1761466573650392300,0.528392333984375,-0.04301087420880794,0.061170800277590746,-0.03699877431243658
1761466573660376300,0.538376220703125,-0.0635123949676752,0.05220306544601917,-0.04226838527843356
1761466573670361300,0.548361328125,-0.06994681192934513,0.0746837773233652,-0.040595337499678134
1761466573680345300,0.558345458984375,-0.07641162402927876,0.09264671951532363,-0.0170372056491673
1761466573690330400,0.568330322265625,-0.03052110273092985,0.07399754862487316,-0.028503917689621447
1761466573700314400,0.578314453125,0.0084352353900671,0.10178162760734558,-0.05287599627152085
1761466573710299100,0.588299072265625,0.0010883797585964203,0.08838672398328781,-0.07324585347473621
1761466573720283400,0.598283447265625,0.017325228810310362,0.05129939460456371,-0.07354965872690081
1761466573730268200,0.60826806640625,0.019279577748477456,0.04070668891966343,-0.08657558290809392
1761466573740252200,0.618252197265625,0.025734160715341566,0.016706220129132268,-0.09943784096017479
1761466573750237200,0.6282373046875,0.04005962318778038,0.01811784049272537,-0.10513488355800509
1761466573760221200,0.63822119140625,0.061029638241231435,0.02657061153948307,-0.07025543948709964
1761466573770206200,0.648206298828125,0.05611030201762914,0.02281915005147457,-0.030056700089573857
1761466573780190200,0.658190185546875,0.02908113305568695,0.01005085389316082,-0.012917495370656252
1761466573790174200,0.66817431640625,0.01695288836658001,0.02238134315609932,-0.03771072197407484
1761466573800159200,0.6781591796875,0.02285568266957998,0.021646599140763282,-0.03786357444822788
1761466573810143200,0.688143310546875,0.024545243191719055,0.0284340673238039,-0.02916018964126706
1761466573820128300,0.698128173828125,0.0463590155929327,0.03196808666884899,-0.017189619731903076
1761466573830112300,0.7081123046875,0.06102116267383098,0.028142975422739983,-0.031181174074858424
1761466573840097500,0.71809765625,0.04589373616874218,0.02578150698840618,-0.04137099804729223
1761466573850081300,0.728081298828125,0.04068096995651722,0.013073416584730147,-0.039441637419909234
1761466573860066300,0.73806640625,0.03558277003467083,0.031575872480869294,-0.04629530270695686
1761466573870050300,0.74805029296875,0.023127777609229086,0.034597266128659244,-0.06341390302926302
1761466573880035300,0.758035400390625,0.04396218358427286,0.033845570978522296,-0.09911766909509896
1761466573890019300,0.768019287109375,0.04693009347915649,0.03742401398718357,-0.10949307876750826
1761466573900004400,0.77800439453125,0.024494974309206007,0.049152445703744885,-0.08944047081992029
1761466573909988400,0.78798828125,0.00601969868093729,0.0653904637992382,-0.04241334670707583
1761466573919973400,0.797973388671875,-0.011808511215448379,0.06551730504930019,0.005850771854817867
1761466573929957400,0.807957275390625,-0.02442424716055393,0.06272212137281895,0.016692776125669478
1761466573939941400,0.81794140625,-0.01457476105839014,0.04170037613213062,-0.011848989356309176
1761466573949926400,0.827926513671875,0.013307809862494469,0.04235562517046928,-0.03913198694884777
1761466573959910400,0.837910400390625,0.009232230986654757,0.06679682346582412,-0.049012014319747686
1761466573969895400,0.8478955078125,0.00315144976824522,0.06282850435674191,-0.05811565049067139
1761466573979879400,0.85787939453125,0.01633592551201582,0.067076809450984,-0.0549184618845582
1761466573989864400,0.867864501953125,0.015437807628512382,0.06437164214551448,-0.04560016004964709
1761466573999848400,0.877848388671875,0.004667407289147376,0.05810907461941242,-0.03399871571362018
1761466574009833200,0.887833251953125,-0.004600479532778263,0.04517302067875862,-0.04042100384607911
1761466574019817500,0.8978173828125,-0.03351093219667673,0.02520283031761646,-0.03141922061443329
1761466574029802200,0.90780224609375,-0.01139408519566059,0.026473580905795095,-0.03145487644970417
1761466574039786200,0.9177861328125,0.023151743006706235,0.03426759578287601,-0.049733314331620926
1761466574049771300,0.927771240234375,0.021549276246130466,0.05133855757117271,-0.056389703480899334
1761466574059755300,0.93775537109375,0.0038885318711400028,0.03647358139455318,-0.0521809997446835
1761466574069739300,0.9477392578125,0.012801029384136199,0.02990764700770378,-0.030988427981734273
1761466574079724300,0.957724365234375,0.013841770608723164,0.017768296402692795,-0.023330314444005486
1761466574089708300,0.967708251953125,0.010857494100928306,0.00867138223350048,-0.003567337092757225
1761466574099693300,0.977693359375,0.015680384212732313,0.02194996600151062,-0.01012640334740281
1761466574109677300,0.98767724609375,0.01187163957953453,0.046314591929316515,-0.02212050026282668
1761466574119662300,0.997662353515625,0.006062661039829254,0.07104395951628685,-0.030611411362886427
1761466574129646300,1.007646240234375,0.02109977891296148,0.0752116005897522,-0.02993102788329124
1761466574139631400,1.01763134765625,0.020584230606257914,0.07049626250565051,-0.03366013140901923
1761466574149615400,1.027615478515625,0.007415829214453697,0.07912731272876262,-0.011782499991357326
1761466574159600400,1.037600341796875,0.006968377707898616,0.06524141071736812,0.01334624217674136
1761466574169584400,1.04758447265625,-0.000820084211230278,0.06098609136044979,0.02854761070087552
1761466574179569200,1.057569091796875,0.008947861087322234,0.06163958683311939,0.022380320242792368
1761466574189553200,1.06755322265625,0.017666005071997642,0.0731850631982088,0.009040069415420293
1761466574199538200,1.0775380859375,-0.03293780848383903,0.08906126224398613,0.010632891564816236
1761466574209522200,1.087522216796875,-0.03874327989220619,0.07152209842205047,0.024919775592535734
1761466574219506200,1.097506103515625,-0.004617430667579174,0.04695931957364082,0.02304638293609023
1761466574229491200,1.1074912109375,0.00364858563542366,0.03186579533815384,0.016296616414934396
1761466574239475200,1.11747509765625,0.03651332888305187,0.011923662027716636,0.02406023615375161
1761466574249460200,1.127460205078125,0.020770400828123092,-0.006427402698993683,0.0242579506829381
1761466574259444200,1.1374443359375,0.013905191233754157,0.013082184413075446,0.007044511684030294
1761466574269429200,1.14742919921875,0.011923077505826949,0.021998481318354607,-0.007655921580642462
1761466574279413200,1.157413330078125,-0.006850304286181926,0.03472235381305218,-0.013894231448322534
1761466574289398300,1.167398193359375,-0.013430559459328651,0.038167525830864905,-0.007225713469833135
1761466574299382300,1.17738232421875,0.013487842604517936,0.012024199792742728,0.007950959004461765
1761466574309367300,1.1873671875,0.030352760426700112,-0.0019739304214715955,0.008286766830086707
1761466574319351300,1.197351318359375,0.03339081294834614,0.0017407061874866485,-0.014398381578177213
1761466574329336000,1.207336181640625,0.037754853376746174,0.021351415586471557,-0.008022709066420794
1761466574339320000,1.217320068359375,0.007172668108344078,0.0561363132417202,0.0032250995263457295
1761466574349304300,1.22730419921875,-0.02622808171212673,0.08365268119871616,-0.0009868190802633761
1761466574359289000,1.2372890625,-0.04787292728722095,0.0784703101247549,-0.008928571864962577
1761466574369273000,1.247273193359375,-0.038131285473704334,0.08829729213416576,-0.007366875506192445
1761466574379258000,1.257258056640625,-0.055580140663683414,0.09583937807679176,-0.01722571395859122
1761466574389242000,1.2672421875,-0.04692483278214931,0.07259995678663253,-0.027426351585984228
1761466574399227400,1.277227294921875,0.015141455030441283,0.04795476035177707,-0.030091040750592945
1761466574409211100,1.287211181640625,0.02334200488179922,0.04484159676730633,-0.03473433651179075
1761466574419196400,1.297196533203125,0.016947627669572828,0.050022214275598526,-0.019823913758248088
1761466574429180400,1.307180419921875,0.018652678021788598,0.04411795866787433,0.00746492905318737
1761466574439165400,1.31716552734375,-0.006358136855065822,0.06643734250366687,0.02014452401474118
1761466574449149400,1.3271494140625,-0.040998365342617034,0.06448503939211368,0.02391293663755059
1761466574459133400,1.337133544921875,-0.017576573222875595,0.043321839854121205,-0.01692015514075756
1761466574469118500,1.347118408203125,0.020475217273831368,0.055576925793290134,-0.06751183986738324
1761466574479102500,1.3571025390625,0.045647652453184126,0.07790916911065578,-0.10073255694583058
1761466574489087200,1.367087158203125,0.031849720986187456,0.06617080052196979,-0.10079378561377525
1761466574499071200,1.3770712890625,0.0010772738426923752,0.04190729688107967,-0.07088219308331609
1761466574509056300,1.38705615234375,0.006461304968595504,0.026920155629515646,-0.03152516520693898
1761466574519040300,1.397040283203125,0.05011515325605869,0.013373276314139365,0.007429565478861332
1761466574529025300,1.407025390625,0.05863982049524784,-0.002661328163743019,0.030637714847922323
1761466574539009300,1.41700927734375,0.04450023598372936,0.01966857706606388,0.028796032503992316
1761466574548994300,1.426994384765625,0.029299159720540046,0.026993805387616157,0.004335398855805397
1761466574558978300,1.436978271484375,0.0012964695513248442,0.03455751864016056,-0.028113749328255652
1761466574568963300,1.44696337890625,-0.0009849193841218948,0.030313305199146268,-0.04370514008328318
1761466574578947300,1.456947265625,-0.0034048400074243542,0.028868951609730718,-0.022053426375985143
1761466574588932400,1.466932373046875,0.000713116705417633,0.021066168904304503,-0.0033601240828633307
1761466574598916400,1.476916259765625,0.022898645028471946,0.0007604629784822463,0.004796148235350847
1761466574608900400,1.486900390625,0.03865677065253258,-0.0029459903240203855,-0.006645137102901935
1761466574618885400,1.496885498046875,0.03880465469062328,0.002827332380414009,-0.024198913972079752
1761466574628869400,1.506869384765625,0.04273439535498619,0.01116319904923439,-0.06505582501739263
1761466574638854100,1.516854248046875,0.012545593318343162,0.032358547291159626,-0.06306582024395466
1761466574648838400,1.52683837890625,0.009133739048242568,0.041134558942914005,-0.05318915387392044
1761466574658823200,1.5368232421875,0.036632571348547936,0.04342062405347824,-0.015992372771352528
1761466574668807200,1.54680712890625,0.0854763894945383,0.029832828205823895,0.010409896463900803
1761466574678792200,1.556792236328125,0.11611381208151578,0.02166705740690231,-0.000980681600421667
1761466574688776200,1.566776123046875,0.11085866803228854,0.05078676890730858,-0.02774520827680826
1761466574698761200,1.57676123046875,0.07602759314775466,0.06532265926003455,-0.03948956821486354
1761466574708745200,1.5867451171875,0.06791296801418066,0.05817804820239544,-0.03394391678646207
1761466574718729200,1.596729248046875,0.07144844866394996,0.04376841457784176,-0.051054041541367765
1761466574728714200,1.60671435546875,0.05381137742549181,0.04619242685437202,-0.051739101196080446
1761466574738698200,1.6166982421875,0.03334112858772278,0.03030278380513191,-0.03745148651599884
1761466574748683300,1.626683349609375,0.040053777968883514,0.011925415593385696,-0.029594051013886926
1761466574758667300,1.636667236328125,0.034060967294871805,0.0036398178070783612,-0.04090776444971561
1761466574768652300,1.64665234375,0.04158464079797268,-0.001986205381155014,-0.05506678431406617
1761466574778636300,1.65663623046875,0.030315058764815328,0.0018184475988149641,-0.058649318975955246
1761466574788621300,1.666621337890625,0.019662731847167013,-0.006875730988383293,-0.05174114702269435
1761466574798605300,1.676605224609375,0.034739889469742775,-0.006154430976510048,-0.03554740646034479
1761466574808590000,1.686590087890625,0.04008534215092659,0.0009603694647550582,-0.011289455777406691
1761466574818574000,1.696573974609375,0.03615560148656368,0.016235095486044883,-0.026957126639038324
1761466574828559000,1.70655908203125,0.07332593297362328,0.03597966039776802,-0.0338530236326158
1761466574838543000,1.716543212890625,0.08282908985614776,0.018871873730421065,-0.05572714791893959
1761466574848527000,1.726527099609375,0.06260872412621975,0.037812721043825145,-0.05560951288864016
1761466574858512100,1.73651220703125,0.04618248998224735,0.03954056774973869,-0.034504765539616344
1761466574868496100,1.74649609375,0.03077683105766773,0.024666823744773865,-0.012781155639886856
1761466574878481400,1.7564814453125,0.03854804958105087,-0.0015320318728685378,-0.009453472521901131
1761466574888465200,1.766465087890625,0.05485621030330658,0.01958791304528713,-0.017161270420253276
1761466574898450400,1.776450439453125,0.035814240702986715,0.04541559726297855,-0.012271452552080155
1761466574908434200,1.78643408203125,0.023323592442274093,0.051720250365138054,-0.012216215233504772
1761466574918419500,1.79641943359375,0.06048690966665744,0.03861526959836483,0.005659194805473089
1761466574928403500,1.806403564453125,0.04959142164289951,0.05837912373244762,0.00733092740997672
1761466574938388200,1.81638818359375,0.019459318229556082,0.06047229661941528,0.01578384458720684
1761466574948372500,1.82637255859375,0.029302666851878163,0.05310965889692306,0.006997457671910524
1761466574958357200,1.836357177734375,0.018664368459582328,0.06483107635080813,-0.01861672992557287
1761466574968341200,1.84634130859375,0.012382511711120604,0.07883914343714714,-0.030961539974808692
1761466574978325200,1.8563251953125,0.0016080197185277937,0.0689718294173479,-0.025297376733273265
1761466574988310300,1.866310302734375,0.026735446712374687,0.04457505478560924,-0.005540829122811556
1761466574998294300,1.876294189453125,0.07023848835229873,0.03436579546034336,0.03182531719729304
1761466575008279300,1.886279296875,0.09303454978913069,0.031825463327765466,0.0528695665307343
1761466575018263300,1.89626318359375,0.06746522424668074,-0.012079729372262954,0.0698636636905372
1761466575028248300,1.906248291015625,0.008986147271096706,-0.04900631523132324,0.02851312390938401
1761466575038232300,1.916232421875,-0.021428572475910186,-0.042505262774229044,0.00934168271049857
1761466575048217300,1.92621728515625,0.04148293398916721,0.007331073540449142,0.02123173472955823
1761466575058201300,1.936201416015625,0.04183978460282087,0.035385201635956764,0.04282791885733604
1761466575068186400,1.946186279296875,0.039058921712636946,0.04217150077521801,0.07571808880716561
1761466575078170400,1.95617041015625,0.029234277790784833,0.03726619307696819,0.09468421669229865
1761466575088155400,1.9661552734375,0.019961714793741703,0.03248655758500099,0.09069427027329802
1761466575098139400,1.976139404296875,0.01832300767600536,0.02115092457830906,0.10738441605046391
1761466575108123400,1.986123291015625,-0.006976268753409385,0.020294015488028526,0.09064926208779216
1761466575118108200,1.996108154296875,-0.030187632992863655,0.025195816054940222,0.0647018970131874
1761466575128092400,2.006092529296875,-0.015922960796952247,0.044940380966663356,0.050007162836939095
1761466575138077200,2.0160771484375,-0.0010094693034887314,0.03201075676679611,0.028074586361646652
1761466575148061200,2.026061279296875,-0.0066135729208588595,0.020014029502868652,0.022346710234135387
1761466575158046200,2.036046142578125,0.005607610748708248,0.0199509011387825,0.03372486720830202
1761466575168030200,2.0460302734375,0.03534691545218229,0.01310205815732479,0.04653042663708329
1761466575178015200,2.05601513671875,0.06580868921130895,0.008623451438546181,0.03540624442398548
1761466575187999200,2.065999267578125,0.05254647205621004,0.014703063613176345,0.024655717828869817
1761466575197984300,2.075984375,0.006758242088556289,0.04108604362607002,0.007642331446707248
1761466575207968300,2.08596826171875,0.004696048861742019,0.0340372941583395,0.009641542439907788
1761466575217952300,2.0959521484375,0.003667582596838474,0.028520576563477514,0.026967209641635417
1761466575227937300,2.105937255859375,-0.031124037060141562,0.04509586378931999,0.016959025846421717
1761466575237921300,2.11592138671875,-0.007075052952766418,0.02667290287017822,0.012357815661281347
1761466575247906300,2.12590625,-0.02259703173339367,0.012848960179090499,0.016884791566431523
1761466575257890300,2.135890380859375,-0.031871640557050704,0.03569149110615253,0.018244974003732203
1761466575267875000,2.145875,0.00867839649617672,0.03922843306064606,-0.019545681338757274
1761466575277859300,2.155859375,0.08092471753954887,0.022525720062851903,-0.022817104224860666
1761466575287844000,2.165843994140625,0.03031155163347721,0.02434182957410812,0.004153028026223182
1761466575297828000,2.175828125,0.015805471897125244,0.022808044135570523,0.06835720465034247
1761466575307813000,2.185813232421875,-0.004038461735844612,0.012164485046267508,0.10075403812527656
1761466575317797000,2.195797119140625,0.0009387421548366546,0.022294833916425703,0.08244725093171
1761466575327782100,2.2057822265625,-0.012174129657447337,0.022722119417786596,0.07496434783041477
1761466575337766100,2.21576611328125,-0.030341946771740912,0.04341711692214012,0.08666779123619198
1761466575347750100,2.225750244140625,-0.040546529921889306,0.06379004286527633,0.07678980969190598
1761466575357735200,2.235735107421875,-0.007500000366568565,0.05178454777300358,0.05900616958960891
1761466575367719200,2.24571923828125,0.06853928321897983,0.031962241449952127,0.03198576845601201
1761466575377704200,2.2557041015625,0.08300795355439186,0.029324878683686256,0.0029242168836295605
1761466575387688200,2.265688232421875,0.054648412771523,0.04464578193426132,-0.004331745593994856
1761466575397673200,2.275673095703125,0.032245734566450114,0.036572365593910215,-0.01811886340603232
1761466575407657200,2.2856572265625,0.0270616099268198,0.02304828263223171,0.004555471347272396
1761466575417642200,2.295642333984375,0.016900281396508215,-0.014754501539468765,0.04898205757290124
1761466575427626200,2.305626220703125,0.04319909025728702,-0.041418052059412,0.08637582255229354
1761466575437611000,2.315611083984375,0.05519172586798667,-0.039186932006478305,0.08407982056960463
1761466575447595000,2.325594970703125,0.04871873046159744,-0.02260696860551834,0.04011412985399365
1761466575457579000,2.3355791015625,0.0331529125392437,0.019034370815753935,0.01051964044868946
1761466575467564000,2.34556396484375,0.010928221249580383,0.06116203244924545,0.011125497387349605
1761466575477548000,2.355548095703125,0.010102876341342925,0.05027706581950187,0.02876709867045283
1761466575487533000,2.365532958984375,0.03151332863867283,0.01058452237844467,0.019854308896511793
1761466575497517000,2.37551708984375,0.06981120285093784,0.015130349114537239,0.001422580149024725
1761466575507502000,2.385502197265625,0.04801555062830448,0.029733459484577177,0.0024620792645961044
1761466575517486000,2.395486083984375,-0.015722469788789748,0.04837853872179985,0.03916040932573378
1761466575527471000,2.40547119140625,-0.022871172499656676,0.05446165802776813,0.0496359183717519
1761466575537455000,2.415455078125,0.033819267493486405,0.04913257195949554,0.0030737814221531152
1761466575547440000,2.425440185546875,0.08837912519872188,0.03147591923773289,-0.03492160271219909
1761466575557424000,2.435424072265625,0.10421236188560723,0.03628887247741222,-0.04823467327170074
1761466575567408000,2.445408203125,0.1032251044139266,0.05033727157413959,-0.025613091618940233
1761466575577393200,2.45539306640625,0.07609101377278565,0.03751052322685718,0.017672507878020403
1761466575587377200,2.465377197265625,0.01075578729212284,-0.02026595843732357,0.05329729042351246
1761466575597362000,2.47536181640625,0.015991349858045577,-0.03790566002428532,0.022551439025998113
1761466575607346200,2.48534619140625,0.036738369810581206,-0.018964228188991544,-0.027264292892068623
1761466575617331000,2.4953310546875,0.03313070070743561,0.024714754539728163,-0.05198284682407975
1761466575627315000,2.50531494140625,0.01846855362653732,0.046262569481134413,-0.04619147700630128
1761466575637300200,2.51530029296875,0.006150923845171928,0.048695349586009976,-0.025261793963238594
1761466575647284000,2.525283935546875,0.014203881919384001,0.05826981813907623,0.0071454878404736515
1761466575657269200,2.535269287109375,0.031522096467018125,0.033433483046293254,0.057580666831135746
1761466575667253200,2.545253173828125,0.07576894221156835,-0.024815292304754256,0.08395721710324287
1761466575677238300,2.55523828125,0.1363221951127052,-0.029624738413095472,0.02258738712221384
1761466575687222300,2.56522216796875,0.08686462898254393,-0.0016138649374246596,-0.04176430821381509
1761466575697206300,2.575206298828125,-0.010938450382649898,0.023489012137055395,-0.029589301773533222
1761466575707191300,2.58519140625,-0.011011223357915878,0.04363631263077259,-0.019311872582882642
1761466575717175300,2.59517529296875,-0.009469546873867512,0.04542085795998573,-0.02250825747139752
1761466575727160300,2.605160400390625,-0.02156827320754528,0.04455225843191147,-0.002140665290504694
1761466575737144300,2.615144287109375,-0.02999298720359802,0.057815060108900064,0.027154475842043755
1761466575747129000,2.625129150390625,-0.006537585075199604,0.06857493905425072,0.029118834717571734
1761466575757113300,2.63511328125,0.032708383642137046,0.04189852905273437,-0.017598200532793998
1761466575767098000,2.64509814453125,0.018723697431385515,0.021777532044053076,-0.05785561131499707
1761466575777082000,2.65508203125,0.00618570289760828,0.02505553080141544,-0.041187165912985796
1761466575787067100,2.665067138671875,0.011199439406394958,0.010377017107605933,-0.000961684639006853
1761466575797051100,2.675051025390625,0.08343786940425633,-0.002011339822411537,0.0013727496579289435
1761466575807035100,2.68503515625,0.11258972960859537,-0.018450433447957038,-0.005245280242338776
1761466575817020200,2.695020263671875,0.029196868389844893,-0.0010486322700977325,0.032809067537635565
1761466575827004200,2.705004150390625,-0.0029907062485814095,0.013390227448940277,0.0648064533662051
1761466575836989200,2.7149892578125,0.04223170652985572,0.03299392258524895,0.02156206266246736
1761466575846973200,2.72497314453125,0.047405309775471687,0.04498305106461048,-0.0350594037476927
1761466575856958200,2.734958251953125,0.015543898351490497,0.03135492320656776,-0.05269779016040265
1761466575866942200,2.744942138671875,0.004099836534261703,0.02775952906310558,-0.026022183876484632
1761466575876927200,2.75492724609375,0.060868602460622784,0.02041618056297302,0.009094356885924935
1761466575886911200,2.7649111328125,0.07724456772208213,0.014893617749214171,0.01838240971304476
1761466575896896000,2.77489599609375,0.04945844291299581,0.017768296402692795,0.03910086115822196
1761466575906880300,2.78488037109375,0.042530981737375254,0.03518178801834583,0.0543845011383295
1761466575916864300,2.7948642578125,0.059957917356491086,0.04525134661197662,0.04495046396926045
1761466575926849000,2.80484912109375,0.01799158376455307,0.05422141953110694,0.018326734003052115
1761466575936833000,2.8148330078125,-0.0386035791605711,0.048589551123976706,-0.007702683331817388
1761466575946818000,2.824818115234375,-0.05448270081579685,0.04770283141732216,-0.011041033974289894
1761466575956802000,2.834802001953125,0.008338204756379128,0.030781507232785225,-0.004320420482382178
1761466575966787000,2.844787109375,0.04838263037502765,0.022474866658449173,-0.026399638886749743
1761466575976771000,2.85477099609375,0.010469371566176415,0.03645429217219352,-0.0171411774802953
1761466575986756000,2.864756103515625,-0.018334113591909406,0.04083002303838729,0.02564049108251929
1761466575996740000,2.874739990234375,0.02922960161566734,0.026236849540472028,0.04037497274726629
1761466576006725000,2.88472509765625,0.033549802902340886,0.035571664118766784,0.006499152760952711
1761466576016709000,2.894709228515625,-0.006191255855560302,0.041194764697551726,-0.008643032921850681
1761466576026693000,2.904693115234375,-0.015360650739073752,0.038927404287457466,-0.010557342110574245
1761466576036678100,2.91467822265625,0.07146539979875087,-0.0011684592574834824,-0.025874884360283613
1761466576046662100,2.924662109375,0.08100479703843592,0.018664368459582328,-0.04132233659997582
1761466576056647200,2.934647216796875,0.017008417946100234,0.045849312505126,-0.02097001505345106
1761466576066631200,2.944631103515625,0.01166471883058548,0.039353520745038985,0.05090630363374948
1761466576076616000,2.954615966796875,0.042645255766808984,0.03424070777595043,0.06279357917383313
1761466576086600200,2.96460009765625,0.03502455163002014,0.039539983227849004,-0.004211772476136684
1761466576096585000,2.9745849609375,-0.025919454154372214,0.06069850659072399,-0.05801949663981795
1761466576106569000,2.98456884765625,-0.036305239090323446,0.05073123932778835,-0.02919745291173458
1761466576116554200,2.99455419921875,0.057848962378501886,-0.0019330138891935347,0.021951281175762415
1761466576126538000,3.0045380859375,0.09751198746412992,-0.00275017549097538,0.01856046969369054
1761466576136522000,3.01452197265625,0.040948680981993675,0.03401625137031078,0.025143793606758117
1761466576146507300,3.02450732421875,-0.007509060455858707,0.03958966758847236,0.05645867706388235
1761466576156491000,3.034490966796875,-0.03157499569803476,0.027694062611460683,0.04320142834484577
1761466576166476300,3.044476318359375,-0.02313888352513313,0.03887479731738567,-0.026094518460333345
1761466576176460000,3.0544599609375,-0.01323795949667692,0.053583706149458885,-0.07003814347460866
1761466576186445300,3.0644453125,-0.04047141885906458,0.06196867265701293,-0.04932224931269884
1761466576196429300,3.07442919921875,-0.007823240971565245,0.03883037365376949,-0.01407514097318053
1761466576206414300,3.084414306640625,0.104660397914052,0.05483633655905723,-0.017984277240931986
1761466576216398300,3.0943984375,0.11205226173102854,0.04838847559392452,-0.0023049159415066242
1761466576226383000,3.104383056640625,0.03997545203566551,0.0407382531017065,0.06041793608367443
1761466576236367000,3.1143671875,0.02482990535199642,0.04104863422513008,0.0863728999428451
1761466576246351400,3.124351318359375,0.024532091449201106,0.035785014608502384,0.04801218962743878
1761466576256336100,3.134336181640625,-0.022649346442520618,0.04320259738862514,0.0014396774142980575
1761466576266320600,3.144320556640625,-0.05388268909603357,0.049181087276339526,0.0051107671424746514
1761466576276305700,3.1543056640625,-0.02711217107027769,0.031714404168725015,-0.008809621660411358
1761466576286289700,3.16428955078125,0.04641512969434261,0.04301671942770481,-0.053901686057448384
1761466576296274700,3.174274658203125,0.018131576757133006,0.07344342187345028,-0.05917538867667317
1761466576306258700,3.1842587890625,-0.010671031618118285,0.05521043056845665,-0.012960749990493058
1761466576316243700,3.19424365234375,-0.0025298107385635375,0.04362812932431698,0.01393310215398669
1761466576326227700,3.204227783203125,0.026280688682198523,0.04160568358600139,-0.0021364275068044662
1761466576336212700,3.214212646484375,-0.011138064607977867,0.04336275638639927,-0.025885259623825548
1761466576346196700,3.22419677734375,-0.03302490224540233,0.02334405070841312,-0.012151917825639248
1761466576356180700,3.2341806640625,-0.000526069700717926,-0.0025537761360406876,-0.018584142830222843
1761466576366165800,3.244165771484375,0.0694903003334999,0.010119827476143836,-0.04293737058117986
1761466576376149800,3.254149658203125,0.0667284344047308,0.024590251377224922,-0.04226633945181966
1761466576386134500,3.264134521484375,-0.003701777127385139,0.027288404420018196,-0.012026245619356632
1761466576396118500,3.274118408203125,-0.008913666556775569,0.044785482665896416,-0.0026287410683929918
1761466576406103600,3.284103515625,0.020014614024758338,0.05653787977993488,-0.007024930200725793
1761466576416087600,3.294087646484375,0.019859131202101706,0.06212532452344894,-0.005402151304483413
1761466576426072600,3.304072509765625,0.006882745251059532,0.04622457555830478,-0.001316781686991453
1761466576436056600,3.314056640625,0.05129939460456371,0.024914076504111288,-0.028245559014379976
1761466576446041600,3.32404150390625,0.06010375556796789,0.05011690682172775,-0.050504737095534796
1761466576456025600,3.334025634765625,0.024866730231046675,0.08394377309978007,-0.03363894249051809
1761466576466009600,3.344009521484375,-0.023909867897629736,0.08276070079505443,0.00909296864643693
1761466576475994600,3.35399462890625,-0.02491758363544941,0.07826572746336459,-0.0022885493285953996
1761466576485978600,3.363978515625,-0.0030465280890464783,0.07488660641908645,-0.020361381635814906
1761466576495963600,3.373963623046875,-0.03860474820435047,0.0746796856701374,0.006829846020042896
1761466576505947600,3.38394775390625,-0.032865327769517894,0.039112697726488115,0.006304945363104343
1761466576515932700,3.3939326171875,0.010253098466992377,0.012575403934717178,-0.06087196346148848
1761466576525916700,3.403916748046875,0.04077244763225317,0.029058921223878858,-0.0899859758734703
1761466576535901400,3.4139013671875,0.009221125070750713,0.04741933830082416,-0.06979074458479881
1761466576545885400,3.423885498046875,-0.04779255552738905,0.048151159706711764,-0.014878712441027163
1761466576555870500,3.433870361328125,-0.017370821517705918,0.03725567168295383,0.0025773031421005726
1761466576565854500,3.4438544921875,-0.01444528945982456,0.03729074299633503,0.007973170836269855
1761466576575838500,3.45383837890625,-0.042481881898641584,0.02633621826171875,0.03470993272289634
1761466576585823500,3.463823486328125,-0.04673661673367023,-0.005990180325508117,0.038584728329628705
1761466576595807500,3.473807373046875,-0.024269933381676673,0.013954875594377516,0.0010445406168699263
1761466576605792800,3.483792724609375,0.0017918518528342246,0.0658136576473713,-0.03819514449015259
1761466576615776500,3.493776611328125,0.0036342648491263386,0.06309037016332149,-0.05173077175915241
1761466576625761800,3.50376171875,-0.023270400950312613,0.07028525010347365,-0.051826048827171324
1761466576635745500,3.51374560546875,-0.02778875515758991,0.0799041423201561,-0.05666691298708319
1761466576645730800,3.523730712890625,-0.003816635678708553,0.061470660006999966,-0.019525953724980352
1761466576655714800,3.53371484375,0.017158640071749685,0.03795885151624679,0.025191724401712415
1761466576665699800,3.543699951171875,0.028802023853361607,0.03836977040469646,0.028179069649428127
1761466576675683800,3.553683837890625,-0.016943828277289866,0.05607610748708248,-0.008704553850740194
1761466576685667800,3.563667724609375,-0.018718144473433493,0.056221653437614434,-0.044033933646231885
1761466576695652600,3.573652587890625,-0.0031058570608496665,0.06383329748511314,-0.0556239798054099
1761466576705636900,3.583636962890625,0.02125496947467327,0.07408873403966426,-0.038223347671329976
1761466576715621600,3.59362158203125,-0.0017050503522157668,0.07892448363304137,0.005028057295084
1761466576725605600,3.603605712890625,0.006941489700973033,0.04631576097309589,0.029883389349281787
1761466576735590700,3.613590576171875,0.03625730829536915,0.017470190238952635,0.010792612171173095
1761466576745574700,3.62357470703125,-0.012639701342582702,0.028223054921627043,-0.028051936138421295
1761466576755559700,3.6335595703125,-0.044863808599114416,0.05503332043588161,-0.051108986598998304
1761466576765543700,3.643543701171875,-0.021707097156345844,0.05341010314822197,-0.06228358382508158
1761466576775528700,3.65352880859375,-0.004109481145441532,0.05958090073764324,-0.0713042178876698
1761466576785512700,3.6635126953125,-0.011528525230288505,0.08957856411635876,-0.056515229556709526
1761466576795496700,3.67349658203125,-0.03466770101636648,0.10174363368451594,-0.015815408769249917
1761466576805481700,3.683481689453125,-0.011773732163012028,0.05680500628352165,0.02738996509835124
1761466576815465700,3.6934658203125,0.0704427787527442,0.00926174934208393,0.04579582875221967
1761466576825450800,3.70345068359375,0.06711304980814456,0.015738251879811285,0.02701455591470003
1761466576835434800,3.713434814453125,-0.00007306523621082306,0.052777065941691396,0.008769435780495405
1761466576845419500,3.72341943359375,-0.03545359069705009,0.052550855970382684,-0.00575520252585411
1761466576855403800,3.73340380859375,-0.031893267866969104,0.035335517275333406,-0.02262275069653988
1761466576865388500,3.743388427734375,-0.04054886800944805,0.03448562244772911,-0.033262948784977195
1761466576875372500,3.75337255859375,-0.04012245929092169,0.053368017572164535,-0.04037541113868356
1761466576885356500,3.7633564453125,-0.01721300060749054,0.044641690281033514,-0.02728270533159375
1761466576895341600,3.773341552734375,0.03922258784174919,0.016527356430888176,-0.030843612683564423
1761466576905325600,3.78332568359375,0.07289689390659332,0.012363222488760947,-0.04084668191224337
1761466576915310600,3.793310546875,0.003867196822166443,0.03344984965920448,-0.026166414652764796
1761466576925294600,3.803294677734375,-0.023187398841977118,0.03164601510763168,-0.01636164447516203
1761466576935279600,3.813279541015625,0.01409808345735073,0.025630115818977353,-0.008286036177724599
1761466576945263600,3.823263671875,0.014316694644093513,0.04556465034484863,-0.027377105616778134
1761466576955248600,3.83324853515625,-0.025223288583755492,0.07579495343565941,-0.025316081433743236
1761466576965232600,3.843232666015625,-0.04625350939184427,0.06781389155387878,-0.013047551491111517
1761466576975217700,3.8532177734375,0.03421235846430063,0.03864215760529041,-0.023321546615660188
1761466576985201700,3.86320166015625,0.07235504211485386,0.062407064074277874,-0.04473667508810758
1761466576995185700,3.873185546875,0.005443360097706317,0.10005378090143204,-0.01679696715250611
1761466577005170700,3.883170654296875,-0.025311551389098165,0.06112403852641582,0.007556114467978477
1761466577015154700,3.89315478515625,0.00957329950928688,0.029075287836790083,-0.021921032167971134
1761466577025139500,3.903139404296875,0.01617342842668295,0.03932020299732685,-0.027135551945865154
1761466577035123700,3.913123779296875,-0.01108604215979576,0.04498071297705173,-0.010662117659300564
1761466577045108500,3.9231083984375,-0.014702479091286658,0.030427286967635154,0.020563772340118885
1761466577055092500,3.933092529296875,0.03350654828250408,0.02350888588130474,0.026735446712374687
1761466577065077500,3.943077392578125,0.04489829539060593,0.03550678218901157,-0.004857815294712782
1761466577075061500,3.9530615234375,-0.005018704944849014,0.057685296249389645,-0.011499883657693862
1761466577085046500,3.963046630859375,-0.042209494698047634,0.044890112084150315,0.009291998349875211
1761466577095030500,3.973030517578125,-0.02292494851350784,0.055282911282777784,0.013448387376964091
1761466577105014500,3.9830146484375,0.0061813189834356306,0.057332245028018945,0.003934855230897665
1761466577114999600,3.99299951171875,-0.002839315079152584,0.0667062225729227,0.011250438941270112
1761466577124983600,4.002983642578125,0.004219078999757766,0.03961363298594951,0.02945741902217269
1761466577134967600,4.012967529296875,0.04220043460875749,0.01338788936138153,0.03033011020347476
1761466577144951600,4.02295166015625,0.08729249900579451,0.029867314997315406,0.010398352156579494
1761466577154936600,4.0329365234375,0.07860708824694156,0.0354009837269783,0.00033975334838032723
1761466577164920600,4.042920654296875,0.02986234656125307,0.0356798006683588,-0.007510375630110502
1761466577174905600,4.052905517578125,-0.0023655600875616073,0.03693360012173653,-0.023190759842842815
1761466577184889600,4.0628896484375,-0.02244622508585453,0.055603813800215715,-0.025539368795603513
1761466577194873600,4.07287353515625,-0.031219314128160473,0.06794190184772014,-0.01618950277864933
1761466577204858600,4.082858642578125,-0.022931378254294393,0.042488311639428136,-0.018043606212735173
1761466577214842600,4.092842529296875,0.00008417115211486816,0.02880699228942394,-0.02367649753317237
1761466577224827600,4.10282763671875,0.010452420431375503,0.022969956699013708,-0.011162468396872282
1761466577234811600,4.112811767578125,0.013102642679214477,0.03782499600350857,0.003310147461295128
1761466577244796700,4.122796630859375,0.037628012126684186,0.028142975422739983,0.006622779140621423
1761466577254780400,4.132780517578125,0.05324439119249582,0.03073240739405155,-0.012134674429893492
1761466577264769300,4.142769287109375,0.05183657022118568,0.03205634947419166,-0.013088321892917155
1761466577274753300,4.152753173828125,0.039996494823694224,0.023052374285459518,0.0013519991308450698
1761466577284738300,4.16273828125,0.0560796146184206,0.02241349186003208,0.015230886879563331
1761466577294722300,4.172722412109375,0.06985738008022307,0.007205401334166526,-0.004966974757611751
1761466577304706300,4.182706298828125,0.047750762212276456,0.0009176993668079376,-0.026234511452913282
1761466577314691300,4.19269140625,-0.022822072660923003,0.0053594812065362925,-0.04544745370596647
1761466577324675300,4.20267529296875,-0.025454174730181692,0.04246025458872318,-0.04768500349968671
1761466577334660400,4.212660400390625,0.026267244678735733,0.05103226810097694,-0.04938625445961952
1761466577344644400,4.222644287109375,0.021567688685655593,0.07969371443986892,-0.054598582280427216
1761466577354629400,4.23262939453125,0.027845746041834353,0.06862228532731533,-0.036020138538628815
1761466577364613400,4.24261328125,0.0019400281518697738,0.049832244661450385,0.0132290455378592
1761466577374598100,4.25259814453125,-0.026886837881803512,0.025837036567926405,0.031473288889229296
1761466577384582400,4.26258251953125,-0.036117607563734055,0.04171557370126247,0.02755874579399824
1761466577394567200,4.272567138671875,-0.012712474317848681,0.05259352606832981,0.009481237311661244
1761466577404551200,4.28255126953125,0.013075754672288893,0.04517302067875862,-0.013585603890568017
1761466577414535200,4.29253515625,0.02981996872425079,0.06632569882273674,-0.018937340182065963
1761466577424520200,4.302520263671875,0.02477671386003494,0.05860182657241821,-0.0020391046121716497
1761466577434504200,4.312504150390625,0.01674538309574127,0.057904491958022115,0.026115853509306907
1761466577444489200,4.3224892578125,0.024509587356448172,0.03401508232653141,0.049742812812328334
1761466577454473200,4.33247314453125,0.016239771661162375,0.025188801792263984,0.053293637161701914
1761466577464458200,4.342458251953125,0.00656301177740097,0.037784079471230504,0.03370397055074573
1761466577474442200,4.352442138671875,-0.019018296463787554,0.05050736744403839,0.010182809709757566
1761466577484427300,4.36242724609375,-0.04605740229785442,0.06506254701912403,-0.019404519302397966
1761466577494411300,4.372411376953125,-0.05224573554396629,0.06195932030677795,-0.03694470603764057
1761466577504396300,4.382396240234375,-0.019096330136060713,0.040754619714617725,-0.04559650678783655
1761466577514380300,4.39238037109375,-0.004576806396245956,0.03688800741434097,-0.04824643677473068
1761466577524365300,4.402365234375,-0.004298573976755142,0.02531096686720848,-0.033265871394425627
1761466577534349300,4.412349365234375,0.002619242587685585,0.006695698246359825,0.0031884207777678965
1761466577544333300,4.422333251953125,0.02805237452983856,0.009360533541440964,0.008581950384378433
1761466577554318000,4.432318115234375,0.010017536145448685,0.017641455152630804,0.019390344646573066
1761466577564302000,4.442302001953125,-0.01568535264879465,0.008087444865703583,-0.0013245266020298003
1761466577574287000,4.452287109375,-0.025343700093030927,0.04617255311012268,-0.002747252881526947
1761466577584271000,4.46227099609375,-0.041698038044571874,0.06263035143613815,0.02153539385125041
1761466577594256100,4.472256103515625,-0.024722061063349246,0.054583238580822944,0.04265957655310631
1761466577604240100,4.482240234375,0.009650164137780666,0.020322657060623167,0.03649944648817181
1761466577614225400,4.492225341796875,0.027220015358924866,0.011616203513741492,0.01958586721867323
1761466577624209200,4.502209228515625,0.036440263646841047,0.01657820983529091,0.006751373956352472
1761466577634194400,4.5121943359375,0.04978431386649608,0.03501519927978516,-0.006065729779750108
1761466577644178200,4.52217822265625,0.042327568119764326,0.03533668631911278,-0.02077273891568184
1761466577654162200,4.532162109375,0.04387362851798534,0.029679098948836326,-0.015942396149784325
1761466577664147500,4.5421474609375,0.02220394076257944,0.04780687631368637,0.00357756622582674
1761466577674131200,4.552131103515625,0.016190087300539016,0.048986441487073894,0.03046601154282689
1761466577684116500,4.562116455078125,0.038617899946868414,0.01194178220629692,0.015345599300414323
1761466577694100500,4.5721005859375,0.043693011254072184,-0.009413140511512756,-0.028224077834933994
1761466577704085200,4.582085205078125,-0.02078881326764822,0.03253565742373466,-0.0312539470501244
1761466577714069200,4.5920693359375,-0.02536795775145292,0.045399230650067325,0.0042924364969134324
1761466577724057000,4.60205712890625,0.006552490383386612,0.039594928285479544,0.0252152514077723
1761466577734041000,4.612041015625,0.044212943474948405,0.0467640892624855,0.009847148014605045
1761466577744026000,4.622026123046875,0.03196925571262836,0.040305122381448746,0.01196311725527048
1761466577754010000,4.632010009765625,0.02587386144697666,0.021610358783602714,0.023563684808462857
1761466577763995100,4.6419951171875,0.033733342775702474,0.020540683725476263,0.005226794737577438
1761466577773979100,4.651979248046875,0.04560732044279575,0.05151742126941681,-0.02221709250509739
1761466577783964200,4.661964111328125,0.027653146079182622,0.04681260457932949,-0.030987697329372167
1761466577793948200,4.6719482421875,0.00737082102894783,0.049159459966421126,0.002472673723846674
1761466577803933400,4.681933349609375,0.0012567220628261564,0.03178337775170803,0.024547289018332957
1761466577813917200,4.691917236328125,0.039217327144742006,0.01637888787090778,-0.011141133347898721
1761466577823901200,4.701901123046875,0.08680442322790623,0.006184241592884063,-0.04640183182135224
1761466577833886500,4.711886474609375,0.07407236742675304,0.0404115053653717,-0.036831454921513795
1761466577843870200,4.7218701171875,0.023808161088824272,0.031465982365608214,0.0056501347161829465
1761466577853855500,4.73185546875,0.00874503199160099,0.029537060129642485,0.01949175919443369
1761466577863839500,4.741839599609375,0.028249942928552627,0.046583471998572344,0.011897212412208319
1761466577873824300,4.75182421875,0.026638708339631556,0.052018941050767896,0.02302081010341644
1761466577883808300,4.761808349609375,0.03885959974825382,0.03383212697505951,0.020574732125550506
1761466577893793300,4.771793212890625,0.11001578746736049,0.01979015761911869,-0.030484423982352016
1761466577903777300,4.78177734375,0.05043488672971725,0.04663432540297508,-0.0668162588186562
1761466577913762300,4.79176220703125,-0.01995616183578968,0.04377192170917987,-0.031462767495214934
1761466577923746300,4.801746337890625,-0.013859598526358603,0.0239244809448719,0.006859656636416912
1761466577933730300,4.811730224609375,0.02254763963371515,0.04725391860604286,0.03184299898445606
1761466577943715300,4.82171533203125,0.04186871843636036,0.0582014290779829,0.0443229797206819
1761466577953699300,4.83169921875,0.05510112497508526,0.05713116949796676,0.02336947741061449
1761466577963684400,4.841684326171875,0.034471009400486946,0.010967384216189384,-0.01488558057323098
1761466577973668400,4.85166845703125,0.034063597643375396,0.03742810564041137,-0.07718933040350676
1761466577983653400,4.8616533203125,0.047507016584277154,0.04561024305224418,-0.059917731476575135
1761466577993637400,4.871637451171875,0.03140343852341175,0.02409925298988819,-0.019787819531559944
1761466578003622400,4.881622314453125,0.023538696497678754,0.028442250630259513,0.017043781520426272
1761466578013606400,4.8916064453125,0.020107553005218503,0.04071311866044998,-0.0007997720755636692
1761466578023591200,4.901591064453125,0.013780688071250914,0.012360299879312515,-0.03185089002996683
1761466578033575400,4.911575439453125,0.02582768421769142,-0.0036760581642389296,-0.03093903588205576
1761466578043560200,4.921560302734375,0.00585457124710083,0.04476151726841926,-0.05500672468990087
1761466578053544200,4.931544189453125,-0.024357027143239972,0.05365443329811096,-0.09192454272061586
1761466578063528200,4.941528076171875,-0.021224574336409566,0.049664486879110334,-0.06391045437455177
1761466578073513200,4.95151318359375,0.020810732838511467,0.0575958644002676,-0.010696019928902387
1761466578083497200,4.961497314453125,0.07752396918535231,0.04413549432456493,0.04791881225556135
1761466578093482200,4.971482177734375,0.1145376488059759,0.012307108387351036,0.07960515937358141
1761466578103466200,4.98146630859375,0.08084668386727571,0.010347206491231917,0.07671455249860883
1761466578113451300,4.991451171875,0.03136602912247181,0.046890345990657806,0.0636257922142744
1761466578123435300,5.001435302734375,-0.02061199539601803,0.05608312174975872,0.06048734805807471
1761466578133420300,5.011420166015625,-0.0511865818798542,0.06510112546384335,0.029361995823681354
1761466578143404300,5.021404296875,-0.04960135851502418,0.050451253342628476,-0.004644026413559914
1761466578153389300,5.031389404296875,-0.02397767243683338,0.049555765807628625,-0.024427315900474787
1761466578163373300,5.041373291015625,-0.018228315129876136,0.04306581926643848,-0.02506502928212285
1761466578173358000,5.051358154296875,-0.0033387890338897703,0.018617022186517715,-0.012033113751560449
1761466578183342300,5.06134228515625,0.007879355072975158,0.007087327912449836,-0.029465017806738613
1761466578193326300,5.071326416015625,0.04032265803813934,-0.002495323947072029,-0.00000599134936928749
1761466578203311000,5.08131103515625,0.033061142602562904,0.01450374164879322,0.008383066811412572
1761466578213295000,5.091295166015625,0.022323475489020347,0.03988368209898471,-0.019646219103783367
1761466578223280000,5.101280029296875,0.026446108376979825,0.042267946887016294,-0.023982494742423293
1761466578233264000,5.11126416015625,0.022526304584741592,0.015981412985920904,-0.019027210422605276
1761466578243249200,5.121249267578125,0.006771686092019081,0.007616320222616196,-0.017031214299798012
1761466578253233200,5.131233154296875,-0.021300562182068824,0.002865326303243637,0.00194324302226305
1761466578263214000,5.141214111328125,0.006437631832063198,0.005578676915168762,-0.011269435902684926
1761466578273198000,5.151197998046875,0.028330606949329373,0.015851064604520796,-0.02497442838922143
1761466578283183000,5.16118310546875,0.04398527219891548,0.004894786304235458,-0.026243425411731004
1761466578293167000,5.1711669921875,0.07309300100058316,0.015194062000513075,-0.018764321702718734
1761466578303152000,5.181152099609375,0.05159750076830387,0.019470424145460127,-0.00497398902028799
1761466578313136000,5.19113623046875,0.04654313998818397,0.03568973754048347,0.0015082126058638095
1761466578323120000,5.2011201171875,0.04190671235918998,0.04806289690136909,0.020736206297576425
1761466578333105200,5.211105224609375,0.034651626664400095,0.02851590038836002,0.0018199089035391806
1761466578343089200,5.221089111328125,0.01739595595896244,0.037382512933015824,-0.028506109646707772
1761466578353074200,5.23107421875,0.039968145512044424,0.03511515252292156,-0.0438503937728703
1761466578363058200,5.24105810546875,0.03328559900820255,0.05188683910369873,-0.054030427003651856
1761466578373043000,5.25104296875,0.008627543091773986,0.05369768791794777,-0.043374739085137844
1761466578383027200,5.261027099609375,0.021045710638165474,0.05518471160531044,-0.02340776359438896
1761466578393012000,5.271011962890625,0.06255962428748607,0.02320084284543991,-0.04174655336141586
1761466578402996000,5.280995849609375,0.09644494275450706,-0.00917114844918251,-0.029730829136073587
1761466578412981000,5.29098095703125,0.06420359210222959,0.0003688333123922348,-0.022851298755407333
1761466578422965000,5.300965087890625,0.03690846568048,0.011124620604515075,-0.019405249954760073
1761466578432950000,5.310949951171875,0.06133914258182049,0.003142389678955078,-0.01939516695216298
1761466578442934000,5.32093408203125,0.07316665075868367,0.030142624807357785,-0.011138941390812396
1761466578452918000,5.33091796875,0.04968173027485609,0.07203180150985718,-0.014524346045404672
1761466578462903000,5.340903076171875,0.04237403760999441,0.060709027984738345,-0.013856383655965327
1761466578472887000,5.350886962890625,0.09257949949800967,0.02787760248482227,-0.030214520999789236
1761466578482872000,5.3608720703125,0.12779051361083985,0.04562427157759666,-0.06730915690213442
1761466578492856000,5.37085595703125,0.055775663235783576,0.059285717183351516,-0.0627643530793488
1761466578502841000,5.380841064453125,0.05550181473046541,0.0298719911724329,-0.015300152723491191
1761466578512825000,5.3908251953125,0.07997136233747006,0.005776829835772514,-0.022401655291765927
1761466578522809900,5.400809814453125,0.07745265751481056,0.019876082336902617,-0.034150545274466274
1761466578532794000,5.410794189453125,0.05302899487614631,0.01713584371805191,-0.006896627645939588
1761466578542779000,5.42077880859375,0.05259381832927465,0.02124620164632797,0.007638678184896707
1761466578552763000,5.430762939453125,0.09942191273868084,0.01446457868218422,-0.041107378675043584
1761466578562748000,5.440747802734375,0.09655366382598876,0.03989654158055782,-0.11843538689687848
1761466578572732000,5.45073193359375,0.028816929161548613,0.05005553202331066,-0.11932137595117091
1761466578582716000,5.4607158203125,0.0067775313109159465,0.036948797690868375,-0.037906244546175
1761466578592701000,5.470700927734375,0.06518062044084072,0.021912556600570676,0.006914747824519872
1761466578602685000,5.480684814453125,0.08690379194915294,0.018128946408629415,0.010383154587447643
1761466578612670000,5.490669921875,0.07143442013859748,0.0021948796957731247,0.0034374271027743813
1761466578622654000,5.500654052734375,0.04863455930948257,-0.01518120251893997,0.003687456341087818
1761466578632639200,5.51063916015625,0.07009820309877396,-0.027394202882051466,-0.01733180468156934
1761466578642623000,5.520623046875,0.08983020078986882,-0.007528057417273521,-0.055957157282531256
1761466578652608300,5.530608154296875,0.038430560681223865,0.027519290566444397,-0.09165069421529769
1761466578662592300,5.54059228515625,0.020260113218426704,0.03890869958698749,-0.06801306738778948
1761466578672577000,5.550576904296875,0.03880523921251297,0.040614334461092944,-0.022984423615783452
1761466578682561300,5.560561279296875,0.048533437022566794,0.03585106558203697,0.0004749240353703499
1761466578692546000,5.570546142578125,0.04784311667084694,0.03032324207127094,0.011359890665113925
1761466578702530000,5.580530029296875,0.0300637143522501,0.030263036316633223,0.01980608584061265
1761466578712514000,5.59051416015625,0.04238806613534689,0.040948680981993675,0.045484863106906415
1761466578722499000,5.6004990234375,0.04490881678462028,0.03785539114177227,0.03758125037550926
1761466578732483000,5.610483154296875,0.0015939911931753157,0.05238718984127044,0.00016819617375731468
1761466578742468000,5.620468017578125,-0.02421031214892864,0.049775546038150785,-0.012544716535508631
1761466578752452000,5.6304521484375,-0.02935819643139839,0.056523851254582404,-0.008230506598204373
1761466578762437000,5.64043701171875,-0.006604512831568717,0.06587210983633994,-0.009429653254896402
1761466578772421000,5.650421142578125,0.025611411118507385,0.0641010085105896,-0.02853957352489233
1761466578782406100,5.66040625,0.027281097896397113,0.07029869410693645,-0.03899856982752681
1761466578792390100,5.67039013671875,0.037889877933263774,0.046027591681480406,-0.02320902615189552
1761466578802375200,5.680375244140625,0.01876373718082905,0.03963993647098541,-0.02517433487549424
1761466578812359200,5.690359130859375,-0.023320085310935972,0.06960954279899596,-0.012997282608598469
1761466578822344200,5.70034423828125,-0.043972412717342375,0.06352817705869675,0.01652341090813279
1761466578832328200,5.710328125,-0.027044658792018887,0.03630816169977188,0.03337064694315195
1761466578842313000,5.72031298828125,-0.013268646895885467,0.006791559836268424,0.02073927503749728
1761466578852297000,5.730296875,0.021514497193694113,-0.00113806411921978,0.0007382511466741561
1761466578862281000,5.740281005859375,0.02612608264237642,0.0038677813440561293,-0.010054068763554096
1761466578872266000,5.750265869140625,0.005176818116009235,-0.00827098473906517,-0.019240999303758142
1761466578882250000,5.76025,0.004979541978240013,0.0009960253000259398,-0.021613865914940834
1761466578892235000,5.770235107421875,0.036898821069300175,-0.011067921981215477,0.0008675766147673129
1761466578902219000,5.780218994140625,0.06353285323381423,-0.020579846692085266,0.020875760898739097
1761466578912204000,5.7902041015625,0.061492871838808055,-0.007757189998030662,0.04379851745516061
1761466578922188000,5.80018798828125,0.06747019268274307,-0.006851765590906143,0.064457420732826
1761466578932173000,5.810173095703125,0.07430266905128956,0.0008493103057146072,0.05908405713140964
1761466578942157000,5.820156982421875,0.05297814147174358,0.027142273947596548,0.028559447269141672
1761466578952142000,5.83014208984375,0.011461889734864235,0.059115621313452715,0.004407295048236846
1761466578962126000,5.8401259765625,-0.02561725633740425,0.06361877795159816,0.0028968904852867123
1761466578972111000,5.850111083984375,-0.014523323132097721,0.06763795046508311,0.012855389919877051
1761466578982095000,5.86009521484375,0.00213145907074213,0.05186112014055252,0.011944850946217774
1761466578992079000,5.8700791015625,0.0234235456854105,0.03464811953306198,0.010403758984059095
1761466579002064000,5.88006396484375,0.01416647251844406,0.032062779214978215,0.01626315253674984
1761466579012048100,5.890048095703125,0.01689969687461853,0.03648936348557472,0.020908932515978813
1761466579022033000,5.900032958984375,0.0038438159465789793,0.03247545166909695,0.028183015172183513
1761466579032017000,5.910016845703125,0.006178396373987197,0.026838322564959525,0.025463234819471835
1761466579042002000,5.920001953125,-0.006878069075942039,0.04130816194415092,0.02142097369134426
1761466579051986000,5.92998583984375,-0.031706805384159084,0.057906245523691176,0.012463175731897353
1761466579061971000,5.939970947265625,-0.03584755845069885,0.05462123250365257,0.015720570092648267
1761466579071955000,5.949954833984375,-0.04095452620089054,0.053393736535310744,0.010031126279383898
1761466579081940200,5.959940185546875,-0.021476503270864485,0.06063362466096878,-0.00509381600767374
1761466579091924000,5.969924072265625,-0.01697276211082935,0.05145370838344097,-0.017419629095494747
1761466579101909200,5.9799091796875,-0.0010965630650520324,0.058013797551393506,-0.019803747753053904
1761466579111893200,5.989893310546875,0.005101122531294822,0.04104629613757133,-0.0034114158786833285
1761466579121877000,5.999876953125,0.03480214105099439,0.024411387678980826,0.013687310699373482
1761466579131862300,6.0098623046875,0.06315817470252513,0.016297639328241346,0.01876563687697053
1761466579141846300,6.01984619140625,0.05383797317147255,0.027087913411855697,0.03275996769890189
1761466579151831000,6.0298310546875,0.016419804403185842,0.031013562422990797,0.028489596903324126
1761466579161815000,6.03981494140625,0.010897826111316681,0.05016016144156456,0.028910598794370888
1761466579171800000,6.049800048828125,-0.02826017206162214,0.07519932563006877,0.011009323661774397
1761466579181784000,6.0597841796875,-0.058550973168015476,0.07443243291079997,-0.016097002189606427
1761466579191769000,6.06976904296875,-0.0753811119377613,0.07476327230036259,-0.03938260070905089
1761466579201753000,6.079753173828125,-0.039160920782387254,0.0651899727910757,-0.012384849798679352
1761466579211738000,6.089738037109375,-0.0021072014123201368,0.06018062019646168,0.017230536264181136
1761466579221722000,6.09972216796875,0.031983284237980844,0.050453591430187225,0.019097499179840088
1761466579231707100,6.10970703125,0.05132686713337898,0.031738954088091846,0.013672989913076162
1761466579241691100,6.119691162109375,0.06250292566418647,-0.0016740706920623778,-0.0032975802406668663
1761466579251675100,6.129675048828125,0.05090367328524589,-0.013138298514485358,-0.04682049562484026
1761466579261660200,6.13966015625,0.05078501534163952,0.01808744535446167,-0.07987798496559262
1761466579271644200,6.14964404296875,0.04029167837798595,0.0360544791996479,-0.10452478883564471
1761466579281629200,6.159629150390625,0.027880525094270706,0.04351297851204872,-0.08565481480136514
1761466579291613200,6.16961328125,0.020030103854835033,0.06800210760235786,-0.04164280072599649
1761466579301598000,6.179597900390625,0.042676235426962375,0.06116144792735576,0.010544044237583875
1761466579311582200,6.189582275390625,0.07324000825583935,0.008427052083611488,0.04552475672587752
1761466579321567200,6.199567138671875,0.07390285607874393,0.018955460360646246,0.030361820515990255
1761466579331551000,6.209551025390625,0.04825462008118629,0.029825813943147657,0.020689736807346343
1761466579341536300,6.219536376953125,0.044216450606286525,-0.0018307225584983824,0.011921031679213046
1761466579351520300,6.229520263671875,0.03604629589319229,0.03644318625628948,-0.01588876626640558
1761466579361505300,6.23950537109375,0.02937397852241993,0.04026420584917068,-0.035105946303159
1761466579371489300,6.2494892578125,0.023310732960700988,0.03447802366316318,-0.029830928509682414
1761466579381474300,6.259474365234375,0.021868717458844184,0.034354105022549625,-0.0218168411411345
1761466579391458300,6.269458251953125,0.019867899030447004,0.040055531534552574,-0.009667845924943685
1761466579401442300,6.2794423828125,0.04547609527856111,0.021064415338635442,0.006599544395506382
1761466579411427300,6.28942724609375,0.03323065395057201,0.013761398848891257,0.018971388582140206
1761466579421411300,6.299411376953125,0.024356442621350286,0.011411036330461501,0.010021189407259224
1761466579431396400,6.309396240234375,0.02408873159587383,0.022848960667848587,-0.005818623150885105
1761466579441380400,6.31938037109375,0.04205459639728069,0.03525251516699791,-0.015074235013127326
1761466579451365000,6.329365234375,0.035411505120992656,0.04990238728821277,-0.026580986803025005
1761466579461349400,6.339349365234375,-0.00030336686074733735,0.04543664005100727,-0.016166998685896397
1761466579471334100,6.349334228515625,0.03723930507004261,0.01229424890577793,-0.010100099862366914
1761466579481318100,6.359318115234375,0.06750438721328973,0.007337503281235695,-0.014559563489258288
1761466579491303200,6.36930322265625,0.07043693353384733,0.02308276942372322,-0.017783347841352222
1761466579501287200,6.379287109375,0.06673632545024157,0.025443653336167334,-0.008533581198006868
1761466579511272200,6.389272216796875,0.06936170551776885,0.02181318787932396,-0.004408025700598955
1761466579521256200,6.399256103515625,0.05897416701614856,0.04929448452293873,-0.0032123861752450466
1761466579531240200,6.409240234375,0.022499708838760853,0.06194470725953578,-0.008318915534019469
1761466579541225200,6.41922509765625,0.013145020516216754,0.04798515549004077,-0.00004836918637156486
1761466579551209200,6.429209228515625,0.00606675269305706,0.05959083760976791,-0.006179419287294149
1761466579561194200,6.4391943359375,-0.013202595922350882,0.08064648512005805,-0.00697758392766118
1761466579571178200,6.44917822265625,-0.02317863101363182,0.06944353858232498,-0.006450199052691459
1761466579581163300,6.459163330078125,-0.025827099695801735,0.057009004423022265,-0.010235855071246623
1761466579591147300,6.469147216796875,-0.026779870375990868,0.04950958857834339,-0.007872633071243763
1761466579601132000,6.479132080078125,-0.00028700024783611294,0.04775660743117332,-0.00346124636977911
1761466579611116300,6.4891162109375,0.02386924362629652,0.039058921712636946,-0.0028321546860039233
1761466579621101000,6.49910107421875,0.016827216160297392,0.03885317000746727,-0.001003770215064287
1761466579631085000,6.5090849609375,0.0010205752193927764,0.05239478862583637,-0.0006098024614155293
1761466579641070000,6.519070068359375,0.00003039513826370239,0.05494213502109051,0.008901829988509417
1761466579651054000,6.52905419921875,-0.011602759510278702,0.050292263388633726,0.016625263847410678
1761466579661039000,6.5390390625,-0.02219254258573055,0.04689677573144436,0.017148849330097436
1761466579671023000,6.549023193359375,-0.021981822444498537,0.0496790999263525,0.025414134980738162
1761466579681007000,6.559007080078125,-0.01428805307149887,0.030925299617648123,0.029552257698774335
1761466579690992000,6.5689921875,-0.01518295608460903,0.026761165675520896,0.014974574030935764
1761466579700976000,6.57897607421875,-0.0189531222730875,0.04542027343809604,0.010323679485172033
1761466579710961200,6.588961181640625,-0.007732055556774139,0.05071195010542869,-0.0005371756166219711
1761466579720945200,6.598945068359375,-0.008799392527341842,0.05856324812769889,-0.0012786416336894035
1761466579730930200,6.60893017578125,-0.00022737901508808136,0.03683598496615886,-0.016308306852728126
1761466579740914200,6.6189140625,0.011738953110575675,0.02742050636708736,-0.019312457104772328
1761466579750899200,6.628899169921875,0.02651215935051441,0.030814240458607672,-0.0113664665363729
1761466579760883200,6.63888330078125,0.0230792622923851,0.0325122765481472,-0.006425503002852201
1761466579770868200,6.6488681640625,0.027675357910990715,0.03396481344401836,0.01037672484666109
1761466579780852000,6.65885205078125,0.03830371943116188,0.03384147932529449,0.014713585007190704
1761466579790837200,6.668837158203125,0.03466799327731132,0.036572365593910215,0.023945962124317884
1761466579800821200,6.6788212890625,0.010109306082129477,0.039753918239474294,0.020500059454143047
1761466579810805000,6.688804931640625,-0.005677168853580951,0.035060791987180706,-0.0033640696056187152
1761466579820790300,6.698790283203125,0.017825287286937237,0.04774491699337959,-0.019571400301903484
1761466579830774000,6.70877392578125,0.03856090906262397,0.04586275650858879,-0.028087591973692178
1761466579840759300,6.71875927734375,0.045507367199659345,0.04914075526595115,-0.004130377802997827
1761466579850743300,6.728743408203125,0.044674423506855965,0.04662848018407821,0.015370879872143268
1761466579860728300,6.738728271484375,0.022891630765795708,0.03030804450213909,0.03217252319976687
1761466579870712300,6.74871240234375,-0.0009825812965631483,-0.0032668928414583205,0.019459464360028503
1761466579880697300,6.758697265625,0.014577975928783416,-0.0195849904358387,-0.0028428222104907035
1761466579890681300,6.768681396484375,0.009099836778640747,0.021276012262701986,-0.04087415444105863
1761466579900666000,6.778666015625,-0.0006225158125162124,0.030168343770503998,-0.07028159684166312
1761466579910650400,6.788650390625,0.016761749708652494,0.06129705700576305,-0.05828837670907378
1761466579920635100,6.79863525390625,0.0021960487395524977,0.09476794945299624,-0.005150514630973339
1761466579930619100,6.808619140625,0.015326456208527087,0.08908288955390453,0.039309535472840065
1761466579940604200,6.818604248046875,0.02494797877371311,0.05596855545938015,0.04758753447458148
1761466579950588200,6.828588134765625,0.01709317362010479,0.036464813566207885,0.043244682964682576
1761466579960572200,6.838572265625,-0.023696809668838976,0.04339315152466297,0.03479951070249081
1761466579970557200,6.84855712890625,-0.0473304909735918,0.03960778776705265,0.016037380956858395
1761466579980541200,6.858541259765625,-0.0448731609493494,0.02797054146528244,-0.01979015761911869
1761466579990526200,6.868526123046875,-0.024448797079920766,0.04768938741385936,-0.039836920347809786
1761466580000510200,6.87851025390625,-0.003825403507053852,0.05356324788331985,-0.051340311136841774
1761466580010495200,6.8884951171875,-0.004650163893401622,0.05184592257142066,-0.049035979717224835
1761466580020479200,6.898479248046875,0.004847440031170845,0.04879764091670513,-0.05223579867184162
1761466580030464300,6.90846435546875,-0.0058294368058443066,0.038844986701011656,-0.057362347905337806
1761466580040448300,6.9184482421875,-0.007416705997288227,0.039542905837297436,-0.045654812846332785
1761466580050433300,6.928433349609375,0.00028407763838768005,0.05372340688109398,-0.025751404111087322
1761466580060417300,6.938417236328125,0.0006365443378686904,0.04117489095330238,-0.0034988019011914727
1761466580070402000,6.948402099609375,0.012717442753911018,0.03924129254221916,-0.0030719547912478446
1761466580080386000,6.958385986328125,0.02481120065152645,0.04549859937131404,-0.020745704778283833
1761466580090370300,6.968370361328125,0.004773205751180649,0.04049567651748657,-0.041133389899134634
1761466580100355000,6.97835498046875,-0.007078560084104538,0.03126315326988697,-0.028169132777303457
1761466580110339000,6.988339111328125,-0.0053504211172461505,0.04425122965872288,-0.019798633186519143
1761466580120324000,6.998323974609375,-0.00021188918501138687,0.04732406123280525,-0.013885609750449657
1761466580130308000,7.00830810546875,0.003897591960430145,0.06415244643688202,-0.005396890607476234
1761466580140293000,7.018293212890625,-0.0030190555602312087,0.07608955246806144,-0.0032123861752450466
1761466580150277000,7.028277099609375,-0.028110826718807217,0.06492109272181987,-0.008088321648538113
1761466580160262100,7.03826220703125,-0.037053427109122274,0.0717687666594982,-0.015819938813894985
1761466580170246100,7.04824609375,-0.03437222520112991,0.07529577174186707,-0.006431494352221488
1761466580180231200,7.058231201171875,-0.033740357038378715,0.06971417221724986,0.016154723726212978
1761466580190215200,7.068215087890625,-0.036814357656240464,0.06221358732879161,0.01860416270494461
1761466580200200200,7.0782001953125,-0.010272972211241722,0.05852466968297958,0.014374562311172484
1761466580210184200,7.08818408203125,-0.0031283611536026,0.07192483400404452,-0.004915975222736597
1761466580220168200,7.098168212890625,-0.0047165071278810495,0.0686491733342409,-0.016207769087702033
1761466580230153000,7.108153076171875,-0.001101239240169525,0.05642565157711506,-0.018483166673779486
1761466580240137200,7.11813720703125,-0.02551262691915035,0.05699263781011104,-0.015636252810060976
1761466580250122000,7.1281220703125,0.000668108519911766,0.04994622642993927,-0.007107493917644024
1761466580260106000,7.13810595703125,0.026855565960705277,0.02744622533023357,0.011049947933107615
1761466580270091800,7.148091796875,0.016096271537244317,0.020427286478877066,0.013043313707411288
1761466580280075800,7.15807568359375,0.00007920271605253219,0.026779870375990868,0.03021028321608901
1761466580290060800,7.168060791015625,0.009086685036122798,0.025179449442028996,0.03726794664263725
1761466580300044800,7.178044921875,0.009615385085344314,0.028907530054450032,0.01834054333269596
1761466580310029800,7.18802978515625,-0.0014466916769742964,0.05461480276286602,-0.003135667677223682
1761466580320013800,7.198013916015625,-0.031126959669589994,0.07071545821428299,-0.0009065934509038925
1761466580329998800,7.207998779296875,-0.035084757384657855,0.06589841332137585,0.0008458031743764876
1761466580339982800,7.21798291015625,-0.002022153477370739,0.04822539398670196,-0.0018861060075461864
1761466580349967600,7.227967529296875,0.00023000936359167097,0.04637596672773361,-0.002808043158054352
1761466580359951600,7.23795166015625,-0.0020136779099702833,0.01949263597726822,0.013457885857671499
1761466580369936000,7.247935791015625,0.002614566412568092,0.0264081144541502,0.014489128601551056
1761466580379920600,7.257920654296875,0.00025280571728944777,0.04989537302553653,0.02356821485310793
1761466580389904600,7.267904541015625,-0.0011579378634691238,0.040510289564728734,0.019678513938188553
1761466580399889700,7.2778896484375,0.029897125613689422,0.018975334104895592,0.028382775527983902
1761466580409873700,7.287873779296875,0.038486090260744094,0.028221885877847668,-0.006760580176115035
1761466580419858700,7.297858642578125,-0.004403203395009041,0.04775894551873207,-0.039286154597252605
1761466580429842700,7.3078427734375,-0.03345861748754978,0.03931903395354747,-0.04558350117579102
1761466580439827700,7.31782763671875,0.03598959726989269,0.029636428850889206,-0.05131196182519197
1761466580449811700,7.327811767578125,0.05125087928771972,0.06087444767951965,-0.03223579769432545
1761466580459796700,7.337796630859375,0.017810381978750227,0.06065525197088718,0.012445201683789492
1761466580469780700,7.34778076171875,0.0036018238842487334,0.04679565344452858,0.05289163223206997
1761466580479765800,7.357765869140625,0.018703239165246487,0.03486147002279758,0.023140198699384926
1761466580489749800,7.367749755859375,-0.012445640075206757,0.05408522593080997,-0.02939969748556614
1761466580499734800,7.37773486328125,-0.0756923698440194,0.06382686774432658,-0.050577071679383516
1761466580509718800,7.38771875,-0.03569324467182159,0.053611178678274155,-0.047036622593551874
1761466580519702800,7.397702880859375,0.027448271156847476,0.04979249717295169,-0.06366276322379708
1761466580529687800,7.407687744140625,0.042755438143014905,0.06706219640374184,-0.050192164015024895
1761466580539671600,7.417671630859375,-0.0010386953979730606,0.053100891068577766,-0.00046221068426966665
1761466580549656800,7.42765673828125,-0.01694499732106924,0.0476835421949625,0.0680949004523456
1761466580559640800,7.437640869140625,0.013834464085102081,0.03390577673316002,0.0927362974949181
1761466580569625900,7.4476259765625,0.03680442078411579,0.020894903990626334,0.06081789518669247
1761466580579609900,7.45760986328125,0.010503858357667923,0.03271569016575813,0.027420067975670096
1761466580589595000,7.467594970703125,-0.015049685093760489,0.04310907388627529,-0.0012897475495934486
1761466580599579000,7.477578857421875,-0.04360065679550171,0.0452566073089838,-0.03991436949819326
1761466580609564000,7.48756396484375,-0.03226794639825821,0.060769233739376066,-0.054384647268801926
1761466580619548000,7.4975478515625,-0.0022328736186027526,0.03763561091125011,-0.057699763166159386
1761466580629533000,7.507532958984375,0.012391279539465904,0.041295302462577815,-0.03384644776135683
1761466580639517000,7.517516845703125,0.005846387940645218,0.033386136773228645,-0.014458002810925245
1761466580649501000,7.5275009765625,0.02386310614645481,0.014622399592399596,-0.005584522134065628
1761466580659485700,7.537485595703125,0.03755553141236305,-0.005047931039333343,-0.02683510769456625
1761466580669470000,7.547469970703125,-0.01667144107669592,-0.008760229560732842,-0.032144612279534336
1761466580679454700,7.557454833984375,-0.021660043144226072,0.01457914497256279,0.005960369709134101
1761466580689438700,7.567438720703125,0.00879471635222435,0.03662789517343044,0.031821956196427345
1761466580699423700,7.577423828125,0.0205085350215435,0.06042553486824035,0.015595044016838073
1761466580709407700,7.58740771484375,0.010819500178098677,0.050963294517993925,0.0092075349368155
1761466580719392800,7.597392822265625,0.04446954858452081,0.026726678884029388,-0.012989683824032544
1761466580729376800,7.607376708984375,0.0874766234010458,0.05446574968099594,-0.04717895367369056
1761466580739361800,7.61736181640625,0.06444909129589796,0.06880114902555942,-0.058888972950726745
1761466580749345800,7.627345703125,0.02165536696910858,0.06172083537578582,-0.031534809818118806
1761466580759330800,7.637330810546875,-0.007502922976016998,0.07391396199464798,0.0020911270603537558
1761466580769314800,7.647314697265625,0.010341945794224738,0.06311024390757083,0.04226400136426091
1761466580779299800,7.6572998046875,0.020689152285456657,0.024950316861271856,0.03842983002886176
1761466580789283800,7.667283935546875,0.017519582338631153,0.0014794249027967451,0.027395225795358417
1761466580799267800,7.677267822265625,0.019615093313157556,-0.028602409628033638,-0.022418898687511683
1761466580809252900,7.6872529296875,0.007679156325757503,0.004792494973540306,-0.06714271429404615
1761466580819236900,7.69723681640625,0.0158922733977437,0.043853754773736,-0.05295359155237674
1761466580829221600,7.7072216796875,0.027940730848908423,0.04544423883557319,-0.010567278982698916
1761466580839205600,7.71720556640625,0.04170797491669655,0.04416881207227707,0.006732084733992815
1761466580849190700,7.727190673828125,0.030627777975797653,0.05726970118582248,0.006448153226077556
1761466580859174700,7.737174560546875,0.01668868447244167,0.054009238085150714,0.013644348340481519
1761466580869159700,7.74715966796875,0.025240239718556403,0.004876666125655174,0.013866174397617578
1761466580879143700,7.757143798828125,0.03790916715562343,0.008297872745990753,0.00500146154910326
1761466580889128700,7.767128662109375,0.029972236676514146,0.012827332869172096,-0.0011859949141740799
1761466580899112700,7.77711279296875,0.03190788091421127,-0.003962473890185356,-0.004365940124541521
1761466580909097700,7.78709765625,0.038540450796484944,0.026598668590188026,-0.017230244003236292
1761466580919081700,7.797081787109375,-0.000810147339105606,0.05418985534906387,-0.012603899376839398
1761466580929065700,7.807065673828125,-0.013292320032417773,0.039789574074745176,0.037517537489533424
1761466580939050800,7.81705078125,0.033708208334445953,0.0015624270111322402,0.04392112092152237
1761466580949034800,7.82703466796875,0.06894289558380842,0.015548282265663146,0.019953823748230935
1761466580959019800,7.837019775390625,0.02508183428645134,0.041834231644868845,0.01195508007928729
1761466580969003800,7.847003662109375,0.010680968490242958,0.0391045144200325,0.020128011271357535
1761466580978988800,7.85698876953125,0.06348083078563213,0.0045066637694835664,0.011055500891059637
1761466580988972500,7.86697265625,0.06481266391128301,0.020431962653994558,-0.012709405577927827
1761466580998957800,7.876957763671875,0.00888531724512577,0.03021685908734798,-0.011923662027716636
1761466581008941600,7.886941650390625,-0.0337760128736496,0.020120997008681297,0.021692045717686414
1761466581018926800,7.8969267578125,0.02438508419394493,0.012342764222621917,0.018742109870910642
1761466581028910800,7.906910888671875,0.03143208009600639,0.05305880549252033,-0.009070172292739152
1761466581038895900,7.916895751953125,-0.028429975670576094,0.060228550991415976,-0.017518997816741464
1761466581048879900,7.9268798828125,-0.03406885834038258,0.05659399388134479,-0.004551525824517012
1761466581058863900,7.93686376953125,0.024793080472946167,0.045532501640915865,-0.0018985270977020263
1761466581068849000,7.946848876953125,0.0460585713416338,0.04960369660258293,-0.0006368365988135337
1761466581078833000,7.9568330078125,0.0497270307213068,0.049367549759149545,0.004412409614771604
1761466581088818000,7.96681787109375,0.013371522748470305,0.05601823982000351,0.022633272090554237
1761466581098802000,7.976802001953125,-0.020008184283971785,0.05132336000204086,0.026048195100575683
1761466581108787000,7.986786865234375,-0.038926527504622936,0.027764789760112762,-0.008506693191081285
1761466581118771000,7.99677099609375,-0.0022445640563964844,-0.0008574936121702193,-0.052776773680746555
1761466581128755700,8.006755615234376,0.01714315024167299,0.027020693394541738,-0.06565159895345568
1761466581138736600,8.016736572265625,0.01859101096242666,0.052146951344609255,-0.0752669840388
1761466581148720600,8.026720703125,0.010351298144459724,0.05611702401936054,-0.06192439512386918
1761466581158705700,8.03670556640625,0.028585750754177568,0.04795709843933582,-0.0037657822743058203
1761466581168689700,8.046689697265625,0.04245119449943304,0.03880290112495422,0.045454760229587554
1761466581178674700,8.0566748046875,0.04495908566713333,0.00845218652486801,0.048968613569438456
1761466581188658700,8.06665869140625,0.06803717891573906,-0.0037245734810829162,0.0176819332934916
1761466581198643700,8.076643798828124,0.05475041184127331,-0.014176993912458418,0.00016848843470215795
1761466581208627700,8.086627685546874,0.0027680034086108207,0.015651742640137672,0.007951689656823873
1761466581218612700,8.09661279296875,-0.027921441626548766,0.04272036682963371,0.00031169629767537115
1761466581228596700,8.1065966796875,-0.028517946214973926,0.061167293146252626,0.006381517730653286
1761466581238581800,8.116581787109375,-0.00920037454366684,0.06336158832013607,0.0036642215959727764
1761466581248565800,8.126565673828125,0.010252513945102692,0.0490951625585556,-0.0023540157802402974
1761466581258550800,8.13655078125,0.021124036571383474,0.016903788527846336,-0.005928951657563447
1761466581268534800,8.14653466796875,0.04312427145540714,-0.016794482934474945,-0.013398410755395888
1761466581278518500,8.1565185546875,0.05238982018977403,-0.0040630116552114485,-0.017721242390573023
1761466581288503300,8.16650341796875,0.023141806134581566,0.020870938593149185,-0.012178951963037251
1761466581298487600,8.176487548828124,0.03437573233246803,0.03939151466786861,0.006107815355807542
1761466581308472600,8.18647265625,0.04616846145689487,0.051342064702510834,0.01466273160278797
1761466581318456300,8.196456298828124,0.038872459229826926,0.029827567508816717,0.022401509161293506
1761466581328441600,8.206441650390625,0.03251139976531267,0.01700724890232086,0.021012831281870602
1761466581338425600,8.216425537109375,0.024050737673044203,0.023620529562234878,0.00563625232130289
1761466581348410600,8.22641064453125,0.0449035560876131,0.03155716778039932,-0.02617474408969283
1761466581358394600,8.23639453125,0.04254442574083805,0.049694297495484346,-0.0502921172581613
1761466581368379600,8.246379638671876,0.023486089527606963,0.06428221029639243,-0.030329671812057493
1761466581378363600,8.25636376953125,0.020873568941652775,0.05134615635573864,-0.02021276694536209
1761466581388348700,8.2663486328125,0.04338642952293157,0.04778641804754734,-0.009972089568525553
1761466581398332700,8.276332763671874,0.024928981812298297,0.046241526693105696,-0.010087240380793809
1761466581408316700,8.286316650390624,0.01896890436410904,0.028012042519450185,0.006649228756129741
1761466581418301700,8.2963017578125,0.02907324201017618,0.02218202119171619,-0.0022311200529336927
1761466581428285700,8.30628564453125,0.032926994828879834,0.044967853495478625,-0.001858195087313652
1761466581438270500,8.3162705078125,0.011954057165980338,0.061119946873188016,-0.00016264321580529211
1761466581448254500,8.32625439453125,0.015367665001749992,0.04732464575469494,0.010099953731894493
1761466581458239500,8.336239501953125,0.053071664974093435,0.03423544707894325,0.0059682607546448704
1761466581468223500,8.346223388671875,0.06077566348016262,0.022440379866957662,0.0077037062451243395
1761466581478208500,8.35620849609375,0.047374330115318296,0.007504092019796371,-0.009995470444113015
1761466581488192500,8.366192626953126,0.03147708828151226,0.03383504958450794,-0.015040186613053083
1761466581498177500,8.376177490234374,0.016712065348029135,0.03213409088551998,0.00027326398342847823
1761466581508161500,8.38616162109375,0.015663725338876246,0.013693594309687614,0.013275807289034127
1761466581518146600,8.396146484375,0.01879062518775463,0.01101765309870243,0.007408230429887771
1761466581528130600,8.406130615234375,0.03196633310317993,0.020030396115779874,0.012183482007682322
1761466581538114600,8.416114501953125,0.03478402087241411,0.03864566473662853,0.007714519900083541
1761466581548099600,8.426099609375,0.035405075380206104,0.030980244675278663,0.006780161659419536
1761466581558083600,8.43608349609375,0.02364215687215328,0.03365034066736698,-0.0009977788656949996
1761466581568068600,8.446068603515625,0.0317716873139143,0.033445758005976677,-0.0016845920860767364
1761466581578052600,8.456052490234375,0.04654898520708084,0.0041822541207075115,-0.0017258008792996405
1761466581588037400,8.466037353515626,0.03593523673415184,0.016962240716814993,0.009546996024250983
1761466581598021600,8.476021728515626,0.03463730587810278,0.010316226831078528,0.027643209207057953
1761466581608006400,8.48600634765625,0.03456599420756101,0.019274609312415123,0.031312545369565487
1761466581617990400,8.495990478515624,0.0330523747742176,0.02723112127482891,-0.007019084981828927
1761466581627975400,8.505975341796875,0.023846447272598742,0.04984744223058223,-0.045880146034806966
1761466581637959400,8.51595947265625,0.02251198379844427,0.05100830270349979,-0.03580547287464142
1761466581647944400,8.5259443359375,0.03210807966142892,0.02823065370619297,-0.01354147248789668
1761466581657928400,8.535928466796875,0.038998423697054384,0.022646716094017028,-0.0018644786976277827
1761466581667912400,8.545912353515625,0.035733576682209965,0.02363572713136673,0.0017918518528342246
1761466581677897500,8.5558974609375,0.023519991797208786,0.03678396251797676,-0.0022315584443509577
1761466581687881500,8.565881591796876,-0.01867372080981731,0.024285130950808524,-0.005094985051453113
1761466581697866500,8.575866455078126,-0.05958733047842979,0.02531272043287754,-0.0023592764772474763
1761466581707850500,8.5858505859375,-0.028786241762340067,0.036759997120499606,-0.012275105813890694
1761466581717835500,8.59583544921875,0.022714520633220672,0.04340834909379482,-0.03182151780501008
1761466581727819500,8.605819580078125,0.020769816306233403,0.07320318337678909,-0.03742109137773514
1761466581737804300,8.61580419921875,-0.0035807810962200162,0.07013444345593452,-0.009674129535257816
1761466581747788500,8.62578857421875,0.012100187638401984,0.05577858584523201,0.01391878136768937
1761466581757773600,8.635773681640625,0.03199965085089206,0.06670096187591552,0.025326456697285175
1761466581767757300,8.64575732421875,0.02317775423079729,0.07069441542625426,0.04662731114029884
1761466581777742600,8.65574267578125,0.0010135609567165373,0.05036357505917549,0.06204144563227892
1761466581787726300,8.665726318359376,-0.018555062866210937,0.04597264662384987,0.027374329137802123
1761466581797711600,8.675711669921874,-0.0073678984194993965,0.04144610911011696,-0.030085926184058188
1761466581807695600,8.685695556640624,0.006209960556030273,0.02832593077421188,-0.05632306798547506
1761466581817679400,8.695679443359374,0.007510521760582923,0.016787468671798707,-0.048571869336813685
1761466581827664600,8.70566455078125,0.00936111806333065,-0.006102408528327941,-0.026452830378711222
1761466581837648600,8.715648681640625,0.025689737051725385,-0.006852934634685516,-0.010546090064197778
1761466581847633700,8.725633544921875,0.04395721514821052,0.001356090784072876,0.0035939328387379643
1761466581857617700,8.73561767578125,0.043348727861046786,0.010432546687126159,0.020894173338264224
1761466581867602700,8.745602783203125,0.03523673307597637,0.047046413335204124,0.02319105210378766
1761466581877586700,8.755586669921875,0.10092062686383724,0.08207330305278301,-0.021158523362874982
1761466581887571500,8.765571533203126,-0.082278470236063,-0.017877017474174497,-0.061533349979668854
1761466581897555700,8.7755556640625,-0.07038344978094101,0.027644378250837324,-0.06486760896891355
1761466581907540500,8.78554052734375,0.025094986028969285,0.06161386786997318,0.007540040116012096
1761466581917524500,8.7955244140625,0.013082768934965133,0.0305734174400568,0.05041442846357822
1761466581927508500,8.805508544921874,-0.005822422543168068,0.04384206433594227,-0.0007543254986405372
1761466581937493500,8.815493408203125,-0.01652443382143974,0.047326399320364,-0.049680999622493976
1761466581947477500,8.8254775390625,-0.029732582701742647,0.05841185695827007,-0.012850567614287137
1761466581957462500,8.835462646484375,-0.0011848258703947066,0.0349392114341259,0.020161913540959357
1761466581967446500,8.845446533203125,0.019916998869180677,0.013752046498656273,0.00525543631017208
1761466581977431600,8.855431640625,0.04125029427707195,0.017303016978502273,0.0003495440900325775
1761466581987415600,8.86541552734375,0.05721855552047491,0.037519291055202485,0.008433920215815306
