time,seconds_elapsed,z,y,x
1761466563057064000,0.11806396484375,-0.004446936305612326,-0.003722038120031357,-0.010542857460677624
1761466563067048000,0.1280478515625,-0.004393406677991152,-0.0021654204465448856,-0.01956617832183838
1761466563077032700,0.13803271484375,-0.004807734861969948,0.010040104389190674,-0.017198894172906876
1761466563087016700,0.1480166015625,-0.002798912115395069,0.011685139499604702,-0.011157247237861156
1761466563097001700,0.158001708984375,-0.0005416511557996273,0.00394044304266572,-0.00950582604855299
1761466563106985700,0.16798583984375,0.0013957987539470196,-0.0035917754285037518,-0.011285616084933281
1761466563116970800,0.177970703125,0.0016117380000650883,0.001541720936074853,-0.01271733082830906
1761466563126954800,0.187954833984375,-0.001205087173730135,-0.0026261259336024523,-0.014832945540547371
1761466563136938800,0.197938720703125,-0.0032801618799567223,-0.013324851170182228,-0.01747187227010727
1761466563146923800,0.207923828125,-0.00004681851714849472,-0.023889077827334404,-0.016485702246427536
1761466563156908800,0.21790869140625,0.00021330267190933228,-0.008825486525893211,-0.006466883234679699
1761466563166892800,0.227892822265625,-0.0042938305996358395,0.0197084192186594,0.005381520837545395
1761466563176877800,0.2378779296875,-0.009168833494186401,0.022456377744674683,0.009614338167011738
1761466563186861800,0.24786181640625,-0.00736933434382081,0.004436097107827663,0.0012898296117782593
1761466563196845800,0.257845703125,-0.006224303971976042,-0.008065087720751762,-0.003558454569429159
1761466563206830800,0.267830810546875,-0.006633365992456675,-0.0031899043824523687,-0.001820209319703281
1761466563216814800,0.27781494140625,-0.005912482738494873,-0.0029746771324425936,-0.0018604234792292118
1761466563226799600,0.287799560546875,-0.004902346059679985,-0.006906035356223583,-0.00008169817738234997
1761466563236783600,0.29778369140625,-0.0038933944888412952,0.005293790251016617,0.006864636205136776
1761466563246768600,0.3077685546875,-0.008921176195144653,0.015172254294157028,0.00676796305924654
1761466563256751900,0.317751953125,-0.010290959849953651,0.007327928673475981,0.0035940043162554502
1761466563266736600,0.327736572265625,-0.012762106955051422,-0.009647859260439873,-0.010740992613136768
1761466563276720600,0.337720703125,-0.02071092277765274,-0.018730806186795235,-0.015833759680390358
1761466563286705700,0.34770556640625,-0.02328912913799286,-0.019873570650815964,-0.012914136983454227
1761466563296689700,0.357689697265625,-0.017367683351039886,-0.014801260083913803,-0.009896778501570225
1761466563306675000,0.367675048828125,-0.014509843662381172,-0.014497660100460052,-0.0054972367361187935
1761466563316658700,0.37765869140625,-0.018503408879041672,-0.006582018919289112,-0.0028977186884731054
1761466563326644000,0.38764404296875,-0.01729033887386322,-0.005597714800387621,-0.006484197452664375
1761466563336628000,0.3976279296875,-0.016871821135282516,-0.012148996815085411,-0.009720477275550365
1761466563346613000,0.407613037109375,-0.015345561318099499,-0.011768696829676628,-0.013074728660285473
1761466563356597000,0.417596923828125,-0.022416703402996063,-0.01848423108458519,-0.016768258064985275
1761466563366582000,0.42758203125,-0.01847921684384346,-0.021515440195798874,-0.015869706869125366
1761466563376566000,0.43756591796875,-0.017383214086294174,-0.0288153737783432,-0.016897428780794144
1761466563386550800,0.44755078125,-0.01897924765944481,-0.025006519630551338,-0.015758927911520004
1761466563396535000,0.45753515625,-0.02513391710817814,-0.01774088852107525,-0.010328475385904312
1761466563406519800,0.467519775390625,-0.02388196438550949,-0.021332161501049995,-0.0046902974136173725
1761466563416503800,0.47750390625,-0.02505791187286377,-0.02603849582374096,-0.004737169481813908
1761466563426488800,0.48748876953125,-0.02446562610566616,-0.02092309482395649,-0.0014130119234323502
1761466563436472800,0.497472900390625,-0.02393355220556259,-0.019344406202435493,0.000996885821223259
1761466563446457900,0.507457763671875,-0.021913278847932816,-0.024028906598687172,-0.0030892021022737026
1761466563456441900,0.51744189453125,-0.020423918962478638,-0.02844417840242386,-0.008598746731877327
1761466563466427000,0.527427001953125,-0.020035896450281143,-0.029852725565433502,-0.011849934235215187
1761466563476411000,0.537410888671875,-0.02325393073260784,-0.02270769327878952,-0.01585426926612854
1761466563486396000,0.54739599609375,-0.02294340543448925,-0.02590321935713291,-0.01753019541501999
1761466563496380000,0.5573798828125,-0.023726770654320717,-0.02653043158352375,-0.018804512917995453
1761466563506365000,0.567364990234375,-0.019818317145109177,-0.024106156080961227,-0.02108338102698326
1761466563516349000,0.577348876953125,-0.01697397232055664,-0.017059139907360077,-0.01212344504892826
1761466563526333700,0.587333740234375,-0.012388543225824833,-0.020555339753627777,-0.008600082248449326
1761466563536318000,0.59731787109375,-0.014885772950947285,-0.017934009432792664,-0.002622347790747881
1761466563546302700,0.607302734375,-0.017563581466674805,-0.008337841369211674,0.0060425130650401115
1761466563556286700,0.61728662109375,-0.023219706490635872,-0.006127688102424145,0.0010424288921058178
1761466563566271700,0.627271728515625,-0.021536855027079582,-0.011957347393035889,-0.01438925787806511
1761466563576255700,0.637255859375,-0.014389488846063614,-0.01722564548254013,-0.027059240266680717
1761466563586240800,0.64724072265625,-0.01641082763671875,-0.019678683951497078,-0.030903512611985207
1761466563596224800,0.657224853515625,-0.012114563956856728,-0.01257516723126173,-0.02229485660791397
1761466563606209800,0.667209716796875,-0.007925411686301231,-0.0037398640997707844,-0.01073886826634407
1761466563616193800,0.67719384765625,-0.01141246035695076,0.004095105454325676,-0.003162699518725276
1761466563626178800,0.6871787109375,-0.016419734805822372,-0.002344684209674597,-0.0023230048827826977
1761466563636162800,0.697162841796875,-0.015739960595965385,-0.007811924442648888,-0.010286113247275352
1761466563646147800,0.70714794921875,-0.01396975852549076,-0.000700484961271286,-0.01761779561638832
1761466563656131800,0.7171318359375,-0.011380193755030632,-0.001878086244687438,-0.022432802245020866
1761466563666116900,0.727116943359375,-0.0053049903362989426,0.001141405664384365,-0.0206570066511631
1761466563676100600,0.7371005859375,0.003219571430236101,0.007065813522785902,-0.014509082771837711
1761466563686086000,0.7470859375,0.010499056428670883,0.0018561375327408314,-0.01161609124392271
1761466563696070000,0.75706982421875,0.014917483553290367,-0.00031584245152771473,-0.010232600383460522
1761466563706055000,0.767054931640625,0.010201558470726013,0.006696260999888182,-0.006141452584415674
1761466563716039000,0.777038818359375,0.010485906153917313,0.013118237257003784,-0.00526420958340168
1761466563726024000,0.78702392578125,0.007801440078765154,0.00578069593757391,-0.01110398955643177
1761466563736008000,0.797008056640625,0.005240345373749733,0.002616776619106531,-0.017253216356039047
1761466563745993000,0.806992919921875,0.0025012840051203966,0.0032791048288345337,-0.011949264444410801
1761466563755977000,0.81697705078125,0.003441569395363331,0.002124653197824955,-0.003301187651231885
1761466563765962000,0.8269619140625,0.00396408187225461,0.007581470068544149,0.007730424404144287
1761466563775946000,0.836946044921875,0.008999054320156574,0.014251090586185455,0.01575665920972824
1761466563785930800,0.8469306640625,0.006933772470802069,0.02601853385567665,0.020242221653461456
1761466563795915000,0.8569150390625,0.01026245765388012,0.02175241708755493,0.020103737711906433
1761466563805899800,0.866899658203125,0.01490035280585289,0.019066086038947105,0.010568555444478989
1761466563815883800,0.8768837890625,0.014418174512684345,0.010350076481699944,0.005121062509715557
1761466563825868800,0.886868896484375,0.015971597284078598,0.01041399221867323,0.0006520117167383432
1761466563835852800,0.896852783203125,0.014110922813415527,0.01831210032105446,0.00524543970823288
1761466563845837800,0.906837890625,0.014294413849711418,0.015835359692573547,0.005052626132965088
1761466563855821800,0.91682177734375,0.01612672209739685,0.011752001941204071,-0.0000936796423047781
1761466563865806800,0.926806884765625,0.012646502815186977,0.008928251452744007,-0.0030106399208307266
1761466563875790800,0.936790771484375,0.01386373769491911,0.009672793559730053,-0.00560374278575182
1761466563885776000,0.94677587890625,0.008824770338833332,0.0030764101538807154,-0.006490042898803949
1761466563895760000,0.956759765625,0.00842547882348299,0.0016565159894526005,-0.002103569684550166
1761466563905745000,0.966744873046875,0.006825718097388744,0.00712851295247674,0.0069003114476799965
1761466563915729000,0.97672900390625,0.009503750130534172,0.007397745735943317,0.01189160905778408
1761466563925713000,0.986712890625,0.011722961440682411,0.012354421429336071,0.016849081963300705
1761466563935698000,0.996697998046875,0.008804753422737122,0.015109891071915627,0.012183248065412045
1761466563945682000,1.006681884765625,0.012529183179140091,0.008011234924197197,0.003226770553737879
1761466563955666700,1.016666748046875,0.012098491191864014,0.005771525204181671,-0.0018476193072274327
1761466563965650700,1.026650634765625,0.0112334955483675,0.006106550805270672,-0.0019581406377255917
1761466563975635700,1.0366357421875,0.011285996995866299,0.01030644215643406,0.005381247028708458
1761466563985619700,1.04661962890625,0.00882923137396574,0.01199754886329174,0.00894642062485218
1761466563995604700,1.056604736328125,0.009529022499918938,0.00977138802409172,0.013940118253231049
1761466564005588700,1.066588623046875,0.008604373782873154,0.0028735343366861343,0.010695056058466434
1761466564015573800,1.07657373046875,0.006007764954119921,-0.0017127282917499542,0.00963539071381092
1761466564025557800,1.086557861328125,0.011008381843566895,-0.00442542415112257,0.01612524688243866
1761466564035542800,1.096542724609375,0.005165536887943745,-0.003282891120761633,0.01766188256442547
1761466564045526800,1.10652685546875,0.005844110623002052,-0.0008767249528318644,0.022145846858620644
1761466564055512000,1.116511962890625,0.004023101180791855,0.003475670702755451,0.028015457093715668
1761466564065495800,1.126495849609375,0.002574075013399124,0.0038881944492459297,0.025097165256738663
1761466564075480800,1.136480712890625,-0.0022217892110347748,-0.0012727577704936266,0.019528497010469437
1761466564085464800,1.14646484375,-0.00342447217553854,-0.014450877904891968,0.012433037161827087
1761466564095449900,1.156449951171875,-0.0009111212566494942,-0.013137227855622768,0.00930518377572298
1761466564105433900,1.166433837890625,-0.0034504453651607037,-0.011094050481915474,0.0071072764694690704
1761466564115419000,1.1764189453125,-0.0023260987363755703,-0.013107821345329285,0.013198425993323326
1761466564125403000,1.18640283203125,-0.010656200349330902,-0.013246571645140648,0.01754843257367611
1761466564135388000,1.196387939453125,-0.016386060044169426,-0.013605876825749874,0.017781201750040054
1761466564145372000,1.206371826171875,-0.014322910457849503,-0.01752498559653759,0.012693764641880989
1761466564155357000,1.21635693359375,-0.009382616728544235,-0.01959821954369545,0.0022525687236338854
1761466564165341000,1.2263408203125,-0.006525577045977116,-0.020004883408546448,-0.0024260729551315308
1761466564175326000,1.236325927734375,-0.005719361361116171,-0.019559364765882492,-0.0002902117557823658
1761466564185310000,1.24631005859375,-0.005438398104161024,-0.02021397091448307,0.0041487449780106544
1761466564195295000,1.256294921875,-0.0015587382949888706,-0.017361151054501534,0.0136993657797575
1761466564205279000,1.266279052734375,-0.0011954833753407001,-0.00780120212584734,0.027527030557394028
1761466564215263700,1.276263671875,-0.006642489694058895,-0.004189701750874519,0.03693971037864685
1761466564225247700,1.286247802734375,-0.01185083482414484,-0.007330367341637611,0.03728805109858513
1761466564235232800,1.296232666015625,-0.012284336611628532,-0.012180257588624954,0.03357134386897087
1761466564245216800,1.306216796875,-0.01293175108730793,-0.01318426989018917,0.029030920937657356
1761466564255202300,1.316202392578125,-0.012789271771907806,-0.01282474398612976,0.028772061690688133
1761466564265186300,1.326186279296875,-0.008379609324038029,-0.011487036943435669,0.026376282796263695
1761466564275171300,1.33617138671875,-0.003245334606617689,-0.01274933386594057,0.023756522685289383
1761466564285155300,1.3461552734375,0.00012143328785896301,-0.017785372212529182,0.016860533505678177
1761466564295140400,1.356140380859375,0.007760967593640089,-0.028449788689613342,0.011241007596254349
1761466564305124400,1.366124267578125,0.005201669875532389,-0.03633327782154083,0.0017841223161667585
1761466564315109400,1.376109375,0.00552270095795393,-0.039810582995414734,-0.004914522636681795
1761466564325093400,1.38609326171875,0.006621787324547768,-0.04471931979060173,-0.004777103662490845
1761466564335078100,1.396078125,0.003532796399667859,-0.04324813932180405,0.0026341970078647137
1761466564345062100,1.406062255859375,0.0011258311569690704,-0.03283597528934479,0.010451373644173145
1761466564355047200,1.416047119140625,-0.0016150511801242828,-0.023393725976347923,0.025566410273313522
1761466564365031200,1.42603125,-0.004271287936717272,-0.011852651834487915,0.037426531314849854
1761466564375016200,1.43601611328125,-0.005692796781659126,-0.003911878913640976,0.04429375380277634
1761466564385000200,1.446000244140625,0.00033872993662953377,-0.006024031899869442,0.040919531136751175
1761466564394984200,1.455984130859375,0.0010129301808774471,-0.007761271204799414,0.035637155175209045
1761466564404969200,1.46596923828125,0.0042907483875751495,-0.01040445826947689,0.02772011235356331
1761466564414953200,1.475953125,0.007044843398034573,-0.003952967468649149,0.026793068274855614
1761466564424938200,1.485938232421875,0.0030535641126334667,-0.00042853993363678455,0.02862612158060074
1761466564434922200,1.495922119140625,-0.000013666227459907532,-0.0059236218221485615,0.027131814509630203
1761466564444907300,1.5059072265625,-0.0019303429871797562,-0.008025920949876308,0.023877695202827454
1761466564454891300,1.515891357421875,0.00300102261826396,-0.010871564969420433,0.025150958448648453
1761466564464876300,1.525876220703125,0.0026518821250647306,-0.010593264363706112,0.02730518952012062
1761466564474860300,1.5358603515625,0.00509363180026412,-0.005295441951602697,0.03031216375529766
1761466564484845300,1.54584521484375,0.007700599730014801,-0.00421553011983633,0.028235431760549545
1761466564494829300,1.555829345703125,0.004535776097327471,-0.0019324312452226877,0.02840028703212738
1761466564504814300,1.565814453125,0.005640455521643162,-0.0006948602385818958,0.022769298404455185
1761466564514798300,1.57579833984375,0.0009879390709102154,0.0017424977850168943,0.017024321481585503
1761466564524783400,1.585783447265625,-0.0008608270436525345,0.005605679005384445,0.01628023572266102
1761466564534767400,1.595767333984375,0.002132325666025281,0.004698640666902065,0.01490071415901184
1761466564544752400,1.60575244140625,0.00010033370926976204,0.004166007973253727,0.018644319847226143
1761466564554736400,1.615736328125,0.002354320837184787,0.004017611965537071,0.02111281082034111
1761466564564721400,1.625721435546875,0.0028882846236228943,0.001997870160266757,0.026964575052261353
1761466564574705400,1.635705322265625,0.003929270897060633,-0.0004676966927945614,0.026041259989142418
1761466564584690400,1.6456904296875,0.0016370881348848343,-0.0022357692942023277,0.026868971064686775
1761466564594674400,1.65567431640625,0.007007781881839037,-0.004303185269236565,0.024640172719955444
1761466564604659200,1.6656591796875,0.004936108831316233,-0.003062684554606676,0.021234523504972458
1761466564614643500,1.6756435546875,0.0018707509152591228,-0.0037609576247632504,0.02352270856499672
1761466564624628200,1.685628173828125,0.007998950779438019,-0.0018874238012358546,0.027121704071760178
1761466564634612200,1.6956123046875,0.007468964904546738,-0.005213957279920578,0.028006400913000107
1761466564644597200,1.70559716796875,0.007760315202176571,-0.012594375759363174,0.026920098811388016
1761466564654581200,1.715581298828125,0.0010692859068512917,-0.019475987181067467,0.024691300466656685
1761466564664566300,1.725566162109375,0.0017257551662623882,-0.02395462617278099,0.022815102711319923
1761466564674550300,1.73555029296875,-0.0018881279975175858,-0.018170738592743874,0.024877449497580528
1761466564684535300,1.745535400390625,-0.0029339510947465897,-0.010134916752576828,0.028658073395490646
1761466564694519300,1.755519287109375,-0.00262035196647048,-0.008645660243928432,0.035015836358070374
1761466564704504300,1.76550439453125,-0.007160774897783995,-0.007589717395603657,0.03596525639295578
1761466564714488300,1.77548828125,-0.010378217324614525,-0.015696881338953972,0.030559834092855453
1761466564724473300,1.785473388671875,-0.00844742450863123,-0.02177155204117298,0.016430966556072235
1761466564734457300,1.795457275390625,-0.005030795466154814,-0.0202823206782341,0.007953325286507607
1761466564744442000,1.805442138671875,-0.003129298333078623,-0.021040787920355797,0.004964991472661495
1761466564754426400,1.81542626953125,-0.001590627245604992,-0.024041909724473953,0.005526119843125343
1761466564764411100,1.8254111328125,-0.003272946458309889,-0.021346790716052055,0.007876892574131489
1761466564774395100,1.83539501953125,-0.0038227513432502747,-0.01094372384250164,0.010896919295191765
1761466564784380200,1.845380126953125,-0.010255883447825909,-0.009863545186817646,0.012116380967199802
1761466564794364200,1.8553642578125,-0.014264145866036415,-0.010909643955528736,0.02013835683465004
1761466564804349200,1.86534912109375,-0.012201262637972832,-0.010304572992026806,0.013627193868160248
1761466564814333200,1.875333251953125,-0.010099349543452263,-0.014952571131289005,0.006750909611582756
1761466564824318500,1.885318359375,-0.008245524019002914,-0.0169957485049963,0.00023095868527889252
1761466564834302200,1.89530224609375,-0.002972112037241459,-0.015395695343613625,-0.0006580059416592121
1761466564844287500,1.90528759765625,-0.002268237993121147,-0.003555015195161104,-0.00488950265571475
1761466564854271500,1.915271484375,0.0010524475947022438,-0.00304294447414577,-0.00892445258796215
1761466564864256300,1.92525634765625,-0.0015614447183907032,-0.01146945171058178,-0.013685384765267372
1761466564874240500,1.935240478515625,-0.000817357562482357,-0.013224741443991661,-0.012338890694081783
1761466564884225300,1.945225341796875,-0.0012112390249967575,-0.005904244724661112,-0.010019011795520782
1761466564894209300,1.955209228515625,-0.0028368327766656876,-0.007947422564029694,-0.0077675748616456985
1761466564904194300,1.9651943359375,-0.000847185030579567,-0.007374842185527086,0.0022467097733169794
1761466564914178300,1.97517822265625,0.0018927017226815224,0.008483783341944218,0.007868105545639992
1761466564924163300,1.985163330078125,-0.00262002507224679,0.013058028183877468,0.00451997946947813
1761466564934147300,1.995147216796875,0.0001833816058933735,0.00740386638790369,-0.0029318113811314106
1761466564944132400,2.00513232421875,-0.0003899969160556793,0.010338137857615948,-0.0025824045296758413
1761466564954116400,2.015116455078125,-0.0008518490940332413,0.010918981395661831,-0.007105251774191856
1761466564964101400,2.025101318359375,0.008401304483413696,0.005849921144545078,-0.005554493051022291
1761466564974085400,2.03508544921875,0.0017708581872284412,0.00635196128860116,-0.007165973074734211
1761466564984070400,2.0450703125,0.004193269181996584,0.008091272786259651,-0.00839582085609436
1761466564994054400,2.055054443359375,0.0026753442361950874,0.010607396252453327,-0.012842766009271145
1761466565004039200,2.0650390625,0.0014196638949215412,0.008441447280347347,-0.01104007288813591
1761466565014023400,2.0750234375,0.00036764610558748245,0.007692785933613777,-0.012839298695325851
1761466565024008200,2.08500830078125,-0.001925868447870016,0.004185669589787722,-0.015009241178631783
1761466565033992200,2.0949921875,0.002402636455371976,0.001989406766369939,-0.017850041389465332
1761466565043977200,2.104977294921875,0.0030385993886739016,0.0031627954449504614,-0.023765988647937775
1761466565053961200,2.114961181640625,0.004825124982744455,-0.0007217209786176682,-0.02546215057373047
1761466565063945200,2.1249453125,0.004096484277397394,0.002828006399795413,-0.02944304421544075
1761466565073930200,2.13493017578125,0.006173466797918081,-0.00042076222598552704,-0.028997499495744705
1761466565083914200,2.144914306640625,0.0031148262787610292,-0.00011902605183422565,-0.030252113938331604
1761466565093899300,2.154899169921875,-0.0008078897371888161,-0.006479737348854542,-0.029879536479711533
1761466565103883300,2.16488330078125,-0.0007138801738619804,-0.00845473725348711,-0.02769281715154648
1761466565113868300,2.174868408203125,-0.0037480462342500687,-0.0067612663842737675,-0.01975233107805252
1761466565123852300,2.184852294921875,-0.0037933196872472763,-0.004273075144737959,-0.01625586487352848
1761466565133837300,2.19483740234375,-0.0014474010095000267,-0.008924011141061783,-0.015934688970446587
1761466565143821300,2.2048212890625,-0.0017241034656763077,-0.00818125531077385,-0.011369765736162663
1761466565153806300,2.214806396484375,-0.0033739320933818817,-0.007964208722114563,-0.011921039782464504
1761466565163790300,2.224790283203125,-0.0012817522510886192,-0.012142442166805267,-0.011981493793427944
1761466565173775000,2.234775146484375,-0.0015882393345236778,-0.010281944647431374,-0.016489962115883827
1761466565183759000,2.244759033203125,0.0008757170289754868,-0.00842785183340311,-0.02096354030072689
1761466565193744100,2.254744140625,0.003674012841656804,-0.00849197432398796,-0.023159854114055634
1761466565203728100,2.26472802734375,0.010226720944046974,-0.006631489843130112,-0.021539587527513504
1761466565213713400,2.27471337890625,0.004803553223609924,0.003688207594677806,-0.021404825150966644
1761466565223697200,2.284697265625,0.007066707592457533,-0.00019361614249646664,-0.019650867208838463
1761466565233682400,2.294682373046875,0.0031201259698718786,0.001110787969082594,-0.02022424526512623
1761466565243666400,2.30466650390625,0.005729224998503923,0.0070411148481070995,-0.019139006733894348
1761466565253651500,2.3146513671875,0.0034466127399355173,0.004372648894786835,-0.020434372127056122
1761466565263635500,2.324635498046875,0.0009741340763866901,0.0014327848330140114,-0.018124345690011978
1761466565273620500,2.334620361328125,0.0016541765071451664,0.007750964257866144,-0.016248149797320366
1761466565283604500,2.3446044921875,-0.0013767671771347523,0.0052976603619754314,-0.023333756253123283
1761466565293589200,2.35458935546875,0.003448709612712264,-0.0022271540947258472,-0.03503701835870743
1761466565303573200,2.3645732421875,0.0036585666239261627,-0.007326042279601097,-0.04450402408838272
1761466565313558300,2.374558349609375,0.0034470853861421347,-0.0016633974155411124,-0.04705719277262688
1761466565323542300,2.384542236328125,0.006406123749911785,0.00547387357801199,-0.039938297122716904
1761466565333527300,2.39452734375,0.005831044167280197,0.012458009645342827,-0.02842332236468792
1761466565343511300,2.40451123046875,0.0005452022887766361,0.01247585378587246,-0.021115342155098915
1761466565353496300,2.414496337890625,-0.0008706375956535339,0.02129943296313286,-0.014546388760209084
1761466565363480300,2.424480224609375,-0.0011284314095973969,0.02323395386338234,-0.01668224297463894
1761466565373465300,2.43446533203125,-0.004980418831110001,0.0200805626809597,-0.017199432477355003
1761466565383449300,2.444449462890625,-0.004607843235135078,0.01724802330136299,-0.02049216628074646
1761466565393434400,2.454434326171875,0.0006609028205275536,0.023174287751317024,-0.0266195610165596
1761466565403418400,2.46441845703125,0.0039099594578146935,0.026958106085658073,-0.029492845758795738
1761466565413403400,2.4744033203125,0.009313702583312988,0.01998331770300865,-0.03608736768364906
1761466565423387400,2.484387451171875,0.011930525302886963,0.00973866879940033,-0.040855225175619125
1761466565433372200,2.4943720703125,0.015151085332036018,0.0091951172798872,-0.04248587787151337
1761466565443356200,2.504356201171875,0.013528687879443169,0.005622486583888531,-0.04172687605023384
1761466565453341200,2.514341064453125,0.010983942076563835,0.005931466352194548,-0.041772421449422836
1761466565463325200,2.5243251953125,0.005053882021456957,-0.003847661428153515,-0.042238473892211914
1761466565473310200,2.534310302734375,0.003208775306120515,-0.0012716338969767094,-0.03746821731328964
1761466565483294200,2.544294189453125,0.0030175603460520506,0.006514650769531727,-0.030936814844608307
1761466565493279500,2.554279541015625,0.0014818618074059486,0.022370595484972,-0.017810627818107605
1761466565503263200,2.56426318359375,0.0021180908661335707,0.03844863176345825,-0.0017826594412326813
1761466565513248500,2.57424853515625,-0.00273270346224308,0.043079543858766556,0.008944826200604439
1761466565523232500,2.584232421875,-0.0021007349714636803,0.04334106668829918,0.010980812832713127
1761466565533217500,2.594217529296875,0.000038471538573503494,0.03515458106994629,0.006219606846570969
1761466565543201500,2.604201416015625,0.005324313882738352,0.025501687079668045,-0.0037081248592585325
1761466565553186300,2.614186279296875,0.010894950479269028,0.022276071831583977,-0.00899556465446949
1761466565563170600,2.624170654296875,0.011395890265703201,0.026309695094823837,-0.011303726583719254
1761466565573155300,2.6341552734375,0.015060357749462128,0.02610728330910206,-0.014227344654500484
1761466565583139300,2.644139404296875,0.010149222798645496,0.020269101485610008,-0.020507343113422394
1761466565593124400,2.654124267578125,0.009835836477577686,0.012332528829574585,-0.024475444108247757
1761466565603108400,2.6641083984375,0.011313091963529587,0.00995619036257267,-0.026828613132238388
1761466565613093400,2.67409326171875,0.013396397233009338,0.01242158468812704,-0.03120259940624237
1761466565623077400,2.684077392578125,0.012879744172096252,0.014987806789577007,-0.030129078775644302
1761466565633062400,2.6940625,0.011102471500635147,0.01644347421824932,-0.030997801572084427
1761466565643046400,2.70404638671875,0.007060857955366373,0.013526512309908867,-0.03173576295375824
1761466565653031400,2.714031494140625,0.007730829995125532,0.010694672353565693,-0.03314003720879555
1761466565663015400,2.724015380859375,0.00567087484523654,0.013733605854213238,-0.026145510375499725
1761466565673000400,2.73400048828125,0.0057829939760267735,0.01259750034660101,-0.018932070583105087
1761466565682984400,2.743984375,0.005561685189604759,0.01422096323221922,-0.013513604179024696
1761466565692969200,2.75396923828125,0.005252149421721697,0.009482565335929394,-0.012389227747917175
1761466565702953200,2.763953125,0.006222338881343603,0.003613491076976061,-0.013105351477861404
1761466565712938200,2.773938232421875,0.010904073715209961,0.00597291300073266,-0.016280367970466614
1761466565722922200,2.783922119140625,0.011938711628317833,0.004230140242725611,-0.016533633694052696
1761466565732907300,2.7939072265625,0.012738648802042007,0.0016106842085719109,-0.020225046202540398
1761466565742891300,2.803891357421875,0.014203652739524841,-0.0005273015704005957,-0.0198799017816782
1761466565752876300,2.813876220703125,0.013955146074295044,-0.001759769394993782,-0.020570728927850723
1761466565762860300,2.8238603515625,0.006168862339109182,-0.0024756272323429585,-0.01995553821325302
1761466565772845300,2.83384521484375,0.002270499477162957,0.00895716156810522,-0.016036421060562134
1761466565782829300,2.843829345703125,-0.00013540033251047134,0.018326696008443832,-0.014352237805724144
1761466565792814300,2.853814453125,-0.004902380518615246,0.01307184249162674,-0.014690461568534374
1761466565802798300,2.86379833984375,-0.004438990727066994,0.013546418398618698,-0.018024208024144173
1761466565812783400,2.873783447265625,-0.0027183559723198414,0.013509443029761314,-0.01790516823530197
1761466565822767400,2.883767333984375,0.00029074959456920624,0.010068106465041637,-0.014016687870025635
1761466565832752000,2.893752197265625,-0.001913952175527811,0.007146124728024006,-0.010729016736149788
1761466565842736000,2.903736083984375,-0.004328373819589615,0.0072273509576916695,-0.00637980829924345
1761466565852721400,2.913721435546875,-0.004886504728347063,0.013953479938209057,-0.0077753011137247086
1761466565862705200,2.923705078125,-0.006277740467339754,0.006773065775632858,-0.015073694288730621
1761466565872690400,2.9336904296875,-0.007764050271362066,-0.0011714103166013956,-0.02540436200797558
1761466565882674400,2.94367431640625,-0.004049206618219614,-0.0035781089682132006,-0.032370924949645996
1761466565892659500,2.953659423828125,-0.004574502352625132,0.0011069427710026503,-0.03292752429842949
1761466565902643500,2.9636435546875,-0.005968933459371328,0.006666025146842003,-0.02878843992948532
1761466565912628500,2.97362841796875,-0.0063822208903729916,0.008906496688723564,-0.019481228664517403
1761466565922612500,2.983612548828125,-0.01198391430079937,0.009706776589155197,-0.01146138459444046
1761466565932597500,2.993597412109375,-0.01676255278289318,0.00833121407777071,-0.0087505541741848
1761466565942581500,3.00358154296875,-0.01592339016497135,0.009167180396616459,-0.009258685633540154
1761466565952566300,3.013566162109375,-0.013913743197917938,0.011089485138654709,-0.007979035377502441
1761466565962550500,3.023550537109375,-0.011243924498558044,0.012308414094150066,-0.009880000725388527
1761466565972535300,3.033535400390625,-0.005324062425643206,0.017755940556526184,-0.007776632905006409
1761466565982519300,3.043519287109375,-0.004673185292631388,0.015101569704711437,-0.009387845173478127
1761466565992504300,3.05350439453125,-0.005594251677393913,-0.00047527789138257504,-0.015868915244936943
1761466566002488300,3.06348828125,-0.0038386955857276917,-0.009610719047486782,-0.02331138588488102
1761466566012473300,3.073473388671875,-0.006133112125098705,-0.013846214860677719,-0.02175982855260372
1761466566022457300,3.083457275390625,-0.012387813068926334,-0.011914092116057873,-0.024865340441465378
1761466566032442400,3.0934423828125,-0.016117896884679794,-0.016586599871516228,-0.025928741320967674
1761466566042426400,3.10342626953125,-0.01651603914797306,-0.024333735927939415,-0.032009802758693695
1761466566052411400,3.113411376953125,-0.0164693221449852,-0.03375820443034172,-0.03496697545051575
1761466566062395400,3.1233955078125,-0.014544390141963959,-0.031674813479185104,-0.03216399997472763
1761466566072380400,3.13338037109375,-0.011594139039516449,-0.025495214387774467,-0.02259712666273117
1761466566082364400,3.143364501953125,-0.012054599821567535,-0.01407904177904129,-0.011749005876481533
1761466566092349200,3.15334912109375,-0.013179974630475044,-0.0029474536422640085,-0.0065896594896912575
1761466566102333200,3.163333251953125,-0.01086515560746193,-0.003195393830537796,-0.0039483364671468735
1761466566112318200,3.173318115234375,-0.013482105918228626,-0.006047414615750313,-0.007447734475135803
1761466566122302200,3.18330224609375,-0.012746806256473064,-0.002507807221263647,-0.010236863046884537
1761466566132287200,3.193287353515625,-0.0126272551715374,0.0011550690978765488,-0.012022780254483223
1761466566142271200,3.203271240234375,-0.014606516808271408,-0.008127911016345024,-0.017875075340270996
1761466566152256300,3.21325634765625,-0.014232850633561611,-0.010600620880723,-0.018774159252643585
1761466566162240300,3.223240234375,-0.011989404447376728,-0.007273800205439329,-0.016317393630743027
1761466566172225300,3.233225341796875,-0.013639910146594048,-0.0058247921988368034,-0.0148910041898489
1761466566182209300,3.243209228515625,-0.013181580230593681,-0.005125446245074272,-0.013039308600127697
1761466566192194300,3.2531943359375,-0.011300435289740562,-0.008076556026935577,-0.011143135838210583
1761466566202178300,3.26317822265625,-0.010423989966511726,-0.004436014220118523,-0.011333019472658634
1761466566212163300,3.273163330078125,-0.009399384260177612,0.0025239160750061274,-0.011605728417634964
1761466566222147300,3.283147216796875,-0.0062981341034173965,0.001285279868170619,-0.013589782640337944
1761466566232132400,3.29313232421875,-0.00506682600826025,0.0005279167089611292,-0.016540566459298134
1761466566242116400,3.303116455078125,-0.008753439411520958,-0.00040205917321145535,-0.018967237323522568
1761466566252101400,3.313101318359375,-0.01035759225487709,0.0028716002125293016,-0.01624840311706066
1761466566262084600,3.323084716796875,-0.012597844004631042,0.006381114013493061,-0.012829969637095928
1761466566272069600,3.333069580078125,-0.01543277595192194,0.00635460764169693,-0.010692264884710312
1761466566282053600,3.3430537109375,-0.01079834345728159,-0.0008985120803117752,-0.010914372280240059
1761466566292039000,3.353038818359375,-0.005729153752326965,-0.001975454855710268,-0.014640134759247303
1761466566302022700,3.363022705078125,-0.0037088794633746147,-0.004144066944718361,-0.0131809888407588
1761466566312008000,3.373008056640625,-0.001433011144399643,-0.005396067164838314,-0.016351215541362762
1761466566321991700,3.38299169921875,0.00026928167790174484,-0.00822567567229271,-0.01927776262164116
1761466566331977000,3.39297705078125,-0.0003514504060149193,-0.01154630072414875,-0.01717226766049862
1761466566341961000,3.4029609375,-0.0034993067383766174,-0.007939314469695091,-0.012076840735971928
1761466566351946000,3.412946044921875,-0.0006966213695704937,-0.0033043851144611835,-0.010716233402490616
1761466566361930000,3.422929931640625,-0.0012694671750068665,-0.0021088921930640936,-0.0034476679284125566
1761466566371914800,3.432914794921875,-0.0029792427085340023,-0.0027222533244639635,-0.0009139354806393385
1761466566381899000,3.44289892578125,-0.004820552188903093,-0.0025414247065782547,-0.00033576320856809616
1761466566391883800,3.4528837890625,0.0011306065134704113,-0.005893148016184568,-0.005191494710743427
1761466566401867800,3.46286767578125,0.0010331347584724426,-0.007386649027466774,-0.0005397514905780554
1761466566411852800,3.472852783203125,0.004292885772883892,-0.01094115525484085,0.0005319076590240002
1761466566421836800,3.4828369140625,-0.001766338013112545,-0.0052382624708116055,0.001016336726024747
1761466566431821800,3.49282177734375,-0.003714549820870161,-0.0044646798633039,-0.0028039792086929083
1761466566441805800,3.502805908203125,-0.006497819442301989,-0.01597699150443077,-0.012143151834607124
1761466566451790800,3.512790771484375,-0.007017306983470917,-0.024548696354031563,-0.02596123144030571
1761466566461774800,3.52277490234375,-0.004084900952875614,-0.024336708709597588,-0.03211286664009094
1761466566471760000,3.532759765625,-0.00353637570515275,-0.024375351145863533,-0.02487839013338089
1761466566481744000,3.542743896484375,-0.0031342380680143833,-0.018068986013531685,-0.012523720040917397
1761466566491729000,3.55272900390625,-0.000639983918517828,-0.010615978389978409,0.004007600247859955
1761466566501713000,3.562712890625,-0.007479247637093067,-0.0007849198300391436,0.008211933076381683
1761466566511697700,3.57269775390625,-0.01355794444680214,-0.007410163059830666,0.014758234843611717
1761466566521681700,3.582681640625,-0.010361352935433388,-0.012569504790008068,0.007628153543919325
1761466566531666700,3.592666748046875,-0.012892447412014008,-0.015812471508979797,0.0020930389873683453
1761466566541650700,3.602650634765625,-0.011655142530798912,-0.014349863864481449,-0.00820833444595337
1761466566551635700,3.6126357421875,-0.005571907386183739,-0.01712699420750141,-0.010794264264404774
1761466566561619700,3.62261962890625,-0.0047697629779577255,-0.020706549286842346,-0.017617549747228622
1761466566571604700,3.632604736328125,-0.0010650395415723324,-0.031004460528492928,-0.02217661589384079
1761466566581588700,3.642588623046875,-0.0016205753199756145,-0.034959789365530014,-0.02241150662302971
1761466566591573800,3.65257373046875,-0.0033607794903218746,-0.027425650507211685,-0.02053930051624775
1761466566601557800,3.662557861328125,-0.0032451986335217953,-0.025976892560720444,-0.022613104432821274
1761466566611542800,3.672542724609375,0.0010912264697253704,-0.015158331952989101,-0.02108924277126789
1761466566621526800,3.68252685546875,0.001896300120279193,-0.007739031687378883,-0.01223263330757618
1761466566631511800,3.69251171875,0.003534496296197176,0.0014478364028036594,-0.0025978460907936096
1761466566641495800,3.702495849609375,-0.0002482575364410877,0.009613887406885624,0.010954979807138443
1761466566651480800,3.712480712890625,0.0025187241844832897,0.013386240229010582,0.01996072381734848
1761466566661464600,3.722464599609375,0.0020358930341899395,0.013512741774320602,0.022335464134812355
1761466566671449900,3.732449951171875,0.0025243086274713278,0.01743391901254654,0.029384847730398178
1761466566681433900,3.742433837890625,0.0048774778842926025,0.010293719358742237,0.030433867126703262
1761466566691419000,3.7524189453125,0.009982791729271412,0.005331408232450485,0.030129732564091682
1761466566701403000,3.76240283203125,0.013513078913092613,0.00439796969294548,0.032988108694553375
1761466566711388000,3.772387939453125,0.019544528797268867,0.008550401777029037,0.028712131083011627
1761466566721372000,3.782371826171875,0.015307705849409103,0.009269986301660538,0.030853580683469772
1761466566731357000,3.79235693359375,0.016493387520313263,0.006863834336400032,0.02728281542658806
1761466566741341000,3.8023408203125,0.010771052911877632,0.00235536927357316,0.027789615094661713
1761466566751326000,3.812325927734375,0.008227699436247349,0.0001207555178552866,0.03326693922281265
1761466566761310000,3.82231005859375,0.008173370733857155,-0.002433482324704528,0.03764943778514862
1761466566771294700,3.832294677734375,0.008710015565156937,-0.008612571284174919,0.042660705745220184
1761466566781279000,3.842279052734375,0.008377653546631336,-0.012595328502357006,0.0415608212351799
1761466566791263700,3.852263671875,0.007180115208029747,-0.010739876888692379,0.03878341242671013
1761466566801247700,3.862247802734375,0.0038911111187189817,-0.014513842761516571,0.03486590087413788
1761466566811232800,3.872232666015625,0.0025321347638964653,-0.01925724372267723,0.0360262356698513
1761466566821216800,3.882216796875,0.0008309073746204376,-0.024459728971123695,0.03505738079547882
1761466566831201800,3.892201904296875,-0.002913024742156267,-0.026948709040880203,0.03701586648821831
1761466566841185800,3.902185791015625,-0.004348202142864466,-0.029735974967479706,0.03702625259757042
1761466566851170800,3.9121708984375,-0.007560087367892265,-0.03354741260409355,0.04345273971557617
1761466566861154800,3.92215478515625,-0.007805630564689636,-0.03590644150972366,0.05004432797431946
1761466566871139800,3.932139892578125,-0.006259080022573471,-0.03815102204680443,0.05340416729450226
1761466566881123800,3.942123779296875,-0.007197843864560127,-0.036862317472696304,0.05293305218219757
1761466566891108900,3.95210888671875,-0.01351195015013218,-0.040061816573143005,0.05070771649479866
1761466566901092900,3.9620927734375,-0.014727151021361351,-0.044401705265045166,0.05052821710705757
1761466566911077600,3.97207763671875,-0.018018653616309166,-0.0455644428730011,0.04751564934849739
1761466566921062700,3.982062744140625,-0.016558175906538963,-0.04135318845510483,0.04580829665064812
1761466566931046700,3.992046630859375,-0.023101750761270523,-0.0380365215241909,0.04081593081355095
1761466566941030700,4.00203076171875,-0.02880517765879631,-0.04067198559641838,0.03483074530959129
1761466566951015700,4.012015625,-0.030471596866846085,-0.044891197234392166,0.030149709433317184
1761466566961000700,4.022000732421875,-0.029559463262557983,-0.049635883420705795,0.022278737276792526
1761466566970984700,4.031984619140625,-0.029920922592282295,-0.04614293575286865,0.01941290870308876
1761466566980970000,4.041969970703125,-0.028789611533284187,-0.03931618854403496,0.02241002768278122
1761466566990953700,4.05195361328125,-0.02812037616968155,-0.02753007784485817,0.030688730999827385
1761466567000939000,4.06193896484375,-0.030850116163492203,-0.024435751140117645,0.03379504010081291
1761466567010923000,4.071923095703125,-0.033873628824949265,-0.0232876967638731,0.0292692668735981
1761466567020907800,4.08190771484375,-0.03355751186609268,-0.026914656162261963,0.014783800579607487
1761466567030891800,4.091891845703125,-0.030896276235580444,-0.03205321729183197,0.0022355178371071815
1761466567040876800,4.101876708984375,-0.023616524413228035,-0.03819846361875534,-0.014565033838152885
1761466567050860800,4.11186083984375,-0.01214062049984932,-0.041003335267305374,-0.018837807700037956
1761466567060845800,4.121845703125,-0.009945375844836235,-0.050522271543741226,-0.017622873187065125
1761466567070829800,4.131829833984375,-0.015840720385313034,-0.04541424289345741,-0.008711136877536774
1761466567080814800,4.14181494140625,-0.017772311344742775,-0.03692089021205902,0.004254196770489216
1761466567090798800,4.151798828125,-0.020060595124959946,-0.032106246799230576,0.013970205560326576
1761466567100783900,4.161783935546875,-0.023481691256165504,-0.03405088558793068,0.01645679958164692
1761466567110767900,4.171767822265625,-0.023694640025496483,-0.03743176534771919,0.0139321219176054
1761466567120753000,4.1817529296875,-0.025737285614013672,-0.03807331994175911,0.012663392350077629
1761466567130737000,4.19173681640625,-0.022880084812641144,-0.03514450415968895,0.012360602617263794
1761466567140722000,4.201721923828125,-0.01738784834742546,-0.035048630088567734,0.0024235486052930355
1761466567150706000,4.211705810546875,-0.01569575071334839,-0.03979955613613129,0.0003531957045197487
1761466567160690700,4.221690673828125,-0.014341799542307854,-0.044174596667289734,0.005155141465365887
1761466567170674700,4.2316748046875,-0.016912076622247696,-0.03895239159464836,0.01028492208570242
1761466567180659700,4.24165966796875,-0.018968038260936737,-0.038851458579301834,0.013567800633609295
1761466567190643700,4.251643798828125,-0.01880011148750782,-0.04330744594335556,0.015829624608159065
1761466567200628700,4.261628662109375,-0.022496845573186874,-0.036391481757164,0.011198386549949646
1761466567210612700,4.27161279296875,-0.018277985975146294,-0.03310272470116615,0.009521662257611752
1761466567220597800,4.28159765625,-0.016703791916370392,-0.03542659804224968,0.010251634754240513
1761466567230581800,4.291581787109375,-0.013498950749635696,-0.03552226349711418,0.00951207336038351
1761466567240566800,4.30156689453125,-0.012061908841133118,-0.028609231114387512,0.007346923463046551
1761466567250550800,4.31155078125,-0.01262016873806715,-0.018371764570474625,0.009515801444649696
1761466567260541000,4.321541015625,-0.011967693455517292,-0.015863865613937378,0.008636425249278545
1761466567270525000,4.33152490234375,-0.014653285965323448,-0.015470508486032486,0.006871548481285572
1761466567280510000,4.341510009765625,-0.01429988443851471,-0.02091960236430168,-0.0010404364438727498
1761466567290494000,4.351493896484375,-0.006794873159378767,-0.019530244171619415,-0.006598187144845724
1761466567300479000,4.36147900390625,-0.009043913334608078,-0.014313378371298313,-0.014977557584643364
1761466567310463000,4.371462890625,-0.005866083316504955,-0.010176672600209713,-0.02302722819149494
1761466567320448300,4.3814482421875,-0.004104668274521828,-0.010684004053473473,-0.02752797119319439
1761466567330432000,4.391431884765625,-0.0015114457346498966,-0.007453851867467165,-0.027326636016368866
1761466567340417000,4.4014169921875,0.0011932607740163803,0.0003441500011831522,-0.03042043000459671
1761466567350401300,4.4114013671875,-0.0039841909892857075,0.005233713425695896,-0.03367108479142189
1761466567360386000,4.421385986328125,0.0018859489355236292,0.010168018750846386,-0.03263777866959572
1761466567370370000,4.4313701171875,0.0034676084760576487,0.006751104258000851,-0.032353878021240234
1761466567380355000,4.44135498046875,0.010537502355873585,0.011057702824473381,-0.03329184651374817
1761466567390339000,4.451339111328125,0.01088098157197237,0.006318161264061928,-0.029487788677215576
1761466567400324000,4.461323974609375,0.009051922708749771,0.003156722756102681,-0.03227771818637848
1761466567410308000,4.47130810546875,0.006996555253863335,-0.0062599568627774715,-0.029363419860601425
1761466567420293000,4.481293212890625,0.004258825443685055,-0.010740192607045174,-0.028518401086330414
1761466567430277000,4.491277099609375,0.001972364028915763,-0.019501952454447746,-0.02498757839202881
1761466567440262100,4.50126220703125,-0.002160861622542143,-0.017800457775592804,-0.020401347428560257
1761466567450246100,4.51124609375,0.0021591894328594208,0.0022315322421491146,-0.014513900503516197
1761466567460231200,4.521231201171875,0.002724578371271491,0.007983693853020668,-0.011827037669718266
1761466567470215200,4.531215087890625,0.003310585394501686,-0.002633337862789631,-0.014933077618479729
1761466567480200000,4.541199951171875,0.004451749846339226,-0.007791614159941673,-0.0215009655803442
1761466567490184200,4.55118408203125,0.003989494405686855,-0.007634174544364214,-0.022033069282770157
1761466567500169000,4.5611689453125,0.004494695924222469,-0.005254640243947506,-0.023423239588737488
1761466567510153000,4.571153076171875,0.006215776316821575,-0.005121731199324131,-0.02326264977455139
1761466567520138000,4.581137939453125,0.008164145052433014,-0.000013255281373858452,-0.0229521282017231
1761466567530124000,4.5911240234375,0.007979510352015495,-0.0009860768914222717,-0.024309538304805756
1761466567540109000,4.601109130859375,0.009794721379876137,-0.009164111688733101,-0.023479165509343147
1761466567550093000,4.611093017578125,0.010933807119727135,-0.007689852267503738,-0.029554635286331177
1761466567560078000,4.621078125,0.01486942544579506,-0.00838760007172823,-0.03395684063434601
1761466567570062000,4.63106201171875,0.011805622838437557,-0.010381246916949749,-0.035921718925237656
1761466567580047000,4.641047119140625,0.013733484782278538,-0.009929575026035309,-0.034828223288059235
1761466567590031000,4.651031005859375,0.009715668857097626,-0.0035879716742783785,-0.0360783115029335
1761466567600016100,4.66101611328125,0.010748708620667458,0.006406072527170181,-0.038149986416101456
1761466567610000100,4.671000244140625,0.009743545204401016,-0.0005501308478415012,-0.05299524590373039
1761466567619985200,4.680985107421875,0.015682928264141083,-0.004197596572339535,-0.06383777409791946
1761466567629969200,4.69096923828125,0.016071027144789696,-0.0037369001656770706,-0.06823492050170898
1761466567639954200,4.7009541015625,0.0175328366458416,0.004779621958732605,-0.0660436749458313
1761466567649938200,4.710938232421875,0.019484881311655045,0.018846239894628525,-0.056318603456020355
1761466567659923200,4.720923095703125,0.01268769521266222,0.027821093797683716,-0.039939362555742264
1761466567669907200,4.7309072265625,0.012155717238783836,0.03383156284689903,-0.03798114135861397
1761466567679892000,4.74089208984375,0.009679509326815605,0.02364284172654152,-0.0475059375166893
1761466567689876000,4.7508759765625,0.006337620317935944,0.018855202943086624,-0.05483522266149521
1761466567699861000,4.760861083984375,0.014875448308885098,0.019924461841583252,-0.06357172131538391
1761466567709845000,4.770844970703125,0.01577948033809662,0.020312825217843056,-0.06690467149019241
1761466567719830000,4.780830078125,0.01855422742664814,0.01846645586192608,-0.07073988765478134
1761466567729814000,4.79081396484375,0.022693775594234467,0.020432353019714355,-0.07008422166109085
1761466567739799000,4.800799072265625,0.021907344460487366,0.023691795766353607,-0.0682184100151062
1761466567749783000,4.810782958984375,0.021031353622674942,0.023859072476625443,-0.06356985867023468
1761466567759768000,4.82076806640625,0.025396276265382767,0.024362143129110336,-0.0625820904970169
1761466567769752000,4.830751953125,0.02220301702618599,0.02802235074341297,-0.062154922634363174
1761466567779737000,4.840737060546875,0.0210043266415596,0.03199818357825279,-0.061011094599962234
1761466567789721000,4.85072119140625,0.020929379388689995,0.028142666444182396,-0.05736016109585762
1761466567799705900,4.860705810546875,0.01897595077753067,0.028922440484166145,-0.05049613118171692
1761466567809690000,4.870690185546875,0.018641777336597443,0.03230605646967888,-0.038095396012067795
1761466567819675000,4.8806748046875,0.017920859158039093,0.042870551347732544,-0.023048799484968185
1761466567829659000,4.890658935546875,0.014481067657470703,0.04300590604543686,-0.012169783934950829
1761466567839644000,4.900643798828125,0.015093594789505005,0.03725054860115051,-0.01572190783917904
1761466567849628000,4.9106279296875,0.01278667151927948,0.023305619135499,-0.019865255802869797
1761466567859613000,4.920613037109375,0.016788603737950325,0.01637980155646801,-0.021549705415964127
1761466567869597000,4.930596923828125,0.01297866739332676,0.020679231733083725,-0.01885645091533661
1761466567879582200,4.940582275390625,0.008253421634435654,0.02198018506169319,-0.009916486218571663
1761466567889566000,4.95056591796875,-0.000441061332821846,0.024599147960543633,-0.00347429933026433
1761466567899551200,4.96055126953125,0.00034031039103865623,0.027035674080252647,-0.0010580132948234677
1761466567909535000,4.970534912109375,-0.0037951921112835407,0.024196991696953773,0.000013909069821238518
1761466567919520300,4.980520263671875,0.0003769160248339176,0.028891609981656075,-0.0057164146564900875
1761466567929504300,4.990504150390625,0.00020647374913096428,0.031732674688100815,-0.015399668365716934
1761466567939489000,5.000489013671875,-0.007394720334559679,0.027773883193731308,-0.016739238053560257
1761466567949473000,5.01047314453125,-0.010803273878991604,0.022730689495801926,-0.012718664482235909
1761466567959458000,5.0204580078125,-0.01791764423251152,0.01926032453775406,-0.004002936650067568
1761466567969442000,5.030442138671875,-0.021315811201930046,0.03173460811376572,0.012988831847906113
1761466567979427000,5.040427001953125,-0.02104816399514675,0.038220204412937164,0.0331452339887619
1761466567989411000,5.0504111328125,-0.019836725667119026,0.03704352676868439,0.05106857419013977
1761466567999396000,5.06039599609375,-0.031023068353533745,0.06118641421198845,0.0743137076497078
1761466568009380000,5.070380126953125,-0.06051188334822655,0.05483504384756088,0.09442935883998871
1761466568019365000,5.080365234375,-0.04578513279557228,0.06064552813768387,0.10419011116027832
1761466568029349000,5.09034912109375,-0.04039513319730759,0.0751081258058548,0.10961630195379257
1761466568039334100,5.100334228515625,-0.037787631154060364,0.05226006731390953,0.1084413155913353
1761466568049318100,5.110318115234375,-0.03736818581819534,0.036815330386161804,0.0911446139216423
1761466568059303200,5.12030322265625,-0.02061929926276207,0.020175104960799217,0.07255442440509796
1761466568069287200,5.130287109375,-0.011782398447394371,-0.004505741875618696,0.05225421115756035
1761466568079272000,5.14027197265625,-0.011672943830490112,-0.012898161076009274,0.039346132427453995
1761466568089256000,5.150255859375,-0.022262418642640114,-0.013817282393574715,0.03573169559240341
1761466568099241000,5.160240966796875,-0.02458123303949833,-0.013466544449329376,0.04148172587156296
1761466568109225000,5.170224853515625,-0.02811450883746147,-0.017958756536245346,0.05768013745546341
1761466568119210000,5.1802099609375,-0.03321179747581482,-0.015395729802548885,0.06673835217952728
1761466568129194000,5.190194091796875,-0.031533002853393555,-0.021433640271425247,0.06628773361444473
1761466568139179000,5.200178955078125,-0.032496534287929535,-0.03204527124762535,0.06791865825653076
1761466568149163000,5.2101630859375,-0.03592286258935928,-0.04049180448055267,0.06841827183961868
1761466568159148000,5.22014794921875,-0.04161643609404564,-0.05011327192187309,0.06663209199905396
1761466568169132000,5.230132080078125,-0.04012911021709442,-0.05094970762729645,0.05863488093018532
1761466568179117000,5.240116943359375,-0.03358279541134834,-0.05289514735341072,0.04445887356996536
1761466568189101000,5.25010107421875,-0.03003126196563244,-0.04335835948586464,0.03588429093360901
1761466568199085800,5.2600859375,-0.025006411597132683,-0.03669433295726776,0.033931393176317215
1761466568209070000,5.270070068359375,-0.025692563503980637,-0.031321920454502106,0.037130650132894516
1761466568219054800,5.280054931640625,-0.030321933329105377,-0.026975639164447784,0.039700333029031754
1761466568229038800,5.290038818359375,-0.03981298580765724,-0.020276159048080444,0.050489332526922226
1761466568239024000,5.300024169921875,-0.05315408855676651,-0.00566073227673769,0.05303824320435524
1761466568249007900,5.3100078125,-0.04840829595923424,-0.006867663469165564,0.05254822596907616
1761466568258988800,5.31998876953125,-0.0559501014649868,-0.026166260242462158,0.037136245518922806
1761466568268972800,5.329972900390625,-0.0617360845208168,-0.024174083024263382,0.023373570293188095
1761466568278957800,5.339957763671875,-0.044476669281721115,0.010447010397911072,0.013027722015976906
1761466568288941800,5.34994189453125,-0.040917184203863144,-0.007665096782147884,0.015875432640314102
1761466568298926800,5.3599267578125,-0.04175741225481033,-0.0612923726439476,-0.006872490979731083
1761466568308910800,5.369910888671875,-0.047288283705711365,-0.07323849201202393,-0.03362128138542175
1761466568318895900,5.379895751953125,-0.05001668632030487,-0.07153886556625366,-0.049528077244758606
1761466568328879900,5.3898798828125,-0.05323408171534538,-0.06385833770036697,-0.04786120355129242
1761466568338865200,5.399865234375,-0.05447378009557724,-0.0565708689391613,-0.032542433589696884
1761466568348849000,5.409848876953125,-0.053275421261787415,-0.05798047035932541,-0.021218139678239822
1761466568358834000,5.419833984375,-0.06647618114948273,-0.06059809401631355,-0.012146081775426865
1761466568368818000,5.42981787109375,-0.06800217926502228,-0.05795322358608246,-0.00023749261163175106
1761466568378803000,5.439802978515625,-0.055819276720285416,-0.09136977791786194,-0.006556907668709755
1761466568388787000,5.449786865234375,-0.05401962623000145,-0.09047900885343552,-0.008219252340495586
1761466568398772000,5.45977197265625,-0.04709434136748314,-0.07454291731119156,-0.006266622804105282
1761466568408756000,5.469755859375,-0.03777655214071274,-0.06700827181339264,-0.006592594552785158
1761466568418741000,5.479740966796875,-0.036242835223674774,-0.07617620378732681,-0.008763071149587631
1761466568428725000,5.48972509765625,-0.039134591817855835,-0.0852532684803009,-0.0026825389359146357
1761466568438710000,5.4997099609375,-0.0425141416490078,-0.07875329256057739,0.0018504273612052202
1761466568448694000,5.509694091796875,-0.04361465573310852,-0.07815975695848465,0.00767555832862854
1761466568458679000,5.519678955078125,-0.041531533002853394,-0.07922342419624329,0.008136550895869732
1761466568468663000,5.5296630859375,-0.045104384422302246,-0.08220934122800827,0.003503715619444847
1761466568478648000,5.53964794921875,-0.04701893404126167,-0.09358370304107666,-0.003374696709215641
1761466568488632000,5.549632080078125,-0.0463796928524971,-0.10305819660425186,-0.0044434210285544395
1761466568498616800,5.559616943359375,-0.047978393733501434,-0.10598661005496979,0.0006805008742958307
1761466568508600800,5.569600830078125,-0.04498700797557831,-0.09782084822654724,0.009116864763200283
1761466568518585900,5.5795859375,-0.04602297767996788,-0.09190197288990021,0.015401924028992653
1761466568528569900,5.58956982421875,-0.06222318857908249,-0.06645754724740982,0.027317436411976814
1761466568538555000,5.599554931640625,-0.05945349484682083,-0.055483460426330566,0.0399184487760067
1761466568548539000,5.609538818359375,-0.051096487790346146,-0.0657939612865448,0.04201063886284828
1761466568558524000,5.61952392578125,-0.03886778652667999,-0.09177203476428986,0.02791585773229599
1761466568568508000,5.6295078125,-0.03355724364519119,-0.10895413160324097,0.015064231120049953
1761466568578493000,5.639492919921875,-0.03269757702946663,-0.10971659421920776,0.011719833128154278
1761466568588477000,5.649476806640625,-0.03309144079685211,-0.1019364595413208,0.018766291439533234
1761466568598462000,5.6594619140625,-0.03409785032272339,-0.09522129595279694,0.036236099898815155
1761466568608446000,5.669446044921875,-0.03217657655477524,-0.08487460762262344,0.05050317943096161
1761466568618431000,5.679430908203125,-0.03111131303012371,-0.06314667314291,0.06068763881921768
1761466568628415000,5.6894150390625,-0.02967597171664238,-0.03852681443095207,0.06738389283418655
1761466568638399700,5.699399658203125,-0.041685231029987335,-0.022702045738697052,0.07237385958433151
1761466568648383700,5.7093837890625,-0.019854353740811348,-0.03755208104848862,0.07186625897884369
1761466568658368800,5.71936865234375,-0.025688806548714638,-0.023352639749646187,0.05346887558698654
1761466568668352800,5.729352783203125,-0.032148025929927826,-0.018043173477053642,0.044422123581171036
1761466568678337800,5.739337890625,-0.05196381360292435,0.027129098773002625,0.05643085017800331
1761466568688321800,5.74932177734375,-0.0462166853249073,0.031963568180799484,0.05864446610212326
1761466568698307000,5.75930712890625,-0.02982838824391365,-0.0045355865731835365,0.056495826691389084
1761466568708290800,5.769290771484375,-0.027152834460139275,-0.04115163907408714,0.03577589988708496
1761466568718276000,5.779276123046875,-0.040206052362918854,0.010661759413778782,0.045914553105831146
1761466568728260000,5.789260009765625,-0.04441636800765991,0.008226259611546993,0.05845911055803299
1761466568738245000,5.7992451171875,-0.043358296155929565,-0.005393945146352053,0.05052315816283226
1761466568748229000,5.80922900390625,-0.028752069920301437,-0.017872203141450882,0.030755046755075455
1761466568758214000,5.8192138671875,-0.018222197890281677,-0.03776468709111214,0.017438707873225212
1761466568768198000,5.829197998046875,-0.016780611127614975,-0.05220489576458931,0.020044881850481033
1761466568778183000,5.839182861328125,-0.021009445190429688,-0.0633867159485817,0.030234668403863907
1761466568788167000,5.8491669921875,-0.025255605578422546,-0.06715784966945648,0.03080112114548683
1761466568798152000,5.85915185546875,-0.022962357848882675,-0.06412477791309357,0.025063341483473778
1761466568808136000,5.869135986328125,-0.03307608887553215,-0.05961691215634346,0.012429832480847836
1761466568818121000,5.879120849609375,-0.045334622263908386,-0.05336088314652443,0.014397376216948032
1761466568828105000,5.88910498046875,-0.06297972053289413,-0.04499295353889465,0.022639060392975807
1761466568838090000,5.899090087890625,-0.07935470342636108,-0.04847024381160736,0.04047877714037895
1761466568848074000,5.909073974609375,-0.09450526535511017,-0.06006943807005882,0.05222358554601669
1761466568858059000,5.91905908203125,-0.09907764196395874,-0.08530262112617493,0.051763392984867096
1761466568868043000,5.92904296875,-0.10316208750009537,-0.09619687497615814,0.035418249666690826
1761466568878028000,5.939028076171875,-0.08825530856847763,-0.1300661712884903,0.016983048990368843
1761466568888012000,5.949011962890625,-0.06209428608417511,-0.1770583689212799,-0.019056187942624092
1761466568897996800,5.958996826171875,-0.04999314993619919,-0.1936653107404709,-0.051396552473306656
1761466568907980800,5.968980712890625,-0.0522443987429142,-0.1835644394159317,-0.0590459480881691
1761466568917965800,5.9789658203125,-0.05300233140587807,-0.16074061393737793,-0.03209768980741501
1761466568927949800,5.98894970703125,-0.050566744059324265,-0.14554257690906525,0.00826252531260252
1761466568937934800,5.998934814453125,-0.04988710582256317,-0.13633975386619568,0.04631190374493599
1761466568947918800,6.0089189453125,-0.05137018486857414,-0.1292957365512848,0.0760040283203125
1761466568957904000,6.01890380859375,-0.05437556281685829,-0.13496507704257965,0.09792716801166534
1761466568967888000,6.028887939453125,-0.0535559356212616,-0.149246484041214,0.10717951506376266
1761466568977873000,6.038872802734375,-0.05243208259344101,-0.15777473151683807,0.10167662799358368
1761466568987857000,6.04885693359375,-0.042832598090171814,-0.1757683902978897,0.08625239878892899
1761466568997842000,6.058842041015625,-0.02913755737245083,-0.19191379845142365,0.06946782767772675
1761466569007826000,6.068825927734375,-0.026661206036806107,-0.2099875956773758,0.059415191411972046
1761466569017811000,6.07881103515625,-0.043677739799022675,-0.2118334323167801,0.05704151466488838
1761466569027795000,6.088794921875,-0.06303850561380386,-0.2182156890630722,0.0736822783946991
1761466569037779700,6.09877978515625,-0.07657881081104279,-0.22251643240451813,0.08526303619146347
1761466569047763700,6.108763671875,-0.08365201950073242,-0.21922095119953156,0.09900174289941788
1761466569057749000,6.1187490234375,-0.0830560028553009,-0.21580837666988373,0.09965101629495621
1761466569067732700,6.128732666015625,-0.07369416952133179,-0.2075452357530594,0.10130538046360016
1761466569077716700,6.138716796875,-0.06902991235256195,-0.19396843016147614,0.10789404064416885
1761466569087702000,6.148701904296875,-0.0655638575553894,-0.1803138107061386,0.10114452242851257
1761466569097685800,6.158685791015625,-0.0633382499217987,-0.1760711371898651,0.0839596763253212
1761466569107671000,6.168671142578125,-0.07254183292388916,-0.17309275269508362,0.06163335591554642
1761466569117655000,6.178655029296875,-0.09670975059270859,-0.15313608944416046,0.046323105692863464
1761466569127640000,6.18864013671875,-0.11982108652591705,-0.1394108235836029,0.03884226456284523
1761466569137624000,6.1986240234375,-0.13681206107139587,-0.1168687716126442,0.03191298618912697
1761466569147609000,6.208609130859375,-0.1334160715341568,-0.07241291552782059,0.022995125502347946
1761466569157593000,6.218593017578125,-0.11670687794685364,-0.07117880880832672,-0.0013554876204580069
1761466569167577900,6.228577880859375,-0.1151699498295784,-0.0944436714053154,-0.027300532907247543
1761466569177562000,6.23856201171875,-0.12285476922988892,-0.08742064982652664,-0.03943362832069397
1761466569187547000,6.248546875,-0.14138829708099365,-0.02807401679456234,-0.03215759992599487
1761466569197531000,6.25853076171875,-0.14421631395816803,0.02770562656223774,-0.00480560353025794
1761466569207516000,6.268515869140625,-0.13317148387432098,0.04943813756108284,0.021114403381943703
1761466569217500000,6.2785,-0.12122108042240143,0.05489069223403931,0.029746774584054947
1761466569227485000,6.28848486328125,-0.10510963946580887,0.06569772958755493,0.02695872262120247
1761466569237469000,6.298468994140625,-0.08796873688697815,0.06358184665441513,0.028639445081353188
1761466569247454000,6.308453857421875,-0.0650101900100708,0.04600689187645912,0.030353445559740067
1761466569257436400,6.3184365234375,-0.027629796415567398,0.04947992041707039,0.04305752366781235
1761466569267421400,6.32842138671875,0.01067313365638256,0.05062132701277733,0.0553424209356308
1761466569277405400,6.338405517578125,0.042359959334135056,0.03666103631258011,0.06520223617553711
1761466569287390500,6.348390380859375,0.041696298867464066,0.005744134075939655,0.07585754990577698
1761466569297374500,6.35837451171875,0.03317897394299507,0.009331146255135536,0.06948833167552948
1761466569307359500,6.368359375,0.01557260099798441,0.0485575832426548,0.07465222477912903
1761466569317343500,6.378343505859375,-0.0027432888746261597,0.04382061958312988,0.09175131469964981
1761466569327328500,6.38832861328125,-0.042162105441093445,0.012060941196978092,0.07994788885116577
1761466569337312500,6.3983125,-0.0742686465382576,-0.01232402678579092,0.06473085284233093
1761466569347297500,6.408297607421875,-0.0939381867647171,-0.031158477067947388,0.056040965020656586
1761466569357281500,6.418281494140625,-0.11352413892745972,-0.040405504405498505,0.04588500037789345
1761466569367266300,6.428266357421875,-0.12249073386192322,-0.04445963725447655,0.03348612040281296
1761466569377250600,6.43825048828125,-0.12595364451408386,-0.03820334002375603,0.017757494002580643
1761466569387235300,6.4482353515625,-0.12371496856212616,-0.030598433688282967,-0.003966972231864929
1761466569397219300,6.45821923828125,-0.11436568200588226,-0.032872773706912994,-0.028629174456000328
1761466569407204400,6.468204345703125,-0.10671421885490417,-0.02953587844967842,-0.04303792864084244
1761466569417188400,6.478188232421875,-0.09153500199317932,-0.021788476034998894,-0.04754852503538132
1761466569427173400,6.48817333984375,-0.07710536569356918,-0.012920871376991272,-0.03684929385781288
1761466569437157400,6.498157470703125,-0.05915193259716034,-0.00028763385489583015,-0.01992810331285
1761466569447142400,6.508142333984375,-0.04757847264409065,0.008902665227651596,-0.008336692117154598
1761466569457126400,6.51812646484375,-0.03762650489807129,0.021216854453086853,-0.0053936331532895565
1761466569467111400,6.528111328125,-0.03182078152894974,0.025882672518491745,-0.013149547390639782
1761466569477095400,6.538095458984375,-0.03344983607530594,0.020887913182377815,-0.028727708384394646
1761466569487080400,6.54808056640625,-0.03361906483769417,0.014600738883018494,-0.036019183695316315
1761466569497064400,6.558064453125,-0.03952542692422867,0.010377498343586922,-0.04060674458742142
1761466569507049200,6.56804931640625,-0.03880792856216431,0.004568889737129211,-0.03466629981994629
1761466569517033200,6.578033203125,-0.039874255657196045,0.007016867399215698,-0.02582327276468277
1761466569527018200,6.588018310546875,-0.03059898130595684,0.0008351176511496305,-0.019228216260671616
1761466569537002200,6.598002197265625,-0.02698667161166668,-0.0061942958272993565,-0.020135819911956787
1761466569546987500,6.607987548828125,-0.017840147018432617,-0.0151486461982131,-0.02863050438463688
1761466569556971300,6.61797119140625,-0.008022669702768326,-0.018820080906152725,-0.031916312873363495
1761466569566956500,6.62795654296875,-0.003749231807887554,-0.015472449362277985,-0.037420809268951416
1761466569576940500,6.6379404296875,0.00464292149990797,0.0017701867036521435,-0.03594914451241493
1761466569586924300,6.64792431640625,0.008773750625550747,0.019655976444482803,-0.02666483260691166
1761466569596909600,6.65790966796875,0.01198632176965475,0.031829554587602615,-0.013143697753548622
1761466569606893600,6.6678935546875,0.018229424953460693,0.04341961070895195,-0.0005373558960855007
1761466569616878600,6.677878662109375,0.021634541451931,0.057955943048000336,0.00817197933793068
1761466569626862600,6.687862548828125,0.03302932158112526,0.06528840214014053,0.00951981171965599
1761466569636847600,6.69784765625,0.038953524082899094,0.059347160160541534,0.009078259579837322
1761466569646831600,6.70783154296875,0.046796590089797974,0.055831313133239746,0.010318747721612453
1761466569656816400,6.71781640625,0.04948344826698303,0.062389615923166275,0.01363704539835453
1761466569666800400,6.72780029296875,0.05269109085202217,0.06510181725025177,0.01462454255670309
1761466569676785400,6.737785400390625,0.05521603301167488,0.05916563421487808,0.007702987641096115
1761466569686769400,6.747769287109375,0.05752352252602577,0.055742047727108,0.0012512258253991604
1761466569696754400,6.75775439453125,0.05700500309467316,0.04897415637969971,-0.01210026629269123
1761466569706738400,6.767738525390625,0.0554264634847641,0.054359305649995804,-0.02657720260322094
1761466569716723500,6.777723388671875,0.05511966720223427,0.0568070188164711,-0.04007623344659805
1761466569726707500,6.78770751953125,0.055009059607982635,0.057324182242155075,-0.04880952835083008
1761466569736692500,6.7976923828125,0.05134987831115723,0.05657636746764183,-0.05454038828611374
1761466569746676500,6.807676513671875,0.04071539267897606,0.0669236108660698,-0.04616742581129074
1761466569756661500,6.81766162109375,0.027301054447889328,0.08282135426998138,-0.030598320066928864
1761466569766645500,6.8276455078125,0.023181932047009468,0.09938110411167145,-0.0195778775960207
1761466569776630500,6.837630615234375,0.02841983735561371,0.11869780719280243,-0.010604624636471272
1761466569786614500,6.847614501953125,0.03024234250187874,0.12069890648126602,-0.014836122281849384
1761466569796599300,6.857599365234375,0.03393321484327316,0.10964971780776978,-0.023531874641776085
1761466569806583300,6.867583251953125,0.03582972288131714,0.10208559036254883,-0.037065539509058
1761466569816568300,6.877568359375,0.04024231433868408,0.09434111416339874,-0.047810062766075134
1761466569826552300,6.88755224609375,0.03869829326868057,0.09978511929512024,-0.045634519308805466
1761466569836537300,6.897537353515625,0.044309839606285095,0.10703131556510925,-0.034442316740751266
1761466569846521300,6.907521240234375,0.04051543399691582,0.12132640928030014,-0.022323347628116608
1761466569856506400,6.91750634765625,0.040808115154504776,0.12697018682956696,-0.02010653354227543
1761466569866490400,6.927490478515625,0.03796214610338211,0.11697555333375931,-0.023181671276688576
1761466569876475400,6.937475341796875,0.041658349335193634,0.10413378477096558,-0.030631331726908684
1761466569886459400,6.94745947265625,0.04402296990156174,0.09645216912031174,-0.030808698385953903
1761466569896444400,6.9574443359375,0.04964569956064224,0.09552592039108276,-0.023829352110624313
1761466569906428400,6.967428466796875,0.05131889879703522,0.10805577784776688,-0.019354958087205887
1761466569916413200,6.9774130859375,0.048930574208498,0.10624216496944427,-0.019809028133749962
1761466569926397400,6.9873974609375,0.0509629026055336,0.08978653699159622,-0.027143390849232674
1761466569936382500,6.997382568359375,0.050333067774772644,0.07505260407924652,-0.030868353322148323
1761466569946366200,7.0073662109375,0.05442297086119652,0.07543851435184479,-0.03548388183116913
1761466569956351500,7.0173515625,0.056258153170347214,0.0792929083108902,-0.037454888224601746
1761466569966335500,7.02733544921875,0.05619049817323685,0.073448546230793,-0.04381290450692177
1761466569976320500,7.037320556640625,0.060269132256507874,0.06041557341814041,-0.04726516082882881
1761466569986304500,7.047304443359375,0.06805769354104996,0.04766517132520676,-0.047295257449150085
1761466569996288500,7.05728857421875,0.06516150385141373,0.04059314727783203,-0.04340784251689911
1761466570006273500,7.0672734375,0.05552302300930023,0.04759722203016281,-0.030768465250730515
1761466570016257500,7.077257568359375,0.04918177053332329,0.05583624541759491,-0.01232181303203106
1761466570026242600,7.08724267578125,0.04082927852869034,0.05547281354665756,-0.012317050248384476
1761466570036226600,7.0972265625,0.04210758954286575,0.05069670081138611,-0.011454185470938683
1761466570046211600,7.107211669921875,0.03791000694036484,0.05241294205188751,-0.018526935949921608
1761466570056195600,7.117195556640625,0.039647720754146576,0.04928905516862869,-0.01937675103545189
1761466570066180400,7.127180419921875,0.0378703810274601,0.040784697979688644,-0.02071932516992092
1761466570076164600,7.13716455078125,0.03399734944105148,0.04221907630562782,-0.02071852795779705
1761466570086149400,7.1471494140625,0.029839105904102325,0.04014791548252106,-0.020978447049856186
1761466570096133400,7.15713330078125,0.030818350613117218,0.0363909937441349,-0.021652493625879288
1761466570106118400,7.167118408203125,0.02750300243496895,0.02753536030650139,-0.021198660135269165
1761466570116102400,7.177102294921875,0.02769581601023674,0.02032218873500824,-0.025956396013498306
1761466570126087400,7.18708740234375,0.028269274160265923,0.019740646705031395,-0.02467384934425354
1761466570136071400,7.197071533203125,0.02681785263121128,0.015057479031383991,-0.02359740063548088
1761466570146056400,7.207056396484375,0.021369008347392082,0.009158598259091377,-0.015881694853305817
1761466570156040400,7.21704052734375,0.012891633436083794,0.017917469143867493,-0.007215769030153751
1761466570166025500,7.227025390625,0.011695625260472298,0.025870446115732193,0.0012285863049328327
1761466570176009500,7.237009521484375,0.010902268812060356,0.02807927131652832,0.005114138126373291
1761466570185994500,7.246994384765625,0.015769558027386665,0.02779226377606392,0.004966589622199535
1761466570195978500,7.256978515625,0.01899517886340618,0.030222665518522263,0.0006322951521724463
1761466570205963300,7.26696337890625,0.025152120739221573,0.026484275236725807,-0.0046806950122118
1761466570215947300,7.276947265625,0.022087622433900833,0.021737724542617798,-0.005508671514689922
1761466570225932300,7.286932373046875,0.020864399150013924,0.018257280811667442,-0.009084241464734077
1761466570235916300,7.296916259765625,0.01849205419421196,0.019046640023589134,-0.007606453262269497
1761466570245901300,7.3069013671875,0.0138772651553154,0.016661398112773895,0.0015343530103564262
1761466570255885600,7.316885498046875,0.008751745335757732,0.018149573355913162,0.006887040566653013
1761466570265870800,7.326870849609375,0.0013785986229777336,0.013937346637248993,0.011969915591180325
1761466570275854800,7.336854736328125,0.005218876991420984,0.009384405799210072,0.007946145720779896
1761466570285840000,7.34683984375,0.0033058198168873787,0.0058856867253780365,0.008974442258477211
1761466570295824000,7.356823974609375,-0.001028474885970354,0.0030262514483183622,0.005344553850591183
1761466570305809000,7.366808837890625,0.0015954156406223774,-0.004017863888293505,0.002721811179071665
1761466570315793000,7.37679296875,-0.0031617884524166584,-0.009795857593417168,-0.0012534892885014415
1761466570325777700,7.386777587890625,-0.0013762288726866245,-0.020760776475071907,-0.010809145867824554
1761466570335761700,7.39676171875,-0.0006055100820958614,-0.02902722917497158,-0.020968040451407433
1761466570345746700,7.40674658203125,0.0013300692662596703,-0.02626945450901985,-0.021322529762983322
1761466570355730700,7.416730712890625,-0.0013749036006629467,-0.03354521095752716,-0.019424494355916977
1761466570365714700,7.426714599609375,-0.009135854430496693,-0.03966812416911125,-0.009917264804244041
1761466570375699700,7.43669970703125,-0.014779092743992805,-0.025295842438936234,-0.006785387173295021
1761466570385683700,7.44668359375,-0.018355831503868103,-0.01241178996860981,-0.002734698122367263
1761466570395668700,7.456668701171875,-0.015416767448186874,-0.02203245833516121,-0.012041114270687103
1761466570405652700,7.46665283203125,-0.013464007526636124,-0.03926440700888634,-0.027734870091080666
1761466570415637800,7.4766376953125,-0.010479668155312538,-0.042869530618190765,-0.0387696772813797
1761466570425621800,7.486621826171875,-0.01069462951272726,-0.03983060643076897,-0.031748782843351364
1761466570435606800,7.496606689453125,-0.008160365745425224,-0.027372872456908226,-0.024101782590150833
1761466570445590800,7.5065908203125,-0.008099395781755447,-0.02723117358982563,-0.01644759811460972
1761466570455575800,7.516575927734375,-0.010633393190801144,-0.02097434364259243,-0.007390986196696758
1761466570465559800,7.526559814453125,-0.020925283432006836,-0.01868589222431183,-0.0033107558265328407
1761466570475544600,7.536544677734375,-0.023609483614563942,-0.021674493327736855,-0.007211221382021904
1761466570485528800,7.54652880859375,-0.021133437752723694,-0.025618895888328552,-0.008671434596180916
1761466570495513600,7.556513671875,-0.023051448166370392,-0.024560822173953056,-0.010221660137176514
1761466570505497600,7.56649755859375,-0.02083323895931244,-0.005695795640349388,-0.007525739260017872
1761466570515482600,7.576482666015625,-0.01782440021634102,-0.002298134844750166,0.0018808119930326939
1761466570525466600,7.586466552734375,-0.010979045182466507,-0.01861102320253849,-0.004064175300300121
1761466570535451600,7.59645166015625,-0.010281030088663101,-0.03279848024249077,-0.011709844693541527
1761466570545435600,7.606435546875,-0.010779178701341152,-0.03993145376443863,-0.026038989424705505
1761466570555420700,7.616420654296875,-0.009298460558056831,-0.033398985862731934,-0.02812025137245655
1761466570565404700,7.62640478515625,-0.014603987336158752,-0.02566925249993801,-0.018873995169997215
1761466570575389700,7.6363896484375,-0.01633770577609539,-0.02831084281206131,-0.016895532608032227
1761466570585373700,7.646373779296875,-0.01851724088191986,-0.045013319700956345,-0.018847385421395302
1761466570595358700,7.656358642578125,-0.016501493752002716,-0.04379811882972717,-0.01913340948522091
1761466570605342700,7.6663427734375,-0.015834324061870575,-0.026382435113191605,-0.010297022759914398
1761466570615327700,7.67632763671875,-0.012902981601655483,-0.010975782759487629,0.001051238738000393
1761466570625311500,7.6863115234375,-0.009301090613007545,-0.010717682540416718,0.0036262364592403173
1761466570635296800,7.696296875,-0.007276555057615042,-0.025280380621552467,-0.0004864833317697048
1761466570645280500,7.706280517578125,0.00044275354593992233,-0.02261192910373211,-0.008163299411535263
1761466570655265800,7.716265869140625,-0.0007189172320067883,-0.013307643122971058,-0.012113033793866634
1761466570665249800,7.726249755859375,-0.0036982721649110317,-0.006067545153200626,-0.008848806843161583
1761466570675233500,7.736233642578125,-0.0016058264300227165,-0.01075657270848751,-0.005385898984968662
1761466570685218800,7.74621875,0.0013293195515871048,-0.0048385243862867355,-0.0024873048532754183
1761466570695202800,7.756202880859375,0.0013785883784294128,0.0010838133748620749,0.003988171461969614
1761466570705187800,7.766187744140625,-0.0012692026793956757,-0.005387374199926853,0.002664038445800543
1761466570715171800,7.776171875,0.0023636152036488056,-0.006287256255745888,-0.0025139458011835814
1761466570725156900,7.786156982421875,0.0033625727519392967,-0.00438210042193532,-0.0023155128583312035
1761466570735140900,7.796140869140625,-0.002748848870396614,0.008431699126958847,-0.0033157961443066597
1761466570745126000,7.8061259765625,-0.0005439743399620056,0.008945167064666748,0.0016621791291981936
1761466570755110000,7.81610986328125,0.0024014818482100964,0.025885535404086113,0.003216932760551572
1761466570765094700,7.8260947265625,-0.0007187537848949432,0.02937350422143936,0.004104552790522575
1761466570775078700,7.83607861328125,0.003947637043893337,0.02996286004781723,-0.002147217746824026
1761466570785063700,7.846063720703125,0.005611286498606205,0.03405078500509262,-0.013054713606834412
1761466570795047700,7.856047607421875,0.008216390386223793,0.03295063227415085,-0.022596020251512527
1761466570805032700,7.86603271484375,0.005989329423755407,0.020384326577186584,-0.028452608734369278
1761466570815016700,7.8760166015625,0.004177048336714506,0.01481565646827221,-0.02852637693285942
1761466570825001700,7.886001708984375,0.0028850454837083817,0.017055105417966843,-0.021802693605422974
1761466570834985700,7.89598583984375,0.0003422591835260391,0.0247441828250885,-0.01847214624285698
1761466570844970800,7.905970703125,0.0007126014679670334,0.02436547726392746,-0.014587391167879105
1761466570854954800,7.915954833984375,0.0027254188898950815,0.018856197595596313,-0.019944339990615845
1761466570864939800,7.925939697265625,0.00427648751065135,0.018949419260025024,-0.023141467943787575
1761466570874923800,7.935923828125,0.005963333882391453,0.01987806335091591,-0.028310395777225494
1761466570884908800,7.94590869140625,0.007657995447516441,0.025135360658168793,-0.02921346202492714
1761466570894892800,7.955892822265625,0.003861393313854933,0.02234356850385666,-0.020162709057331085
1761466570904877600,7.965877685546875,-0.0034757349640130997,0.024306336417794228,-0.006607756018638611
1761466570914861600,7.975861572265625,-0.008487537503242493,0.032410066574811935,0.002667767694219947
1761466570924846600,7.9858466796875,-0.013762889429926872,0.03773240000009537,0.00422624871134758
1761466570934830600,7.99583056640625,-0.010646192356944084,0.03195067495107651,-0.003991733770817518
1761466570944812800,8.005812744140625,-0.006111166439950466,0.0279548279941082,-0.01525928732007742
1761466570954797800,8.0157978515625,0.00026310980319976807,0.03462178632616997,-0.019711559638381004
1761466570964781800,8.02578173828125,0.0015996466390788555,0.041270095854997635,-0.02347646839916706
1761466570974766800,8.035766845703124,-0.0006336802616715431,0.04119233042001724,-0.022727854549884796
1761466570984750800,8.045750732421874,-0.004555847495794296,0.03906123712658882,-0.018518978729844093
1761466570994735600,8.055735595703124,-0.011145574040710926,0.04085780680179596,-0.015280840918421745
1761466571004719600,8.0657197265625,-0.01948751136660576,0.03698265552520752,-0.015792174264788628
1761466571014704600,8.07570458984375,-0.02281806245446205,0.025530263781547546,-0.021512378007173538
1761466571024688600,8.085688720703125,-0.023797372356057167,0.023915931582450867,-0.027107443660497665
1761466571034673700,8.095673583984375,-0.023464210331439972,0.023653609678149223,-0.03417680412530899
1761466571044657700,8.10565771484375,-0.018965359777212143,0.01716611720621586,-0.04231860861182213
1761466571054642700,8.115642578125,-0.013836643658578396,0.00845491886138916,-0.04673998802900314
1761466571064626700,8.125626708984376,-0.008860336616635323,0.011871514841914177,-0.039315905421972275
1761466571074611700,8.13561181640625,-0.006294646766036749,0.020267130807042122,-0.0338047593832016
1761466571084595700,8.145595703125,-0.003004931379109621,0.01856987550854683,-0.032026294618844986
1761466571094580700,8.155580810546875,-0.003954880405217409,0.009982777759432793,-0.03295706957578659
1761466571104564700,8.165564697265625,-0.004701137077063322,0.009515846148133278,-0.03743913024663925
1761466571114549800,8.1755498046875,-0.006647374946624041,0.004076605662703514,-0.04117634519934654
1761466571124533800,8.18553369140625,-0.0030215131118893623,0.006378679536283016,-0.03964664414525032
1761466571134518500,8.1955185546875,-0.0024990011006593704,0.014927159063518047,-0.027405956760048866
1761466571144502500,8.20550244140625,-0.0032882592640817165,0.024870609864592552,-0.015719741582870483
1761466571154486800,8.21548681640625,0.00021912436932325363,0.018092863261699677,-0.009401126764714718
1761466571164471600,8.225471435546876,0.001834255177527666,0.016351448372006416,-0.008712178096175194
1761466571174455600,8.23545556640625,0.0067829410545527935,0.012560972943902016,-0.012547662481665611
1761466571184440600,8.245440673828124,0.002277763793244958,0.020869456231594086,-0.019434044137597084
1761466571194424600,8.255424560546874,0.00596704101189971,0.031143665313720703,-0.022620249539613724
1761466571204409600,8.26540966796875,0.013408076018095016,0.03044911101460457,-0.02512841299176216
1761466571214393600,8.2753935546875,0.013689838349819183,0.02906693145632744,-0.018594346940517426
1761466571224379000,8.28537890625,0.01537299994379282,0.029175065457820892,-0.011608082801103592
1761466571234362600,8.295362548828125,0.018157867714762688,0.039962466806173325,-0.009957188740372658
1761466571244348000,8.305347900390625,0.015814268961548805,0.04858846217393875,-0.009233350865542889
1761466571254332000,8.315331787109375,0.015191622078418732,0.04340595006942749,-0.006961141712963581
1761466571264317000,8.32531689453125,0.01273241639137268,0.03761063516139984,-0.014288291335105896
1761466571274301000,8.335301025390624,0.015717552974820137,0.0320638045668602,-0.016742661595344543
1761466571284286000,8.345285888671874,0.017817087471485138,0.038415972143411636,-0.01869102753698826
1761466571294270000,8.35527001953125,0.013288646936416626,0.04239393398165703,-0.011454686522483826
1761466571304255000,8.3652548828125,0.010511127300560474,0.03741149231791496,-0.003963771741837263
1761466571314239000,8.375239013671875,0.0159346554428339,0.04100223258137703,0.0012379141990095377
1761466571324224000,8.38522412109375,0.011826273053884506,0.04429680109024048,0.007049206644296646
1761466571334208000,8.3952080078125,0.01260471437126398,0.04997705668210983,0.009244184009730816
1761466571344193000,8.405193115234376,0.00862809270620346,0.04988895729184151,0.00844575371593237
1761466571354177000,8.415177001953126,0.009484831243753433,0.04663883522152901,0.009489445947110653
1761466571364162000,8.425162109375,0.00988885946571827,0.0392262265086174,-0.0013307167682796717
1761466571374146000,8.43514599609375,0.013773612678050995,0.02977227419614792,-0.007787817157804966
1761466571384131000,8.445131103515624,0.008470172993838787,0.01567712239921093,-0.01588592864573002
1761466571394115000,8.455114990234375,0.013702485710382462,0.01029141154140234,-0.020683879032731056
1761466571404099800,8.465099853515625,0.01210060529410839,0.014707781374454498,-0.02267247810959816
1761466571414083800,8.475083740234375,0.01443672925233841,0.020578453317284584,-0.017967473715543747
1761466571424069000,8.485069091796875,0.014489096589386463,0.026953987777233124,-0.01916506700217724
1761466571434052900,8.495052978515625,0.01744307577610016,0.023849006742239,-0.015452621504664421
1761466571444036900,8.505036865234375,0.014676550403237343,0.024640005081892014,-0.01590963639318943
1761466571454022000,8.51502197265625,0.011008046567440033,0.017063045874238014,-0.020325424149632454
1761466571464006000,8.525005859375,0.003952093422412872,0.015001446940004826,-0.024631202220916748
1761466571473991200,8.5349912109375,0.008156158961355686,0.009626389481127262,-0.03565588966012001
1761466571483975000,8.544974853515624,0.006460910197347403,0.00831689778715372,-0.04856022819876671
1761466571493960200,8.554960205078125,0.0072151171043515205,0.0024049468338489532,-0.04767313227057457
1761466571503944200,8.564944091796875,0.010910808108747005,0.004356877878308296,-0.04383928328752518
1761466571513929200,8.57492919921875,0.014806481078267097,0.016363205388188362,-0.03218209370970726
1761466571523913200,8.584913330078125,0.011225973255932331,0.025671886280179024,-0.017574330791831017
1761466571533899000,8.59489892578125,0.009388924576342106,0.02709774300456047,-0.0066495114006102085
1761466571543883000,8.604883056640626,0.003132050856947899,0.020554877817630768,-0.007570957764983177
1761466571553868000,8.614867919921876,0.002852418925613165,0.02074236422777176,-0.010778469033539295
1761466571563852000,8.62485205078125,0.0011074352078139782,0.017222290858626366,-0.017743485048413277
1761466571573837000,8.634837158203124,0.003819065634161234,0.0166462492197752,-0.019771749153733253
1761466571583821000,8.644821044921875,0.006137493997812271,0.014046486467123032,-0.021409865468740463
1761466571593806000,8.65480615234375,0.007271201815456152,0.010521261021494865,-0.017583701759576797
1761466571603790000,8.6647900390625,0.008044524118304253,0.0023299180902540684,-0.02037283219397068
1761466571613775000,8.674775146484375,0.005371243227273226,-0.006106975954025984,-0.01801540143787861
1761466571623759000,8.684759033203125,0.005457605235278606,-0.004653450101613998,-0.009950275532901287
1761466571633744100,8.694744140625,0.0048834276385605335,0.0009461126755923033,-0.009854667820036411
1761466571643728100,8.70472802734375,0.007504581473767757,0.0020913146436214447,0.015545481815934181
1761466571653713000,8.714712890625,0.008475303649902344,0.015550399199128151,0.016348158940672874
1761466571663697000,8.72469677734375,0.004435782786458731,0.007984276860952377,0.013023501262068748
1761466571673682000,8.734681884765624,0.0030810327734798193,0.012762519530951977,0.015530867502093315
1761466571683666000,8.744666015625,0.0013389280065894127,0.01658172719180584,0.010434928350150585
1761466571693651000,8.75465087890625,0.00577628705650568,0.019925059750676155,0.014616090804338455
1761466571703635000,8.764635009765625,0.007126369047909975,0.027858983725309372,0.013942528516054153
1761466571713619000,8.774618896484375,0.010355185717344284,0.025465868413448334,0.0087136784568429
1761466571723604000,8.78460400390625,0.009454194456338882,0.0115963788703084,-0.005077497102320194
1761466571733588000,8.794587890625,0.005963323637843132,0.002150412881746888,-0.009040812961757183
1761466571743573000,8.804572998046876,0.0032768293749541044,-0.005903780926018953,-0.017758406698703766
1761466571753557000,8.814556884765626,-0.0013770447112619877,-0.010754195973277092,-0.018719539046287537
1761466571763542000,8.8245419921875,-0.00009246589615941048,-0.017055535688996315,-0.015790581703186035
1761466571773526000,8.834526123046874,-0.0026632151566445827,-0.01925530657172203,-0.012123143300414085
1761466571783511000,8.844510986328125,-0.006020335480570793,-0.016052596271038055,-0.01111646555364132
1761466571793495000,8.8544951171875,-0.007597725838422775,-0.006340315565466881,-0.008962500840425491
