time,seconds_elapsed,z,y,x
1761477942988062000,0.11306201171875,0.014026356860995293,-0.012970509007573128,-0.025594305247068405
1761477942998045000,0.123044921875,0.01641920767724514,0.0035245786421000957,-0.028286494314670563
1761477943008029000,0.13302880859375,0.020942803472280502,0.0156046561896801,-0.03045010380446911
1761477943018013000,0.143012939453125,0.016942203044891357,0.011429619044065475,-0.029222652316093445
1761477943027996700,0.15299658203125,0.015478764660656452,-0.0016559286741539836,-0.026224611327052116
1761477943037980700,0.162980712890625,0.01098574511706829,0.0021736971102654934,-0.027132483199238777
1761477943047965000,0.17296484375,0.007228786125779152,-0.0014954182552173734,-0.020522676408290863
1761477943057948000,0.182947998046875,0.006638363003730774,-0.011252442374825478,-0.018842222169041634
1761477943067932000,0.192931884765625,0.012122975662350655,-0.008889111690223217,-0.014163199812173843
1761477943077916000,0.202916015625,0.018197380006313324,0.004804596304893494,-0.011948250234127045
1761477943087900000,0.21289990234375,0.017475999891757965,0.01366165466606617,-0.0084536112844944
1761477943097884000,0.2228837890625,0.02250058576464653,0.0070229279808700085,-0.012983115389943123
1761477943107867000,0.232866943359375,0.018157796934247017,-0.0015667094849050045,-0.015003581531345844
1761477943117851000,0.242850830078125,0.015122592449188232,-0.0038080259691923857,-0.010863963514566422
1761477943127835000,0.2528349609375,0.01081155613064766,-0.0049560172483325005,-0.010921542532742023
1761477943137819000,0.26281884765625,0.010280787944793701,-0.004242023918777704,-0.01234793197363615
1761477943147803000,0.272802978515625,0.0029193575028330088,-0.0012591553386300802,-0.008322622627019882
1761477943157785900,0.282785888671875,0.003336941124871373,0.010731461457908154,0.0007113527972251177
1761477943167769900,0.292769775390625,0.0035734788980334997,0.015648474916815758,-0.0016894303262233734
1761477943177753900,0.30275390625,0.008861451409757137,-0.004694079980254173,-0.006570738274604082
1761477943187737900,0.31273779296875,0.012623047456145287,-0.02401072531938553,-0.003641091287136078
1761477943197721900,0.322721923828125,0.0142116229981184,-0.039267975836992264,-0.006955927703529596
1761477943207705900,0.332705810546875,0.011215735226869583,-0.04955980181694031,-0.008731570094823837
1761477943217688800,0.342688720703125,0.01203678734600544,-0.04284597188234329,-0.004676375072449446
1761477943227672800,0.3526728515625,0.005669612903147936,-0.021217726171016693,0.0008557841647416353
1761477943237656800,0.36265673828125,0.005476533900946379,-0.004621438682079315,-0.0024902112782001495
1761477943247640800,0.372640869140625,0.003894893452525139,-0.010499094612896442,-0.005453883204609156
1761477943257624800,0.382624755859375,0.008187908679246902,-0.019195914268493652,-0.008622245863080025
1761477943267607800,0.39260791015625,0.00807495042681694,-0.02775990217924118,-0.014551205560564995
1761477943277592000,0.402592041015625,0.005014179740101099,-0.03095116838812828,-0.013839077204465866
1761477943287576000,0.412576171875,0.00564458966255188,-0.0175229012966156,-0.004643294960260391
1761477943297560000,0.42256005859375,0.005297313444316387,-0.00634295167401433,-0.0049468958750367165
1761477943307544000,0.4325439453125,0.004680159501731396,-0.007336084730923176,-0.005253802984952927
1761477943317526800,0.44252685546875,0.007451178971678019,-0.0031605144031345844,-0.0006302890833467245
1761477943327510800,0.4525107421875,0.005838161800056696,-0.005626903846859932,-0.00398058770224452
1761477943337494800,0.462494873046875,0.002734513720497489,-0.0048745605163276196,-0.004199499264359474
1761477943347478800,0.472478759765625,-0.002316645346581936,-0.002360560931265354,-0.0032826983369886875
1761477943357462800,0.482462890625,0.003972143400460482,-0.009190237149596214,-0.006689414381980896
1761477943367446800,0.49244677734375,0.006022678688168526,-0.00721953809261322,-0.003701725509017706
1761477943377430000,0.502429931640625,0.007528962567448616,-0.011924544349312782,-0.003967242315411568
1761477943387414000,0.5124140625,0.01331354584544897,-0.015402286313474178,-0.007208619266748428
1761477943397398000,0.52239794921875,0.014658176340162754,-0.016324540600180626,-0.005493277218192816
1761477943407381800,0.5323818359375,0.01246396079659462,-0.0072853052988648415,-0.0010793318506330252
1761477943417365800,0.54236572265625,0.009777896106243134,0.0006242829840630293,0.0015577301383018494
1761477943427349800,0.552349853515625,0.005712903570383787,0.012301678769290447,0.004404614679515362
1761477943437332700,0.562332763671875,0.004654297139495611,0.01613423228263855,0.0034386860206723213
1761477943447316700,0.572316650390625,0.005108396057039499,0.0069025056436657906,0.0005138048436492682
1761477943457300700,0.58230078125,0.0027642815839499235,-0.0038406855892390013,-0.0017815736355260015
1761477943467284700,0.59228466796875,0.005451343022286892,-0.01579100824892521,-0.0018742961110547185
1761477943477268700,0.602268798828125,0.010581124573946,-0.017104744911193848,-0.006325503811240196
1761477943487251700,0.612251708984375,0.013457424938678741,-0.004133999813348055,0.0015063525643199682
1761477943497235500,0.6222353515625,0.011258719488978386,-0.000811706529930234,-0.0023666827473789454
1761477943507219500,0.632219482421875,0.016048971563577652,-0.006291788537055254,-0.006358343176543713
1761477943517203500,0.642203369140625,0.01062224805355072,-0.007788484916090965,-0.008543732576072216
1761477943527187700,0.652187744140625,0.0071731265634298325,-0.003338846145197749,-0.004323549568653107
1761477943537171700,0.662171630859375,0.0028875679709017277,-0.005073096603155136,-0.007135581225156784
1761477943547154700,0.67215478515625,0.0027997710276395082,-0.009029136039316654,-0.007941688410937786
1761477943557138700,0.682138671875,0.00046950532123446465,-0.004410149529576302,-0.0074737705290317535
1761477943567122700,0.692122802734375,0.0024656548630446196,-0.008021136745810509,-0.0023560512345284224
1761477943577106700,0.702106689453125,0.007125121541321278,-0.015691040083765984,-0.001120078144595027
1761477943587090700,0.712090576171875,0.011283240281045437,-0.018322624266147614,0.0010501390788704157
1761477943597074700,0.72207470703125,0.01493976078927517,-0.02653634548187256,-0.005795516539365053
1761477943607057700,0.7320576171875,0.013365372084081173,-0.02756999060511589,-0.008284294046461582
1761477943617041700,0.742041748046875,0.011500893160700798,-0.015244615264236927,-0.009028380736708641
1761477943627025700,0.752025634765625,0.007212658878415823,-0.0000909147784113884,-0.010605580173432827
1761477943637009700,0.762009765625,0.004013403318822384,0.00017034122720360756,-0.006982349790632725
1761477943646993700,0.77199365234375,0.002195610199123621,-0.0030815054196864367,-0.008693309500813484
1761477943656977700,0.781977783203125,-0.0018739663064479828,-0.00012832623906433582,-0.006893279030919075
1761477943666960600,0.791960693359375,-0.002096290700137615,0.008271570317447186,-0.0015290847513824701
1761477943676944600,0.801944580078125,-0.0046225655823946,0.005973261781036854,-0.003822066355496645
1761477943686928600,0.8119287109375,0.0029687141068279743,-0.005167245864868164,-0.006910134106874466
1761477943696912600,0.82191259765625,0.00702124647796154,-0.01248667761683464,-0.009831089526414871
1761477943706896600,0.831896728515625,0.005329529754817486,-0.01103108562529087,-0.006207751110196114
1761477943716880600,0.841880615234375,0.0054933144710958,-0.008403078652918339,-0.00492464005947113
1761477943726863600,0.851863525390625,0.0009373477660119534,0.0012707705609500408,-0.0055354805663228035
1761477943736847600,0.86184765625,0.0034830633085221052,0.020627688616514206,0.0026185857132077217
1761477943746831600,0.87183154296875,0.00244350079447031,0.013200243003666401,-0.002977954689413309
1761477943756815600,0.881815673828125,0.00426510302349925,-0.005226435139775276,-0.009322136640548706
1761477943766799600,0.891799560546875,0.00005867099389433861,-0.008667120710015297,-0.0056879231706261635
1761477943776783600,0.90178369140625,-0.003443119116127491,-0.006947784218937159,0.001729779178276658
1761477943786766600,0.9117666015625,-0.0016145966947078705,0.00445964653044939,0.011065563187003136
1761477943796750600,0.92175048828125,-0.001499814447015524,0.018000489100813866,0.010713227093219757
1761477943806734600,0.931734619140625,-0.0010270625352859497,0.017262814566493034,0.012957913801074028
1761477943816718600,0.941718505859375,0.008577628061175346,0.012433173134922981,0.010719792917370796
1761477943826702600,0.95170263671875,0.010180678218603134,0.001605380792170763,0.0021430065389722586
1761477943836686600,0.9616865234375,0.014314170926809311,0.0016730250790715218,-0.0038235397078096867
1761477943846669600,0.971669677734375,0.01681692898273468,-0.0013774966355413198,-0.008275661617517471
1761477943856653600,0.981653564453125,0.018758639693260193,-0.006857216823846102,-0.00604419969022274
1761477943866637800,0.991637939453125,0.013225335627794266,-0.005590058863162994,-0.005629794206470251
1761477943876621800,1.001621826171875,0.009364550933241844,-0.010144064202904701,-0.005586384795606136
1761477943886605800,1.011605712890625,0.008243460208177567,-0.0046826815232634544,-0.0030160602182149887
1761477943896589800,1.02158984375,0.009651473723351955,0.006339609622955322,-0.005923699587583542
1761477943906572500,1.031572509765625,0.008594387210905552,0.012211430817842484,-0.0032751080580055714
1761477943916556500,1.041556640625,0.007937918417155743,0.011896112933754921,-0.004691643640398979
1761477943926540500,1.05154052734375,0.006312686018645763,0.0029357271268963814,-0.0011798144550994039
1761477943936524500,1.061524658203125,0.004279096145182848,0.0001119773369282484,0.0001400480978190899
1761477943946508500,1.071508544921875,0.006353965029120445,-0.003361317329108715,0.0009373987559229136
1761477943956492500,1.081492431640625,0.009288768284022808,0.007851123809814453,-0.0003257386852055788
1761477943966475800,1.091475830078125,0.006396458484232426,0.009117781184613705,0.0006289007142186165
1761477943976459800,1.101459716796875,0.0011052899062633514,0.01591842994093895,-0.0017567590111866593
1761477943986443800,1.11144384765625,0.0002968050539493561,0.01218047458678484,-0.006573242135345936
1761477943996427500,1.121427490234375,0.0009799059480428696,0.00788239948451519,-0.00027806172147393227
1761477944006411500,1.13141162109375,0.004808816127479076,0.000427731079980731,-0.0025814413093030453
1761477944016395500,1.1413955078125,0.009727674536406994,0.00034144450910389423,-0.009817250072956085
1761477944026378800,1.151378662109375,0.013010518625378609,0.0019206264987587929,-0.009633217006921768
1761477944036362800,1.16136279296875,0.011089314706623554,0.0018290136940777302,-0.008660630322992802
1761477944046346800,1.1713466796875,0.008328216150403023,0.01269383542239666,-0.008350588381290436
1761477944056330800,1.181330810546875,0.0037752760108560324,0.02070089429616928,-0.012734416872262955
1761477944066314800,1.191314697265625,-0.0019703274592757225,0.0231765303760767,-0.01126446109265089
1761477944076298800,1.201298828125,-0.004763451404869556,0.030496228486299515,-0.0145992711186409
1761477944086282800,1.21128271484375,-0.0055242497473955154,0.02940669283270836,-0.015186117962002754
1761477944096265500,1.221265380859375,-0.006793512962758541,0.0292477048933506,-0.0071558877825737
1761477944106249500,1.23124951171875,-0.0045952023938298225,0.022257504984736443,-0.0005762518849223852
1761477944116233500,1.2412333984375,-0.003252437338232994,0.022579215466976166,0.0012850312050431967
1761477944126217700,1.2512177734375,-0.004126022569835186,0.013719305396080017,-0.0012345105642452836
1761477944136201700,1.26120166015625,0.00433697085827589,0.0064374241046607494,-0.00024487986229360104
1761477944146185700,1.271185791015625,0.0027245585806667805,0.0025410684756934643,0.004845062270760536
1761477944156168700,1.281168701171875,-0.004908593837171793,0.014142331667244434,0.003609621664509177
1761477944166152700,1.291152587890625,-0.008194533176720142,0.01922432705760002,0.0055445656180381775
1761477944176136700,1.30113671875,-0.006495703011751175,0.02822980470955372,0.002397774951532483
1761477944186120700,1.31112060546875,-0.003793145064264536,0.026504933834075928,0.004097086377441883
1761477944196104400,1.3211044921875,-0.0010522203519940376,0.02508333884179592,0.007403667084872723
1761477944206088400,1.33108837890625,-0.0029458613134920597,0.022329209372401237,0.009298874996602535
1761477944216071700,1.34107177734375,-0.004659338388592005,0.010241921059787273,0.013190818019211292
1761477944226055700,1.3510556640625,-0.0024151764810085297,0.0005508502945303917,0.013792110607028008
1761477944236039700,1.361039794921875,-0.0064155105501413345,0.0018078619614243507,0.013055214658379555
1761477944246023700,1.371023681640625,-0.003951851278543472,0.0019476013258099556,0.013031510636210442
1761477944256007700,1.381007568359375,-0.007973491214215755,0.002852809615433216,0.009487908333539963
1761477944265991700,1.39099169921875,-0.009705711156129837,0.0006865570321679115,0.011944036930799484
1761477944275975700,1.4009755859375,-0.014641081914305687,0.00886539090424776,0.015719864517450333
1761477944285958700,1.410958740234375,-0.02254129946231842,0.018979258835315704,0.01902245171368122
1761477944295942700,1.420942626953125,-0.019688788801431656,0.03194352239370346,0.023539971560239792
1761477944305926700,1.4309267578125,-0.012895294465124607,0.04334067553281784,0.023468969389796257
1761477944315910700,1.44091064453125,-0.0009187934920191765,0.036096613854169846,0.018640125170350075
1761477944325894700,1.450894775390625,0.0032722889445722103,0.0331132598221302,0.018238041549921036
1761477944335878700,1.460878662109375,0.0042755017057061195,0.024764785543084145,0.01995977759361267
1761477944345862700,1.470862548828125,-0.0019897506572306156,0.00948839820921421,0.02081901766359806
1761477944355845600,1.480845703125,-0.005194065626710653,0.01958790421485901,0.024710429832339287
1761477944365829600,1.49082958984375,-0.014078918844461441,0.02248072251677513,0.023607343435287476
1761477944375813600,1.500813720703125,-0.013265322893857956,0.01561455987393856,0.01641840673983097
1761477944385797600,1.510797607421875,-0.011620359495282173,0.005361431278288364,0.009861071594059467
1761477944395781600,1.52078173828125,-0.0022787884809076786,0.0005019616801291704,0.008397931233048439
1761477944405765600,1.530765625,0.0017247111536562443,0.002872896147891879,0.011900249868631363
1761477944415749600,1.54074951171875,0.004778824280947447,0.013001696206629276,0.013978580012917519
1761477944425732600,1.550732666015625,0.009095190092921257,0.017622683197259903,0.010572029277682304
1761477944435717600,1.560717529296875,0.00562375970184803,0.010228948667645454,0.007141078822314739
1761477944445701600,1.57070166015625,0.005052114371210337,-0.001077884342521429,0.006200338713824749
1761477944455685600,1.580685546875,0.000997717957943678,0.004615687765181065,0.009503723122179508
1761477944465669600,1.590669677734375,-0.0045396205969154835,0.010238412767648697,0.010260256007313728
1761477944475653600,1.600653564453125,-0.0009520766325294971,0.02415209636092186,0.005597327370196581
1761477944485637600,1.6106376953125,0.0035839946940541267,0.027508582919836044,0.005288797430694103
1761477944495620600,1.62062060546875,0.011237120255827904,0.01923973485827446,0.0015656973700970411
1761477944505604900,1.63060498046875,0.005208937451243401,0.01892150565981865,0.0054691992700099945
1761477944515588900,1.6405888671875,0.00427523348480463,0.02482227236032486,0.014517289586365223
1761477944525572900,1.65057275390625,-0.0026474306359887123,0.028037024661898613,0.020681213587522507
1761477944535556900,1.660556884765625,-0.009023304097354412,0.033167339861392975,0.021021831780672073
1761477944545540600,1.67054052734375,-0.003907458391040564,0.03961365669965744,0.016095418483018875
1761477944555524600,1.680524658203125,0.0011613359674811363,0.04034016653895378,0.010785606689751148
1761477944565507600,1.690507568359375,0.0026180928107351065,0.026344485580921173,-0.0007341322489082813
1761477944575491600,1.70049169921875,0.006290858145803213,0.016353370621800423,-0.006288420874625444
1761477944585475600,1.7104755859375,-0.0003859749995172024,0.0008807345293462276,-0.004355001728981733
1761477944595459600,1.72045947265625,-0.002811581827700138,0.004569745156913996,0.006002830341458321
1761477944605443800,1.73044384765625,-0.0046390569768846035,0.019893134012818336,0.012691885232925415
1761477944615427800,1.740427734375,-0.012017611414194107,0.042386990040540695,0.018232857808470726
1761477944625411800,1.750411865234375,-0.006307808216661215,0.053206972777843475,0.020618773996829987
1761477944635394600,1.76039453125,-0.009132890030741692,0.050558991730213165,0.012709719128906727
1761477944645378600,1.770378662109375,-0.007003834471106529,0.034824322909116745,0.010642921552062035
1761477944655362600,1.780362548828125,-0.004916714504361153,0.013061504811048508,0.00950521882623434
1761477944665346600,1.7903466796875,-0.006742903962731361,0.00515362061560154,0.010464735329151154
1761477944675330600,1.80033056640625,-0.012998135760426521,0.008433302864432335,0.017255796119570732
1761477944685314600,1.810314453125,-0.011670572683215141,0.011160708963871002,0.016565999016165733
1761477944695298600,1.820298583984375,-0.009838052093982697,0.009256016463041306,0.019232088699936867
1761477944705281800,1.83028173828125,-0.00518020149320364,0.01504061184823513,0.018157510086894035
1761477944715265800,1.840265869140625,-0.005480872467160225,0.023434629663825035,0.018711714074015617
1761477944725249800,1.850249755859375,-0.009096696972846985,0.02240023948252201,0.016454635187983513
1761477944735233800,1.86023388671875,-0.010286331176757812,0.009693765081465244,0.015163267962634563
1761477944745217800,1.8702177734375,-0.007795869838446379,0.0015867138281464577,0.013758587650954723
1761477944755201500,1.880201416015625,-0.0030834064818918705,-0.0018780587706714869,0.019445501267910004
1761477944765185500,1.890185546875,0.0033175647258758545,0.012507733888924122,0.02325282245874405
1761477944775168800,1.900168701171875,-0.0017219348810613155,0.03636779263615608,0.028223345056176186
1761477944785152800,1.91015283203125,-0.008624136447906494,0.030795373022556305,0.022330736741423607
1761477944795136800,1.92013671875,-0.010864920914173126,0.009282359853386879,0.01632397621870041
1761477944805120800,1.930120849609375,-0.009461486712098122,-0.007730304263532162,0.01120613981038332
1761477944815104800,1.940104736328125,-0.005798840895295143,-0.005402701441198587,0.010931834578514099
1761477944825088800,1.9500888671875,-0.014369729906320572,0.014152515679597855,0.01629992574453354
1761477944835072800,1.96007275390625,-0.013779839500784874,0.02055502124130726,0.0185345858335495
1761477944845056800,1.970056884765625,-0.016142215579748154,0.02292422577738762,0.02429858222603798
1761477944855039500,1.98003955078125,-0.01413605734705925,0.020362265408039093,0.020852714776992798
1761477944865023500,1.9900234375,-0.011300982907414436,0.013100124895572662,0.015184318646788597
1761477944875007700,2.0000078125,-0.0031639602966606617,0.0042096939869225025,0.007900040596723557
1761477944884991700,2.00999169921875,0.001432123128324747,0.00024238298647105694,0.003349763574078679
1761477944894975700,2.019975830078125,-0.0029887245036661625,-0.0040397136472165585,0.0015774297062307596
1761477944904959700,2.029959716796875,-0.0023954431526362896,-0.009678161703050137,0.006655448116362095
1761477944914943700,2.03994384765625,-0.005597361829131842,-0.004064484499394894,0.007367843762040138
1761477944924927700,2.049927734375,-0.006043535191565752,-0.0058905743062496185,0.0021527744829654694
1761477944934910700,2.05991064453125,-0.00332098500803113,-0.019396530464291573,-0.0038406692910939455
1761477944944894700,2.069894775390625,-0.002824478317052126,-0.018075907602906227,-0.003320487216114998
1761477944954878500,2.07987841796875,-0.0037504597567021847,-0.014329371973872185,0.00230916915461421
1761477944964862500,2.089862548828125,-0.0013044578954577446,-0.007607503794133663,0.0023356794845312834
1761477944974846700,2.0998466796875,0.001236198004335165,-0.0012830286286771297,0.0019521841313689947
1761477944984830700,2.109830810546875,0.004278623498976231,0.004500566981732845,0.00024675833992660046
1761477944994814700,2.119814697265625,0.004313511308282614,0.00235352641902864,-0.004603656940162182
1761477945004798700,2.129798828125,0.00773973111063242,-0.01144278421998024,-0.011654309928417206
1761477945014781700,2.13978173828125,0.008658788166940212,-0.024937022477388382,-0.012416506186127663
1761477945024765700,2.149765625,0.005167725961655378,-0.023326769471168518,-0.010744495317339897
1761477945034749700,2.159749755859375,0.0027969800867140293,-0.021977610886096954,-0.008608373813331127
1761477945044733700,2.169733642578125,-0.0027087940834462643,-0.0137407798320055,-0.00820409506559372
1761477945054717700,2.1797177734375,-0.0028502079658210278,-0.014321083202958107,-0.005673026666045189
1761477945064701700,2.18970166015625,-0.0012787343002855778,-0.01270279660820961,-0.0028620848897844553
1761477945074685700,2.199685791015625,0.001992692705243826,-0.010866813361644745,0.0021981874015182257
1761477945084669700,2.209669677734375,0.0018203863874077797,-0.000640275189653039,0.006575092673301697
1761477945094652700,2.219652587890625,-0.0029570581391453743,0.0013248715549707413,0.003454666817560792
1761477945104636700,2.22963671875,0.0026822113431990147,-0.0061980970203876495,0.0007939208298921585
1761477945114620700,2.23962060546875,0.002784743206575513,-0.011727086268365383,-0.002589891664683819
1761477945124604700,2.249604736328125,0.003634087508544326,-0.014215348288416862,-0.0053528547286987305
1761477945134588700,2.259588623046875,0.0019600247032940388,-0.006502034142613411,-0.0028790440410375595
1761477945144572700,2.26957275390625,-0.0005318555049598217,0.0035480414517223835,-0.0010020157787948847
1761477945154556700,2.279556640625,-0.0013710176572203636,-0.006098993122577667,-0.004360794555395842
1761477945164540700,2.289540771484375,-0.0038452250882983208,-0.018670491874217987,-0.0058201071806252
1761477945174523600,2.299523681640625,-0.0014049704186618328,-0.019011110067367554,-0.005892012268304825
1761477945184507600,2.309507568359375,-0.00231082271784544,-0.00945270899683237,-0.00547481793910265
1761477945194491600,2.31949169921875,-0.00013155769556760788,-0.003065383294597268,-0.0028699804097414017
1761477945204475600,2.3294755859375,-0.0003114864230155945,0.0004312035162001848,-0.0015789885073900223
1761477945214459600,2.339459716796875,-0.0010811402462422848,0.0020038001239299774,-0.0030160301830619574
1761477945224443600,2.349443603515625,-0.003813412506133318,0.009341834113001823,-0.002737618749961257
1761477945234427600,2.359427734375,0.0005286047235131264,0.006627007853239775,-0.0025424091145396233
1761477945244411600,2.36941162109375,0.0029723215848207474,-0.00036219158209860325,-0.004732326604425907
1761477945254395000,2.379394775390625,0.0022759048733860254,-0.009136774577200413,-0.010035479441285133
1761477945264379000,2.38937890625,0.003954426385462284,-0.016213707625865936,-0.0063945031724870205
1761477945274363000,2.39936279296875,-0.0012035840190947056,-0.0023993593640625477,-0.001986971590667963
1761477945284346600,2.4093466796875,-0.0004701036959886551,0.005273571237921715,-0.00308284442871809
1761477945294330600,2.41933056640625,-0.00020591821521520615,-0.00011107395403087139,-0.006765996105968952
1761477945304314600,2.429314697265625,0.0017428859136998653,-0.006030862219631672,-0.0054629771038889885
1761477945314298600,2.439298583984375,-0.00011919625103473663,-0.009614678099751472,-0.004786267876625061
1761477945324282600,2.44928271484375,-0.005853996146470308,-0.01229353528469801,-0.0072339316830039024
1761477945334266600,2.4592666015625,0.0014148359186947346,-0.012018697336316109,-0.011382337659597397
1761477945344250600,2.469250732421875,0.00348449032753706,0.0001758676953613758,-0.012600877322256565
1761477945354233900,2.47923388671875,0.007834764197468758,0.012548647820949554,-0.011457848362624645
1761477945364217900,2.4892177734375,0.01684301719069481,0.0047758957371115685,-0.015477769076824188
1761477945374201900,2.499201904296875,0.014519676566123962,-0.0007914425805211067,-0.013454565778374672
1761477945384185900,2.509185791015625,0.011355085298418999,-0.007868161424994469,-0.01516642328351736
1761477945394169600,2.519169677734375,0.010914597660303116,-0.017177239060401917,-0.01706073060631752
1761477945404153600,2.529153564453125,0.007251420058310032,-0.02611507475376129,-0.01723543182015419
1761477945414137600,2.5391376953125,0.009926831349730492,-0.013363593257963657,-0.014601034112274647
1761477945424121600,2.54912158203125,0.015313022769987583,0.0013727257028222084,-0.020584670826792717
1761477945434104300,2.559104248046875,0.015820089727640152,-0.002267016563564539,-0.022904550656676292
1761477945444088300,2.56908837890625,0.020324546843767166,-0.015327263623476028,-0.02473100647330284
1761477945454072300,2.579072265625,0.019241172820329666,-0.0067100729793310165,-0.020420946180820465
1761477945464056300,2.589056396484375,0.017517779022455215,-0.0023555895313620567,-0.0220970306545496
1761477945474040000,2.5990400390625,0.01826905645430088,-0.004579062573611736,-0.025078440085053444
1761477945484024000,2.609024169921875,0.014049917459487915,-0.01496482826769352,-0.027558816596865654
1761477945494008000,2.619008056640625,0.013143111020326614,-0.01636059209704399,-0.03220869600772858
1761477945503992000,2.628991943359375,0.008635134436190128,-0.02400863729417324,-0.03198865056037903
1761477945513976000,2.63897607421875,0.008414092473685741,-0.02080485410988331,-0.029580622911453247
1761477945523959000,2.648958984375,0.007211984135210514,-0.009836040437221527,-0.02324560284614563
1761477945533943300,2.658943359375,0.005411687307059765,-0.002014868427067995,-0.015697140246629715
1761477945543927300,2.66892724609375,0.007682408206164837,-0.001191878691315651,-0.013340297155082226
1761477945553911300,2.678911376953125,0.005401411093771458,-0.009143811650574207,-0.011292592622339725
1761477945563895300,2.688895263671875,0.01261337660253048,-0.0052934326231479645,-0.01170436106622219
1761477945573879300,2.69887939453125,0.011129995808005333,-0.015930896624922752,-0.016489796340465546
1761477945583863300,2.70886328125,0.015983853489160538,-0.02132321521639824,-0.015243832021951675
1761477945593847000,2.718846923828125,0.010691354051232338,-0.023579711094498634,-0.010965464636683464
1761477945603831000,2.7288310546875,0.006710577756166458,-0.021813971921801567,-0.012412430718541145
1761477945613815000,2.73881494140625,0.004332108423113823,-0.015254340134561062,-0.010764732025563717
1761477945623798000,2.748798095703125,0.00332520785741508,-0.006098070181906223,-0.00919756293296814
1761477945633782300,2.7587822265625,0.002367268782109022,-0.008883470669388771,-0.01582776941359043
1761477945643766300,2.768766357421875,0.0014617936685681343,-0.016249967738986015,-0.015195844694972038
1761477945653750300,2.778750244140625,0.002093495335429907,-0.00818272028118372,-0.011155297048389912
1761477945663734300,2.788734375,0.00510223675519228,-0.005566495470702648,-0.010657485574483871
1761477945673718300,2.79871826171875,0.008599500171840191,-0.023139895871281624,-0.009819921106100082
1761477945683702300,2.808702392578125,0.010900303721427917,-0.02952589839696884,-0.003545270301401615
1761477945693686300,2.818686279296875,0.01485855970531702,-0.018217850476503372,-0.0042142560705542564
1761477945703670000,2.828669921875,0.006491067353636026,-0.008897203952074051,-0.0061683957464993
1761477945713654000,2.838654052734375,0.006897731684148312,-0.016547400504350662,-0.010296029038727283
1761477945723637000,2.848636962890625,0.004427493084222078,-0.016787882894277573,-0.014085449278354645
1761477945733621200,2.858621337890625,0.0040911356918513775,-0.008809052407741547,-0.01603834517300129
1761477945743605200,2.868605224609375,0.0024118502624332905,-0.008598290383815765,-0.016317125409841537
1761477945753589200,2.87858935546875,0.004293906036764383,-0.018580351024866104,-0.015525635331869125
1761477945763573200,2.8885732421875,0.005722696892917156,-0.022162018343806267,-0.013264264911413193
1761477945773557200,2.89855712890625,0.00782366469502449,-0.013655881397426128,-0.009880718775093555
1761477945783541200,2.908541259765625,0.009581931866705418,-0.009000945836305618,-0.011369194835424423
1761477945793525200,2.918525146484375,0.012127913534641266,-0.0131336385384202,-0.01784893125295639
1761477945803509200,2.92850927734375,0.014043845236301422,-0.013342415913939476,-0.01718762330710888
1761477945813493200,2.9384931640625,0.011709051206707954,-0.015408496372401714,-0.020484350621700287
1761477945823476000,2.94847607421875,0.01637539081275463,-0.017546281218528748,-0.017903130501508713
1761477945833460000,2.9584599609375,0.013082925230264664,-0.020977498963475227,-0.0163747426122427
1761477945843444200,2.9684443359375,0.011713897809386253,-0.02428419142961502,-0.015153501182794571
1761477945853428200,2.97842822265625,0.006922072730958462,-0.02308843284845352,-0.014527658000588417
1761477945863412200,2.988412109375,0.005748418625444174,-0.01252568420022726,-0.0122532332316041
1761477945873396200,2.998396240234375,0.002598165301606059,-0.0063466173596680164,-0.01238239649683237
1761477945883380200,3.008380126953125,0.005000501871109009,-0.008295989595353603,-0.011604273691773415
1761477945893364200,3.0183642578125,0.012434449978172779,-0.005839223973453045,-0.014572898857295513
1761477945903348200,3.02834814453125,0.018163489177823067,-0.0021420815028250217,-0.013996980153024197
1761477945913332200,3.038332275390625,0.022315090522170067,-0.003831857116892934,-0.014419890008866787
1761477945923316200,3.048316162109375,0.01919654756784439,-0.0016517904587090015,-0.014471234753727913
1761477945933299000,3.058298828125,0.009847253561019897,-0.0002573593519628048,-0.009377673268318176
1761477945943283200,3.068283203125,0.0010523083619773388,0.0010508240666240454,-0.006368224509060383
1761477945953267200,3.07826708984375,-0.0005288100801408291,-0.010123000480234623,-0.008007400669157505
1761477945963251200,3.088251220703125,0.002380059100687504,-0.012069129385054111,-0.011418033391237259
1761477945973235200,3.098235107421875,0.0087372912093997,-0.012463809922337532,-0.01737019792199135
1761477945983219200,3.10821923828125,0.009088820777833462,-0.0033530776854604483,-0.012394732795655727
1761477945993203200,3.118203125,0.011176206171512604,0.005464648827910423,-0.0047756945714354515
1761477946003187200,3.128187255859375,0.011152257211506367,0.007387257181107998,-0.002484305528923869
1761477946013171200,3.138171142578125,0.016180038452148438,0.0014284343924373388,0.0001303860917687416
1761477946023155200,3.1481552734375,0.01846432499587536,-0.0077162329107522964,-0.0034166942350566387
1761477946033139200,3.15813916015625,0.0200963094830513,0.001835992792621255,-0.008116108365356922
1761477946043122200,3.1681220703125,0.01837729848921299,-0.006474320776760578,-0.015633955597877502
1761477946053106200,3.178106201171875,0.017863573506474495,-0.020246857777237892,-0.01856156811118126
1761477946063090200,3.188090087890625,0.01260414719581604,-0.022244814783334732,-0.01923392154276371
1761477946073074200,3.19807421875,0.012339162640273571,-0.02085038460791111,-0.02549474686384201
1761477946083058200,3.20805810546875,0.013752936385571957,-0.015114895068109035,-0.02500119060277939
1761477946093042200,3.218042236328125,0.012483406811952591,-0.002633457537740469,-0.026954885572195053
1761477946103026200,3.228026123046875,0.012255962938070297,0.001373402075842023,-0.02547406032681465
1761477946113010200,3.23801025390625,0.0059139118529856205,0.005634992383420467,-0.019360506907105446
1761477946122994200,3.247994140625,0.00842479057610035,0.007363061886280775,-0.018879977986216545
1761477946132978200,3.257978271484375,0.0103246895596385,0.007291689980775118,-0.016234394162893295
1761477946142962200,3.267962158203125,0.005756947211921215,-0.002392267342656851,-0.014764029532670975
1761477946152946200,3.2779462890625,0.0034924615174531937,-0.004268464166671038,-0.011705122888088226
1761477946162929200,3.28792919921875,-0.004734570160508156,-0.0012198779731988907,-0.006662481464445591
1761477946172913200,3.2979130859375,-0.004706074483692646,0.006562145426869392,-0.0012717106146737933
1761477946182897200,3.307897216796875,-0.0013116574846208096,0.008792595006525517,-0.0011301295598968863
1761477946192881200,3.317881103515625,-0.0016855653375387192,0.01383502408862114,-0.0006694027688354254
1761477946202865200,3.327865234375,0.004814739804714918,0.014819669537246227,-0.0006915258709341288
1761477946212849200,3.33784912109375,0.0062730866484344006,0.006254677660763264,-0.0040391189977526665
1761477946222833200,3.347833251953125,0.006549899000674486,-0.0037750282790511847,-0.0026573895011097193
1761477946232817200,3.357817138671875,0.008323830552399158,0.003201122395694256,-0.002445668214932084
1761477946242801200,3.36780126953125,-0.0007454077713191509,0.010980190709233284,-0.0009258838836103678
1761477946252785200,3.37778515625,0.005431527737528086,0.0019281061831861734,-0.006009059492498636
1761477946262769200,3.38776904296875,0.005023273639380932,-0.010336753912270069,-0.0063931504264473915
1761477946272753200,3.397753173828125,0.0021297491621226072,-0.010677105747163296,-0.0032767190132290125
1761477946282737200,3.407737060546875,-0.003041495569050312,-0.013325583189725876,-0.002366662723943591
1761477946292720000,3.41772021484375,-0.006663661450147629,-0.014924544841051102,0.005451046861708164
1761477946302704000,3.4277041015625,-0.005970263388007879,-0.0050882576033473015,0.011360876262187958
1761477946312688000,3.437688232421875,-0.005694093648344278,0.0015989395324140787,0.011084972880780697
1761477946322672000,3.447672119140625,-0.005714481230825186,0.007494731806218624,0.01103066187351942
1761477946332656000,3.45765625,-0.00083557004109025,0.007354116998612881,0.006536844186484814
1761477946342640000,3.46764013671875,0.0028525630477815866,-0.003755992976948619,0.0011595305986702442
1761477946352624000,3.4776240234375,-0.0035962816327810287,-0.01730935275554657,0.0022410405799746513
1761477946362608000,3.487608154296875,-0.006653104908764362,-0.018010511994361877,0.0035565427970141172
1761477946372592000,3.497592041015625,-0.011321094818413258,-0.02164173126220703,0.006117438897490501
1761477946382576000,3.507576171875,-0.01162957213819027,-0.013304011896252632,0.004606625065207481
1761477946392560000,3.51756005859375,-0.008582649752497673,0.003247268032282591,0.004660154692828655
1761477946402544400,3.52754443359375,-0.0030620726756751537,0.003806023159995675,-0.000056223710998892784
1761477946412527000,3.537527099609375,0.00422273762524128,0.006821786984801292,0.0007504478562623262
1761477946422511000,3.547510986328125,0.005198361352086067,0.014019215479493141,0.009821723215281963
1761477946432495900,3.557495849609375,0.0000725751742720604,0.008169848471879959,0.010272064246237278
1761477946442479900,3.56747998046875,-0.004503285046666861,-0.001746498397551477,0.013677640818059444
1761477946452463900,3.5774638671875,-0.014349790289998055,-0.009697100147604942,0.01868012174963951
1761477946462447900,3.58744775390625,-0.018490159884095192,-0.011150436475872993,0.017925219610333443
1761477946472431600,3.597431640625,-0.01589038223028183,-0.006621730513870716,0.01579788513481617
1761477946482415600,3.60741552734375,-0.014830581843852997,-0.001939214183948934,0.013143467716872692
1761477946492399600,3.617399658203125,-0.015115274116396904,0.0003527021035552025,0.013907262124121189
1761477946502383600,3.627383544921875,-0.01148998737335205,-0.010765845887362957,0.018986156210303307
1761477946512367600,3.63736767578125,-0.01081753894686699,-0.01142018474638462,0.023797955363988876
1761477946522351600,3.6473515625,-0.011459892615675926,-0.010280635207891464,0.02420499548316002
1761477946532335900,3.6573359375,-0.008664105087518692,-0.005486146546900272,0.02551926299929619
1761477946542319900,3.66731982421875,-0.008156755939126015,-0.0009615796152502298,0.026510631665587425
1761477946552302800,3.677302734375,-0.006728501990437508,0.005380206275731325,0.020248208194971085
1761477946562286800,3.687286865234375,-0.008202184922993183,0.008203713223338127,0.013350168243050575
1761477946572270800,3.697270751953125,-0.007112685590982437,0.0036558329593390226,0.005759094841778278
1761477946582254600,3.707254638671875,-0.0033805356360971928,-0.005757429171353579,-0.0011052637128159404
1761477946592238600,3.717238525390625,-0.006160876248031855,-0.013404429890215397,0.003797882003709674
1761477946602222600,3.72722265625,-0.004907387774437666,-0.014057189226150513,0.0066254460252821445
1761477946612206600,3.73720654296875,-0.0023944289423525333,-0.006766520440578461,0.009946674108505249
1761477946622190600,3.747190673828125,-0.009085746482014656,0.005577613599598408,0.013316411525011063
1761477946632174800,3.7571748046875,-0.00784764252603054,0.021186400204896927,0.01582271233201027
1761477946642158800,3.767158935546875,-0.010095492005348206,0.021481629461050034,0.019320735707879066
1761477946652142800,3.777142822265625,-0.011696584522724152,0.020295457914471626,0.019561486318707466
1761477946662126800,3.787126953125,-0.009176500141620636,0.012459049001336098,0.018546467646956444
1761477946672110800,3.79711083984375,-0.007264616433531046,0.007257363293319941,0.01581060141324997
1761477946682094800,3.8070947265625,-0.008438626304268837,-0.0033511093351989985,0.014329376630485058
1761477946692078800,3.817078857421875,-0.0046617318876087666,-0.012042069807648659,0.01320525724440813
1761477946702062800,3.827062744140625,-0.0046145739033818245,-0.008100088685750961,0.013558133505284786
1761477946712045600,3.837045654296875,-0.0063948966562747955,0.000520563218742609,0.01005501113831997
1761477946722029600,3.847029541015625,-0.004981853533536196,0.003182759741321206,0.001736176898702979
1761477946732013800,3.857013916015625,-0.004778920207172632,-0.0008260966278612614,-0.004408534616231918
1761477946741997800,3.866997802734375,-0.005144739989191294,0.0029702060855925083,-0.007284863851964474
1761477946751981800,3.87698193359375,0.0012982450425624847,0.00994422659277916,-0.0008306931704282761
1761477946761965800,3.8869658203125,-0.0007687979377806187,0.0020784838125109673,0.00600518099963665
1761477946771949800,3.89694970703125,-0.0007131379097700119,0.007380571682006121,0.016924673691391945
1761477946781933800,3.906933837890625,-0.003619998227804899,0.004523088224232197,0.018164703622460365
1761477946791917800,3.916917724609375,-0.010117579251527786,0.001446338603273034,0.014726564288139343
1761477946801901800,3.92690185546875,-0.013276752084493637,0.005173630081117153,0.0183402169495821
1761477946811885800,3.9368857421875,-0.01383361965417862,0.009561986662447453,0.018121039494872093
1761477946821869800,3.946869873046875,-0.01244651060551405,0.008100105449557304,0.02033173479139805
1761477946831853800,3.956853759765625,-0.006730834022164345,0.01396997831761837,0.02460983768105507
1761477946841837800,3.966837890625,0.0012554801069200039,0.01589774526655674,0.018063979223370552
1761477946851821600,3.976821533203125,0.007621500175446272,0.0076360865496098995,0.00993015244603157
1761477946861805600,3.9868056640625,0.006921818945556879,-0.0014336418826133013,0.005736241117119789
1761477946871788800,3.996788818359375,0.0014676651917397976,-0.00962898787111044,0.001026706537231803
1761477946881772800,4.006772705078125,-0.0038400706835091114,-0.012082036584615707,0.004977733828127384
1761477946891756800,4.0167568359375,-0.007798859383910894,-0.002110895002260804,0.007639829069375992
1761477946901740800,4.02674072265625,-0.0065805744379758835,0.011840792372822762,0.008424513973295689
1761477946911724800,4.036724853515625,-0.00427267886698246,0.01874557137489319,0.006749918684363365
1761477946921708800,4.046708740234375,0.00035321200266480446,0.020076842978596687,0.008924691006541252
1761477946931692800,4.05669287109375,-0.00105719780549407,0.018934613093733788,0.00737899262458086
1761477946941676800,4.0666767578125,0.0007859556935727596,0.013450982049107552,0.009867031127214432
1761477946951660800,4.076660888671875,0.00011084415018558502,0.005399978253990412,0.012409817427396774
1761477946961644500,4.08664453125,-0.0009882994927465916,0.001432390883564949,0.01340740080922842
1761477946971628500,4.096628662109375,-0.002034389413893223,0.007723842281848192,0.014055612497031689
1761477946981612800,4.10661279296875,-0.00532127870246768,0.01670423522591591,0.01236644946038723
1761477946991596800,4.1165966796875,-0.009278204292058945,0.026739824563264847,0.008472908288240433
1761477947001580800,4.126580810546875,-0.004580597393214703,0.024049244821071625,0.003284309059381485
1761477947011564800,4.136564697265625,-0.00630978774279356,0.02214668318629265,-0.00429930817335844
1761477947021548800,4.146548828125,0.002964501967653632,0.015433354303240776,-0.0020546428859233856
1761477947031532800,4.15653271484375,0.003909391351044178,0.006069147028028965,-0.001086051226593554
1761477947041516800,4.166516845703125,0.002189658349379897,0.0067246221005916595,0.00860805343836546
1761477947051499800,4.176499755859375,0.002058364450931549,0.004297683481127024,0.013470718637108803
1761477947061483800,4.18648388671875,-0.001138370018452406,0.006788876373320818,0.010258468799293041
1761477947071467800,4.1964677734375,-0.0009498181752860546,0.00961662083864212,0.007280255667865276
1761477947081451800,4.20645166015625,-0.0023732739500701427,0.010956589132547379,0.007629897445440292
1761477947091435800,4.216435791015625,-0.003098452929407358,0.011828508228063583,0.0052061546593904495
1761477947101419800,4.226419677734375,-0.004146257881075144,0.013674460351467133,0.006876448169350624
1761477947111403800,4.23640380859375,-0.005474109668284655,0.013392165303230286,0.007504954002797604
1761477947121387800,4.2463876953125,-0.0032918197102844715,0.014598416164517403,0.011212737299501896
1761477947131371800,4.256371826171875,0.008069491945207119,0.012425810098648071,0.006947951391339302
1761477947141355800,4.266355712890625,0.0071176993660628796,0.011676708236336708,0.007591015659272671
1761477947151339800,4.27633984375,0.011786753311753273,0.011975248344242573,0.0075646499171853065
1761477947161323800,4.28632373046875,0.010254956781864166,0.007881580851972103,0.002881815889850259
1761477947171307800,4.296307861328125,0.008106584660708904,0.008425931446254253,0.0030357467476278543
1761477947181291800,4.306291748046875,0.0023773694410920143,0.021878914907574654,-0.006109999492764473
1761477947191275800,4.31627587890625,0.0006726798601448536,0.03311425819993019,-0.003538983641192317
1761477947201259800,4.326259765625,0.003692148020491004,0.015033815056085587,-0.00021605868823826313
1761477947211243800,4.336243896484375,0.0013000965118408203,0.010575417429208755,0.0004888798575848341
1761477947221227800,4.346227783203125,0.00424669636413455,0.01110464334487915,0.00029201898723840714
1761477947231211800,4.356211669921875,0.0028405473567545414,0.011425287462770939,0.0028361366130411625
1761477947241195800,4.36619580078125,0.0026979173999279737,0.011099867522716522,0.0013443049974739552
1761477947251178800,4.3761787109375,0.0013841800391674042,0.017313821241259575,0.007963857613503933
1761477947261162800,4.386162841796875,0.003519746707752347,0.012723946943879128,0.008872643113136292
1761477947271146800,4.396146728515625,-0.0014624949544668198,0.01712402142584324,0.009700354188680649
1761477947281130800,4.406130859375,0.0019003460183739662,0.01785692758858204,0.005007829051464796
1761477947291114800,4.41611474609375,0.001997551415115595,0.0057206363417208195,-0.003127595642581582
1761477947301098800,4.4260986328125,-0.0005898913368582726,0.01140819676220417,-0.0001081652007997036
1761477947311082800,4.436082763671875,-0.0015901746228337288,0.0012186765670776367,-0.003974009770900011
1761477947321066800,4.446066650390625,0.0011305767111480236,-0.010736119002103806,-0.006334642879664898
1761477947331050800,4.45605078125,-0.0025738803669810295,-0.017108798027038574,0.00026520318351686
1761477947341034800,4.46603466796875,-0.003893651068210602,-0.009482860565185547,0.0012304955162107944
1761477947351018800,4.476018798828125,-0.004616432823240757,0.0015729859005659819,0.002960751298815012
1761477947361002800,4.486002685546875,-0.006505779456347227,0.0073297047056257725,0.006138073280453682
1761477947370986800,4.49598681640625,-0.007299401331692934,0.006123559083789587,0.007021709345281124
1761477947380970800,4.505970703125,-0.004977277014404535,0.0036491055507212877,0.007620967924594879
1761477947390954800,4.515954833984375,-0.004486722405999899,0.000001107342541217804,0.004312256351113319
1761477947400938800,4.525938720703125,0.006151139736175537,0.01866367645561695,0.01608610711991787
1761477947410922800,4.5359228515625,-0.002674842718988657,0.010861944407224655,0.011772851459681988
1761477947420906800,4.54590673828125,-0.003435327671468258,0.005875727161765099,0.020190909504890442
1761477947430890800,4.555890869140625,-0.003586328588426113,0.008337553590536118,0.021117422729730606
1761477947440875000,4.565875,-0.003847970161587,0.006947837304323912,0.022397274151444435
1761477947450859000,4.57585888671875,-0.006904746871441603,0.014798037707805634,0.020169539377093315
1761477947460843000,4.585843017578125,-0.005790896248072386,0.011406784877181053,0.01675064116716385
1761477947470827000,4.595826904296875,-0.0032062982209026814,0.0035485955886542797,0.019538437947630882
1761477947480813000,4.60581298828125,0.0030394282657653093,0.002354285679757595,0.011654626578092575
1761477947490797000,4.615797119140625,0.0028042709454894066,0.0013883570209145546,0.005191401112824678
1761477947500780000,4.625780029296875,0.003589889733120799,0.004643619991838932,0.004001815803349018
1761477947510764000,4.635763916015625,0.004184307064861059,0.008066846989095211,0.0029237682465463877
1761477947520747800,4.645747802734375,0.0013023056089878082,0.008447871543467045,0.006566708907485008
1761477947530732000,4.65573193359375,-0.000016491394490003586,0.007934946566820145,0.009733473882079124
1761477947540716000,4.665716064453125,-0.001732780598104,0.02052558772265911,0.010428624227643013
1761477947550700000,4.675699951171875,0.00026032933965325356,0.019892022013664246,0.007265054155141115
1761477947560684000,4.68568408203125,0.006541170179843903,0.01695837825536728,0.003873322159051895
1761477947570668000,4.69566796875,0.003656966844573617,0.009036537259817123,-0.0001978520303964615
1761477947580652000,4.705652099609375,0.009153250604867935,0.0017044052947312593,-0.0012920746812596917
1761477947590636000,4.715635986328125,0.009201453067362309,-0.0016455851728096604,-0.0048575145192444324
1761477947600620000,4.7256201171875,0.008852620609104633,0.0022411905229091644,-0.006851863116025925
1761477947610604000,4.73560400390625,0.006402512546628714,0.008664734661579132,-0.0060491859912872314
1761477947620588000,4.745588134765625,0.004558180458843708,0.007828794419765472,-0.004317762330174446
1761477947630572000,4.755572021484375,0.006192828994244337,0.008251171559095383,-0.006300219334661961
1761477947640556000,4.76555615234375,0.0050323293544352055,0.004489082843065262,-0.005363719537854195
1761477947650540000,4.7755400390625,0.003125772112980485,-0.0013192715123295784,-0.0028057536110281944
1761477947660524000,4.78552392578125,0.0037953697610646486,-0.001365821110084653,0.00043604010716080666
1761477947670508000,4.795508056640625,0.0019149119034409523,-0.01406670268625021,-0.007414958439767361
1761477947680492000,4.805491943359375,0.0006363433785736561,-0.013694008812308311,-0.0053782290779054165
1761477947690476000,4.81547607421875,-0.006445001810789108,0.0004601601976901293,0.0053548431023955345
1761477947700460000,4.8254599609375,-0.005033526569604874,0.006966262590140104,0.005289329215884209
1761477947710444000,4.835444091796875,-0.008095362223684788,0.0053438651375472546,0.0005321244243532419
1761477947720428000,4.845427978515625,-0.000955432653427124,0.008433734998106956,-0.0055758049711585045
1761477947730412000,4.855412109375,0.001986827701330185,0.0052507249638438225,-0.00882699154317379
1761477947740396000,4.86539599609375,0.0004548877477645874,0.004391610622406006,-0.000917838653549552
1761477947750380000,4.875380126953125,-0.0005134372040629387,-0.004422120749950409,0.0024009926710277796
1761477947760364000,4.885364013671875,0.0017662285827100277,-0.01718851551413536,0.0013897900935262442
1761477947770348000,4.89534814453125,-0.002786977682262659,-0.015708064660429955,0.001702711684629321
1761477947780332000,4.90533203125,-0.0016593956388533115,-0.002452180255204439,0.004930729046463966
1761477947790316000,4.91531591796875,-0.005946551915258169,-0.0028308818582445383,-0.005230828188359737
1761477947800300000,4.925300048828125,-0.00840030051767826,-0.008912965655326843,0.00009968085214495659
1761477947810283800,4.93528369140625,-0.0076727247796952724,-0.002035618294030428,0.0033343564718961716
1761477947820267000,4.94526708984375,-0.004567798227071762,-0.002009929856285453,0.003831481095403433
1761477947830251000,4.9552509765625,0.0013691866770386696,-0.015131058171391487,0.004132951144129038
1761477947840235000,4.965235107421875,0.0042124600149691105,-0.006369675509631634,0.004882057663053274
1761477947850219000,4.975218994140625,0.00012477440759539604,-0.0018407036550343037,0.004087370820343494
1761477947860203000,4.985203125,-0.00030721956863999367,-0.004335057456046343,0.004697605036199093
1761477947870187000,4.99518701171875,-0.0034755817614495754,-0.0023488719016313553,-0.00033097551204264164
1761477947880171000,5.0051708984375,0.00001848442479968071,-0.0043381876312196255,-0.005426378455013037
1761477947890155000,5.015155029296875,0.004236132372170687,-0.003182109212502837,-0.00467989407479763
1761477947900139000,5.025138916015625,0.0050238072872161865,-0.005434921011328697,-0.007077197544276714
1761477947910123000,5.035123046875,0.006096794735640287,-0.0058817993849515915,-0.007604770362377167
1761477947920107000,5.04510693359375,0.004976848140358925,-0.008474165573716164,-0.008100313134491444
1761477947930091000,5.055091064453125,0.003431149525567889,-0.013667861931025982,-0.004944467451423407
1761477947940075000,5.065074951171875,0.004289276897907257,-0.01109757088124752,-0.010257416404783726
1761477947950059000,5.07505908203125,0.004074626136571169,-0.008283941075205803,-0.010817212983965874
1761477947960043000,5.08504296875,0.0022157731000334024,-0.0052987090311944485,-0.01114514097571373
1761477947970027000,5.095027099609375,0.0009813979268074036,-0.010594137944281101,-0.010746465995907784
1761477947980011000,5.105010986328125,0.0013806335628032684,-0.020074879750609398,-0.008558311499655247
1761477947989995000,5.1149951171875,-0.00032059382647275925,-0.02176518738269806,-0.01119191199541092
1761477947999979000,5.12497900390625,0.00473630428314209,-0.01934666372835636,-0.01589031331241131
1761477948009963000,5.134962890625,0.007360849529504776,-0.011509247124195099,-0.014851413667201996
1761477948019947000,5.144947021484375,0.003679359797388315,-0.007409777492284775,-0.013654014095664024
1761477948029931000,5.154930908203125,0.0036585871130228043,-0.009560013189911842,-0.006870409473776817
1761477948039915000,5.1649150390625,0.0032306122593581676,-0.003997793886810541,-0.006911966949701309
1761477948049899000,5.17489892578125,0.003640472888946533,-0.007693728897720575,-0.008764994330704212
1761477948059883000,5.184883056640625,0.004614508245140314,-0.006123844068497419,-0.012616145424544811
1761477948069867000,5.194866943359375,0.005402803886681795,-0.013757528737187386,-0.013559170998632908
1761477948079851000,5.20485107421875,0.0037816204130649567,-0.011167822405695915,-0.011581286787986755
1761477948089835000,5.2148349609375,0.0011339057236909866,0.003713655285537243,-0.008040081709623337
1761477948099819000,5.224819091796875,-0.0018710284493863583,0.009831693023443222,-0.010821143165230751
1761477948109803000,5.234802978515625,-0.0051933214999735355,0.010412795469164848,-0.010385716333985329
1761477948119787000,5.244787109375,-0.0034802271984517574,0.00205025146715343,-0.011150356382131577
1761477948129771000,5.25477099609375,-0.0033606518991291523,-0.013948955573141575,-0.015210079029202461
1761477948139755000,5.264755126953125,-0.0034883636981248856,-0.020404711365699768,-0.010688235983252525
1761477948149739000,5.274739013671875,-0.004787986166775227,-0.018032632768154144,-0.008866899646818638
1761477948159723000,5.284722900390625,-0.002073747105896473,-0.00948889460414648,-0.007654916495084763
1761477948169707000,5.29470703125,-0.002015423960983753,0.006502321921288967,-0.012409191578626633
1761477948179691000,5.30469091796875,-0.0029374179430305958,0.0028275728691369295,-0.01125846616923809
1761477948189675000,5.314675048828125,-0.0011533661745488644,-0.004365625325590372,-0.016705162823200226
1761477948199659000,5.324658935546875,0.00048462720587849617,-0.006808494217693806,-0.0169073436409235
1761477948209643000,5.33464306640625,0.0023123545106500387,-0.004144268110394478,-0.023532753810286522
1761477948219627000,5.344626953125,0.0007717148400843143,-0.006948106922209263,-0.023489629849791527
1761477948229611000,5.354611083984375,-0.002372679766267538,-0.010850170627236366,-0.029132070019841194
1761477948239595000,5.364594970703125,-0.000868682749569416,-0.01661171019077301,-0.02773689478635788
1761477948249579000,5.3745791015625,0.0017241709865629673,-0.02003307268023491,-0.02424442581832409
1761477948259563000,5.38456298828125,0.009266166016459465,-0.01646375097334385,-0.02301914244890213
1761477948269547000,5.394547119140625,0.008910899981856346,-0.006283285561949015,-0.026608018204569817
1761477948279531000,5.404531005859375,0.012632254511117935,-0.0020682879257947206,-0.03129032626748085
1761477948289515000,5.414514892578125,0.015441357158124447,-0.0007801169995218515,-0.03882627189159393
1761477948299499000,5.4244990234375,0.018578508868813515,0.005948142614215612,-0.04110383242368698
1761477948309483000,5.43448291015625,0.016092713922262192,-0.006352998316287994,-0.043598949909210205
1761477948319467000,5.444467041015625,0.015615647658705711,-0.0145433209836483,-0.040072571486234665
1761477948329451000,5.454450927734375,0.011248596012592316,-0.007150119170546532,-0.03173927217721939
1761477948339435000,5.46443505859375,0.011226043105125427,0.012271170504391193,-0.03547046706080437
1761477948349419000,5.4744189453125,0.010861989110708237,0.011478080414235592,-0.03315058723092079
1761477948359403000,5.484403076171875,0.011106999590992928,0.0000935352873057127,-0.034671273082494736
1761477948369386000,5.494385986328125,0.008723204024136066,-0.007357456721365452,-0.0352901928126812
1761477948379370000,5.504369873046875,0.013394287787377834,-0.01308676041662693,-0.0311343465000391
1761477948389354000,5.51435400390625,0.01213913969695568,-0.009970329701900482,-0.027740415185689926
1761477948399338000,5.524337890625,0.014761288650333881,0.004659213125705719,-0.023957926779985428
1761477948409323000,5.534322998046875,0.012877102009952068,0.013744854368269444,-0.02336191199719906
1761477948419307000,5.54430712890625,0.022591881453990936,0.00569236371666193,-0.02833905629813671
1761477948429291000,5.554291015625,0.008308283984661102,0.027275152504444122,-0.02243003435432911
1761477948439277300,5.56427734375,0.009060310199856758,0.011519202962517738,-0.030204875394701958
1761477948449261300,5.57426123046875,0.005870109889656305,-0.010521117597818375,-0.030001144856214523
1761477948459245600,5.58424560546875,0.004648504313081503,0.0021516086999326944,-0.024232354015111923
1761477948469229600,5.5942294921875,0.0009621568024158478,0.02055911161005497,-0.021188627928495407
1761477948479213600,5.604213623046875,0.00018683820962905884,0.024885626509785652,-0.019413921982049942
1761477948489197600,5.614197509765625,0.004281181842088699,0.005863466300070286,-0.017330532893538475
1761477948499181600,5.624181640625,0.008971832692623138,-0.00530372466892004,-0.019200989976525307
1761477948509165600,5.63416552734375,0.011527402326464653,-0.001983295427635312,-0.017430521547794342
1761477948519149600,5.644149658203125,0.0061627402901649475,0.0059015778824687,-0.013370797038078308
1761477948529133300,5.65413330078125,0.008609918877482414,-0.0032485108822584152,-0.01136010978370905
1761477948539117300,5.664117431640625,0.0031356830149888992,0.001231230329722166,-0.010974814184010029
1761477948549101300,5.674101318359375,0.004472590051591396,-0.02142028510570526,-0.02214065007865429
1761477948559085300,5.684085205078125,0.005591105204075575,-0.02695784717798233,-0.030762629583477974
1761477948569069300,5.6940693359375,0.008301137946546078,-0.03297153115272522,-0.04075241461396217
1761477948579053300,5.70405322265625,0.013343911617994308,-0.035898949950933456,-0.041003644466400146
1761477948589037300,5.714037353515625,0.013996386900544167,-0.03725529462099075,-0.03700011596083641
1761477948599021300,5.724021240234375,0.013076091185212135,-0.04147530347108841,-0.032840341329574585
1761477948609005600,5.734005615234375,0.007483453024178743,-0.03817697986960411,-0.024461502209305763
1761477948618989600,5.743989501953125,-0.00020284252241253853,-0.02279987558722496,-0.0191258005797863
1761477948628973600,5.7539736328125,-0.004631413612514734,-0.013476415537297726,-0.005966321565210819
1761477948638957600,5.76395751953125,-0.004508760292083025,0.0014784072991460562,-0.0073106372728943825
1761477948648941600,5.773941650390625,-0.001136666163802147,0.00830808375030756,-0.009347156621515751
1761477948658925600,5.783925537109375,0.005369361024349928,0.01528684701770544,-0.00616895966231823
1761477948668909600,5.79390966796875,0.009539605118334293,0.016733743250370026,-0.0052062273025512695
1761477948678893300,5.803893310546875,0.00759958615526557,-0.006469487678259611,-0.0073945424519479275
1761477948688877300,5.813877197265625,0.007288795430213213,-0.04414708912372589,-0.008317061699926853
1761477948698861300,5.823861328125,0.001015473622828722,-0.04976291581988335,-0.006413011811673641
1761477948708845300,5.83384521484375,-0.0011523393914103508,-0.03755951300263405,-0.011438663117587566
1761477948718829300,5.843829345703125,0.0018533868715167046,-0.016031334176659584,-0.011870445683598518
1761477948728813300,5.853813232421875,0.0013569737784564495,0.0013995878398418427,-0.0056423768401145935
1761477948738797300,5.86379736328125,0.0039059948176145554,0.004103067796677351,-0.00007934891618788242
1761477948748781600,5.873781494140625,-0.0006892895326018333,0.0023357942700386047,0.004717004485428333
1761477948758765600,5.883765625,-0.005164711736142635,-0.005417361855506897,0.009918426163494587
1761477948768749600,5.89374951171875,-0.005444609560072422,-0.013113630004227161,0.006930358707904816
1761477948778733600,5.903733642578125,-0.004233029205352068,-0.015561646781861782,0.002372953575104475
1761477948788717600,5.913717529296875,0.002655502874404192,-0.012621783651411533,-0.0012705172412097454
1761477948798701600,5.92370166015625,0.005960780195891857,-0.00589427724480629,-0.007728697266429663
1761477948808685600,5.933685546875,0.00551017327234149,-0.00039511616341769695,-0.005388311110436916
1761477948818669300,5.94366943359375,0.0022291308268904686,0.005625130608677864,0.0011271266266703606
1761477948828653300,5.9536533203125,-0.007877832278609276,0.0182381272315979,0.008112864568829536
1761477948838637300,5.96363720703125,-0.007188312243670225,0.025978226214647293,0.0010499721392989159
1761477948848621300,5.973621337890625,-0.005780831445008516,0.02475849911570549,-0.010121988132596016
1761477948858605300,5.983605224609375,0.004223622381687164,0.031085291877388954,-0.015221347101032734
1761477948868589300,5.99358935546875,0.010826664045453072,0.003607595106586814,-0.02811477519571781
1761477948878573300,6.0035732421875,0.006200099363923073,-0.030606046319007874,-0.011317476630210876
1761477948888557300,6.013557373046875,0.010070737451314926,-0.03543622046709061,-0.011755567044019699
1761477948898541600,6.02354150390625,0.006209088023751974,-0.03175540640950203,-0.015938524156808853
1761477948908525600,6.033525634765625,0.005690037738531828,-0.0312826968729496,-0.01795666664838791
1761477948918509600,6.043509521484375,0.007581891492009163,-0.0173184797167778,-0.020056430250406265
1761477948928493600,6.05349365234375,0.008281770162284374,-0.008375585079193115,-0.02079865336418152
1761477948938477600,6.0634775390625,0.006496279500424862,-0.015788577497005463,-0.019048864021897316
1761477948948461600,6.073461669921875,0.014669254422187805,-0.010975979268550873,-0.018665635958313942
1761477948958445600,6.083445556640625,0.00974312424659729,-0.015304015018045902,-0.021421018987894058
1761477948968429300,6.09342919921875,0.010348993353545666,-0.02265913411974907,-0.021018080413341522
1761477948978413300,6.103413330078125,0.008175279013812542,-0.02631055749952793,-0.018072936683893204
1761477948988397300,6.113397216796875,0.004913705866783857,-0.007578148506581783,-0.01125870831310749
1761477948998381300,6.12338134765625,0.001066769938915968,0.010651455260813236,-0.006990459281951189
1761477949008365300,6.133365234375,-0.0010251430794596672,0.020825529471039772,0.002289591822773218
1761477949018349300,6.143349365234375,-0.005323398858308792,0.02892732061445713,-0.0018864243756979704
1761477949028333300,6.153333251953125,-0.00750452745705843,0.02556348219513893,-0.005842550192028284
1761477949038317600,6.163317626953125,-0.008078299462795258,0.013726318255066872,-0.008239085786044598
1761477949048301600,6.173301513671875,-0.0015303855761885643,-0.007709464989602566,-0.011586680077016354
1761477949058285600,6.18328564453125,0.003066291566938162,-0.020646564662456512,-0.011903301812708378
1761477949068269600,6.19326953125,0.008087947964668274,-0.020126979798078537,-0.009827367961406708
1761477949078254300,6.20325439453125,0.013628142885863781,-0.008314224891364574,-0.011295323260128498
1761477949088238600,6.213238525390625,0.009802778251469135,0.01306856144219637,-0.010092906653881073
1761477949098222600,6.22322265625,0.0069747124798595905,0.02585471048951149,-0.010603650473058224
1761477949108206600,6.23320654296875,0.005709710996598005,0.024452023208141327,-0.011944286525249481
1761477949118190600,6.243190673828125,0.005125386640429497,0.014552431181073189,-0.01101782824844122
1761477949128174600,6.253174560546875,-0.000032623764127492905,0.003375676926225424,-0.0071916645392775536
1761477949138158300,6.263158447265625,0.0028544683009386063,-0.0083094397559762,-0.00975473877042532
1761477949148142300,6.273142333984375,0.0044174776412546635,-0.01741798408329487,-0.005724044516682625
1761477949158126300,6.283126220703125,0.005852940957993269,-0.011946802958846092,-0.005046911537647247
1761477949168110300,6.2931103515625,0.006446293089538813,0.0018052284140139818,-0.008518341928720474
1761477949178094300,6.30309423828125,0.009936674498021603,0.006667915731668472,-0.011540628038346767
1761477949188078300,6.313078369140625,0.009866367094218731,0.016243310645222664,-0.010936356149613857
1761477949198062300,6.323062255859375,0.005901043768972158,0.016335729509592056,-0.009661713615059853
1761477949208046300,6.33304638671875,0.008871001191437244,0.013825436122715473,-0.014736101031303406
1761477949218030300,6.3430302734375,0.005934618879109621,0.013021410442888737,-0.013625137507915497
1761477949228014600,6.3530146484375,0.0013049799017608166,0.01686142385005951,-0.014620360918343067
1761477949237998600,6.36299853515625,0.00012556789442896843,0.016035279259085655,-0.011137937195599079
1761477949247982600,6.372982666015625,-0.0011732554994523525,0.01707817241549492,-0.013139835558831692
1761477949257966600,6.382966552734375,0.004805870819836855,0.015174604952335358,-0.010221962817013264
1761477949267950600,6.39295068359375,0.0043906839564442635,0.019667357206344604,-0.0052149537950754166
1761477949277934600,6.4029345703125,0.004160523414611816,0.014270668849349022,-0.00446219090372324
1761477949287918300,6.41291845703125,0.0030515831895172596,0.009121713228523731,-0.0006607950199395418
1761477949297902300,6.42290234375,0.0066089509055018425,0.008744090795516968,0.00007565156556665897
1761477949307886300,6.43288623046875,0.0006453343667089939,0.02264605648815632,-0.000050315866246819496
1761477949317870300,6.442870361328125,0.0002628280781209469,0.026747124269604683,-0.0027822910342365503
1761477949327854300,6.452854248046875,0.0022458177991211414,0.02649652026593685,-0.0044851163402199745
1761477949337838300,6.46283837890625,-0.002311655320227146,0.023376308381557465,0.0004903874360024929
1761477949347822300,6.472822265625,-0.0015750243328511715,0.028249096125364304,-0.0015128422528505325
1761477949357806300,6.482806396484375,0.004888058174401522,0.02326286770403385,-0.008396793156862259
1761477949367790300,6.492790283203125,0.010555531829595566,0.010592878796160221,-0.011512691155076027
1761477949377774600,6.502774658203125,0.01150720939040184,0.001783465500921011,-0.008552990853786469
1761477949387758600,6.512758544921875,0.00640645669773221,-0.0012330971658229828,0.001156894490122795
1761477949397742600,6.52274267578125,0.001127080526202917,-0.001697614323347807,0.004158120136708021
1761477949407726600,6.5327265625,-0.0006577698513865471,0.005223941057920456,0.005774925462901592
1761477949417710600,6.542710693359375,0.0013111555017530918,0.014064106158912182,0.0026661590673029423
1761477949427694300,6.5526943359375,-0.0006670407019555569,0.019843963906168938,0.003550062421709299
1761477949437677600,6.562677490234375,-0.003069974947720766,0.014821581542491913,0.0038598973769694567
1761477949447661600,6.57266162109375,-0.0029605193994939327,0.012103825807571411,0.00240501225925982
1761477949457645600,6.5826455078125,0.0009332876652479172,0.016938693821430206,0.0031762132421135902
1761477949467629600,6.592629638671875,0.0016283728182315826,0.027142062783241272,0.0009828335605561733
1761477949477613600,6.602613525390625,0.0003998391330242157,0.02380833402276039,0.0035768572706729174
1761477949487597600,6.61259765625,0.00010129855945706367,0.01754244789481163,0.008950849995017052
1761477949497581600,6.62258154296875,-0.005412305239588022,0.012192419730126858,0.013151695020496845
1761477949507565600,6.632565673828125,-0.012332264333963394,0.0011629383079707623,0.014942402951419353
1761477949517549600,6.642549560546875,-0.01629086583852768,-0.004349528346210718,0.017781676724553108
1761477949527533600,6.652533447265625,-0.013132091611623764,0.004974998068064451,0.0157542135566473
1761477949537517600,6.662517578125,-0.007697998080402613,0.012670164927840233,0.011198081076145172
1761477949547501600,6.67250146484375,0.00195968896150589,0.011735395528376102,0.004179320298135281
1761477949557485600,6.682485595703125,0.00715309614315629,0.009444505907595158,0.0033926458563655615
1761477949567469600,6.692469482421875,0.004960515536367893,0.009522536769509315,0.0053487373515963554
1761477949577453600,6.70245361328125,0.004337069112807512,0.012037469074130058,0.008070208132266998
1761477949587437600,6.7124375,-0.0021123080514371395,0.01601782999932766,0.0095842145383358
1761477949597421600,6.722421630859375,-0.007326790131628513,0.025560960173606873,0.009544468484818935
1761477949607405600,6.732405517578125,-0.008362759836018085,0.03072775900363922,0.008655505254864693
1761477949617389600,6.7423896484375,-0.0047839125618338585,0.02051110751926899,0.00915457122027874
1761477949627373600,6.75237353515625,-0.0026627052575349808,0.017060449346899986,0.007749486714601517
1761477949637357600,6.762357666015625,-0.0020607798360288143,0.014836668968200684,0.00784585252404213
1761477949647341600,6.772341552734375,-0.00708909472450614,0.003725960850715637,0.01034735981374979
1761477949657326300,6.782326416015625,-0.009708364494144917,0.006703149527311325,0.012447303161025047
1761477949667310600,6.792310546875,-0.0095523027703166,0.017413318157196045,0.01242866087704897
1761477949677294600,6.802294677734375,-0.007623244542628527,0.024314582347869873,0.009161108173429966
1761477949687278600,6.812278564453125,-0.004548358265310526,0.021063394844532013,0.002457133261486888
1761477949697262600,6.8222626953125,0.005566243547946215,0.010074193589389324,-0.00007448811084032059
1761477949707246600,6.83224658203125,0.006777449045330286,0.008712252601981163,0.00007438263855874538
1761477949717230600,6.842230712890625,0.010971426963806152,0.01706576533615589,0.0011399784125387669
1761477949727214600,6.852214599609375,0.004895158112049103,0.01320897601544857,0.003918987233191729
1761477949737198600,6.862198486328125,0.002682887017726898,0.007181696593761444,0.009607130661606789
1761477949747182600,6.8721826171875,0.0006373128853738308,0.017897725105285645,0.014676989987492561
1761477949757166600,6.88216650390625,-0.0006270157173275948,0.01332059595733881,0.011723922565579414
1761477949767150600,6.892150634765625,-0.0012592501007020473,0.010152765549719334,0.00518266623839736
1761477949777134600,6.902134521484375,0.0010611768811941147,0.012429223395884037,0.007294187322258949
1761477949787118600,6.91211865234375,0.0034199387300759554,0.015550714917480946,0.00930940080434084
1761477949797102300,6.922102294921875,0.005449301563203335,0.00953439250588417,0.005195571109652519
1761477949807086600,6.932086669921875,0.006397387012839317,-0.0016338402638211846,0.00008389982394874096
1761477949817070600,6.942070556640625,0.0053029973059892654,-0.009029732085764408,-0.004053034354001284
1761477949827054600,6.9520546875,-0.002489145379513502,-0.013058295473456383,-0.003455420956015587
1761477949837038600,6.96203857421875,-0.005351555533707142,-0.002918011276051402,-0.004275646526366472
1761477949847022600,6.972022705078125,-0.013992979191243649,0.007506133057177067,0.004649405367672443
1761477949857006600,6.982006591796875,-0.014565901830792427,0.024554898962378502,0.02097332291305065
1761477949866990600,6.991990478515625,-0.019305262714624405,0.03909149765968323,0.020261460915207863
1761477949876974600,7.001974609375,-0.01780819520354271,0.04862105846405029,0.018712565302848816
1761477949886958600,7.01195849609375,-0.01264192909002304,0.03860251605510712,0.006627672351896763
1761477949896942600,7.021942626953125,-0.012832721695303917,0.022477056831121445,0.004235737957060337
1761477949906926600,7.031926513671875,-0.004558812826871872,0.0019962815567851067,0.0017938856035470963
1761477949916910600,7.04191064453125,-0.0025611710734665394,-0.01472299825400114,0.0021674111485481262
1761477949926894600,7.05189453125,-0.002455443609505892,-0.007336987182497978,0.007707319222390652
1761477949936878300,7.06187841796875,-0.009008891880512238,0.009165779687464237,0.015991488471627235
1761477949946862300,7.0718623046875,-0.011985773220658302,0.022735385224223137,0.019582761451601982
1761477949956846600,7.0818466796875,-0.008784495294094086,0.03638038784265518,0.017268478870391846
1761477949966830600,7.09183056640625,-0.011150980368256569,0.03930533677339554,0.017035186290740967
1761477949976814600,7.101814697265625,-0.01410585455596447,0.038918882608413696,0.014723049476742744
1761477949986798600,7.111798583984375,-0.017401782795786858,0.023276010528206825,0.011003145948052406
1761477949996782600,7.121782470703125,-0.018815169110894203,0.003823466831818223,0.008352376520633698
1761477950006767600,7.131767578125,-0.01850038394331932,-0.004541788715869188,0.015345037914812565
1761477950016751600,7.141751708984375,-0.016276471316814423,-0.005563089158385992,0.025035392493009567
1761477950026735600,7.151735595703125,-0.014539556577801704,0.007506639696657658,0.030797939747571945
1761477950036719600,7.1617197265625,-0.01408986933529377,0.015601621940732002,0.030323194339871407
1761477950046703600,7.17170361328125,-0.01522837020456791,0.029169362038373947,0.03204439952969551
1761477950056687600,7.1816875,-0.016219457611441612,0.02761087566614151,0.027508188039064407
1761477950066671600,7.191671630859375,-0.01639043353497982,0.01811244711279869,0.02349800057709217
1761477950076655600,7.201655517578125,-0.013943292200565338,-0.0036447567399591208,0.017372211441397667
1761477950086639600,7.2116396484375,-0.014297226443886757,-0.011422784999012947,0.01565287448465824
1761477950096623600,7.22162353515625,-0.016808675602078438,-0.01439942978322506,0.017636867240071297
1761477950106607600,7.231607666015625,-0.017892315983772278,-0.00013713655062019825,0.02109578065574169
1761477950116591400,7.24159130859375,-0.014054449275135994,0.013646861538290977,0.024662647396326065
1761477950126575400,7.251575439453125,-0.011533500626683235,0.02738957107067108,0.02517557144165039
1761477950136559400,7.261559326171875,-0.013456836342811584,0.031037304550409317,0.023738795891404152
1761477950146543600,7.271543701171875,-0.01295136846601963,0.025800995528697968,0.024161173030734062
1761477950156527600,7.281527587890625,-0.013831527903676033,0.03019067458808422,0.02404176816344261
1761477950166511600,7.29151171875,-0.011594738811254501,0.02236470952630043,0.025323813781142235
1761477950176495600,7.30149560546875,-0.0144688431173563,0.022206485271453857,0.022382033988833427
1761477950186479600,7.311479736328125,-0.016739720478653908,0.02589842490851879,0.02347419783473015
1761477950196463600,7.321463623046875,-0.012838302180171013,0.04294299706816673,0.022932030260562897
1761477950206447600,7.331447509765625,-0.007838485762476921,0.04864642396569252,0.01669677346944809
1761477950216431600,7.341431640625,-0.0052651031874120235,0.05461481213569641,0.018329259008169174
1761477950226415600,7.35141552734375,-0.011104883626103401,0.05465316027402878,0.021179640665650368
1761477950236399600,7.361399658203125,-0.01434728130698204,0.044708386063575745,0.025064127519726753
1761477950246383600,7.371383544921875,-0.013593073934316635,0.03030228428542614,0.023227877914905548
1761477950256368600,7.38136865234375,-0.011106354184448719,0.024970639497041702,0.027066603302955627
1761477950266352600,7.3913525390625,-0.010012594051659107,0.027811964973807335,0.021626565605401993
1761477950276336600,7.401336669921875,-0.010382024571299553,0.03183466196060181,0.01770281419157982
1761477950286320400,7.4113203125,-0.01132851280272007,0.03764834254980087,0.016219966113567352
1761477950296304400,7.421304443359375,-0.01184009201824665,0.03226262331008911,0.021237000823020935
1761477950306288400,7.431288330078125,-0.014043059200048447,0.02743510901927948,0.02332039177417755
1761477950316272400,7.4412724609375,-0.012328669428825378,0.02090185508131981,0.02004084922373295
1761477950326256600,7.451256591796875,-0.007013798225671053,0.012882012873888016,0.01764586940407753
1761477950336240600,7.46124072265625,-0.009373880922794342,0.0020443100947886705,0.01262894831597805
1761477950346224600,7.471224609375,-0.008607156574726105,-0.01114206574857235,0.00023406418040394783
1761477950356208600,7.481208740234375,-0.007258679252117872,-0.025407899171113968,-0.003903023898601532
1761477950366192600,7.491192626953125,-0.007384646218270063,-0.01554887555539608,0.00015030731447041035
1761477950376176600,7.5011767578125,-0.00637613283470273,-0.0072501362301409245,-0.001834391849115491
1761477950386160600,7.51116064453125,-0.004488218110054731,-0.005174201913177967,-0.001988855190575123
1761477950396144600,7.52114453125,-0.0072951787151396275,-0.016935793682932854,-0.006378634832799435
1761477950406128600,7.531128662109375,-0.006552422884851694,-0.029230542480945587,-0.017257381230592728
1761477950416112600,7.541112548828125,-0.0033855722285807133,-0.039115678519010544,-0.019576357677578926
1761477950426096600,7.5510966796875,-0.004408492241054773,-0.041641153395175934,-0.015033538453280926
1761477950436077600,7.56107763671875,-0.010772976092994213,-0.027821972966194153,-0.007018744945526123
1761477950446061600,7.5710615234375,-0.017960313707590103,-0.01102488487958908,0.0010767315980046988
1761477950456045600,7.581045654296875,-0.022903408855199814,-0.014618287794291973,-0.0045822192914783955
1761477950466029600,7.591029541015625,-0.012543710879981518,-0.03649322688579559,-0.008181481622159481
1761477950476014600,7.6010146484375,-0.011516235768795013,-0.06052241101861,-0.016192270442843437
1761477950485998600,7.61099853515625,-0.0061337207444012165,-0.06290274113416672,-0.012408450245857239
1761477950495982600,7.620982666015625,-0.0008372045122087002,-0.059257157146930695,-0.008364623412489891
1761477950505966600,7.630966552734375,0.0027644545771181583,-0.02756420709192753,-0.0028968872502446175
1761477950515950300,7.640950439453125,0.005375193897634745,-0.012409741058945656,-0.011662743054330349
1761477950525934300,7.650934326171875,0.007111042272299528,-0.008159336633980274,-0.017569102346897125
1761477950535918600,7.660918701171875,0.005749688483774662,-0.02536681294441223,-0.022215407341718674
1761477950545902600,7.670902587890625,0.008011244237422943,-0.031275566667318344,-0.02592599019408226
1761477950555886600,7.680886474609375,0.009947960264980793,-0.024913808330893517,-0.02785649336874485
1761477950565870600,7.69087060546875,0.009743163362145424,-0.009062939323484898,-0.02575818821787834
1761477950575854600,7.7008544921875,0.003876335918903351,0.00947236455976963,-0.02423875406384468
1761477950585838600,7.710838623046875,0.003037173766642809,0.015955565497279167,-0.03134273737668991
1761477950595822600,7.720822509765625,0.0021116086281836033,0.006980475969612598,-0.032746054232120514
1761477950605806600,7.730806640625,0.0018367702141404152,-0.012036624364554882,-0.032208897173404694
1761477950615790600,7.74079052734375,0.010014327242970467,-0.02701929770410061,-0.027424419298768044
1761477950625774600,7.750774658203125,0.01255817897617817,-0.030324280261993408,-0.022073062136769295
1761477950635758600,7.760758544921875,0.011368809267878532,-0.023103954270482063,-0.01737314835190773
1761477950645742600,7.77074267578125,0.008209768682718277,-0.011961022391915321,-0.010063037276268005
1761477950655726600,7.7807265625,0.005017540883272886,-0.0009717368520796299,-0.013117983937263489
1761477950665710300,7.79071044921875,0.002655583433806896,-0.003765925532206893,-0.020080819725990295
1761477950675695600,7.800695556640625,0.0046923803165555,-0.0018311459571123123,-0.027933508157730103
1761477950685679600,7.8106796875,0.008474601432681084,-0.004323598463088274,-0.03921172767877579
1761477950695663400,7.820663330078125,0.014680884778499603,-0.011261390522122383,-0.042293425649404526
1761477950705647400,7.8306474609375,0.011989494785666466,-0.019578441977500916,-0.039279259741306305
1761477950715631400,7.84063134765625,0.01160561665892601,-0.02106662653386593,-0.026622191071510315
1761477950725615600,7.85061572265625,0.0025394174735993147,-0.021631482988595963,-0.022641297429800034
1761477950735599600,7.860599609375,0.012807341292500496,-0.030219096690416336,-0.021901510655879974
1761477950745583600,7.87058349609375,0.008423245511949062,-0.019873514771461487,-0.025142842903733253
1761477950755567600,7.880567626953125,0.007933756336569786,-0.008919933810830116,-0.023166777566075325
1761477950765551600,7.890551513671875,0.005902563687413931,0.0017106062732636929,-0.02608826570212841
1761477950775535600,7.90053564453125,0.002727766754105687,0.013479633256793022,-0.025656238198280334
1761477950785519600,7.91051953125,-0.005949344951659441,0.03813331574201584,-0.02672203630208969
1761477950795503600,7.920503662109375,0.00016164220869541168,0.020578043535351753,-0.030788367614150047
1761477950805487600,7.930487548828125,0.0022109446581453085,0.028230102732777596,-0.023077450692653656
1761477950815471600,7.9404716796875,0.006818850990384817,-0.005985679104924202,-0.03424788638949394
1761477950825455600,7.95045556640625,-0.001431089360266924,-0.02734449692070484,-0.0359877273440361
1761477950835439400,7.960439453125,0.008897196501493454,-0.047460123896598816,-0.037557460367679596
1761477950845423400,7.97042333984375,-0.002068901900202036,-0.04650591313838959,-0.027927733957767487
1761477950855407400,7.980407470703125,-0.009030420333147049,-0.037150487303733826,-0.020090412348508835
1761477950865392400,7.990392333984375,-0.006597622763365507,-0.011578815057873726,-0.008197001181542873
1761477950875376400,8.00037646484375,-0.0095887565985322,0.01804988645017147,-0.0023801878560334444
1761477950885360400,8.0103603515625,-0.00016169948503375053,0.01773989386856556,-0.0030800667591392994
1761477950895342600,8.020342529296874,0.000986478291451931,0.002151904162019491,-0.003453571582213044
1761477950905326600,8.03032666015625,0.0072286613285541534,-0.013822268694639206,-0.004677027929574251
1761477950915310600,8.040310546875,0.007859040051698685,-0.01403133012354374,-0.0013308535562828183
1761477950925294600,8.050294677734374,0.004646202549338341,-0.013477927073836327,-0.0007042116485536098
1761477950935278600,8.060278564453125,0.00490313395857811,-0.024776121601462364,0.004524350166320801
1761477950945262600,8.0702626953125,0.00034140562638640404,-0.02613060548901558,0.017839089035987854
1761477950955246300,8.080246337890625,-0.01020272821187973,-0.012748481705784798,0.025864925235509872
1761477950965230600,8.090230712890625,-0.01735598035156727,-0.010093575343489647,0.03007112257182598
1761477950975214600,8.100214599609375,-0.023065004497766495,-0.005522523075342178,0.03598981350660324
1761477950985198600,8.110198486328125,-0.01835094392299652,-0.002838589483872056,0.024414120241999626
1761477950995182600,8.1201826171875,-0.012842727825045586,-0.016623910516500473,0.01565924473106861
1761477951005166600,8.13016650390625,-0.006503605749458075,-0.02316037379205227,0.007529412396252155
1761477951015150600,8.140150634765625,-0.006017385050654411,-0.03531823307275772,0.004741679411381483
1761477951025134600,8.150134521484375,-0.00016375677660107613,-0.04205815866589546,0.003948856610804796
1761477951035118600,8.16011865234375,0.0030329725705087185,-0.02966594137251377,0.006603718735277653
1761477951045103600,8.170103515625,0.00012453459203243256,-0.012069904245436192,0.01064826175570488
1761477951055087600,8.180087646484376,0.0012963172048330307,0.00506754033267498,0.012324806302785873
1761477951065071600,8.190071533203126,-0.00481377262622118,0.018890677019953728,0.00782113429158926
1761477951075055600,8.2000556640625,-0.007948918268084526,0.012522794306278229,0.002637354889884591
1761477951085039600,8.21003955078125,-0.006666871253401041,0.0016531026922166348,-0.0012439361307770014
1761477951095023600,8.220023681640624,-0.004374841693788767,-0.005550745874643326,-0.002650864887982607
1761477951105007600,8.230007568359374,0.00023482413962483406,-0.004406385589390993,-0.0012207473628222942
1761477951114991600,8.23999169921875,0.004835270345211029,0.0030443326104432344,0.006655873730778694
1761477951124975400,8.249975341796874,0.0068717896938323975,0.01649516075849533,0.01213665958493948
1761477951134959400,8.25995947265625,0.008984863758087158,0.012562740594148636,0.010718920268118382
1761477951144943400,8.269943359375,0.00830815453082323,0.00620843842625618,0.01059215422719717
1761477951154927600,8.279927734375,0.005671300925314426,0.002528479089960456,0.012383023276925087
1761477951164911600,8.28991162109375,-0.002770919818431139,-0.019931023940443993,0.0014571389183402061
1761477951174895600,8.2998955078125,0.0015691048465669155,-0.027052052319049835,-0.0010814289562404156
1761477951184879600,8.309879638671875,0.001391205471009016,-0.01480230875313282,-0.003345914650708437
1761477951194863600,8.319863525390625,0.002897885162383318,-0.0054873693734407425,0.000278157414868474
1761477951204848600,8.3298486328125,0.004675811622291803,-0.0081260297447443,0.007712638005614281
1761477951214832600,8.33983251953125,0.007550680078566074,-0.013697091490030289,0.00900044571608305
1761477951224816600,8.349816650390625,0.008256151340901852,-0.029151946306228638,0.008106688968837261
1761477951234800600,8.359800537109376,0.005047250539064407,-0.024765724316239357,0.0036444570869207382
1761477951244784600,8.36978466796875,0.005123949609696865,-0.013999895192682743,-0.0017388565465807915
1761477951254768600,8.3797685546875,0.010863913223147392,-0.013997227884829044,-0.009847195819020271
1761477951264752600,8.389752685546876,0.010018358938395977,-0.013919197954237461,-0.015605214983224869
1761477951274736600,8.399736572265626,0.003650669241324067,-0.01537994109094143,-0.015685316175222397
1761477951284720600,8.409720703125,-0.0019060159102082253,-0.025934847071766853,-0.012806704267859459
1761477951294704600,8.41970458984375,0.0000914260745048523,-0.019104905426502228,-0.010229624807834625
1761477951304688400,8.4296884765625,0.0017279386520385742,-0.0030210099648684263,-0.006023961119353771
1761477951314672400,8.43967236328125,0.008686310611665249,0.012017061933875084,-0.005082513205707073
1761477951324656400,8.449656494140624,0.012957754544913769,0.010903061367571354,-0.011166238225996494
1761477951334640400,8.459640380859375,0.01520394254475832,0.002957784803584218,-0.017087657004594803
1761477951344624600,8.469624755859375,0.01297727320343256,-0.00563037721440196,-0.024424931034445763
1761477951354608600,8.479608642578125,0.009097177535295486,-0.012756729498505592,-0.025294942781329155
1761477951364593400,8.489593505859375,0.008286777883768082,-0.021488435566425323,-0.03243301436305046
1761477951374577400,8.499577392578125,0.008989722467958927,-0.023425886407494545,-0.03216088190674782
1761477951384561700,8.509561767578125,0.008285049349069595,-0.009847759269177914,-0.02814723178744316
1761477951394545700,8.519545654296875,0.0091662323102355,-0.0006534650456160307,-0.01991870254278183
1761477951404529700,8.52952978515625,0.013995874673128128,-0.0009581306949257851,-0.023975495249032974
1761477951414513700,8.539513671875,0.0165866632014513,-0.011945533566176891,-0.03203872591257095
1761477951424497700,8.54949755859375,0.018530236557126045,-0.01985538750886917,-0.036441996693611145
1761477951434481700,8.559481689453126,0.016424255445599556,-0.0203121155500412,-0.03730938211083412
1761477951444465400,8.56946533203125,0.01350090280175209,-0.008347864262759686,-0.03086107224225998
1761477951454449400,8.579449462890626,0.010613847523927689,0.0038563357666134834,-0.018435705453157425
1761477951464433200,8.58943310546875,0.0024893423542380333,0.01577478088438511,-0.01230351161211729
1761477951474417200,8.599417236328126,0.0019754767417907715,0.01216966100037098,-0.012511380016803741
1761477951484403500,8.609403564453125,0.010374287143349648,0.007529901806265116,-0.01871228590607643
1761477951494387500,8.619387451171875,0.008698616176843643,0.01115339994430542,-0.023005671799182892
1761477951504371500,8.629371337890625,0.014508567750453949,-0.006622135639190674,-0.03046172298491001
1761477951514356500,8.6393564453125,0.019234441220760345,-0.01398444827646017,-0.02968207374215126
1761477951524340500,8.649340576171875,0.01853216625750065,-0.003189059207215905,-0.02385108172893524
1761477951534324500,8.659324462890625,0.014338266104459763,0.004824397154152393,-0.02268434874713421
1761477951544308500,8.66930859375,0.015300200320780277,0.01142637338489294,-0.01890319399535656
1761477951554292200,8.679292236328125,0.008322900161147118,0.011841555126011372,-0.019202955067157745
1761477951564276200,8.689276123046875,0.006059478968381882,0.0013545590918511152,-0.01972173899412155
1761477951574260200,8.69926025390625,0.005464080721139908,-0.0025770601350814104,-0.01963023655116558
1761477951584244200,8.709244140625,0.011353394947946072,-0.003061222843825817,-0.0205311831086874
1761477951594228200,8.719228271484376,0.011022696271538734,-0.012647803872823715,-0.019838474690914154
1761477951604212200,8.729212158203126,0.021060416474938393,-0.015367955900728703,-0.01686478778719902
1761477951614196200,8.7391962890625,0.02133883163332939,-0.007515900768339634,-0.019054275006055832
1761477951624180200,8.74918017578125,0.02228771522641182,0.0018927808851003647,-0.024236518889665604
1761477951634164200,8.759164306640624,0.020960478112101555,-0.003507302375510335,-0.02959863282740116
1761477951644148200,8.769148193359374,0.014123344793915749,-0.01111621968448162,-0.028642557561397552
1761477951654133200,8.77913330078125,0.009083875454962254,-0.007101511582732201,-0.026734285056591034
1761477951664117200,8.7891171875,0.0021071925293654203,-0.007069020997732878,-0.023784302175045013
1761477951674101200,8.799101318359375,0.006908099632710218,0.0023939937818795443,-0.0174267441034317
1761477951684085200,8.809085205078125,0.02304845303297043,0.01746721938252449,-0.025210365653038025
1761477951694069500,8.819069580078125,0.025465210899710655,0.007812995463609695,-0.031060626730322838
1761477951704053500,8.829053466796875,0.02494749240577221,-0.005196279380470514,-0.026662949472665787
1761477951714037500,8.83903759765625,0.014966767281293869,-0.015889937058091164,-0.013395961374044418
1761477951724021200,8.849021240234375,0.008125106804072857,-0.010737517848610878,-0.004330294206738472
1761477951734005200,8.859005126953125,0.003781814593821764,-0.0024689380079507828,0.0007565217092633247
1761477951743989200,8.8689892578125,0.0060958354733884335,0.01298511866480112,0.0009227031841874123
1761477951753973200,8.87897314453125,0.00899029802531004,0.0272173210978508,-0.0063555678352713585
1761477951763957200,8.888957275390625,0.006537260487675667,0.03082803636789322,-0.011670971289277077
1761477951773941200,8.898941162109375,0.007257981225848198,0.028088971972465515,-0.015473492443561554
1761477951783925200,8.90892529296875,0.009570936672389507,0.01154461782425642,-0.016623444855213165
1761477951793910300,8.91891015625,0.0024579609744250774,0.002100248821079731,-0.014692021533846855
1761477951803894300,8.928894287109374,0.006303831934928894,0.002947933040559292,-0.009186468087136745
1761477951813878300,8.938878173828124,0.002033510245382786,0.006065155379474163,0.0010970465373247862
1761477951823862300,8.9488623046875,0.0035219506826251745,0.007253990508615971,0.005779949016869068
1761477951833846300,8.95884619140625,0.004598540253937244,0.006980757229030132,0.0101880868896842
1761477951843830300,8.968830322265624,0.004507194273173809,0.01691301539540291,0.009838947094976902
1761477951853814300,8.978814208984375,0.0038888773415237665,0.01538995560258627,0.0046547781676054
1761477951863798300,8.98879833984375,0.00442896643653512,0.014577158726751804,0.004069149494171143
1761477951873782300,8.9987822265625,0.003021473530679941,0.006931475829333067,-0.0002133636735379696
1761477951883766500,9.0087666015625,0.0025173372123390436,0.0057745990343391895,0.0016143638640642166
1761477951893750300,9.018750244140625,0.00012624170631170273,-0.0059462254866957664,0.004069747403264046
1761477951903734300,9.028734375,-0.00026444392278790474,-0.007941732183098793,0.004948058165609837
1761477951913718300,9.03871826171875,-0.002644258551299572,-0.0033728142734616995,0.0033203079365193844
1761477951923702300,9.048702392578125,-0.005891717039048672,0.007311787456274033,0.004462271463125944
1761477951933687300,9.058687255859375,-0.006506224628537893,0.00820341520011425,0.005624460056424141
1761477951943671300,9.06867138671875,-0.011893000453710556,0.012512675486505032,0.011618169955909252
1761477951953655300,9.0786552734375,-0.012997161597013474,0.009836731478571892,0.014217124320566654
1761477951963639300,9.088639404296876,-0.008234364911913872,0.0012299278751015663,0.017331425100564957
1761477951973623300,9.098623291015626,-0.005638584960252047,0.008258807472884655,0.018076390027999878
1761477951983607300,9.108607177734376,-0.005904368590563536,0.012204546481370926,0.017872925847768784
1761477951993591300,9.11859130859375,-0.00559844309464097,0.009571474976837635,0.013579510152339935
1761477952003575300,9.1285751953125,-0.006485009100288153,0.0020155550446361303,0.00837036781013012
1761477952013559300,9.138559326171874,-0.006751319393515587,-0.00351289683021605,0.00708577036857605
1761477952023543300,9.148543212890624,-0.006123346276581287,0.00834669265896082,0.011468535289168358
1761477952033527300,9.15852734375,-0.00593479722738266,0.015614457428455353,0.011343710124492645
1761477952043511300,9.16851123046875,-0.006065291352570057,0.025444716215133667,0.016873233020305634
1761477952053496300,9.178496337890625,-0.009142248891294003,0.027757391333580017,0.01741071045398712
1761477952063480300,9.188480224609375,-0.00762504618614912,0.02446705661714077,0.01728793792426586
1761477952073464300,9.19846435546875,-0.0036709019914269447,0.017387326806783676,0.01760622300207615
1761477952083448300,9.2084482421875,-0.000030094757676124573,0.00599006237462163,0.015519903972744942
1761477952093432300,9.218432373046875,0.0026691497769206762,0.010381348431110382,0.016158301383256912
1761477952103416300,9.228416259765625,0.006317147519439459,0.004821733571588993,0.009628231637179852
1761477952113400300,9.238400390625,0.005686921998858452,0.0050331889651715755,0.008755046874284744
1761477952123384300,9.24838427734375,-0.0015430273488163948,0.007533897180110216,0.005637550726532936
1761477952133368300,9.258368408203125,-0.003239208832383156,-0.004412245936691761,0.006935548968613148
1761477952143352300,9.268352294921876,-0.005472801625728607,-0.011188127100467682,0.006630617193877697
1761477952153336300,9.27833642578125,-0.005877346731722355,-0.013398032635450363,0.00608931016176939
1761477952163320300,9.2883203125,-0.00722996611148119,0.005173521116375923,0.010239847004413605
1761477952173304300,9.29830419921875,-0.007166183553636074,0.017699697986245155,0.01349080353975296
1761477952183289300,9.308289306640624,-0.002948002889752388,0.03114306926727295,0.0149315744638443
1761477952193273300,9.3182734375,0.0020101526752114296,0.02974386140704155,0.010643122717738152
1761477952203257300,9.32825732421875,0.009970607236027718,0.021394852548837662,0.009360011667013168
1761477952213241300,9.338241455078125,0.007726212963461876,0.013537442311644554,0.004535126034170389
1761477952223225300,9.348225341796875,0.00817655399441719,-0.0010481581557542086,0.0017515900544822216
1761477952233209300,9.358209228515625,0.007972822524607182,-0.007977166213095188,-0.0015081926248967648
1761477952243193300,9.368193359375,0.0009543281048536301,-0.006417619064450264,-0.004403847735375166
1761477952253177300,9.37817724609375,-0.0006674625910818577,0.0053471727296710014,-0.00632214080542326
1761477952263161300,9.388161376953125,-0.005018800962716341,0.00846706610172987,-0.0013830423122271895
1761477952273145000,9.39814501953125,-0.006139002740383148,0.013918807730078697,0.0026402869261801243
1761477952283129000,9.408129150390625,-0.006584282964468002,0.022221477702260017,0.008059287443757057
1761477952293113300,9.41811328125,-0.00625177938491106,0.024970408529043198,0.0086741391569376
1761477952303098000,9.42809814453125,-0.0064017148688435555,0.025564825162291527,0.012623872607946396
1761477952313082000,9.43808203125,0.0004916717298328876,0.02478105202317238,0.010210953652858734
1761477952323066000,9.448066162109376,0.002208877820521593,0.01980653405189514,0.007629818748682737
1761477952333050400,9.45805029296875,0.0008547343313694,-0.0005565222818404436,-0.0016773411771282554
1761477952343034400,9.468034423828126,0.0032901952508836985,-0.012560187838971615,-0.007390087936073542
1761477952353018400,9.478018310546876,0.003185722976922989,-0.019003720954060555,-0.010592978447675705
1761477952363002400,9.48800244140625,0.006516272202134132,-0.010542859323322773,-0.0018841753480955958
1761477952372986400,9.497986328125,0.00011916924268007278,0.008068923838436604,0.0050812289118766785
1761477952382970400,9.507970458984374,-0.00029335450381040573,0.016969209536910057,0.008238406851887703
1761477952392954400,9.517954345703124,-0.008980512619018555,0.009595183655619621,0.005999348592013121
1761477952402938400,9.5279384765625,-0.010141650214791298,0.008615938946604729,0.0036158193834125996
1761477952412922400,9.53792236328125,-0.01035158522427082,0.017664289101958275,0.005075790453702211
1761477952422906400,9.54790625,-0.007805604953318834,0.02015807293355465,0.009015405550599098
1761477952432891400,9.557891357421875,0.00001629488542675972,0.017808353528380394,0.0025121711660176516
1761477952442875100,9.567875244140625,0.004982558079063892,0.018556436523795128,0.005435522645711899
1761477952452859100,9.577859130859375,0.0076520442962646484,0.018513016402721405,0.009339578449726105
1761477952462843100,9.587843017578125,0.004348392598330975,0.0219719335436821,0.015793481841683388
1761477952472827100,9.5978271484375,-0.0013170791789889336,0.028687112033367157,0.022578883916139603
1761477952482811100,9.60781103515625,-0.002350918482989073,0.028988048434257507,0.021129591390490532
1761477952492795100,9.617795166015625,-0.004833720624446869,0.026112349703907967,0.022595709189772606
1761477952502779100,9.627779052734375,-0.009816762059926987,0.03233988583087921,0.022953638806939125
1761477952512763100,9.63776318359375,-0.012280115857720375,0.032474394887685776,0.02266867086291313
1761477952522747100,9.6477470703125,-0.0132103580981493,0.01798812672495842,0.013508726842701435
1761477952532731100,9.657731201171876,-0.012837650254368782,0.01701819710433483,0.01620262861251831
1761477952542716000,9.6677158203125,-0.007519850507378578,0.010493453592061996,0.01704658381640911
1761477952552700200,9.6777001953125,-0.0026921392418444157,0.017075443640351295,0.02367299422621727
1761477952562684200,9.68768408203125,-0.004633051808923483,0.03141549974679947,0.03268992528319359
1761477952572668200,9.697668212890624,-0.007224233355373144,0.044093500822782516,0.0361018031835556
1761477952582652200,9.707652099609374,-0.010056773200631142,0.03465472534298897,0.03375769406557083
1761477952592636200,9.71763623046875,-0.013440718874335289,0.0278138630092144,0.028411168605089188
1761477952602620200,9.7276201171875,-0.01223936676979065,0.025978412479162216,0.01964643970131874
1761477952612604200,9.737604248046875,-0.007046606857329607,0.016711920499801636,0.01781725324690342
1761477952622588200,9.747588134765625,-0.00795288011431694,0.011354438029229641,0.017003659158945084
1761477952632572200,9.757572265625,-0.005884602200239897,0.016561469063162804,0.022813336923718452
1761477952642556200,9.76755615234375,-0.0017061023972928524,0.02104703150689602,0.022370720282197
1761477952652541200,9.777541259765625,-0.007262923754751682,0.03991551697254181,0.020814819261431694
1761477952662525200,9.787525146484375,-0.009156697429716587,0.023161305114626884,0.010312110185623169
1761477952672509200,9.79750927734375,-0.005098171066492796,0.0007111334707587957,0.007258345372974873
1761477952682493200,9.8074931640625,-0.009864697232842445,-0.008925247937440872,0.006359528750181198
1761477952692477200,9.817477294921876,-0.010680954903364182,-0.008363854140043259,0.0073068151250481606
1761477952702461200,9.827461181640626,-0.0073088607750833035,-0.0041352869011461735,0.005381349474191666
1761477952712445200,9.837445068359376,-0.0023834798485040665,0.0027566959615796804,-0.000022819265723228455
1761477952722429000,9.847428955078126,-0.0008428408764302731,0.0009049999061971903,-0.009519651532173157
1761477952732413000,9.857412841796876,0.004838814027607441,0.009531514719128609,-0.005950271617621183
1761477952742397200,9.867397216796874,0.006122190970927477,0.037546105682849884,0.06326741725206375
1761477952752381200,9.877381103515624,-0.005518551915884018,0.0009262936655431986,-0.02989002875983715
1761477952762366000,9.887365966796875,-0.0007810546085238457,-0.06304842978715897,-0.0306109469383955
1761477952772350000,9.897349853515625,-0.009742459282279015,-0.04686838388442993,-0.018256114795804024
1761477952782334200,9.907334228515625,-0.006241201423108578,-0.029612964019179344,-0.01034998893737793
1761477952792318200,9.917318115234375,-0.004434238653630018,-0.036569174379110336,-0.0035138390958309174
1761477952802302200,9.92730224609375,-0.005401499103754759,-0.042280055582523346,-0.00023282482288777828
1761477952812286200,9.9372861328125,-0.00485462648794055,-0.052440252155065536,0.013737273402512074
1761477952822270200,9.947270263671875,-0.0030545960180461407,-0.045154642313718796,0.01874002069234848
1761477952832254200,9.957254150390625,0.00021190429106354713,-0.048157092183828354,0.008391013368964195
