time,seconds_elapsed,z,y,x
1761466573241029400,0.119029296875,0.02800266072154045,0.07738915085792542,0.023210113868117332
1761466573251013400,0.129013427734375,0.0193798765540123,0.08007228374481201,0.03310748562216759
1761466573260998100,0.138998046875,0.020276520401239395,0.09129323810338974,0.035893429070711136
1761466573270982100,0.148982177734375,0.01662479341030121,0.09837937355041504,0.033690195530653
1761466573280967200,0.15896728515625,0.017163196578621864,0.08822391927242279,0.03022410348057747
1761466573290951200,0.168951171875,0.011254175566136837,0.06672049313783646,0.024239182472229004
1761466573300935200,0.17893505859375,0.00932360626757145,0.045087091624736786,0.008073270320892334
1761466573310920200,0.188920166015625,0.0005000210367143154,0.030952362343668938,-0.00838533230125904
1761466573320904200,0.198904296875,0.0051076593808829784,0.03415029123425484,-0.020925095304846764
1761466573330889200,0.20888916015625,0.010297361761331558,0.0441986620426178,-0.030131643638014793
1761466573340873200,0.218873291015625,0.014187674969434738,0.05285530537366867,-0.02679632417857647
1761466573350858200,0.228858154296875,0.0178708266466856,0.056316882371902466,-0.029313543811440468
1761466573360842200,0.23884228515625,0.020270099863409996,0.06112118437886238,-0.03626490384340286
1761466573370827300,0.2488271484375,0.019184863194823265,0.056827105581760406,-0.05538693070411682
1761466573380811300,0.258811279296875,0.0155995674431324,0.036761242896318436,-0.06673625111579895
1761466573390796500,0.268796630859375,0.013763584196567535,0.020791593939065933,-0.07704028487205505
1761466573400780300,0.2787802734375,0.00739682512357831,0.02762579172849655,-0.0747733935713768
1761466573410765300,0.288765380859375,0.0016947309486567974,0.03417876735329628,-0.0673769935965538
1761466573420749300,0.298749267578125,-0.0009777112863957882,0.039206355810165405,-0.06101396307349205
1761466573430734300,0.308734375,-0.009825531393289566,0.02947942540049553,-0.05762322619557381
1761466573440718300,0.31871826171875,-0.007608053274452686,0.022266555577516556,-0.05935056880116463
1761466573450703400,0.328703369140625,-0.0035419389605522156,0.019087273627519608,-0.05774921178817749
1761466573460687400,0.338687255859375,0.0015501766465604305,0.02726712077856064,-0.05543862283229828
1761466573470671400,0.34867138671875,0.005329468287527561,0.028406422585248947,-0.0504571795463562
1761466573480656400,0.358656494140625,0.004976273514330387,0.023962412029504776,-0.05011097341775894
1761466573490640400,0.368640380859375,0.00412299670279026,0.020962893962860107,-0.05029446631669998
1761466573500625400,0.37862548828125,-0.0007528648711740971,0.02280578576028347,-0.05403779447078705
1761466573510609400,0.388609375,-0.00906086154282093,0.01901371031999588,-0.053714219480752945
1761466573520594400,0.398594482421875,-0.017433706670999527,0.011179458349943161,-0.0518111027777195
1761466573530578400,0.408578369140625,-0.02479708008468151,0.007930135354399681,-0.04644722864031792
1761466573540563500,0.4185634765625,-0.032264236360788345,0.01364509854465723,-0.04686114192008972
1761466573550547500,0.42854736328125,-0.029845550656318665,0.014030192978680134,-0.04997783899307251
1761466573560532200,0.4385322265625,-0.02940082550048828,0.010937104001641273,-0.05230112001299858
1761466573570516200,0.44851611328125,-0.024445483461022377,0.00239368318580091,-0.04587145149707794
1761466573580501200,0.458501220703125,-0.02065996639430523,0.007554157637059689,-0.03544628620147705
1761466573590485200,0.4684853515625,-0.021237606182694435,0.015944447368383408,-0.02624133601784706
1761466573600470300,0.47847021484375,-0.02230936475098133,0.015524729155004025,-0.01755676418542862
1761466573610454300,0.488454345703125,-0.02086726389825344,0.010727576911449432,-0.013525804504752159
1761466573620438300,0.498438232421875,-0.022174861282110214,0.003508527996018529,-0.013109806925058365
1761466573630423300,0.50842333984375,-0.02047096937894821,-0.001995160710066557,-0.010181661695241928
1761466573640407300,0.5184072265625,-0.018203554674983025,-0.008627231232821941,-0.01211884431540966
1761466573650392300,0.528392333984375,-0.017731375992298126,-0.013113591820001602,-0.008675910532474518
1761466573660376300,0.538376220703125,-0.018153220415115356,-0.022655697539448738,-0.006209823302924633
1761466573670361300,0.548361328125,-0.019044315442442894,-0.0324111245572567,-0.005477986764162779
1761466573680345300,0.558345458984375,-0.013715773820877075,-0.03216076269745827,-0.0021189553663134575
1761466573690330400,0.568330322265625,-0.00977349653840065,-0.029010243713855743,0.008090538904070854
1761466573700314400,0.578314453125,-0.011375725269317627,-0.025499440729618073,0.01919674500823021
1761466573710299100,0.588299072265625,-0.011991715058684349,-0.027741022408008575,0.020672934129834175
1761466573720283400,0.598283447265625,-0.01614372432231903,-0.03541988134384155,0.017235804349184036
1761466573730268200,0.60826806640625,-0.018195688724517822,-0.04520832747220993,0.011224251240491867
1761466573740252200,0.618252197265625,-0.021108143031597137,-0.049748849123716354,0.005078793503344059
1761466573750237200,0.6282373046875,-0.024513261392712593,-0.045543719083070755,0.0026606430765241385
1761466573760221200,0.63822119140625,-0.018719689920544624,-0.03828417509794235,0.005030035972595215
1761466573770206200,0.648206298828125,-0.017936188727617264,-0.035172268748283386,0.004578364081680775
1761466573780190200,0.658190185546875,-0.018066281452775,-0.03514833375811577,0.007360856048762798
1761466573790174200,0.66817431640625,-0.01480550691485405,-0.03124440647661686,0.005423406139016151
1761466573800159200,0.6781591796875,-0.012307625263929367,-0.031447600573301315,0.008590701036155224
1761466573810143200,0.688143310546875,-0.008696645498275757,-0.02750079706311226,0.00899257231503725
1761466573820128300,0.698128173828125,-0.005591149907559156,-0.022516939789056778,0.005649227648973465
1761466573830112300,0.7081123046875,-0.005381292197853327,-0.015875814482569695,0.007501988671720028
1761466573840097500,0.71809765625,-0.007890713401138783,-0.007253323681652546,0.008707884699106216
1761466573850081300,0.728081298828125,-0.005856324918568134,-0.007022693753242493,0.015072839334607124
1761466573860066300,0.73806640625,-0.00735916243866086,-0.009266922250390053,0.018427345901727676
1761466573870050300,0.74805029296875,-0.007311225403100252,-0.01225339062511921,0.02235710620880127
1761466573880035300,0.758035400390625,-0.006652935408055782,-0.007456515915691853,0.018453985452651978
1761466573890019300,0.768019287109375,-0.009573624469339848,-0.008275704458355904,0.016681386157870293
1761466573900004400,0.77800439453125,-0.011605139821767807,-0.015377610921859741,0.012247798033058643
1761466573909988400,0.78798828125,-0.006718238350003958,-0.02332128956913948,0.009477311745285988
1761466573919973400,0.797973388671875,-0.0043505416251719,-0.027950646355748177,0.008366495370864868
1761466573929957400,0.807957275390625,-0.00017630262300372124,-0.022336170077323914,0.011982269585132599
1761466573939941400,0.81794140625,0.005459033418446779,-0.016273198649287224,0.019179711118340492
1761466573949926400,0.827926513671875,0.005726148374378681,-0.009592924267053604,0.025706853717565536
1761466573959910400,0.837910400390625,0.010325992479920387,-0.009075772948563099,0.02537425234913826
1761466573969895400,0.8478955078125,0.010883125476539135,-0.007795858196914196,0.01934938319027424
1761466573979879400,0.85787939453125,0.012126598507165909,-0.010909083299338818,0.012844071723520756
1761466573989864400,0.867864501953125,0.007848763838410378,-0.014721664600074291,0.008960915729403496
1761466573999848400,0.877848388671875,0.009072914719581604,-0.019222943112254143,0.008622431196272373
1761466574009833200,0.887833251953125,0.003669627709314227,-0.02577005885541439,0.009813129901885986
1761466574019817500,0.8978173828125,0.0047616553492844105,-0.02904997579753399,0.014605996198952198
1761466574029802200,0.90780224609375,0.007483139634132385,-0.014419368468225002,0.025218427181243896
1761466574039786200,0.9177861328125,0.005605002399533987,-0.003106235060840845,0.037985071539878845
1761466574049771300,0.927771240234375,0.008689742535352707,0.0031572533771395683,0.03982717916369438
1761466574059755300,0.93775537109375,0.009065649472177029,0.0002786107361316681,0.042065322399139404
1761466574069739300,0.9477392578125,0.010439574718475342,-0.009380408562719822,0.03950522467494011
1761466574079724300,0.957724365234375,0.009842433966696262,-0.019108928740024567,0.02987949177622795
1761466574089708300,0.967708251953125,0.011293323710560799,-0.023138290271162987,0.027868539094924927
1761466574099693300,0.977693359375,0.012279389426112175,-0.02520597167313099,0.02825975976884365
1761466574109677300,0.98767724609375,0.014846409671008587,-0.0204588882625103,0.027580121532082558
1761466574119662300,0.997662353515625,0.010405485518276691,-0.013601251877844334,0.03341297805309296
1761466574129646300,1.007646240234375,0.00961745623499155,-0.007937774062156677,0.0375206358730793
1761466574139631400,1.01763134765625,0.008055604062974453,-0.0028152239974588156,0.041622474789619446
1761466574149615400,1.027615478515625,0.00585689814761281,-0.00696922279894352,0.03749697282910347
1761466574159600400,1.037600341796875,-0.0007228152826428413,-0.013252626173198223,0.03195115923881531
1761466574169584400,1.04758447265625,-0.0006668888963758945,-0.015692349523305893,0.029988406226038933
1761466574179569200,1.057569091796875,-0.004465323407202959,-0.01548838522285223,0.03244759514927864
1761466574189553200,1.06755322265625,-0.005996374879032373,-0.01564444601535797,0.03481115400791168
1761466574199538200,1.0775380859375,-0.008664863184094429,-0.02099420316517353,0.03894304856657982
1761466574209522200,1.087522216796875,-0.010576479136943817,-0.024333542212843895,0.04213431105017662
1761466574219506200,1.097506103515625,-0.011958496645092964,-0.025055261328816414,0.04670057073235512
1761466574229491200,1.1074912109375,-0.011062076315283775,-0.025649147108197212,0.04798155277967453
1761466574239475200,1.11747509765625,-0.015710417181253433,-0.02718871459364891,0.04634982720017433
1761466574249460200,1.127460205078125,-0.018836170434951782,-0.029132820665836334,0.03978966176509857
1761466574259444200,1.1374443359375,-0.017503218725323677,-0.026228036731481552,0.04337529093027115
1761466574269429200,1.14742919921875,-0.018806835636496544,-0.02115578204393387,0.04974663630127907
1761466574279413200,1.157413330078125,-0.021336127072572708,-0.023819228634238243,0.05569322407245636
1761466574289398300,1.167398193359375,-0.023249607533216476,-0.021319320425391197,0.054399725049734116
1761466574299382300,1.17738232421875,-0.019199898466467857,-0.02449759654700756,0.050841521471738815
1761466574309367300,1.1873671875,-0.01673860475420952,-0.0303240604698658,0.04635303094983101
1761466574319351300,1.197351318359375,-0.01609841175377369,-0.03367001935839653,0.04010229557752609
1761466574329336000,1.207336181640625,-0.015388945117592812,-0.03976253420114517,0.03251628205180168
1761466574339320000,1.217320068359375,-0.01098095066845417,-0.04338160157203674,0.03358403220772743
1761466574349304300,1.22730419921875,-0.01627238653600216,-0.042013268917798996,0.037326838821172714
1761466574359289000,1.2372890625,-0.016876153647899628,-0.036265335977077484,0.044937051832675934
1761466574369273000,1.247273193359375,-0.015310748480260372,-0.035596881061792374,0.04550404101610184
1761466574379258000,1.257258056640625,-0.017944900318980217,-0.04062272235751152,0.04860283061861992
1761466574389242000,1.2672421875,-0.017274582758545876,-0.03815557062625885,0.048470206558704376
1761466574399227400,1.277227294921875,-0.020091671496629715,-0.0404701866209507,0.04486672952771187
1761466574409211100,1.287211181640625,-0.019970230758190155,-0.04806525632739067,0.03613795340061188
1761466574419196400,1.297196533203125,-0.01742401346564293,-0.05511407554149628,0.02309163101017475
1761466574429180400,1.307180419921875,-0.018052520230412483,-0.06347666680812836,0.012995588593184948
1761466574439165400,1.31716552734375,-0.01690077967941761,-0.07075399905443192,0.006563236936926842
1761466574449149400,1.3271494140625,-0.014212317764759064,-0.07044027745723724,0.010523091070353985
1761466574459133400,1.337133544921875,-0.016336269676685333,-0.05693072825670242,0.018640538677573204
1761466574469118500,1.347118408203125,-0.016896866261959076,-0.041300904005765915,0.033145710825920105
1761466574479102500,1.3571025390625,-0.02213028073310852,-0.03102867305278778,0.040671397000551224
1761466574489087200,1.367087158203125,-0.0243617445230484,-0.02988244779407978,0.04576815664768219
1761466574499071200,1.3770712890625,-0.0285355057567358,-0.032224223017692566,0.042219534516334534
1761466574509056300,1.38705615234375,-0.03130066394805908,-0.03476647660136223,0.034909687936306
1761466574519040300,1.397040283203125,-0.025550151243805885,-0.03267664089798927,0.028208337724208832
1761466574529025300,1.407025390625,-0.021411333233118057,-0.032447341829538345,0.020417792722582817
1761466574539009300,1.41700927734375,-0.014704247936606407,-0.030157044529914856,0.021829815581440926
1761466574548994300,1.426994384765625,-0.012275977060198784,-0.02692370116710663,0.026754533872008324
1761466574558978300,1.436978271484375,-0.01705305278301239,-0.02560836263000965,0.03092104382812977
1761466574568963300,1.44696337890625,-0.01795959286391735,-0.030728556215763092,0.02689674310386181
1761466574578947300,1.456947265625,-0.018215060234069824,-0.0392371267080307,0.02179974876344204
1761466574588932400,1.466932373046875,-0.01825021393597126,-0.043955717235803604,0.015857970342040062
1761466574598916400,1.476916259765625,-0.016433052718639374,-0.040904778987169266,0.01547871995717287
1761466574608900400,1.486900390625,-0.013032995164394379,-0.03640696778893471,0.020817823708057404
1761466574618885400,1.496885498046875,-0.011633755639195442,-0.019986730068922043,0.031089384108781815
1761466574628869400,1.506869384765625,-0.015296133235096931,-0.0038429144769906998,0.04437456279993057
1761466574638854100,1.516854248046875,-0.01857471838593483,0.00021624215878546238,0.052241839468479156
1761466574648838400,1.52683837890625,-0.01881440356373787,-0.004580377135425806,0.0523717999458313
1761466574658823200,1.5368232421875,-0.016855664551258087,-0.008788954466581345,0.050081465393304825
1761466574668807200,1.54680712890625,-0.012615112587809563,-0.006487184204161167,0.04615197330713272
1761466574678792200,1.556792236328125,-0.011783691123127937,0.00022186827845871449,0.047935210168361664
1761466574688776200,1.566776123046875,-0.014038855209946632,0.0031569378916174173,0.04883376136422157
1761466574698761200,1.57676123046875,-0.013110877946019173,0.006565283052623272,0.05120288208127022
1761466574708745200,1.5867451171875,-0.01260993629693985,0.009090758860111237,0.05211368203163147
1761466574718729200,1.596729248046875,-0.013562522828578949,0.015237363055348396,0.044944968074560165
1761466574728714200,1.60671435546875,-0.015602504834532738,0.014639750123023987,0.04166821390390396
1761466574738698200,1.6166982421875,-0.015122272074222565,0.013568823225796223,0.041168127208948135
1761466574748683300,1.626683349609375,-0.009645748883485794,0.019390491768717766,0.04239637404680252
1761466574758667300,1.636667236328125,-0.007058991584926844,0.027048971503973007,0.04467761516571045
1761466574768652300,1.64665234375,-0.007730374578386545,0.02653231844305992,0.04653304070234299
1761466574778636300,1.65663623046875,-0.0031923330388963223,0.023748233914375305,0.04404726251959801
1761466574788621300,1.666621337890625,-0.0007102666422724724,0.01993165723979473,0.04515380412340164
1761466574798605300,1.676605224609375,0.0014646220952272415,0.01740320585668087,0.038126833736896515
1761466574808590000,1.686590087890625,0.00443324726074934,0.004564105998724699,0.03521333262324333
1761466574818574000,1.696573974609375,0.002947036875411868,-0.0008218074217438698,0.036051902920007706
1761466574828559000,1.70655908203125,0.004779558163136244,0.012578420341014862,0.03415067493915558
1761466574838543000,1.716543212890625,0.004926345776766539,0.023071223869919777,0.04076787456870079
1761466574848527000,1.726527099609375,0.009900331497192383,0.026021208614110947,0.0422762893140316
1761466574858512100,1.73651220703125,0.010828960686922073,0.030187739059329033,0.04224191978573799
1761466574868496100,1.74649609375,0.011083291843533516,0.029908640310168266,0.04373541846871376
1761466574878481400,1.7564814453125,0.011317621916532516,0.037344690412282944,0.04397166892886162
1761466574888465200,1.766465087890625,0.014969615265727043,0.03748690336942673,0.04409390687942505
1761466574898450400,1.776450439453125,0.009361614473164082,0.03405337408185005,0.040594976395368576
1761466574908434200,1.78643408203125,0.012636236846446991,0.03445817157626152,0.03880053758621216
1761466574918419500,1.79641943359375,0.015813583508133888,0.03832744434475899,0.039401110261678696
1761466574928403500,1.806403564453125,0.01677738130092621,0.03291030600667,0.03917421028017998
1761466574938388200,1.81638818359375,0.01806437224149704,0.034343570470809937,0.0385739766061306
1761466574948372500,1.82637255859375,0.023914538323879242,0.038073062896728516,0.042390286922454834
1761466574958357200,1.836357177734375,0.02072630263864994,0.038203295320272446,0.04561377316713333
1761466574968341200,1.84634130859375,0.018595242872834206,0.036627769470214844,0.0423404835164547
1761466574978325200,1.8563251953125,0.010326392948627472,0.036870114505290985,0.03698673099279404
1761466574988310300,1.866310302734375,0.011114954948425293,0.04011118412017822,0.03586420789361
1761466574998294300,1.876294189453125,0.010610906407237053,0.04477253556251526,0.03402767330408096
1761466575008279300,1.886279296875,0.011047132313251495,0.04816726967692375,0.0364823080599308
1761466575018263300,1.89626318359375,0.011270073242485523,0.04527844861149788,0.048532675951719284
1761466575028248300,1.906248291015625,0.008061762899160385,0.043142858892679214,0.061598677188158035
1761466575038232300,1.916232421875,0.003529903246089816,0.05090710148215294,0.06912203133106232
1761466575048217300,1.92621728515625,0.00398130901157856,0.047568827867507935,0.06443379819393158
1761466575058201300,1.936201416015625,0.0032662213779985905,0.033363234251737595,0.04899308830499649
1761466575068186400,1.946186279296875,0.0016065393574535847,0.01744738779962063,0.026339707896113396
1761466575078170400,1.95617041015625,0.001770928967744112,0.011397787369787693,0.012951960787177086
1761466575088155400,1.9661552734375,0.00017356453463435173,0.00876285508275032,0.005354227498173714
1761466575098139400,1.976139404296875,0.0018611627165228128,0.012487336993217468,0.0047006430104374886
1761466575108123400,1.986123291015625,0.0018569016829133034,0.012520626187324524,0.012124471366405487
1761466575118108200,1.996108154296875,0.0027102818712592125,0.02105393074452877,0.01814773865044117
1761466575128092400,2.006092529296875,0.0009006639011204243,0.024205781519412994,0.02446635439991951
1761466575138077200,2.0160771484375,-0.00040363380685448647,0.02468620240688324,0.022958217188715935
1761466575148061200,2.026061279296875,-0.004729672335088253,0.011298225261271,0.01565583050251007
1761466575158046200,2.036046142578125,-0.007385702338069677,0.0061380909755826,0.007359811570495367
1761466575168030200,2.0460302734375,-0.007090890314429998,0.009190872311592102,0.0011690277606248856
1761466575178015200,2.05601513671875,-0.0034884479828178883,0.01298163365572691,0.0017141634598374367
1761466575187999200,2.065999267578125,-0.004949458409100771,0.012457788921892643,0.0004643418360501528
1761466575197984300,2.075984375,-0.006567372474819422,0.015465021133422852,-0.0011969299521297216
1761466575207968300,2.08596826171875,-0.0068603199906647205,0.015180595219135284,-0.002277906984090805
1761466575217952300,2.0959521484375,-0.007599895820021629,0.008151731453835964,-0.005471582990139723
1761466575227937300,2.105937255859375,-0.007521865889430046,0.006224668584764004,-0.008476694114506245
1761466575237921300,2.11592138671875,-0.00855688564479351,0.0034402848687022924,-0.012763545848429203
1761466575247906300,2.12590625,-0.008389638736844063,-0.003258630633354187,-0.013990730047225952
1761466575257890300,2.135890380859375,-0.007647236809134483,-0.005998244043439627,-0.014806438237428665
1761466575267875000,2.145875,-0.013169833458960056,0.007366030942648649,-0.005640369839966297
1761466575277859300,2.155859375,-0.017906948924064636,0.011770679615437984,0.0006052337121218443
1761466575287844000,2.165843994140625,-0.016929568722844124,0.013890290632843971,-0.004107762593775988
1761466575297828000,2.175828125,-0.01089853048324585,-0.00022418703883886337,-0.014976130798459053
1761466575307813000,2.185813232421875,-0.010090528056025505,-0.011605205945670605,-0.020832423120737076
1761466575317797000,2.195797119140625,-0.012141188606619835,-0.019394978880882263,-0.024088647216558456
1761466575327782100,2.2057822265625,-0.008113425225019455,-0.026086438447237015,-0.026244476437568665
1761466575337766100,2.21576611328125,-0.010207835584878922,-0.03262855485081673,-0.027653492987155914
1761466575347750100,2.225750244140625,-0.013428129255771637,-0.03174705058336258,-0.023084307089447975
1761466575357735200,2.235735107421875,-0.013064121827483177,-0.025773528963327408,-0.019006524235010147
1761466575367719200,2.24571923828125,-0.013530440628528595,-0.011225746013224125,-0.007908066734671593
1761466575377704200,2.2557041015625,-0.01798582449555397,-0.007556156720966101,-0.0008887911681085825
1761466575387688200,2.265688232421875,-0.025706592947244644,-0.01361724454909563,-0.0048174867406487465
1761466575397673200,2.275673095703125,-0.02710563689470291,-0.022340981289744377,-0.012637041509151459
1761466575407657200,2.2856572265625,-0.030089177191257477,-0.029176250100135803,-0.02088937908411026
1761466575417642200,2.295642333984375,-0.028263341635465622,-0.03283785656094551,-0.03127807751297951
1761466575427626200,2.305626220703125,-0.025018280372023582,-0.033229876309633255,-0.03597616031765938
1761466575437611000,2.315611083984375,-0.02106666751205921,-0.03257155790925026,-0.03625231608748436
1761466575447595000,2.325594970703125,-0.019891947507858276,-0.03010973148047924,-0.035077061504125595
1761466575457579000,2.3355791015625,-0.023827316239476204,-0.02910064533352852,-0.03462034463882446
1761466575467564000,2.34556396484375,-0.02513093315064907,-0.033282339572906494,-0.03260832652449608
1761466575477548000,2.355548095703125,-0.02237025648355484,-0.032914016395807266,-0.019869906827807426
1761466575487533000,2.365532958984375,-0.018850620836019516,-0.01843973435461521,-0.00439267884939909
1761466575497517000,2.37551708984375,-0.021786149591207504,-0.005892539396882057,-0.005327957682311535
1761466575507502000,2.385502197265625,-0.022757936269044876,-0.01848423108458519,-0.011244703084230423
1761466575517486000,2.395486083984375,-0.01773795485496521,-0.036450158804655075,-0.016982773318886757
1761466575527471000,2.40547119140625,-0.015019132755696774,-0.039579372853040695,-0.020360194146633148
1761466575537455000,2.415455078125,-0.017600568011403084,-0.029272640123963356,-0.01707255281507969
1761466575547440000,2.425440185546875,-0.018515363335609436,-0.01787484437227249,-0.016734329983592033
1761466575557424000,2.435424072265625,-0.019701994955539703,-0.007625097408890724,-0.016688553616404533
1761466575567408000,2.445408203125,-0.023120161145925522,-0.003730490803718567,-0.02714412473142147
1761466575577393200,2.45539306640625,-0.021213332191109657,-0.013985645025968552,-0.03668052703142166
1761466575587377200,2.465377197265625,-0.01780794747173786,-0.025785045698285103,-0.04033757746219635
1761466575597362000,2.47536181640625,-0.012898946180939674,-0.027103519067168236,-0.03830671310424805
1761466575607346200,2.48534619140625,-0.011641401797533035,-0.01641039550304413,-0.028176315128803253
1761466575617331000,2.4953310546875,-0.012366922572255135,-0.009495208039879799,-0.01949096843600273
1761466575627315000,2.50531494140625,-0.012549350038170815,-0.004302842542529106,-0.016368145123124123
1761466575637300200,2.51530029296875,-0.01723770797252655,-0.005322330631315708,-0.015093795955181122
1761466575647284000,2.525283935546875,-0.016539162024855614,-0.005255751311779022,-0.01312385592609644
1761466575657269200,2.535269287109375,-0.011348292231559753,-0.0031225562561303377,-0.01641499251127243
1761466575667253200,2.545253173828125,-0.0009790081530809402,0.015425827354192734,-0.016972392797470093
1761466575677238300,2.55523828125,0.0018600693438202143,0.0275349672883749,-0.014901531860232353
1761466575687222300,2.56522216796875,0.0034129584673792124,0.019749749451875687,-0.0198837723582983
1761466575697206300,2.575206298828125,0.002804192015901208,0.00213397154584527,-0.028264708817005157
1761466575707191300,2.58519140625,0.0034593294840306044,-0.007002801634371281,-0.03734928369522095
1761466575717175300,2.59517529296875,0.003521913895383477,-0.009280869737267494,-0.039079539477825165
1761466575727160300,2.605160400390625,-0.0007324861362576485,-0.013305438682436943,-0.03899458423256874
1761466575737144300,2.615144287109375,0.0038051230367273092,-0.015476134605705738,-0.037501659244298935
1761466575747129000,2.625129150390625,0.005324722733348608,-0.005169169045984745,-0.023548560217022896
1761466575757113300,2.63511328125,0.006858483888208866,0.003145703114569187,-0.009783167392015457
1761466575767098000,2.64509814453125,0.0011468026787042618,0.00975646823644638,-0.00038327346555888653
1761466575777082000,2.65508203125,0.0029349965043365955,0.0014258469454944134,-0.003461634274572134
1761466575787067100,2.665067138671875,0.008438418619334698,0.009617463685572147,-0.004034213721752167
1761466575797051100,2.675051025390625,0.010615302249789238,0.023726608604192734,-0.009354660287499428
1761466575807035100,2.68503515625,0.01249522715806961,0.01582287810742855,-0.01646902970969677
1761466575817020200,2.695020263671875,0.016674228012561798,0.004120449535548687,-0.022976763546466827
1761466575827004200,2.705004150390625,0.018091030418872833,-0.0011914914939552546,-0.027366185560822487
1761466575836989200,2.7149892578125,0.015833010897040367,0.012944811023771763,-0.014063405804336071
1761466575846973200,2.72497314453125,0.011362362653017044,0.016709720715880394,-0.006741843186318874
1761466575856958200,2.734958251953125,0.008274678140878677,0.015683354809880257,-0.003861917182803154
1761466575866942200,2.744942138671875,0.005433084908872843,0.01763012632727623,-0.0077706389129161835
1761466575876927200,2.75492724609375,0.0037104813382029533,0.02193402498960495,-0.01048383116722107
1761466575886911200,2.7649111328125,0.010085556656122208,0.021825900301337242,-0.014150470495223999
1761466575896896000,2.77489599609375,0.01085609570145607,0.023104237392544746,-0.018045630306005478
1761466575906880300,2.78488037109375,0.01783890463411808,0.026217471808195114,-0.0237293504178524
1761466575916864300,2.7948642578125,0.01744857430458069,0.0255730077624321,-0.022968236356973648
1761466575926849000,2.80484912109375,0.015116709284484386,0.01649056375026703,-0.024811677634716034
1761466575936833000,2.8148330078125,0.012251739390194416,0.002142509911209345,-0.03132549673318863
1761466575946818000,2.824818115234375,0.011319899931550026,0.0043425471521914005,-0.025631658732891083
1761466575956802000,2.834802001953125,0.015276335179805756,0.0184280164539814,-0.01901344582438469
1761466575966787000,2.844787109375,0.01619645766913891,0.017433060333132744,-0.015095137059688568
1761466575976771000,2.85477099609375,0.014054269529879093,0.008289888501167297,-0.019578561186790466
1761466575986756000,2.864756103515625,0.012571688741445541,0.0018575550056993961,-0.0208590105175972
1761466575996740000,2.874739990234375,0.015231386758387089,0.005604356061667204,-0.020652614533901215
1761466576006725000,2.88472509765625,0.009135144762694836,0.002710032742470503,-0.01570126600563526
1761466576016709000,2.894709228515625,0.012378518469631672,-0.0036642025224864483,-0.014146281406283379
1761466576026693000,2.904693115234375,0.013284792192280293,0.0072893789038062096,-0.012124409899115562
1761466576036678100,2.91467822265625,0.01280505582690239,0.019879942759871483,-0.010939777828752995
1761466576046662100,2.924662109375,0.007148236036300659,0.009796149097383022,-0.01259706262499094
1761466576056647200,2.934647216796875,0.007887943647801876,-0.000011727679520845413,-0.02119509130716324
1761466576066631200,2.944631103515625,0.007334805093705654,-0.0029156384989619255,-0.0249932911247015
1761466576076616000,2.954615966796875,0.008913984522223473,0.004551622085273266,-0.019730640575289726
1761466576086600200,2.96460009765625,0.005037487018853426,0.006223821081221104,-0.014591805636882782
1761466576096585000,2.9745849609375,-0.0027219150215387344,0.003258408047258854,-0.011267129331827164
1761466576106569000,2.98456884765625,0.001614243257790804,0.004960168153047562,-0.008191445842385292
1761466576116554200,2.99455419921875,0.006807956378906965,0.01718192920088768,-0.012876730412244797
1761466576126538000,3.0045380859375,0.008493737317621708,0.008046488277614117,-0.024836454540491104
1761466576136522000,3.01452197265625,0.008840378373861313,-0.008145534433424473,-0.03779033198952675
1761466576146507300,3.02450732421875,0.009125602431595325,-0.019515899941325188,-0.04215046018362045
1761466576156491000,3.034490966796875,0.0071128010749816895,-0.018358508124947548,-0.030138256028294563
1761466576166476300,3.044476318359375,0.0028442866168916225,-0.006289860233664513,-0.013503353111445904
1761466576176460000,3.0544599609375,-0.0029407073743641376,-0.005556934513151646,0.0003549167886376381
1761466576186445300,3.0644453125,-0.006609744857996702,-0.013478240929543972,0.0035608301404863596
1761466576196429300,3.07442919921875,-0.003641651477664709,0.0034786381293088198,0.006275123916566372
1761466576206414300,3.084414306640625,-0.005866189952939749,0.014628228731453419,0.00012854812666773796
1761466576216398300,3.0943984375,-0.005354891065508127,0.008177759125828743,-0.014556629583239555
1761466576226383000,3.104383056640625,-0.001191039104014635,-0.009685926139354706,-0.03184773772954941
1761466576236367000,3.1143671875,0.0023048650473356247,-0.014724653214216232,-0.04226412996649742
1761466576246351400,3.124351318359375,-0.0017290250398218632,-0.01315045915544033,-0.04105159267783165
1761466576256336100,3.134336181640625,0.00002882024273276329,-0.01631397195160389,-0.03812776505947113
1761466576266320600,3.144320556640625,0.00222140084952116,-0.013796752318739891,-0.030096735805273056
1761466576276305700,3.1543056640625,0.003371873637661338,0.0014761672355234623,-0.021342085674405098
1761466576286289700,3.16428955078125,-0.0007493682205677032,0.005788624286651611,-0.014825329184532166
1761466576296274700,3.174274658203125,-0.0017653238028287888,-0.005620820447802544,-0.01566508784890175
1761466576306258700,3.1842587890625,-0.0030159438028931618,-0.01588011533021927,-0.02282925695180893
1761466576316243700,3.19424365234375,-0.0004539191722869873,-0.013882279396057129,-0.01715373434126377
1761466576326227700,3.204227783203125,-0.000265633687376976,-0.014344604685902596,-0.008577823638916016
1761466576336212700,3.214212646484375,-0.0017451993189752102,-0.01016581803560257,-0.0017340516205877066
1761466576346196700,3.22419677734375,0.0036849859170615673,-0.006429935805499554,0.003853260539472103
1761466576356180700,3.2341806640625,0.0035609870683401823,-0.00044501060619950294,0.006111351773142815
1761466576366165800,3.244165771484375,0.006601518020033836,0.011516842991113663,-0.00021498743444681168
1761466576376149800,3.254149658203125,0.0013862494379281998,0.006149775348603725,-0.005716279149055481
1761466576386134500,3.264134521484375,0.004594826139509678,-0.006620614789426327,-0.016201144084334373
1761466576396118500,3.274118408203125,0.0036382649559527636,-0.010992242954671383,-0.021666167303919792
1761466576406103600,3.284103515625,-0.0011367830447852612,-0.009907537139952183,-0.02407206781208515
1761466576416087600,3.294087646484375,-0.0012669111602008343,-0.010259278118610382,-0.021970361471176147
1761466576426072600,3.304072509765625,0.0017437925562262535,-0.004455185029655695,-0.01723552867770195
1761466576436056600,3.314056640625,0.001975015038624406,0.008655816316604614,-0.012009868398308754
1761466576446041600,3.32404150390625,0.0008905758149921894,0.017022402957081795,-0.014214964583516121
1761466576456025600,3.334025634765625,0.0007571033202111721,0.005756750702857971,-0.02046038582921028
1761466576466009600,3.344009521484375,0.003139300737529993,-0.001068131998181343,-0.023256439715623856
1761466576475994600,3.35399462890625,-0.0019657560624182224,0.002207811689004302,-0.02373713254928589
1761466576485978600,3.363978515625,-0.0013031614944338799,0.004747401922941208,-0.027207229286432266
1761466576495963600,3.373963623046875,0.00045285793021321297,-0.0025452282279729843,-0.027763208374381065
1761466576505947600,3.38394775390625,0.007001038640737534,0.008120998740196228,-0.016086312010884285
1761466576515932700,3.3939326171875,0.0018790403846651316,0.023107130080461502,-0.006435541436076164
1761466576525916700,3.403916748046875,-0.002905062399804592,0.028122128918766975,-0.0017478455556556582
1761466576535901400,3.4139013671875,0.001026766374707222,0.011864395812153816,-0.007638824172317982
1761466576545885400,3.423885498046875,0.0016765776090323925,0.005834733135998249,-0.013293781317770481
1761466576555870500,3.433870361328125,-0.003173511940985918,0.004458671435713768,-0.016229378059506416
1761466576565854500,3.4438544921875,0.006010132841765881,-0.0023129484616219997,-0.01925179921090603
1761466576575838500,3.45383837890625,0.00407691253349185,-0.00002978648990392685,-0.013950007036328316
1761466576585823500,3.463823486328125,0.013624345883727074,-0.0018950646044686437,-0.007689980324357748
1761466576595807500,3.473807373046875,0.012627126649022102,0.0017675498966127634,0.0023794579319655895
1761466576605792800,3.483792724609375,0.010080612264573574,0.009166876785457134,0.007937474176287651
1761466576615776500,3.493776611328125,0.007038529962301254,0.004884730558842421,0.004659972153604031
1761466576625761800,3.50376171875,0.00220595789141953,-0.0038757373113185167,-0.00493965856730938
1761466576635745500,3.51374560546875,-0.0035525523126125336,-0.01400506030768156,-0.01177174225449562
1761466576645730800,3.523730712890625,-0.0037424350157380104,-0.011241764761507511,-0.011180787347257137
1761466576655714800,3.53371484375,0.003519325517117977,-0.0033918439876288176,-0.009368492290377617
1761466576665699800,3.543699951171875,0.006436286028474569,-0.006210001185536385,-0.007032100576907396
1761466576675683800,3.553683837890625,0.00803610309958458,-0.009606544859707355,-0.007643615361303091
1761466576685667800,3.563667724609375,0.006146590691059828,-0.004212311934679747,-0.002309570088982582
1761466576695652600,3.573652587890625,-0.000009914860129356384,-0.0014846783597022295,-0.00902554951608181
1761466576705636900,3.583636962890625,-0.0033580404706299305,-0.006917260587215424,-0.021033477038145065
1761466576715621600,3.59362158203125,0.0029531458858400583,-0.012529045343399048,-0.029581978917121887
1761466576725605600,3.603605712890625,0.00524426344782114,-0.006014687474817038,-0.030470676720142365
1761466576735590700,3.613590576171875,0.008636852726340294,0.002417368581518531,-0.02320154197514057
1761466576745574700,3.62357470703125,0.010876837186515331,0.002666373969987035,-0.00916934572160244
1761466576755559700,3.6335595703125,0.0073144142515957355,0.005204652436077595,-0.001727958908304572
1761466576765543700,3.643543701171875,0.005576701834797859,0.009924839250743389,0.0008097672834992409
1761466576775528700,3.65352880859375,-0.0009019076824188232,0.008853916078805923,-0.00028339819982647896
1761466576785512700,3.6635126953125,-0.0023778313770890236,-0.00005941768176853657,-0.003395568113774061
1761466576795496700,3.67349658203125,-0.0071226381696760654,-0.0010828578379005194,-0.00963030755519867
1761466576805481700,3.683481689453125,-0.00031985947862267494,0.00721102487295866,-0.010592774488031864
1761466576815465700,3.6934658203125,0.006567254196852446,0.0200788676738739,-0.008575676009058952
1761466576825450800,3.70345068359375,0.009088202379643917,0.017016498371958733,-0.011566937901079655
1761466576835434800,3.713434814453125,0.011094165965914726,0.006858971435576677,-0.018000373616814613
1761466576845419500,3.72341943359375,0.008877617307007313,0.0030136331915855408,-0.017477860674262047
1761466576855403800,3.73340380859375,0.006190799176692963,0.00004262058064341545,-0.015987299382686615
1761466576865388500,3.743388427734375,0.005326603073626757,-0.0014823053497821093,-0.018085869029164314
1761466576875372500,3.75337255859375,0.001781183760613203,-0.005654462613165379,-0.01703253947198391
1761466576885356500,3.7633564453125,0.003151646349579096,-0.00008526025339961052,-0.01686023361980915
1761466576895341600,3.773341552734375,0.0049288454465568066,0.015173888765275478,-0.01324929017573595
1761466576905325600,3.78332568359375,0.0057839867658913136,0.014456166885793209,-0.01225380040705204
1761466576915310600,3.793310546875,0.00804890226572752,0.003643464297056198,-0.008997551165521145
1761466576925294600,3.803294677734375,0.007500557228922844,0.003854120150208473,-0.0035018515773117542
1761466576935279600,3.813279541015625,0.009305572137236595,0.015336629934608936,-0.00027545331977307796
1761466576945263600,3.823263671875,0.009243519976735115,0.014724635519087315,-0.0007945033721625805
1761466576955248600,3.83324853515625,0.004390517715364695,0.00565468380227685,-0.002061614068225026
1761466576965232600,3.843232666015625,0.004433927126228809,0.012850012630224228,-0.008899546228349209
1761466576975217700,3.8532177734375,0.005161546636372805,0.02757277525961399,-0.005689381621778011
1761466576985201700,3.86320166015625,0.0047125378623604774,0.028129374608397484,-0.0027079726569354534
1761466576995185700,3.873185546875,0.002731781452894211,0.01307293213903904,-0.0050901733338832855
1761466577005170700,3.883170654296875,0.0027605437207967043,0.004112459719181061,-0.006505377124994993
1761466577015154700,3.89315478515625,0.0031181785743683577,0.008425423875451088,-0.007780206389725208
1761466577025139500,3.903139404296875,0.0015125586651265621,0.0034138867631554604,-0.009730439633131027
1761466577035123700,3.913123779296875,0.0013946834951639175,-0.004766009747982025,-0.01020315382629633
1761466577045108500,3.9231083984375,0.0033824671991169453,0.0010580576490610838,-0.008613779209554195
1761466577055092500,3.933092529296875,0.01105533167719841,0.01806044392287731,-0.0026559869293123484
1761466577065077500,3.943077392578125,0.00758123816922307,0.017780279740691185,0.0007826865185052156
1761466577075061500,3.9530615234375,0.008702206425368786,0.006969186943024397,0.0018335592467337847
1761466577085046500,3.963046630859375,0.005681915674358606,0.0028556687757372856,0.0008601739536970854
1761466577095030500,3.973030517578125,0.0009960993193089962,0.0025352747179567814,-0.0028053829446434975
1761466577105014500,3.9830146484375,-0.002875071484595537,0.00018370337784290314,0.0027933805249631405
1761466577114999600,3.99299951171875,-0.004905616398900747,-0.007394010201096535,0.0015142159536480904
1761466577124983600,4.002983642578125,-0.004053137730807066,-0.010210037231445312,0.0029872101731598377
1761466577134967600,4.012967529296875,-0.003922079224139452,0.001548586180433631,0.004442661534994841
1761466577144951600,4.02295166015625,-0.0014618509449064732,0.007934046909213066,0.001985629089176655
1761466577154936600,4.0329365234375,-0.0008128387853503227,0.008718614466488361,0.004879952874034643
1761466577164920600,4.042920654296875,-0.005261382553726435,0.0027310296427458525,0.0016119875945150852
1761466577174905600,4.052905517578125,-0.009942468255758286,-0.002769680693745613,-0.0010485602542757988
1761466577184889600,4.0628896484375,-0.009574152529239655,-0.0021941715385764837,0.0014430934097617865
1761466577194873600,4.07287353515625,-0.009031829424202442,-0.0020090786274522543,0.004514247644692659
1761466577204858600,4.082858642578125,-0.005752679891884327,0.0007840448524802923,0.009305007755756378
1761466577214842600,4.092842529296875,-0.0020887022837996483,-0.0004303567111492157,0.01353304274380207
1761466577224827600,4.10282763671875,-0.001176037359982729,0.0019390576053410769,0.010801704600453377
1761466577234811600,4.112811767578125,-0.0031726574525237083,0.002262683352455497,0.007450340781360865
1761466577244796700,4.122796630859375,-0.005960454232990742,-0.001618873793631792,0.00028776912949979305
1761466577254780400,4.132780517578125,-0.006731140892952681,0.0022738336119800806,-0.0009210126008838415
1761466577264769300,4.142769287109375,-0.00688001187518239,0.0048720138147473335,0.00091550312936306
1761466577274753300,4.152753173828125,-0.006256697233766317,0.010600442998111248,0.012513863854110241
1761466577284738300,4.16273828125,0.000034221913665533066,0.026267286390066147,0.0225254837423563
1761466577294722300,4.172722412109375,0.008672836236655712,0.040611591190099716,0.024413947016000748
1761466577304706300,4.182706298828125,0.01217888854444027,0.037403546273708344,0.028675537556409836
1761466577314691300,4.19269140625,0.006608759984374046,0.0296083502471447,0.021977581083774567
1761466577324675300,4.20267529296875,0.004360519349575043,0.02539229765534401,0.008241793140769005
1761466577334660400,4.212660400390625,-0.0005411556921899319,0.016535328701138496,0.0032076858915388584
1761466577344644400,4.222644287109375,-0.004730574321001768,0.014760064892470837,-0.001009163330309093
1761466577354629400,4.23262939453125,-0.009623834863305092,0.006126329768449068,-0.003498389385640621
1761466577364613400,4.24261328125,-0.005599532276391983,0.00436171842738986,-0.00954403169453144
1761466577374598100,4.25259814453125,-0.0015916256234049797,-0.0032602008432149887,-0.009490277618169785
1761466577384582400,4.26258251953125,0.002284072572365403,-0.006940423510968685,-0.005061173811554909
1761466577394567200,4.272567138671875,0.00013718334957957268,-0.008189226500689983,0.0027595062274485826
1761466577404551200,4.28255126953125,-0.0018420778214931488,-0.0044568064622581005,0.0027635011356323957
1761466577414535200,4.29253515625,-0.005434062797576189,-0.0033816685900092125,-0.000715138390660286
1761466577424520200,4.302520263671875,-0.005378135945647955,-0.0033345306292176247,-0.0034877555444836617
1761466577434504200,4.312504150390625,-0.0028085713274776936,-0.007008081302046776,-0.009860977530479431
1761466577444489200,4.3224892578125,0.0015243920497596264,-0.009393208660185337,-0.012184053659439087
1761466577454473200,4.33247314453125,0.0069039808586239815,-0.007077649235725403,-0.011705426499247551
1761466577464458200,4.342458251953125,0.009643575176596642,-0.0055290209129452705,-0.008112821727991104
1761466577474442200,4.352442138671875,0.012004626914858818,-0.0024314424954354763,0.0039587002247571945
1761466577484427300,4.36242724609375,0.009794735349714756,-0.0037078955210745335,0.010619532316923141
1761466577494411300,4.372411376953125,0.00670583825558424,0.0026509372983127832,0.02167697437107563
1761466577504396300,4.382396240234375,0.005244295112788677,0.007558876648545265,0.026022454723715782
1761466577514380300,4.39238037109375,0.004347608890384436,0.00356386904604733,0.02702540159225464
1761466577524365300,4.402365234375,0.004495947156101465,-0.00883527658879757,0.02131478488445282
1761466577534349300,4.412349365234375,0.004008687566965818,-0.009283685125410557,0.020123237743973732
1761466577544333300,4.422333251953125,0.004916026722639799,-0.006923592183738947,0.027071958407759666
1761466577554318000,4.432318115234375,0.007694641128182411,0.0012479573488235474,0.03340555727481842
1761466577564302000,4.442302001953125,0.008824087679386139,0.009717874228954315,0.040840305387973785
1761466577574287000,4.452287109375,0.007122090086340904,0.005800657905638218,0.042649369686841965
1761466577584271000,4.46227099609375,0.008777777664363384,-0.001562183373607695,0.03852466493844986
1761466577594256100,4.472256103515625,0.010769292712211609,-0.010307530872523785,0.030259866267442703
1761466577604240100,4.482240234375,0.00914689525961876,-0.013974703848361969,0.022403273731470108
1761466577614225400,4.492225341796875,0.00908130593597889,-0.013734463602304459,0.02481740713119507
1761466577624209200,4.502209228515625,0.007744931615889072,-0.019857337698340416,0.021322008222341537
1761466577634194400,4.5121943359375,0.011136375367641449,-0.015730196610093117,0.027133256196975708
1761466577644178200,4.52217822265625,0.010076170787215233,-0.012643593363463879,0.02106124721467495
1761466577654162200,4.532162109375,0.007158074993640184,-0.021212350577116013,0.015109116211533546
1761466577664147500,4.5421474609375,0.008918690495193005,-0.030429551377892494,0.00905362144112587
1761466577674131200,4.552131103515625,0.0163005031645298,-0.026153378188610077,0.005190776661038399
1761466577684116500,4.562116455078125,0.016694383695721626,-0.009119533002376556,0.015415450558066368
1761466577694100500,4.5721005859375,0.014744103886187077,-0.006412115879356861,0.02298782952129841
1761466577704085200,4.582085205078125,0.012459378689527512,-0.01163803692907095,0.022245073691010475
1761466577714069200,4.5920693359375,0.017771216109395027,-0.022251004353165627,0.01874089054763317
1761466577724057000,4.60205712890625,0.01563136652112007,-0.021388405933976173,0.014550672844052315
1761466577734041000,4.612041015625,0.014121083542704582,-0.017285479232668877,0.014110395684838295
1761466577744026000,4.622026123046875,0.014141591265797615,-0.024028602987527847,0.014609472826123238
1761466577754010000,4.632010009765625,0.01878185011446476,-0.023342005908489227,0.019093943759799004
1761466577763995100,4.6419951171875,0.017438553273677826,-0.01895418018102646,0.025662098079919815
1761466577773979100,4.651979248046875,0.01494879461824894,-0.010288556106388569,0.026453081518411636
1761466577783964200,4.661964111328125,0.011602266691625118,-0.015227388590574265,0.02611272968351841
1761466577793948200,4.6719482421875,0.01464769709855318,-0.02652430720627308,0.022650672122836113
1761466577803933400,4.681933349609375,0.017238952219486237,-0.03002982772886753,0.02360355108976364
1761466577813917200,4.691917236328125,0.011171262711286545,-0.016972027719020844,0.030404947698116302
1761466577823901200,4.701901123046875,0.009169098921120167,-0.0023366271052509546,0.037829574197530746
1761466577833886500,4.711886474609375,0.008828926831483841,-0.005774522200226784,0.037260476499795914
1761466577843870200,4.7218701171875,0.013413557782769203,-0.014380794018507004,0.03351633995771408
1761466577853855500,4.73185546875,0.011132294312119484,-0.022610226646065712,0.024934034794569016
1761466577863839500,4.741839599609375,0.013635133393108845,-0.025516267865896225,0.02021864242851734
1761466577873824300,4.75182421875,0.011253010481595993,-0.030735023319721222,0.01870838552713394
1761466577883808300,4.761808349609375,0.014257056638598442,-0.015961669385433197,0.03361143544316292
1761466577893793300,4.771793212890625,0.012039823457598686,-0.002611462026834488,0.04229915514588356
1761466577903777300,4.78177734375,0.004468456842005253,-0.010709602385759354,0.04644782841205597
1761466577913762300,4.79176220703125,0.004284607246518135,-0.020783498883247375,0.04065089300274849
1761466577923746300,4.801746337890625,0.0021362353581935167,-0.03165611997246742,0.03615547716617584
1761466577933730300,4.811730224609375,-0.000780708622187376,-0.03697367385029793,0.024278059601783752
1761466577943715300,4.82171533203125,0.00031571462750434875,-0.031016714870929718,0.022021031007170677
1761466577953699300,4.83169921875,0.0014991676434874535,-0.022286394611001015,0.026934074237942696
1761466577963684400,4.841684326171875,0.0007766522467136383,-0.01539573073387146,0.03466470167040825
1761466577973668400,4.85166845703125,-0.0028486978262662888,-0.009768427349627018,0.04426934942603111
1761466577983653400,4.8616533203125,-0.0008444027043879032,-0.009623551741242409,0.04297824949026108
1761466577993637400,4.871637451171875,-0.001850854605436325,-0.017141398042440414,0.03334054723381996
1761466578003622400,4.881622314453125,-0.0011563021689653397,-0.024431802332401276,0.025061843916773796
1761466578013606400,4.8916064453125,0.0011907140724360943,-0.029356280341744423,0.0248488150537014
1761466578023591200,4.901591064453125,0.003005125792697072,-0.02445659600198269,0.033120326697826385
1761466578033575400,4.911575439453125,0.0020780793856829405,-0.021117525175213814,0.048228174448013306
1761466578043560200,4.921560302734375,-0.0062775881960988045,-0.018888724967837334,0.05696573853492737
1761466578053544200,4.931544189453125,-0.007076334673911333,-0.024141209200024605,0.059572651982307434
1761466578063528200,4.941528076171875,-0.006462476681917906,-0.029442230239510536,0.05588976666331291
1761466578073513200,4.95151318359375,-0.006507935933768749,-0.026033204048871994,0.04815042391419411
1761466578083497200,4.961497314453125,-0.002422381192445755,-0.021532196551561356,0.0436459518969059
1761466578093482200,4.971482177734375,0.0012747189030051231,-0.01970972865819931,0.03821544349193573
1761466578103466200,4.98146630859375,0.0014209263026714325,-0.02368023619055748,0.025627218186855316
1761466578113451300,4.991451171875,0.0027011947240680456,-0.03396854177117348,0.019133349880576134
1761466578123435300,5.001435302734375,-0.00002455059438943863,-0.0434829480946064,0.01743212342262268
1761466578133420300,5.011420166015625,-0.0023994375951588154,-0.05096857622265816,0.016155146062374115
1761466578143404300,5.021404296875,-0.008164381608366966,-0.04635385051369667,0.0201666671782732
1761466578153389300,5.031389404296875,-0.014714749529957771,-0.045266006141901016,0.019502252340316772
1761466578163373300,5.041373291015625,-0.01626284420490265,-0.046710770577192307,0.02441551722586155
1761466578173358000,5.051358154296875,-0.016820082440972328,-0.04924450442194939,0.025481849908828735
1761466578183342300,5.06134228515625,-0.016150297597050667,-0.043281421065330505,0.028530368581414223
1761466578193326300,5.071326416015625,-0.0104778241366148,-0.03600645810365677,0.02964303269982338
1761466578203311000,5.08131103515625,-0.01000111736357212,-0.029198884963989258,0.027510108426213264
1761466578213295000,5.091295166015625,-0.013701416552066803,-0.02248452603816986,0.0258118137717247
1761466578223280000,5.101280029296875,-0.011784207075834274,-0.016451667994260788,0.02579823136329651
1761466578233264000,5.11126416015625,-0.009450271725654602,-0.016470035538077354,0.024180620908737183
1761466578243249200,5.121249267578125,-0.011202098801732063,-0.02547924406826496,0.01911342516541481
1761466578253233200,5.131233154296875,-0.011549392715096474,-0.03000260703265667,0.015216672793030739
1761466578263214000,5.141214111328125,-0.013985918834805489,-0.02969261445105076,0.01643427088856697
1761466578273198000,5.151197998046875,-0.01766503043472767,-0.02137049101293087,0.01354632992297411
1761466578283183000,5.16118310546875,-0.019984111189842224,-0.016875609755516052,0.015559946186840534
1761466578293167000,5.1711669921875,-0.019084125757217407,-0.022788621485233307,0.0073060085996985435
1761466578303152000,5.181152099609375,-0.017031894996762276,-0.03013867884874344,0.003193821059539914
1761466578313136000,5.19113623046875,-0.01942404918372631,-0.03624771162867546,-0.0014973344514146447
1761466578323120000,5.2011201171875,-0.013166684657335281,-0.03504342958331108,-0.0033026915043592453
1761466578333105200,5.211105224609375,-0.010748980566859245,-0.03286866843700409,-0.002065136330202222
1761466578343089200,5.221089111328125,-0.012921852990984917,-0.02691570483148098,-0.0013942860532552004
1761466578353074200,5.23107421875,-0.01325418520718813,-0.02309410274028778,0.005792014766484499
1761466578363058200,5.24105810546875,-0.013330350629985332,-0.028120554983615875,0.0038681472651660442
1761466578373043000,5.25104296875,-0.01472337543964386,-0.034265290945768356,0.0011554721277207136
1761466578383027200,5.261027099609375,-0.01918710023164749,-0.03364104405045509,-0.003015304682776332
1761466578393012000,5.271011962890625,-0.014942703768610954,-0.022765446454286575,-0.001403865753673017
1761466578402996000,5.280995849609375,-0.012182071805000305,-0.021096710115671158,-0.0062540145590901375
1761466578412981000,5.29098095703125,-0.009251926094293594,-0.022768139839172363,-0.005370619241148233
1761466578422965000,5.300965087890625,-0.007715815212577581,-0.02395750768482685,-0.012062610127031803
1761466578432950000,5.310949951171875,-0.0031757610850036144,-0.0235883966088295,-0.014407520182430744
1761466578442934000,5.32093408203125,-0.003895081114023924,-0.022236043587327003,-0.012096162885427475
1761466578452918000,5.33091796875,-0.001876122783869505,-0.02774161286652088,-0.01197044737637043
1761466578462903000,5.340903076171875,0.0024922604206949472,-0.02026318944990635,-0.009155752137303352
1761466578472887000,5.350886962890625,-0.0020001232624053955,0.00035553891211748123,-0.0029268877115100622
1761466578482872000,5.3608720703125,-0.0020003891550004482,0.004252276383340359,-0.002568958792835474
1761466578492856000,5.37085595703125,-0.0024246308021247387,-0.0050437538884580135,-0.007541080936789513
1761466578502841000,5.380841064453125,-0.0003558872267603874,-0.005111398175358772,-0.016148418188095093
1761466578512825000,5.3908251953125,0.0007285955362021923,-0.0016804375918582082,-0.019414791837334633
1761466578522809900,5.400809814453125,-0.0005995226092636585,-0.003807238070294261,-0.020567674189805984
1761466578532794000,5.410794189453125,0.0009206696413457394,-0.00019333534874022007,-0.019127964973449707
1761466578542779000,5.42077880859375,0.006606518290936947,0.010887011885643005,-0.012431446462869644
1761466578552763000,5.430762939453125,0.006006122566759586,0.03501153737306595,0.0040132952854037285
1761466578562748000,5.440747802734375,-0.0005678907036781311,0.039924535900354385,0.012516235932707787
1761466578572732000,5.45073193359375,-0.002440697979182005,0.032730769366025925,0.006354514043778181
1761466578582716000,5.4607158203125,-0.0023464220575988293,0.019689269363880157,-0.008143201470375061
1761466578592701000,5.470700927734375,-0.000776893924921751,0.01289164274930954,-0.020403139293193817
1761466578602685000,5.480684814453125,0.0014638900756835938,0.006794069893658161,-0.02685597911477089
1761466578612670000,5.490669921875,0.0003664335235953331,0.007178861647844315,-0.026290565729141235
1761466578622654000,5.500654052734375,0.0037893946282565594,0.015208026394248009,-0.016226213425397873
1761466578632639200,5.51063916015625,0.007608606014400721,0.03147192299365997,-0.00290692294947803
1761466578642623000,5.520623046875,0.00692763552069664,0.04083772748708725,0.0057603344321250916
1761466578652608300,5.530608154296875,0.002815317129716277,0.036452535539865494,0.007749744225293398
1761466578662592300,5.54059228515625,0.000875470694154501,0.023040058091282845,0.001908367034047842
1761466578672577000,5.550576904296875,0.002681917045265436,0.022301653400063515,-0.004707798361778259
1761466578682561300,5.560561279296875,0.004068625159561634,0.021747715771198273,-0.008506265468895435
1761466578692546000,5.570546142578125,0.006742291618138552,0.019755123183131218,-0.008945942856371403
1761466578702530000,5.580530029296875,0.011061672121286392,0.020091215148568153,-0.010869543999433517
1761466578712514000,5.59051416015625,0.01475414540618658,0.025746436789631844,-0.014021661132574081
1761466578722499000,5.6004990234375,0.019250892102718353,0.02543564699590206,-0.015776151791214943
1761466578732483000,5.610483154296875,0.017316089943051338,0.016968144103884697,-0.022385863587260246
1761466578742468000,5.620468017578125,0.013124274089932442,-0.0008529310580343008,-0.028344687074422836
1761466578752452000,5.6304521484375,0.01450434047728777,-0.0065835388377308846,-0.028737757354974747
1761466578762437000,5.64043701171875,0.014875851571559906,-0.0023459168151021004,-0.02412169985473156
1761466578772421000,5.650421142578125,0.011075007729232311,0.0021920313593000174,-0.01769142970442772
1761466578782406100,5.66040625,0.010924538597464561,0.010017996653914452,-0.010275857523083687
1761466578792390100,5.67039013671875,0.013088205829262733,0.02192610129714012,-0.0002858515363186598
1761466578802375200,5.680375244140625,0.013533220626413822,0.0260060653090477,0.00227664178237319
1761466578812359200,5.690359130859375,0.015901658684015274,0.01902114786207676,0.0038020843639969826
1761466578822344200,5.70034423828125,0.013609474524855614,0.01824803091585636,0.0037272493354976177
1761466578832328200,5.710328125,0.018928399309515953,0.015798980370163918,0.005206374451518059
1761466578842313000,5.72031298828125,0.02000271901488304,0.018256813287734985,0.007479382678866386
1761466578852297000,5.730296875,0.018553514033555984,0.020095745101571083,0.014704789966344833
1761466578862281000,5.740281005859375,0.02045687660574913,0.02603752352297306,0.014242731034755707
1761466578872266000,5.750265869140625,0.014290476217865944,0.020721806213259697,0.017150409519672394
1761466578882250000,5.76025,0.012950906530022621,0.017205635085701942,0.0148116210475564
1761466578892235000,5.770235107421875,0.009848618879914284,0.013175766915082932,0.006955805234611034
1761466578902219000,5.780218994140625,0.007276271469891071,0.008361305110156536,-0.003972742706537247
1761466578912204000,5.7902041015625,0.006200088188052177,0.0013872848358005285,-0.014372918754816055
1761466578922188000,5.80018798828125,0.005584365222603083,-0.0018710928270593286,-0.01904517039656639
1761466578932173000,5.810173095703125,0.008994542993605137,0.0054438114166259766,-0.021470244973897934
1761466578942157000,5.820156982421875,0.005694087594747543,0.0066419681534171104,-0.020442796871066093
1761466578952142000,5.83014208984375,0.005083674564957619,0.00391410943120718,-0.017221715301275253
1761466578962126000,5.8401259765625,0.0009283446706831455,0.0028533723670989275,-0.017940502613782883
1761466578972111000,5.850111083984375,0.0003804890438914299,0.005007592961192131,-0.01888032630085945
1761466578982095000,5.86009521484375,-0.004395357798784971,0.0062259892001748085,-0.023480936884880066
1761466578992079000,5.8700791015625,-0.0030265813693404198,0.0016860775649547577,-0.02660267800092697
1761466579002064000,5.88006396484375,0.0005737463943660259,0.0007747439667582512,-0.03415912762284279
1761466579012048100,5.890048095703125,-0.004073736257851124,-0.0031302492134273052,-0.03688168153166771
1761466579022033000,5.900032958984375,-0.0006907223723828793,-0.011219600215554237,-0.04060238227248192
1761466579032017000,5.910016845703125,0.001556632574647665,-0.0131557397544384,-0.042939819395542145
1761466579042002000,5.920001953125,-0.000015165191143751144,-0.014257488772273064,-0.03767954558134079
1761466579051986000,5.92998583984375,0.002373363822698593,-0.015680676326155663,-0.031286101788282394
1761466579061971000,5.939970947265625,0.001981080276891589,-0.01084836944937706,-0.024598635733127594
1761466579071955000,5.949954833984375,0.001663810107856989,-0.010152505710721016,-0.01996738091111183
1761466579081940200,5.959940185546875,-0.002192713785916567,-0.006704511120915413,-0.01610739529132843
1761466579091924000,5.969924072265625,-0.0054212165996432304,-0.007786868140101433,-0.009390585124492645
1761466579101909200,5.9799091796875,-0.00289227906614542,-0.010471334680914879,-0.005858168005943298
1761466579111893200,5.989893310546875,-0.007864093407988548,-0.010010804980993271,-0.007435894571244717
1761466579121877000,5.999876953125,-0.005878706928342581,-0.006750563625246286,-0.01046044658869505
1761466579131862300,6.0098623046875,-0.004789978731423616,-0.0032402239739894867,-0.01416492648422718
1761466579141846300,6.01984619140625,-0.004032309632748365,-0.010137544944882393,-0.014540432021021843
1761466579151831000,6.0298310546875,-0.0026344130747020245,-0.01168783102184534,-0.016637085005640984
1761466579161815000,6.03981494140625,-0.00431939447298646,-0.011140551418066025,-0.015311629511415958
1761466579171800000,6.049800048828125,-0.001912637148052454,-0.01203245110809803,-0.011794386431574821
1761466579181784000,6.0597841796875,-0.0036157285794615746,-0.014466846361756325,-0.0024213907308876514
1761466579191769000,6.06976904296875,-0.009664347395300865,-0.01984185352921486,-0.008362683467566967
1761466579201753000,6.079753173828125,-0.008002001792192459,-0.021931903436779976,-0.017224885523319244
1761466579211738000,6.089738037109375,-0.005771277938038111,-0.02853521890938282,-0.02699095755815506
1761466579221722000,6.09972216796875,-0.0029488601721823215,-0.029064655303955078,-0.0336051844060421
1761466579231707100,6.10970703125,-0.0018564150668680668,-0.025827866047620773,-0.0324283167719841
1761466579241691100,6.119691162109375,0.0016863876953721046,-0.020903946831822395,-0.02555816061794758
1761466579251675100,6.129675048828125,-0.000776476226747036,-0.01039055921137333,-0.012190714478492737
1761466579261660200,6.13966015625,-0.0013264189474284649,-0.0040610237047076225,-0.005992206744849682
1761466579271644200,6.14964404296875,-0.0031632883474230766,-0.0028692795895040035,-0.001336184679530561
1761466579281629200,6.159629150390625,-0.004919908940792084,-0.003030933439731598,-0.006675289943814278
1761466579291613200,6.16961328125,-0.006353079807013273,-0.009461591951549053,-0.01495804637670517
1761466579301598000,6.179597900390625,-0.003313348162919283,-0.005507330410182476,-0.02446126937866211
1761466579311582200,6.189582275390625,0.004341349005699158,0.0037039825692772865,-0.023805046454072
1761466579321567200,6.199567138671875,0.004734697751700878,0.0032030423171818256,-0.022448964416980743
1761466579331551000,6.209551025390625,0.011342592537403107,0.0061343759298324585,-0.02072376385331154
1761466579341536300,6.219536376953125,0.012762855738401413,0.007558368146419525,-0.018908020108938217
1761466579351520300,6.229520263671875,0.010643071494996548,0.007511721923947334,-0.02226170524954796
1761466579361505300,6.23950537109375,0.003960668109357357,0.0066408682614564896,-0.01993729919195175
1761466579371489300,6.2494892578125,0.0034193338360637426,0.008398042060434818,-0.018935436382889748
1761466579381474300,6.259474365234375,0.002593754092231393,0.0026165861636400223,-0.022583434358239174
1761466579391458300,6.269458251953125,0.0003154361620545387,0.007686961442232132,-0.024312876164913177
1761466579401442300,6.2794423828125,0.005033492110669613,0.011866260319948196,-0.01980547606945038
1761466579411427300,6.28942724609375,0.004097995348274708,0.01192408800125122,-0.014334308914840221
1761466579421411300,6.299411376953125,0.00913216918706894,0.015103104524314404,-0.009596545249223709
1761466579431396400,6.309396240234375,0.003459472907707095,0.019175346940755844,-0.00004964834079146385
1761466579441380400,6.31938037109375,0.0032488168217241764,0.028388284146785736,0.006386413238942623
1761466579451365000,6.329365234375,0.00009341584518551826,0.026590630412101746,0.006804013159126043
1761466579461349400,6.339349365234375,0.002829813864082098,0.023833727464079857,-0.0006613600999116898
1761466579471334100,6.349334228515625,0.006129263900220394,0.025565309450030327,-0.0074904984794557095
1761466579481318100,6.359318115234375,0.008346877992153168,0.02907055988907814,-0.014035483822226524
1761466579491303200,6.36930322265625,0.00706426752731204,0.02644019015133381,-0.01870403252542019
1761466579501287200,6.379287109375,0.005030411295592785,0.026699049398303032,-0.02286229096353054
1761466579511272200,6.389272216796875,0.00585291488096118,0.021761270239949226,-0.023570148274302483
1761466579521256200,6.399256103515625,0.003220912767574191,0.023543722927570343,-0.027431199327111244
1761466579531240200,6.409240234375,-0.002266868017613888,0.01879820041358471,-0.027280166745185852
1761466579541225200,6.41922509765625,0.0028035244904458523,0.01963576301932335,-0.026577359065413475
1761466579551209200,6.429209228515625,0.0015889164060354233,0.021036844700574875,-0.01877615600824356
1761466579561194200,6.4391943359375,0.0046978904865682125,0.02540203183889389,-0.009903035126626492
1761466579571178200,6.44917822265625,0.0037134350277483463,0.029152875766158104,-0.002759678289294243
1761466579581163300,6.459163330078125,0.0023488313890993595,0.030261283740401268,-0.003496841061860323
1761466579591147300,6.469147216796875,0.001337139867246151,0.026944326236844063,-0.00700609665364027
1761466579601132000,6.479132080078125,-0.0014229603111743927,0.025334179401397705,-0.014178521931171417
1761466579611116300,6.4891162109375,0.0011040102690458298,0.022566352039575577,-0.013776915147900581
1761466579621101000,6.49910107421875,-0.0006544748321175575,0.021460607647895813,-0.015850717201828957
1761466579631085000,6.5090849609375,-0.0027300077490508556,0.020974285900592804,-0.017882952466607094
1761466579641070000,6.519070068359375,-0.005903963465243578,0.011238566599786282,-0.01760704815387726
1761466579651054000,6.52905419921875,-0.004426636267453432,0.009263072162866592,-0.020353861153125763
1761466579661039000,6.5390390625,-0.004248736891895533,0.006274472456425428,-0.01847446896135807
1761466579671023000,6.549023193359375,-0.005072214175015688,0.008846258744597435,-0.019639847800135612
1761466579681007000,6.559007080078125,-0.005015489179641008,0.004687999375164509,-0.018320783972740173
1761466579690992000,6.5689921875,-0.0032281861640512943,0.006326965056359768,-0.01671467162668705
1761466579700976000,6.57897607421875,-0.005684952717274427,0.007211401127278805,-0.012185966596007347
1761466579710961200,6.588961181640625,-0.005017695017158985,0.009045488201081753,-0.011823488399386406
1761466579720945200,6.598945068359375,-0.005649663507938385,0.00813122559338808,-0.01130630262196064
1761466579730930200,6.60893017578125,-0.00986504927277565,0.008459092117846012,-0.010059165768325329
1761466579740914200,6.6189140625,-0.009585684165358543,0.007378115318715572,-0.010020816698670387
1761466579750899200,6.628899169921875,-0.008917894214391708,0.005983386188745499,-0.014701567590236664
1761466579760883200,6.63888330078125,-0.015996577218174934,0.0023572256322950125,-0.021259069442749023
1761466579770868200,6.6488681640625,-0.00975002907216549,0.002925281412899494,-0.02154216542840004
1761466579780852000,6.65885205078125,-0.007723096292465925,0.0008536083623766899,-0.02261781506240368
1761466579790837200,6.668837158203125,-0.008311981335282326,0.0053381118923425674,-0.022984804585576057
1761466579800821200,6.6788212890625,-0.0056597390212118626,0.00637434795498848,-0.02016771212220192
1761466579810805000,6.688804931640625,-0.008334160782396793,0.007470530457794666,-0.020598094910383224
1761466579820790300,6.698790283203125,-0.00882578082382679,0.01314972061663866,-0.020650025457143784
1761466579830774000,6.70877392578125,-0.010293416678905487,0.013738776557147503,-0.027602719143033028
1761466579840759300,6.71875927734375,-0.011076387017965317,0.004945285618305206,-0.03622416779398918
1761466579850743300,6.728743408203125,-0.010989952832460403,0.0017867907881736755,-0.04375320300459862
1761466579860728300,6.738728271484375,-0.006993346847593784,0.000603814609348774,-0.040124110877513885
1761466579870712300,6.74871240234375,-0.0027826623991131783,0.0068350061774253845,-0.03193456679582596
1761466579880697300,6.758697265625,-0.0021648090332746506,0.01117489393800497,-0.019265111535787582
1761466579890681300,6.768681396484375,-0.004174892324954271,0.010797827504575253,-0.0157292652875185
1761466579900666000,6.778666015625,-0.010821344330906868,0.010236166417598724,-0.01685205288231373
1761466579910650400,6.788650390625,-0.015298811718821526,0.005908533930778503,-0.02205400913953781
1761466579920635100,6.79863525390625,-0.0126766636967659,0.0019699844997376204,-0.029955608770251274
1761466579930619100,6.808619140625,-0.009468354284763336,0.008078477345407009,-0.03289227560162544
1761466579940604200,6.818604248046875,-0.006350591313093901,0.013269243761897087,-0.028857054188847542
1761466579950588200,6.828588134765625,0.0002997354604303837,0.013288433663547039,-0.02394086867570877
1761466579960572200,6.838572265625,0.0056510912254452705,0.006320538930594921,-0.024670841172337532
1761466579970557200,6.84855712890625,0.006993590854108334,-0.0021789399906992912,-0.02424207143485546
1761466579980541200,6.858541259765625,0.002898448146879673,-0.005621874704957008,-0.026667146012187004
1761466579990526200,6.868526123046875,0.0024300848599523306,-0.006366739980876446,-0.028884775936603546
1761466580000510200,6.87851025390625,0.001376804430037737,-0.00888768769800663,-0.029857095330953598
1761466580010495200,6.8884951171875,0.001053056214004755,-0.004490585066378117,-0.027473537251353264
1761466580020479200,6.898479248046875,0.002159066963940859,0.0002495753578841686,-0.021295003592967987
1761466580030464300,6.90846435546875,0.0018623152282088995,0.0019039555918425322,-0.016861656680703163
1761466580040448300,6.9184482421875,0.005938016809523106,0.007571429014205933,-0.0028110851999372244
1761466580050433300,6.928433349609375,0.0038411077111959457,0.014040712267160416,0.0066751521080732346
1761466580060417300,6.938417236328125,0.004517284221947193,0.021967343986034393,0.013133583590388298
1761466580070402000,6.948402099609375,0.0100046806037426,0.034607287496328354,0.015845436602830887
1761466580080386000,6.958385986328125,0.008489341475069523,0.03813757374882698,0.017404716461896896
1761466580090370300,6.968370361328125,0.010312139987945557,0.03207598626613617,0.008605077862739563
1761466580100355000,6.97835498046875,0.0112980417907238,0.0239618681371212,0.004531506448984146
1761466580110339000,6.988339111328125,0.01237395964562893,0.01704191043972969,-0.003172486089169979
1761466580120324000,6.998323974609375,0.013319217599928379,0.01638810709118843,-0.007306779269129038
1761466580130308000,7.00830810546875,0.014752030372619629,0.016933754086494446,-0.007968815974891186
1761466580140293000,7.018293212890625,0.010312275029718876,0.013976313173770905,-0.011104688048362732
1761466580150277000,7.028277099609375,0.009721552953124046,0.011553937569260597,-0.005608747713267803
1761466580160262100,7.03826220703125,0.0068352194502949715,0.005022002384066582,-0.01061788760125637
1761466580170246100,7.04824609375,0.006263303570449352,0.0012201066128909588,-0.01316362340003252
1761466580180231200,7.058231201171875,0.006174886599183083,-0.0010656847152858973,-0.01625608652830124
1761466580190215200,7.068215087890625,0.011089636012911797,0.0012962224427610636,-0.017232367768883705
1761466580200200200,7.0782001953125,0.011178052052855492,0.0040680402889847755,-0.01262962818145752
1761466580210184200,7.08818408203125,0.012715587392449379,0.014657791703939438,-0.006770373322069645
1761466580220168200,7.098168212890625,0.00959569402039051,0.023612936958670616,-0.0008376496843993664
1761466580230153000,7.108153076171875,0.012437445111572742,0.020142631605267525,0.0017034932971000671
1761466580240137200,7.11813720703125,0.006733486894518137,0.01518276147544384,0.001748500857502222
1761466580250122000,7.1281220703125,0.007526668254286051,0.016616830602288246,-0.000826478935778141
1761466580260106000,7.13810595703125,0.0068116094917058945,0.009194067679345608,-0.004067545756697655
1761466580270091800,7.148091796875,0.007455796469002962,0.009119534865021706,-0.007528083398938179
1761466580280075800,7.15807568359375,0.00955889467149973,0.008400481194257736,-0.01228448934853077
1761466580290060800,7.168060791015625,0.009315703995525837,0.007900595664978027,-0.0060859741643071175
1761466580300044800,7.178044921875,0.006664793472737074,0.007237202487885952,-0.001655273255892098
1761466580310029800,7.18802978515625,0.0036817591171711683,0.004163353703916073,-0.0006898560095578432
1761466580320013800,7.198013916015625,0.0037677790969610214,-0.0016647081356495619,-0.0001042268704622984
1761466580329998800,7.207998779296875,0.0027660448104143143,-0.001485730055719614,0.0038007551338523626
1761466580339982800,7.21798291015625,0.002181747229769826,0.0003643680829554796,0.004089974798262119
1761466580349967600,7.227967529296875,-0.0009707831777632236,0.0008248148951679468,0.0021826294250786304
1761466580359951600,7.23795166015625,0.0034657767973840237,-0.00043539307080209255,-0.0022970736026763916
1761466580369936000,7.247935791015625,0.0010660621337592602,-0.003007214516401291,-0.0045666140504181385
1761466580379920600,7.257920654296875,-0.0012988252565264702,-0.007587319239974022,-0.009202377870678902
1761466580389904600,7.267904541015625,0.0005910410545766354,-0.006518837995827198,-0.006660407409071922
1761466580399889700,7.2778896484375,0.00015082070603966713,0.003110886085778475,-0.001522370963357389
1761466580409873700,7.287873779296875,0.0024794014170765877,0.004266411066055298,-0.0005399144720286131
1761466580419858700,7.297858642578125,-0.00047377776354551315,-0.0008343413937836885,0.0010611782781779766
1761466580429842700,7.3078427734375,-0.0035278592258691788,0.001765402965247631,0.0026082389522343874
1761466580439827700,7.31782763671875,-0.00022181076928973198,0.006296239327639341,0.00010753050446510315
1761466580449811700,7.327811767578125,-0.000325188972055912,-0.002548068296164274,-0.01451832801103592
1761466580459796700,7.337796630859375,0.002032507210969925,-0.010062177665531635,-0.02764664776623249
1761466580469780700,7.34778076171875,0.004656591452658176,-0.006356616038829088,-0.026601385325193405
1761466580479765800,7.357765869140625,0.004866448231041431,0.008927266113460064,-0.016923457384109497
1761466580489749800,7.367749755859375,0.006606223527342081,0.008722368627786636,-0.005427306983619928
1761466580499734800,7.37773486328125,0.0016463524661958218,0.003428803524002433,0.006298058666288853
1761466580509718800,7.38771875,0.0018488639034330845,0.007400485686957836,0.009476186707615852
1761466580519702800,7.397702880859375,-0.0029565435834228992,0.0172741562128067,0.010261552408337593
1761466580529687800,7.407687744140625,-0.006922356318682432,0.014142210595309734,0.003379193600267172
1761466580539671600,7.417671630859375,-0.004207263235002756,0.002205390715971589,-0.00714508630335331
1761466580549656800,7.42765673828125,-0.0015632929280400276,-0.003682308830320835,-0.01789574883878231
1761466580559640800,7.437640869140625,0.00514867203310132,0.0007875410374253988,-0.01370979193598032
1761466580569625900,7.4476259765625,0.011252371594309807,0.003965756855905056,-0.00633842870593071
1761466580579609900,7.45760986328125,0.013321913778781891,0.005970851518213749,-0.001159379375167191
1761466580589595000,7.467594970703125,0.014646541327238083,0.0033089949283748865,0.0007184382993727922
1761466580599579000,7.477578857421875,0.009139923378825188,-0.006930060684680939,0.0024867772590368986
1761466580609564000,7.48756396484375,0.00600838428363204,-0.005628536455333233,0.00020255311392247677
1761466580619548000,7.4975478515625,0.0037486921064555645,-0.009590255096554756,0.00003211083821952343
1761466580629533000,7.507532958984375,0.002591205993667245,-0.012146597728133202,0.008363526314496994
1761466580639517000,7.517516845703125,0.005065016448497772,-0.011345518752932549,0.016490429639816284
1761466580649501000,7.5275009765625,0.005435168743133545,-0.0014969117473810911,0.025431480258703232
1761466580659485700,7.537485595703125,-0.0011806562542915344,0.003256297903135419,0.03469102457165718
1761466580669470000,7.547469970703125,0.0004291366785764694,0.0006186827085912228,0.04126372188329697
1761466580679454700,7.557454833984375,0.0027567395009100437,0.0015569142997264862,0.0441838763654232
1761466580689438700,7.567438720703125,0.006130003370344639,0.0009265474509447813,0.044558048248291016
1761466580699423700,7.577423828125,0.008199811913073063,-0.0029922937974333763,0.04372501000761986
1761466580709407700,7.58740771484375,0.008206099271774292,-0.0059931473806500435,0.043298110365867615
1761466580719392800,7.597392822265625,0.00789051502943039,0.001629086211323738,0.04626380652189255
1761466580729376800,7.607376708984375,0.0025110295973718166,0.00818399153649807,0.04682035744190216
1761466580739361800,7.61736181640625,0.0011855745688080788,0.001884284196421504,0.044928450137376785
1761466580749345800,7.627345703125,-0.004847415257245302,-0.009994246065616608,0.03641674295067787
1761466580759330800,7.637330810546875,-0.0025746733881533146,-0.01608249731361866,0.03532404825091362
1761466580769314800,7.647314697265625,-0.0014694943092763424,-0.0145844342187047,0.03919759392738342
1761466580779299800,7.6572998046875,-0.0011565727181732655,-0.005518234334886074,0.04398622363805771
1761466580789283800,7.667283935546875,0.001733863726258278,-0.009147118777036667,0.043209418654441833
1761466580799267800,7.677267822265625,0.0045112743973731995,-0.009441131725907326,0.03655551001429558
1761466580809252900,7.6872529296875,-0.0024621537886559963,-0.010130630806088448,0.035216476768255234
1761466580819236900,7.69723681640625,-0.004258721601217985,-0.009916512295603752,0.035105690360069275
1761466580829221600,7.7072216796875,-0.005541359540075064,-0.00256777903996408,0.030841965228319168
1761466580839205600,7.71720556640625,0.0002787122502923012,0.0010301514994353056,0.03553365543484688
1761466580849190700,7.727190673828125,-0.002305086236447096,0.004591329954564571,0.04080059006810188
1761466580859174700,7.737174560546875,-0.0012310338206589222,0.0003803402651101351,0.044370025396347046
1761466580869159700,7.74715966796875,-0.0012909546494483948,-0.0023499324452131987,0.04306747391819954
1761466580879143700,7.757143798828125,-0.006885457318276167,-0.010750341229140759,0.03854595869779587
1761466580889128700,7.767128662109375,-0.008822422474622726,-0.016721894964575768,0.03087548539042473
1761466580899112700,7.77711279296875,-0.010354539379477501,-0.014779651537537575,0.02822989970445633
1761466580909097700,7.78709765625,-0.010376905091106892,-0.018079105764627457,0.025896217674016953
1761466580919081700,7.797081787109375,-0.011113536544144154,-0.022513799369335175,0.027609961107373238
1761466580929065700,7.807065673828125,-0.005907425191253424,-0.020707914605736732,0.03046780452132225
1761466580939050800,7.81705078125,-0.00317875063046813,-0.005091670900583267,0.03267636150121689
1761466580949034800,7.82703466796875,-0.004658907186239958,-0.007960665971040726,0.03071518987417221
1761466580959019800,7.837019775390625,-0.0058677163906395435,-0.01900692656636238,0.02897188439965248
1761466580969003800,7.847003662109375,-0.002935401163995266,-0.020970696583390236,0.02268918976187706
1761466580978988800,7.85698876953125,-0.004270443692803383,-0.015235047787427902,0.02413715049624443
1761466580988972500,7.86697265625,-0.007370064966380596,-0.02217528223991394,0.02472839690744877
1761466580998957800,7.876957763671875,-0.0110407005995512,-0.031246274709701538,0.022233281284570694
1761466581008941600,7.886941650390625,-0.007624548859894276,-0.028863493353128433,0.022025257349014282
1761466581018926800,7.8969267578125,-0.008137740194797516,-0.017271818593144417,0.024132616817951202
1761466581028910800,7.906910888671875,-0.007880744524300098,-0.01844014786183834,0.028184615075588226
1761466581038895900,7.916895751953125,-0.005028499290347099,-0.02360641211271286,0.03104511648416519
1761466581048879900,7.9268798828125,-0.00564254866912961,-0.023222943767905235,0.02524396777153015
1761466581058863900,7.93686376953125,-0.005936561618000269,-0.021585632115602493,0.017556753009557724
1761466581068849000,7.946848876953125,-0.0051273261196911335,-0.024178553372621536,0.007864495739340782
1761466581078833000,7.9568330078125,-0.003655929584056139,-0.02330290526151657,-0.001327404985204339
1761466581088818000,7.96681787109375,-0.006291512865573168,-0.026789769530296326,-0.009344862774014473
1761466581098802000,7.976802001953125,-0.006444378290325403,-0.03383675962686539,0.0014444012194871902
1761466581108787000,7.986786865234375,-0.009006604552268982,-0.01772516779601574,0.01872352324426174
1761466581118771000,7.99677099609375,-0.004518379922956228,-0.002227433957159519,0.034198883920907974
1761466581128755700,8.006755615234376,-0.006631462834775448,0.008032630197703838,0.05035897716879845
1761466581138736600,8.016736572265625,-0.007551585324108601,0.009921077638864517,0.056117527186870575
1761466581148720600,8.026720703125,-0.008078303188085556,0.010993054136633873,0.04927448928356171
1761466581158705700,8.03670556640625,-0.004994095768779516,0.005784710869193077,0.039103344082832336
1761466581168689700,8.046689697265625,-0.0025892299599945545,0.0014122978318482637,0.03082972951233387
1761466581178674700,8.0566748046875,0.001925627002492547,-0.0017984090372920036,0.023275138810276985
1761466581188658700,8.06665869140625,0.0050062681548297405,0.000913750845938921,0.02290256693959236
1761466581198643700,8.076643798828124,0.0074095046147704124,-0.00019172742031514645,0.019359497353434563
1761466581208627700,8.086627685546874,0.00880146399140358,-0.00634413817897439,0.01965908333659172
1761466581218612700,8.09661279296875,0.007973486557602882,-0.012097897008061409,0.01267201453447342
1761466581228596700,8.1065966796875,0.0070016831159591675,-0.019474036991596222,0.015752213075757027
1761466581238581800,8.116581787109375,0.005923369433730841,-0.02452259324491024,0.016631055623292923
1761466581248565800,8.126565673828125,0.006494883913546801,-0.027243277058005333,0.020512346178293228
1761466581258550800,8.13655078125,0.0005957158282399178,-0.02746804803609848,0.023498814553022385
1761466581268534800,8.14653466796875,0.0050649456679821014,-0.020527072250843048,0.02591431885957718
1761466581278518500,8.1565185546875,0.00015434296801686287,-0.017425553873181343,0.030589230358600616
1761466581288503300,8.16650341796875,0.0024122416507452726,-0.014001755975186825,0.027075961232185364
1761466581298487600,8.176487548828124,0.0024822826962918043,-0.009934576228260994,0.020472122356295586
1761466581308472600,8.18647265625,0.008014325052499771,-0.013503821566700935,0.010828342288732529
1761466581318456300,8.196456298828124,0.00881993118673563,-0.02003362588584423,0.006967024877667427
1761466581328441600,8.206441650390625,0.010070356540381908,-0.023051748052239418,0.0032651987858116627
1761466581338425600,8.216425537109375,0.012252017855644226,-0.01699119247496128,0.010593686252832413
1761466581348410600,8.22641064453125,0.006195190828293562,-0.010830236598849297,0.022932378575205803
1761466581358394600,8.23639453125,0.0047605461440980434,-0.0012785426806658506,0.026300743222236633
1761466581368379600,8.246379638671876,0.0002982569858431816,-0.002779497066512704,0.026080762967467308
1761466581378363600,8.25636376953125,0.004359577316790819,0.00202697585336864,0.021591471508145332
1761466581388348700,8.2663486328125,0.004930857568979263,0.0024831413757056,0.018843119964003563
1761466581398332700,8.276332763671874,0.005473609548062086,0.0025851407554000616,0.01720447652041912
1761466581408316700,8.286316650390624,0.006511029787361622,0.00261016096919775,0.015136011876165867
1761466581418301700,8.2963017578125,0.0076764291152358055,0.00922358874231577,0.018595723435282707
1761466581428285700,8.30628564453125,0.008816126734018326,0.008216677233576775,0.01783190295100212
1761466581438270500,8.3162705078125,0.004965462256222963,0.00665713008493185,0.014958351850509644
1761466581448254500,8.32625439453125,0.0048894151113927364,0.003793952753767371,0.012954600155353546
1761466581458239500,8.336239501953125,0.0010195756331086159,0.008681385777890682,0.006392039358615875
1761466581468223500,8.346223388671875,0.0028501602355390787,0.01023743487894535,0.008513548411428928
1761466581478208500,8.35620849609375,0.0006708954460918903,0.010828389786183834,0.012977272272109985
1761466581488192500,8.366192626953126,-0.0019104504026472569,0.010163984261453152,0.015939723700284958
1761466581498177500,8.376177490234374,0.0036622141487896442,0.009332279674708843,0.017476366832852364
1761466581508161500,8.38616162109375,0.0025168368592858315,0.008573494851589203,0.01197219267487526
1761466581518146600,8.396146484375,0.006009572651237249,0.006699961144477129,0.012305088341236115
1761466581528130600,8.406130615234375,0.0020510461181402206,0.0037407169584184885,0.006073502358049154
1761466581538114600,8.416114501953125,0.003458526683971286,0.006518127396702766,0.0012816768139600754
1761466581548099600,8.426099609375,0.0016276631504297256,0.006212390027940273,-0.00041634938679635525
1761466581558083600,8.43608349609375,-0.0015476238913834095,0.006892028264701366,-0.003375387517735362
1761466581568068600,8.446068603515625,-0.005375504493713379,0.0047697690315544605,-0.0024440910201519728
1761466581578052600,8.456052490234375,-0.004648195579648018,0.006621464621275663,-0.0077624237164855
1761466581588037400,8.466037353515626,-0.0008644922636449337,0.0011414308100938797,-0.018200643360614777
1761466581598021600,8.476021728515626,0.0014500613324344158,-0.0016519586788490415,-0.014636801555752754
1761466581608006400,8.48600634765625,0.0026453484315425158,-0.0034061893820762634,-0.01850024238228798
1761466581617990400,8.495990478515624,-0.0022727111354470253,-0.0012876447290182114,-0.017915677279233932
1761466581627975400,8.505975341796875,-0.004176781512796879,-0.003729269839823246,-0.019380642101168633
1761466581637959400,8.51595947265625,-0.0001444891095161438,-0.003801175160333514,-0.02531416527926922
1761466581647944400,8.5259443359375,-0.003091502469033003,-0.0025805793702602386,-0.031189167872071266
1761466581657928400,8.535928466796875,-0.0011109095066785812,-0.0028729946352541447,-0.03751150891184807
1761466581667912400,8.545912353515625,-0.001963451039046049,-0.0022289720363914967,-0.038891345262527466
1761466581677897500,8.5558974609375,-0.003871606197208166,-0.002099009696394205,-0.037394117563962936
1761466581687881500,8.565881591796876,-0.006182498298585415,-0.004196349531412125,-0.02897658571600914
1761466581697866500,8.575866455078126,-0.008874953724443913,-0.0065777478739619255,-0.019752195104956627
1761466581707850500,8.5858505859375,-0.009173509664833546,0.0031787592452019453,-0.012567533180117607
1761466581717835500,8.59583544921875,-0.007748718373477459,0.00851280428469181,-0.007312850560992956
1761466581727819500,8.605819580078125,-0.009515369310975075,0.003949705045670271,-0.008107499219477177
1761466581737804300,8.61580419921875,-0.008062615059316158,-0.00013877986930310726,-0.02096736989915371
1761466581747788500,8.62578857421875,-0.00594811188057065,-0.0005539173725992441,-0.03247760236263275
1761466581757773600,8.635773681640625,-0.003967785742133856,-0.0036194820422679186,-0.0355793833732605
1761466581767757300,8.64575732421875,0.0002369321882724762,-0.00410658773034811,-0.03675143048167229
1761466581777742600,8.65574267578125,0.007362485863268375,-0.005750556942075491,-0.03323179483413696
1761466581787726300,8.665726318359376,0.0019563566893339157,-0.0006551106926053762,-0.022888362407684326
1761466581797711600,8.675711669921874,0.0025089625269174576,0.008231058716773987,-0.013474887236952782
1761466581807695600,8.685695556640624,-0.003913190681487322,0.017588866874575615,-0.006778096780180931
1761466581817679400,8.695679443359374,-0.007842151448130608,0.013328341767191887,-0.004238772671669722
1761466581827664600,8.70566455078125,-0.008635582402348518,0.007426535710692406,-0.006318987347185612
1761466581837648600,8.715648681640625,-0.006509848404675722,0.0024432281497865915,-0.010852753184735775
1761466581847633700,8.725633544921875,-0.0031600487418472767,0.0050658853724598885,-0.017145782709121704
1761466581857617700,8.73561767578125,0.0019095446914434433,0.006541009992361069,-0.013977420516312122
1761466581867602700,8.745602783203125,0.010593818500638008,0.015020754188299179,0.03792841359972954
1761466581877586700,8.755586669921875,0.004566020332276821,0.0263434499502182,0.013059547170996666
1761466581887571500,8.765571533203126,-0.0014632893726229668,0.009983405470848083,-0.0017287376103922725
1761466581897555700,8.7755556640625,-0.005487059708684683,0.01188729889690876,-0.012671932578086853
1761466581907540500,8.78554052734375,0.0019730061758309603,0.016200745478272438,-0.016640231013298035
1761466581917524500,8.7955244140625,0.0071030533872544765,0.01765083707869053,-0.007216902449727058
1761466581927508500,8.805508544921874,0.00916232168674469,0.01912180706858635,-0.009151259437203407
1761466581937493500,8.815493408203125,0.005073837004601955,0.01942141354084015,-0.013801670633256435
1761466581947477500,8.8254775390625,0.006718489807099104,0.013278252445161343,-0.024913404136896133
1761466581957462500,8.835462646484375,0.004403403960168362,0.008620116859674454,-0.03694823011755943
1761466581967446500,8.845446533203125,0.003964912611991167,0.005442462861537933,-0.04750955477356911
1761466581977431600,8.855431640625,0.002027729293331504,0.0020450681913644075,-0.049667246639728546
1761466581987415600,8.86541552734375,0.006528988480567932,0.001756398705765605,-0.03960583731532097
