time,seconds_elapsed,z,y,x
1761466593868463900,0.1154638671875,0.0018384032882750034,0.007228462025523186,0.020333632826805115
1761466593878449000,0.125448974609375,0.0007739379070699215,0.0024416963569819927,0.02397311106324196
1761466593888433000,0.135432861328125,0.003064093878492713,-0.0029876872431486845,0.027415242046117783
1761466593898418000,0.14541796875,0.005452683195471764,-0.01019127108156681,0.02373368665575981
1761466593908402000,0.15540185546875,0.005450772121548653,-0.018973002210259438,0.017626458778977394
1761466593918387000,0.165386962890625,0.010187470354139805,-0.03035135753452778,0.018898118287324905
1761466593928371000,0.175370849609375,0.011030968278646469,-0.027557989582419395,0.023866277188062668
1761466593938355000,0.18535498046875,0.009292989037930965,-0.020459333434700966,0.02784290909767151
1761466593948340000,0.195340087890625,0.004842317663133144,-0.017098739743232727,0.030243832617998123
1761466593958324000,0.205323974609375,0.003332305233925581,-0.018121393397450447,0.027295714244246483
1761466593968309000,0.21530908203125,0.002517493674531579,-0.025128131732344627,0.024417834356427193
1761466593978293000,0.22529296875,0.007242740131914616,-0.028898635879158974,0.025702277198433876
1761466593988278000,0.235278076171875,0.008968453854322433,-0.021836716681718826,0.028217876330018044
1761466593998262000,0.245261962890625,0.006358022801578045,-0.010642651468515396,0.028820551931858063
1761466594008246000,0.25524609375,0.009283195249736309,-0.008560600690543652,0.03082272969186306
1761466594018231000,0.26523095703125,0.012136239558458328,-0.005185842979699373,0.03222062438726425
1761466594028215000,0.275215087890625,0.015899300575256348,0.0013753727544099092,0.03700608015060425
1761466594038199800,0.28519970703125,0.017703859135508537,0.005718722008168697,0.03832700848579407
1761466594048183800,0.295183837890625,0.01644940860569477,0.00539780780673027,0.03132742643356323
1761466594058168800,0.3051689453125,0.01141283754259348,0.0009844177402555943,0.028639230877161026
1761466594068152800,0.31515283203125,0.010667406022548676,-0.005079369992017746,0.024088216945528984
1761466594078136800,0.32513671875,0.005526439752429724,-0.006585653871297836,0.023730821907520294
1761466594088121900,0.335121826171875,0.012720374390482903,-0.0006526075303554535,0.030428843572735786
1761466594098105900,0.34510595703125,0.010562414303421974,0.005436177831143141,0.033376164734363556
1761466594108091000,0.3550908203125,0.009022088721394539,0.002755663823336363,0.02982863411307335
1761466594118075000,0.365074951171875,0.0073115406557917595,-0.001326429657638073,0.026188893243670464
1761466594128060000,0.375059814453125,0.005769477225840092,-0.005977820139378309,0.022869396954774857
1761466594138044000,0.3850439453125,0.004216588102281094,-0.009650852531194687,0.020223813131451607
1761466594148028000,0.39502783203125,0.0016495692543685436,-0.006690268404781818,0.02001482993364334
1761466594158013000,0.405012939453125,0.005530860275030136,-0.008643697015941143,0.02421649917960167
1761466594167997000,0.414996826171875,0.004151064436882734,-0.009505532681941986,0.029161786660552025
1761466594177982000,0.42498193359375,0.006160153076052666,-0.005094006657600403,0.03572487831115723
1761466594187966000,0.434966064453125,0.0075583565048873425,-0.007569938898086548,0.03577306866645813
1761466594197950700,0.44495068359375,0.007053687237203121,-0.01836559548974037,0.035019662231206894
1761466594207935000,0.45493505859375,0.007366239093244076,-0.022192560136318207,0.031171396374702454
1761466594217919000,0.4649189453125,0.008142284117639065,-0.01943725347518921,0.031611617654561996
1761466594227903700,0.47490380859375,0.005882961675524712,-0.020803719758987427,0.03138497844338417
1761466594237887700,0.4848876953125,0.0051085143350064754,-0.024581413716077805,0.028948450461030006
1761466594247872800,0.494872802734375,0.002243323251605034,-0.022667396813631058,0.029293062165379524
1761466594257856800,0.504856689453125,0.0018864597659558058,-0.025416579097509384,0.031140228733420372
1761466594267841800,0.514841796875,-0.0030174413695931435,-0.02645972929894924,0.03037828393280506
1761466594277825800,0.52482568359375,-0.005748513154685497,-0.029671767726540565,0.029131656512618065
1761466594287809300,0.534809326171875,-0.002369566820561886,-0.025280777364969254,0.02587333507835865
1761466594297794300,0.544794189453125,-0.0024430695921182632,-0.025169990956783295,0.02984543889760971
1761466594307778300,0.5547783203125,-0.0011093337088823318,-0.028840020298957825,0.03230021893978119
1761466594317763300,0.564763427734375,-0.0012539434246718884,-0.03270506486296654,0.03393832966685295
1761466594327747300,0.574747314453125,-0.0018046973273158073,-0.03156553581357002,0.026240253821015358
1761466594337731300,0.5847314453125,-0.0018060286529362202,-0.03216288238763809,0.010294578038156033
1761466594347716400,0.59471630859375,-0.0008405582047998905,-0.037469785660505295,0.0012806097511202097
1761466594357700400,0.604700439453125,0.00034827692434191704,-0.0376274436712265,-0.0023378271143883467
1761466594367685400,0.614685302734375,0.002853954676538706,-0.030751924961805344,0.0035242666490375996
1761466594377669400,0.62466943359375,0.0034419805742800236,-0.01905372366309166,0.017373504117131233
1761466594387654400,0.634654296875,0.0005760965868830681,-0.007009889930486679,0.029297348111867905
1761466594397638400,0.644638427734375,-0.0018066340126097202,0.0014115578960627317,0.038932666182518005
1761466594407622400,0.654622314453125,-0.006279415916651487,0.001068859826773405,0.031119132414460182
1761466594417607400,0.664607421875,-0.007605935912579298,-0.005969875026494265,0.018384430557489395
1761466594427591400,0.67459130859375,-0.0035439766943454742,-0.0034220765810459852,0.004340063780546188
1761466594437576200,0.684576171875,0.0005591553635895252,-0.0011245673522353172,-0.007614600472152233
1761466594447560200,0.694560302734375,0.006751136388629675,-0.006916118785738945,-0.01663690060377121
1761466594457545200,0.704545166015625,0.00992375984787941,-0.008577398955821991,-0.018910706043243408
1761466594467529200,0.714529296875,0.011983064003288746,-0.007202663458883762,-0.015503210946917534
1761466594477513200,0.72451318359375,0.008471686393022537,-0.003330959938466549,-0.016960492357611656
1761466594487498200,0.734498291015625,0.0076755196787416935,-0.002543208422139287,-0.0227816104888916
1761466594497482200,0.744482177734375,0.008513350039720535,0.004430811852216721,-0.024543557316064835
1761466594507467300,0.75446728515625,0.006223062984645367,0.010840479284524918,-0.028941189870238304
1761466594517451300,0.764451171875,0.005988704971969128,0.017444588243961334,-0.027142224833369255
1761466594527436300,0.774436279296875,0.0033388754818588495,0.022337332367897034,-0.028938500210642815
1761466594537420300,0.784420166015625,0.0037519317120313644,0.026063360273838043,-0.031719908118247986
1761466594547404300,0.794404296875,0.005466262344270945,0.0259257722645998,-0.0355486236512661
1761466594557389300,0.804389404296875,0.00863782037049532,0.022808276116847992,-0.03840646147727966
1761466594567373300,0.814373291015625,0.0072725676000118256,0.020931771025061607,-0.03949616476893425
1761466594577358600,0.824358642578125,0.011701405048370361,0.02353074960410595,-0.03949962928891182
1761466594587342300,0.83434228515625,0.013351280242204666,0.02782958559691906,-0.03607446700334549
1761466594597327400,0.844327392578125,0.011618094518780708,0.027932913973927498,-0.027441829442977905
1761466594607311400,0.854311279296875,0.005043921992182732,0.0211561881005764,-0.013970674946904182
1761466594617295400,0.86429541015625,0.005597593262791634,0.017691150307655334,-0.0020823231898248196
1761466594627280400,0.8742802734375,0.005342352669686079,0.014069613069295883,0.005580218508839607
1761466594637264400,0.884264404296875,0.010310480371117592,0.009091099724173546,0.004283791407942772
1761466594647249400,0.89424951171875,0.010573972947895527,0.0030723081436008215,0.0006443951278924942
1761466594657233400,0.9042333984375,0.01336176972836256,-0.003884134814143181,-0.005387132056057453
1761466594667218400,0.914218505859375,0.00762789323925972,-0.00953985657542944,-0.005173071287572384
1761466594677202400,0.924202392578125,0.006190319079905748,-0.01666221395134926,-0.001486190827563405
1761466594687186400,0.9341865234375,0.002135690301656723,-0.016358157619833946,0.0031883283518254757
1761466594697171500,0.94417138671875,-0.00003531854599714279,-0.013232672587037086,0.007606512866914272
1761466594707155500,0.954155517578125,0.0031271816696971655,-0.01524144597351551,0.009746271185576916
1761466594717140500,0.964140380859375,0.0012504523620009422,-0.018694765865802765,0.003877462586387992
1761466594727124500,0.97412451171875,0.0047938041388988495,-0.015796462073922157,-0.0005904978606849909
1761466594737109500,0.984109619140625,-0.0021365396678447723,-0.019749391824007034,-0.006083001382648945
1761466594747093500,0.994093505859375,-0.0009579118341207504,-0.017327530309557915,-0.006717069540172815
1761466594757077500,1.004077392578125,-0.0033723334781825542,-0.018229275941848755,-0.0023742527700960636
1761466594767062500,1.0140625,-0.00023878738284111023,-0.01120942085981369,0.0031453596893697977
1761466594777046500,1.024046630859375,0.002768986625596881,-0.0049525899812579155,0.005105978809297085
1761466594787031300,1.03403125,-0.003612168598920107,-0.0011692948173731565,0.004354953300207853
1761466594797015600,1.044015625,-0.004589548800140619,0.004205763339996338,0.0018920619040727615
1761466594807000300,1.054000244140625,-0.008133020251989365,0.010848511010408401,-0.0002616788260638714
1761466594816984300,1.063984375,-0.007672293111681938,0.009947829879820347,0.0014544622972607613
1761466594826968300,1.07396826171875,-0.003913993015885353,0.013802980072796345,0.00338479271158576
1761466594836953300,1.083953369140625,-0.0032727038487792015,0.012621068395674229,-0.00043284869752824306
1761466594846937300,1.093937255859375,-0.009756971150636673,0.0011626030318439007,-0.005200523883104324
1761466594856922400,1.10392236328125,-0.010860053822398186,-0.005917676724493504,-0.013593209907412529
1761466594866906400,1.11390625,-0.010236667469143867,-0.007740338332951069,-0.023219481110572815
1761466594876891400,1.123891357421875,-0.009259285405278206,-0.013215265236794949,-0.034475862979888916
1761466594886875400,1.13387548828125,-0.005734281614422798,-0.013463729061186314,-0.04969184473156929
1761466594896859400,1.143859375,-0.007985718548297882,-0.02177758701145649,-0.057314079254865646
1761466594906844400,1.153844482421875,-0.005796052049845457,-0.030162828043103218,-0.06001317501068115
1761466594916828400,1.163828369140625,-0.002884418237954378,-0.035082485526800156,-0.05769728869199753
1761466594926813400,1.1738134765625,-0.007780859712511301,-0.028548462316393852,-0.0501713901758194
1761466594936797400,1.18379736328125,-0.010252539068460464,-0.016335738822817802,-0.042047418653964996
1761466594946781400,1.193781494140625,-0.010476389899849892,-0.006312943063676357,-0.027359265834093094
1761466594956766500,1.203766357421875,-0.012164035812020302,-0.001779710641130805,-0.022532552480697632
1761466594966750500,1.21375048828125,-0.013783416710793972,0.0016366089694201946,-0.022439371794462204
1761466594976735200,1.2237353515625,-0.010576172731816769,0.0003239368088543415,-0.025407731533050537
1761466594986719500,1.233719482421875,-0.009689606726169586,-0.001420433633029461,-0.030394233763217926
1761466594996704300,1.243704345703125,-0.0018468634225428104,-0.004577344749122858,-0.035268351435661316
1761466595006688300,1.253688232421875,0.0012561329640448093,-0.005522223189473152,-0.03719569742679596
1761466595016672300,1.26367236328125,-0.0003702593967318535,0.0018938812427222729,-0.03461696207523346
1761466595026657300,1.2736572265625,0.0020545644219964743,0.009424754418432713,-0.03154870867729187
1761466595036641300,1.283641357421875,-0.0007153893820941448,0.010715588927268982,-0.030382776632905006
1761466595046626300,1.293626220703125,-0.0038123037666082382,0.008294222876429558,-0.034284807741642
1761466595056610300,1.3036103515625,-0.00400431826710701,0.005297367926687002,-0.039068643003702164
1761466595066595300,1.31359521484375,-0.006220838986337185,0.007830322720110416,-0.04002981632947922
1761466595076579300,1.323579345703125,-0.0002561570145189762,0.010525708086788654,-0.03163127228617668
1761466595086563300,1.333563232421875,-0.00012646103277802467,0.012851180508732796,-0.025170709937810898
1761466595096548400,1.34354833984375,-0.00032246997579932213,0.01630556583404541,-0.020572230219841003
1761466595106532400,1.353532470703125,-0.003924056421965361,0.013968408107757568,-0.016545847058296204
1761466595116517400,1.363517333984375,-0.007389361504465342,0.014115680009126663,-0.020569350570440292
1761466595126501400,1.37350146484375,-0.006613464094698429,0.007046041078865528,-0.023356597870588303
1761466595136485400,1.3834853515625,-0.0012115081772208214,0.006625794805586338,-0.03160147741436958
1761466595146470400,1.393470458984375,-0.0028439192101359367,0.0029034470207989216,-0.03534526750445366
1761466595156454400,1.403454345703125,-0.00141886156052351,0.00257720984518528,-0.0335465669631958
1761466595166439200,1.413439208984375,-0.007418581284582615,0.0039993766695261,-0.03082648478448391
1761466595176423400,1.42342333984375,-0.00823270995169878,0.011071933433413506,-0.02793162874877453
1761466595186408200,1.433408203125,-0.009724434465169907,0.015159869566559792,-0.029686888679862022
1761466595196392200,1.44339208984375,-0.011499166488647461,0.012020801194012165,-0.026102807372808456
1761466595206376200,1.453376220703125,-0.010544716380536556,0.011708922684192657,-0.029465539380908012
1761466595216361200,1.463361328125,-0.007564372383058071,0.013122528791427612,-0.031480755656957626
1761466595226345200,1.47334521484375,-0.010416695848107338,0.012167323380708694,-0.03301112353801727
1761466595236330200,1.483330322265625,-0.009789520874619484,0.008253275416791439,-0.03237516060471535
1761466595246314200,1.493314208984375,-0.012587971985340118,0.007772841490805149,-0.031404439359903336
1761466595256299300,1.50329931640625,-0.012451350688934326,0.007430092431604862,-0.028562048450112343
1761466595266283300,1.513283203125,-0.00916542112827301,0.016461342573165894,-0.02292696200311184
1761466595276267300,1.523267333984375,-0.007230901159346104,0.028626129031181335,-0.019068840891122818
1761466595286252000,1.533251953125,-0.003845418803393841,0.023355497047305107,-0.016792956739664078
1761466595296236000,1.543236083984375,-0.007831637747585773,0.01753755658864975,-0.01830829679965973
1761466595306221000,1.553220947265625,-0.0018477090634405613,0.017206290736794472,-0.020273758098483086
1761466595316205000,1.563205078125,-0.0026413309387862682,0.02073844149708748,-0.01669127307832241
1761466595326189000,1.57318896484375,-0.0010716011747717857,0.029224814847111702,-0.01110067218542099
1761466595336174000,1.583174072265625,-0.0030228998512029648,0.032015006989240646,-0.0057623665779829025
1761466595346158000,1.593157958984375,-0.003507685847580433,0.031783610582351685,-0.0041868980042636395
1761466595356143000,1.60314306640625,0.001986681716516614,0.02982965297996998,-0.006907583214342594
1761466595366127000,1.613127197265625,0.0005553239025175571,0.027307603508234024,-0.008901167660951614
1761466595376111900,1.62311181640625,0.004969513043761253,0.030224831774830818,-0.013593658804893494
1761466595386096000,1.63309619140625,0.003117610700428486,0.03402994945645332,-0.014942273497581482
1761466595396081000,1.643080810546875,0.0030837885569781065,0.031010456383228302,-0.013286852277815342
1761466595406065000,1.65306494140625,-0.00017302250489592552,0.029368378221988678,-0.010281257331371307
1761466595416049000,1.663048828125,-0.0016409573145210743,0.02036796137690544,-0.02028355747461319
1761466595426034000,1.673033935546875,0.0010480056516826153,0.014499181881546974,-0.03184731304645538
1761466595436018000,1.683017822265625,0.004845406860113144,0.005479853134602308,-0.043656833469867706
1761466595446003000,1.6930029296875,0.013471238315105438,0.0028097566682845354,-0.05260077863931656
1761466595455987000,1.702987060546875,0.018812740221619606,0.007273746654391289,-0.04504325985908508
1761466595465971000,1.712970947265625,0.022755268961191177,0.017622804269194603,-0.02823340892791748
1761466595475956000,1.7229560546875,0.01916186511516571,0.03723246231675148,-0.012121285311877728
1761466595485940000,1.73293994140625,0.016714392229914665,0.048702672123909,0.0008419537916779518
1761466595495925000,1.742925048828125,0.012335889041423798,0.04546906054019928,0.006172004155814648
1761466595505909000,1.752908935546875,0.009313526563346386,0.04359019547700882,-0.0015660671051591635
1761466595515894000,1.76289404296875,0.004985357169061899,0.03571256622672081,-0.013873066753149033
1761466595525878000,1.7728779296875,0.0073201823979616165,0.03328400105237961,-0.023152271285653114
1761466595535862000,1.782862060546875,0.008394235745072365,0.03443581983447075,-0.018284546211361885
1761466595545847000,1.792846923828125,0.015436770394444466,0.04011477530002594,-0.009847704321146011
1761466595555831000,1.8028310546875,0.016576336696743965,0.03222702443599701,-0.006564025767147541
1761466595565815800,1.81281591796875,0.019143758341670036,0.02700107730925083,-0.0051013752818107605
1761466595575800000,1.822800048828125,0.018613256514072418,0.028094038367271423,-0.0052987150847911835
1761466595585784000,1.8327841796875,0.016051841899752617,0.02413661777973175,-0.008973672986030579
1761466595595768800,1.842768798828125,0.014344489201903343,0.021740306168794632,-0.009900452569127083
1761466595605752800,1.8527529296875,0.011468792334198952,0.021605296060442924,-0.01072498969733715
1761466595615737900,1.86273779296875,0.00655392836779356,0.016505608335137367,-0.007972612977027893
1761466595625721900,1.872721923828125,0.007038344629108906,0.016038987785577774,-0.003093109233304858
1761466595635707000,1.882706787109375,0.006171219516545534,0.018382035195827484,0.005473481025546789
1761466595645691000,1.89269091796875,0.008531829342246056,0.019920025020837784,0.00925567839294672
1761466595655675000,1.9026748046875,0.008510258048772812,0.025088688358664513,0.012265317142009735
1761466595665660000,1.912659912109375,0.011036758311092854,0.027422359213232994,0.00902701634913683
1761466595675644000,1.922643798828125,0.010551797226071358,0.023260103538632393,0.009811583906412125
1761466595685629000,1.93262890625,0.010915151797235012,0.013183288276195526,0.0025016451254487038
1761466595695613000,1.942613037109375,0.010034976527094841,0.009402930736541748,0.0027687600813806057
1761466595705598200,1.95259814453125,0.0075737712904810905,0.00978111568838358,0.00331254955381155
1761466595715582000,1.96258203125,0.0051902420818805695,0.002914954209700227,0.002061396837234497
1761466595725566000,1.97256591796875,0.0018591892439872026,0.004569066688418388,0.006373551674187183
1761466595735551000,1.982551025390625,-0.00027959560975432396,0.006760049611330032,0.011998680420219898
1761466595745535000,1.992534912109375,-0.002352907322347164,0.005892598070204258,0.012726353481411934
1761466595755520000,2.00252001953125,-0.006216888315975666,-0.0029139427933841944,0.009472502395510674
1761466595765504000,2.01250390625,-0.005338533781468868,-0.007376060821115971,0.009346786886453629
1761466595775489000,2.022489013671875,0.0002650236710906029,-0.012046712450683117,0.005404776427894831
1761466595785473000,2.03247314453125,0.0006423182785511017,-0.010180349461734295,0.00632486492395401
1761466595795456800,2.042456787109375,-0.0002322639338672161,-0.00921948067843914,0.013525254093110561
1761466595805442000,2.052442138671875,0.0008776388131082058,-0.015103472396731377,0.015648063272237778
1761466595815426000,2.062426025390625,-0.002431605476886034,-0.02150917425751686,0.015354849398136139
1761466595825411000,2.0724111328125,-0.00893461611121893,-0.02704455703496933,0.015297329984605312
1761466595835395000,2.08239501953125,-0.010680317878723145,-0.027185969054698944,0.014957777224481106
1761466595845379000,2.092379150390625,-0.011425837874412537,-0.03477070480585098,0.011522659100592136
1761466595855364000,2.102364013671875,-0.013791523873806,-0.04050981625914574,0.013000712729990482
1761466595865348000,2.11234814453125,-0.0089158546179533,-0.035583727061748505,0.017394589260220528
1761466595875333000,2.1223330078125,-0.009194154292345047,-0.0319860614836216,0.02787625789642334
1761466595885317000,2.132317138671875,-0.00757742440328002,-0.031571656465530396,0.0324813649058342
1761466595895302100,2.14230224609375,-0.009599030017852783,-0.03552804887294769,0.03184593468904495
1761466595905286100,2.1522861328125,-0.008983912877738476,-0.03787911683320999,0.028031805530190468
1761466595915270100,2.162270263671875,-0.010449983179569244,-0.043205972760915756,0.02877029962837696
1761466595925255200,2.172255126953125,-0.0144804697483778,-0.0414125956594944,0.02488793432712555
1761466595935239200,2.1822392578125,-0.01639581471681595,-0.04166426509618759,0.027203287929296494
1761466595945224000,2.192223876953125,-0.01778876781463623,-0.04006848484277725,0.02600271627306938
1761466595955208000,2.2022080078125,-0.01791473478078842,-0.043100759387016296,0.02797505259513855
1761466595965193000,2.21219287109375,-0.016324840486049652,-0.04067119210958481,0.030342131853103638
1761466595975177000,2.222177001953125,-0.01757119968533516,-0.03532489761710167,0.0346258282661438
1761466595985161000,2.232160888671875,-0.02023455500602722,-0.03669106960296631,0.035621527582407
1761466595995146000,2.24214599609375,-0.01884731464087963,-0.03983546420931816,0.02613774687051773
1761466596005130000,2.2521298828125,-0.01764766499400139,-0.04688378795981407,0.015833981335163116
1761466596015115000,2.262114990234375,-0.019659947603940964,-0.05151635780930519,0.002849206794053316
1761466596025099000,2.27209912109375,-0.016033772379159927,-0.0522194467484951,0.002630318980664015
1761466596035084000,2.282083984375,-0.011459793895483017,-0.0487285740673542,0.0105604138225317
1761466596045068000,2.292068115234375,-0.01113065890967846,-0.030560728162527084,0.02619471773505211
1761466596055052000,2.302052001953125,-0.00999242253601551,-0.010065040551126003,0.047054193913936615
1761466596065037000,2.312037109375,-0.013074308633804321,-0.008950754068791866,0.05851800739765167
1761466596075021000,2.32202099609375,-0.01481681503355503,-0.012560136616230011,0.05085289850831032
1761466596085006000,2.332006103515625,-0.014810789376497269,-0.01821621134877205,0.04157799482345581
1761466596094990000,2.341989990234375,-0.012615812942385674,-0.02051691524684429,0.026914363726973534
1761466596104974000,2.35197412109375,-0.009558193385601044,-0.02223384752869606,0.013880572281777859
1761466596114959000,2.361958984375,-0.0034068236127495766,-0.018836185336112976,0.007367811165750027
1761466596124943000,2.371943115234375,-0.0011038128286600113,-0.019169846549630165,0.01191030815243721
1761466596134928000,2.381927978515625,0.00009061489254236221,-0.01606726460158825,0.019281405955553055
1761466596144912100,2.391912109375,-0.001925069373100996,-0.013154620304703712,0.02845556102693081
1761466596154897000,2.40189697265625,-0.001090700738132,-0.016278240829706192,0.03286096081137657
1761466596164881000,2.411880859375,-0.0023576105013489723,-0.01640022173523903,0.03227321803569794
1761466596174865000,2.421864990234375,-0.003713425248861313,-0.018243130296468735,0.026348747313022614
1761466596184850000,2.431849853515625,0.0002420167438685894,-0.013768982142210007,0.02543042041361332
1761466596194834000,2.441833984375,0.0029565768782049417,-0.006861274596303701,0.031047824770212173
1761466596204819000,2.45181884765625,0.0029452878516167402,-0.003917951602488756,0.03753662109375
1761466596214803000,2.461802978515625,0.0023988070897758007,0.005872627720236778,0.04471543803811073
1761466596224788000,2.4717880859375,0.004860145505517721,0.017721038311719894,0.04471036419272423
1761466596234772000,2.48177197265625,0.00552726723253727,0.02288144826889038,0.0439862497150898
1761466596244756000,2.491755859375,0.012096558697521687,0.022440457716584206,0.04111851006746292
1761466596254741000,2.501740966796875,0.013388192281126976,0.018399376422166824,0.03775493800640106
1761466596264725000,2.51172509765625,0.013783542439341545,0.016533758491277695,0.0383891686797142
1761466596274710000,2.5217099609375,0.010941150598227978,0.022667285054922104,0.035389650613069534
1761466596284694500,2.531694580078125,0.014589414931833744,0.01796094700694084,0.037252530455589294
1761466596294678500,2.541678466796875,0.01231001503765583,0.015524420887231827,0.035331591963768005
1761466596304663600,2.55166357421875,0.013723457232117653,0.014543314464390278,0.03544237092137337
1761466596314647600,2.5616474609375,0.013364730402827263,0.012470575980842113,0.03492864966392517
1761466596324632600,2.571632568359375,0.012290558777749538,0.014863703399896622,0.031194079667329788
1761466596334616300,2.5816162109375,0.017639251425862312,0.015707658603787422,0.028276585042476654
1761466596344601600,2.5916015625,0.0200545322149992,0.018443521112203598,0.02828272059559822
1761466596354585600,2.601585693359375,0.018050502985715866,0.01917295902967453,0.02287224307656288
1761466596364569300,2.6115693359375,0.019684161990880966,0.011281727813184261,0.021319923922419548
1761466596374554600,2.6215546875,0.013231588527560234,0.0024986229836940765,0.015407439321279526
1761466596384538600,2.63153857421875,0.016687098890542984,0.0010764894541352987,0.008830772712826729
1761466596394523600,2.641523681640625,0.01410782802850008,-0.003622924443334341,0.007866442203521729
1761466596404507600,2.651507568359375,0.013528555631637573,-0.009531869553029537,0.0073821404948830605
1761466596414491600,2.66149169921875,0.00984114222228527,-0.007928114384412766,0.007699056528508663
1761466596424476700,2.6714765625,0.016478542238473892,-0.007205381989479065,0.007277033291757107
1761466596434460700,2.681460693359375,0.010799617506563663,-0.0006473481189459562,0.01205314602702856
1761466596444445700,2.69144580078125,0.012347904965281487,0.0010110216680914164,0.014616402797400951
1761466596454429700,2.7014296875,0.015290697105228901,-0.007572612725198269,0.013915992341935635
1761466596464414700,2.711414794921875,0.017247067764401436,-0.009186185896396637,0.014171593822538853
1761466596474398700,2.721398681640625,0.013998543843626976,-0.016452886164188385,0.01283415500074625
1761466596484382700,2.7313828125,0.014396069571375847,-0.016982389613986015,0.011402289383113384
1761466596494367500,2.741367431640625,0.011676715686917305,-0.019148338586091995,0.014305136166512966
1761466596504351500,2.7513515625,0.006929928436875343,-0.01725618913769722,0.02105150744318962
1761466596514336500,2.76133642578125,0.0040076421573758125,-0.009637683629989624,0.028049763292074203
1761466596524320500,2.771320556640625,0.00031507527455687523,-0.00784449651837349,0.034233205020427704
1761466596534305500,2.781305419921875,-0.0007600430399179459,-0.008907364681363106,0.039180025458335876
1761466596544289500,2.79128955078125,-0.002384273335337639,-0.008771571330726147,0.03687484189867973
1761466596554273500,2.8012734375,-0.005839192308485508,-0.012991350144147873,0.03283695504069328
1761466596564258600,2.811258544921875,-0.009496216662228107,-0.026544153690338135,0.020121388137340546
1761466596574242600,2.82124267578125,-0.01093379221856594,-0.033280886709690094,0.005580530501902103
1761466596584227600,2.8312275390625,-0.01287754438817501,-0.03177485242486,-0.0006054879631847143
1761466596594211600,2.841211669921875,-0.014415254816412926,-0.027267184108495712,-0.00019935588352382183
1761466596604196600,2.851196533203125,-0.014042748138308525,-0.025738876312971115,0.0076904017478227615
1761466596614180600,2.8611806640625,-0.011706355959177017,-0.02799670398235321,0.01946583390235901
1761466596624164600,2.87116455078125,-0.011883800849318504,-0.024303898215293884,0.030372686684131622
1761466596634149600,2.881149658203125,-0.013197004795074463,-0.015593762509524822,0.03937043994665146
1761466596644133600,2.891133544921875,-0.014861978590488434,-0.013406317681074142,0.04464470595121384
1761466596654118700,2.90111865234375,-0.021916693076491356,-0.020565960556268692,0.04220365360379219
1761466596664102700,2.9111025390625,-0.01935538649559021,-0.026449091732501984,0.03644365817308426
1761466596674086700,2.921086669921875,-0.022891532629728317,-0.030965011566877365,0.02897455543279648
1761466596684071400,2.931071533203125,-0.01696108467876911,-0.025920463725924492,0.0202479287981987
1761466596694055700,2.9410556640625,-0.008992374874651432,-0.026485586538910866,0.010595034807920456
1761466596704040400,2.95104052734375,-0.009374791756272316,-0.03450006619095802,0.00199722358956933
1761466596714024400,2.9610244140625,-0.006319080945104361,-0.03685030713677406,-0.002815907122567296
1761466596724009500,2.971009521484375,-0.008478119038045406,-0.03361060842871666,0.002641238272190094
1761466596733993500,2.980993408203125,-0.013509362936019897,-0.0212831012904644,0.012538876384496689
1761466596743977500,2.9909775390625,-0.01822585240006447,-0.024065010249614716,0.01528987381607294
1761466596753962500,3.00096240234375,-0.02124028466641903,-0.0284203439950943,0.010813366621732712
1761466596763946500,3.010946533203125,-0.024703502655029297,-0.0331229642033577,0.004406081046909094
1761466596773931500,3.020931640625,-0.020913027226924896,-0.03164970129728317,-0.0023807187099009752
1761466596783915500,3.03091552734375,-0.018739113584160805,-0.032927509397268295,-0.003597211791202426
1761466596793900500,3.040900634765625,-0.01798171177506447,-0.03169473260641098,-0.006723230239003897
1761466596803884500,3.050884521484375,-0.020338671281933784,-0.028895961120724678,-0.009973179548978806
1761466596813868500,3.06086865234375,-0.019452905282378197,-0.028101006522774696,-0.018396493047475815
1761466596823853600,3.070853515625,-0.017208391800522804,-0.033390577882528305,-0.02456783503293991
1761466596833837600,3.080837646484375,-0.01423204317688942,-0.03364970162510872,-0.03242522478103638
1761466596843822600,3.090822509765625,-0.01781940832734108,-0.0330609455704689,-0.036170847713947296
1761466596853806600,3.100806640625,-0.01595119759440422,-0.02228153496980667,-0.03504406288266182
1761466596863790600,3.11079052734375,-0.014713452197611332,-0.019228985533118248,-0.031620096415281296
1761466596873775400,3.120775390625,-0.017107900232076645,-0.013024886138737202,-0.033292029052972794
1761466596883759600,3.130759521484375,-0.01957366243004799,-0.01438283734023571,-0.038988787680864334
1761466596893744400,3.140744384765625,-0.01782796159386635,-0.015783393755555153,-0.04486185684800148
1761466596903728400,3.150728271484375,-0.014399259351193905,-0.015834782272577286,-0.04080135375261307
1761466596913713400,3.16071337890625,-0.013775547035038471,-0.017809249460697174,-0.03794112056493759
1761466596923697400,3.170697509765625,-0.011695396155118942,-0.010087954811751842,-0.031172147020697594
1761466596933681400,3.180681396484375,-0.006595707964152098,-0.000012151198461651802,-0.023186659440398216
1761466596943666400,3.19066650390625,-0.00334277655929327,0.0075158169493079185,-0.017675533890724182
1761466596953650400,3.200650390625,-0.003612820990383625,0.003130389843136072,-0.022808775305747986
1761466596963635500,3.210635498046875,-0.0017953887581825256,-0.0011677190195769072,-0.025843922048807144
1761466596973619500,3.220619384765625,-0.0029008667916059494,-0.00279464409686625,-0.03472290188074112
1761466596983604500,3.2306044921875,-0.0009370110929012299,-0.0004054631572216749,-0.03672489896416664
1761466596993588500,3.24058837890625,-0.0018997439183294773,0.003313641296699643,-0.03268461674451828
1761466597003572500,3.250572509765625,0.0016991356387734413,0.007795435376465321,-0.02073414996266365
1761466597013557500,3.2605576171875,0.0035263304598629475,0.015022721141576767,-0.011809896677732468
1761466597023541500,3.27054150390625,0.0062139928340911865,0.02051176317036152,-0.004896064288914204
1761466597033526500,3.280526611328125,0.004702648613601923,0.013346794992685318,-0.004393792245537043
1761466597043510500,3.290510498046875,0.0024528983049094677,0.00852888636291027,-0.005711552686989307
1761466597053494500,3.30049462890625,0.004077160265296698,0.006073984317481518,-0.010473018512129784
1761466597063479300,3.310479248046875,0.005294994916766882,0.01576094515621662,-0.009116632863879204
1761466597073463600,3.320463623046875,0.004796717315912247,0.016871215775609016,-0.009887085296213627
1761466597083448600,3.330448486328125,0.0012821848504245281,0.014911456033587456,-0.009069324471056461
1761466597093432300,3.340432373046875,0.0007988214492797852,0.006330484990030527,-0.014247575774788857
1761466597103417600,3.35041748046875,0.002646378241479397,0.003804413601756096,-0.02238369733095169
1761466597113401600,3.360401611328125,-0.00008282903581857681,-0.00048460718244314194,-0.019268065690994263
1761466597123385300,3.37038525390625,-0.0003693695180118084,-0.0022351164370775223,-0.017188111320137978
1761466597133370600,3.38037060546875,-0.0032666223123669624,0.002959645353257656,-0.014240258373320103
1761466597143354600,3.390354736328125,0.0019999383948743343,0.0038531834725290537,-0.019978651776909828
1761466597153339600,3.400339599609375,0.007014138158410788,-0.0030830197501927614,-0.027372919023036957
1761466597163323600,3.41032373046875,0.012101014144718647,-0.006046075373888016,-0.0366196446120739
1761466597173308700,3.42030859375,0.012357210740447044,-0.00003825034946203232,-0.03636850789189339
1761466597183292700,3.430292724609375,0.012698586098849773,0.008478215895593166,-0.03065592050552368
1761466597193276700,3.440276611328125,0.008848187513649464,0.011054025031626225,-0.02151595428586006
1761466597203261700,3.45026171875,0.00995224341750145,0.02172747440636158,-0.014879949390888214
1761466597213245700,3.46024560546875,0.010229479521512985,0.026443932205438614,-0.013876737095415592
1761466597223230700,3.470230712890625,0.010241670534014702,0.021768491715192795,-0.018804127350449562
1761466597233214700,3.480214599609375,0.008942846208810806,0.022297129034996033,-0.02582848072052002
1761466597243198700,3.49019873046875,0.00796652864664793,0.022553108632564545,-0.0340966172516346
1761466597253183500,3.50018359375,0.008944706991314888,0.02193392440676689,-0.03719493746757507
1761466597263167700,3.510167724609375,0.010591759346425533,0.02128269337117672,-0.03854953125119209
1761466597273152500,3.520152587890625,0.010667925700545311,0.01923765242099762,-0.036926332861185074
1761466597283136500,3.530136474609375,0.014159593731164932,0.01599982939660549,-0.03312050178647041
1761466597293121500,3.54012158203125,0.015975868329405785,0.015299418941140175,-0.029453329741954803
1761466597303105500,3.55010546875,0.012894948944449425,0.01723124459385872,-0.029202932491898537
1761466597313089500,3.560089599609375,0.008926039561629295,0.01400855090469122,-0.029968855902552605
1761466597323074600,3.570074462890625,0.005761728156358004,0.009026087820529938,-0.031188132241368294
1761466597333058600,3.58005859375,0.00894740130752325,0.006349078379571438,-0.03421508148312569
1761466597343043600,3.590043701171875,0.006639641243964434,0.0182440634816885,-0.02725300006568432
1761466597353027600,3.600027587890625,0.006042027845978737,0.021960237994790077,-0.022771965712308884
1761466597363012600,3.6100126953125,0.0029592562932521105,0.025033527985215187,-0.015762265771627426
1761466597372996600,3.61999658203125,0.0016867979429662228,0.024158945307135582,-0.01752074994146824
1761466597382980600,3.629980712890625,0.0015037637203931808,0.025599468499422073,-0.01900389790534973
1761466597392965600,3.639965576171875,-0.003116288688033819,0.01901586726307869,-0.01971442997455597
1761466597402949600,3.64994970703125,0.0006649396382272243,0.02102551981806755,-0.023254888132214546
1761466597412934700,3.6599345703125,0.003165381494909525,0.020872920751571655,-0.03032265044748783
1761466597422918700,3.669918701171875,0.0049286168068647385,0.02581680566072464,-0.031216925010085106
1761466597432903400,3.6799033203125,0.0006885980255901814,0.024393878877162933,-0.031135965138673782
1761466597442887400,3.689887451171875,0.000029866117984056473,0.01822943426668644,-0.027193114161491394
1761466597452871700,3.69987158203125,0.00415963027626276,0.012601375579833984,-0.03053218685090542
1761466597462856400,3.7098564453125,0.001958083128556609,0.010401621460914612,-0.03602658212184906
1761466597472840400,3.71984033203125,0.003742933738976717,0.01042079646140337,-0.041473545134067535
1761466597482825500,3.729825439453125,0.003886167425662279,0.005457188002765179,-0.04541527479887009
1761466597492809500,3.7398095703125,0.005594585090875626,0.004379406571388245,-0.04800653085112572
1761466597502793500,3.74979345703125,0.004475806374102831,0.0009068972431123257,-0.04735616594552994
1761466597512778500,3.759778564453125,0.003483779029920697,0.0014903959818184376,-0.04310788959264755
1761466597522762500,3.769762451171875,0.004601329565048218,0.009612787514925003,-0.044330842792987823
1761466597532747500,3.77974755859375,0.00284630642272532,0.01211962103843689,-0.046018488705158234
1761466597542731500,3.7897314453125,0.0038243383169174194,0.0034899027086794376,-0.04786323755979538
1761466597552716800,3.799716796875,0.001218701247125864,0.0007564341649413109,-0.04871971160173416
1761466597562700500,3.809700439453125,0.002628772985190153,0.0031220901291817427,-0.04725571721792221
1761466597572684500,3.8196845703125,-0.000045573338866233826,0.00648326613008976,-0.036693356931209564
1761466597582669800,3.829669921875,0.002785156946629286,0.01639080047607422,-0.0250580832362175
1761466597592653600,3.839653564453125,0.0010644886642694473,0.02747248113155365,-0.016311194747686386
1761466597602638800,3.849638916015625,-0.00037523219361901283,0.023864444345235825,-0.012799841351807117
1761466597612622800,3.859622802734375,0.005088509060442448,0.018674742430448532,-0.017037462443113327
1761466597622606600,3.869606689453125,0.006678050383925438,0.015737224370241165,-0.01809651032090187
1761466597632591600,3.879591552734375,0.007819214835762978,0.015301264822483063,-0.021120529621839523
1761466597642575600,3.88957568359375,0.006574168335646391,0.020357871428132057,-0.022244226187467575
1761466597652560600,3.899560546875,0.0050849285908043385,0.017997246235609055,-0.02365650236606598
1761466597662544600,3.909544677734375,0.002518280176445842,0.01929602026939392,-0.020920023322105408
1761466597672529700,3.91952978515625,0.0002647135406732559,0.019283238798379898,-0.02424604631960392
1761466597682513700,3.929513671875,-0.0011966191232204437,0.018976133316755295,-0.022943943738937378
1761466597692497700,3.93949755859375,0.0006865020841360092,0.013166447170078754,-0.021070677787065506
1761466597702482700,3.949482666015625,-0.000993749126791954,0.01309139933437109,-0.01893598772585392
1761466597712466700,3.959466796875,-0.0055719888769090176,0.0049077728763222694,-0.020390072837471962
1761466597722451700,3.96945166015625,0.0008996301330626011,0.009143991395831108,-0.02136545069515705
1761466597732435700,3.979435791015625,0.0007329164072871208,0.008002294227480888,-0.027106961235404015
1761466597742420700,3.989420654296875,-0.0005718288011848927,0.005139714106917381,-0.033502914011478424
1761466597752404700,3.99940478515625,0.006728960666805506,0.012181645259261131,-0.03675170615315437
1761466597762387500,4.009387451171875,0.008090324699878693,0.017122067511081696,-0.030807778239250183
1761466597772372700,4.019372802734375,0.006517727859318256,0.015536421909928322,-0.021509617567062378
1761466597782356700,4.029356689453125,0.0030645541846752167,0.0191535372287035,-0.011408267542719841
1761466597792341800,4.039341796875,0.0007436093874275684,0.02011680230498314,-0.003604673547670245
1761466597802325800,4.04932568359375,-0.000582394190132618,0.013593137264251709,-0.007173333782702684
1761466597812309800,4.059309814453125,-0.0029012085869908333,0.00694961566478014,-0.01717270538210869
1761466597822294800,4.069294677734375,-0.0022303862497210503,0.004824391100555658,-0.02611689269542694
1761466597832278800,4.07927880859375,-0.0009033335372805595,0.008633775636553764,-0.02996063232421875
1761466597842263800,4.089263916015625,0.004018784034997225,0.010232952423393726,-0.024955380707979202
1761466597852247800,4.099247802734375,0.007584223989397287,0.007401745766401291,-0.020775018259882927
1761466597862232600,4.109232666015625,0.009458537213504314,0.00697649922221899,-0.019624119624495506
1761466597872216600,4.119216552734375,0.00862070731818676,0.010259111411869526,-0.017258167266845703
1761466597882200800,4.129200927734375,0.0041374387219548225,0.008043891750276089,-0.017016347497701645
1761466597892185600,4.139185546875,0.0038996185176074505,0.0026877422351390123,-0.019909072667360306
1761466597902169600,4.149169677734375,-0.0021372041665017605,-0.00024149566888809204,-0.02293703705072403
1761466597912154600,4.159154541015625,-0.00439210282638669,0.003273078240454197,-0.01890154927968979
1761466597922138600,4.169138671875,-0.004651673138141632,0.0016861162148416042,-0.012322772294282913
1761466597932123600,4.17912353515625,-0.0005277679301798344,0.001993178855627775,-0.0017460283124819398
1761466597942107600,4.189107666015625,0.003079552436247468,0.005206897389143705,0.010133132338523865
1761466597952091600,4.199091552734375,0.001380722038447857,0.010677563026547432,0.016524985432624817
1761466597962076700,4.20907666015625,0.0037619168870151043,0.01564536616206169,0.016458498314023018
1761466597972060700,4.219060791015625,0.0029800126794725657,0.019212137907743454,0.007401619106531143
1761466597982045700,4.229045654296875,-0.0020065526477992535,0.015932777896523476,0.0005097994580864906
1761466597992029700,4.23902978515625,0.0007583415135741234,0.01097157597541809,-0.006455165334045887
1761466598002013700,4.249013671875,-0.0019088834524154663,0.003395332954823971,-0.011271888390183449
1761466598011998700,4.258998779296875,-0.0031714877113699913,0.003399327863007784,-0.014041310176253319
1761466598021982700,4.268982666015625,-0.005497229751199484,0.0003375415690243244,-0.017946923151612282
1761466598031967700,4.2789677734375,-0.005803759675472975,-0.003775444347411394,-0.018629757687449455
1761466598041951700,4.28895166015625,-0.006068618036806583,-0.0022711316123604774,-0.016683049499988556
1761466598051936500,4.2989365234375,-0.0026499181985855103,-0.00033927452750504017,-0.009649108164012432
1761466598061920800,4.308920654296875,-0.0015417523682117462,0.0009063535835593939,-0.011048469692468643
1761466598071904800,4.31890478515625,0.00262449705041945,-0.0047387490049004555,-0.009704639203846455
1761466598081889500,4.3288896484375,-0.0011191247031092644,0.00014230655506253242,-0.00961251836270094
1761466598091873500,4.33887353515625,-0.0022690780460834503,0.005245988257229328,-0.010268188081681728
1761466598101858600,4.348858642578125,-0.006597065832465887,0.0026346950326114893,-0.004666638560593128
1761466598111842600,4.358842529296875,-0.004990647081285715,-0.00014005275443196297,-0.0025153369642794132
1761466598121826600,4.36882666015625,-0.007596373092383146,0.0026778695173561573,-0.0037172851152718067
1761466598131811600,4.3788115234375,-0.008581742644309998,-0.0015411102212965488,-0.006847298238426447
1761466598141795600,4.388795654296875,-0.006466999650001526,-0.002673781244084239,-0.01329395454376936
1761466598151780600,4.398780517578125,-0.005813459865748882,-0.008246446028351784,-0.017212264239788055
1761466598161764600,4.4087646484375,-0.008364655077457428,-0.0052638850174844265,-0.018506187945604324
1761466598171749600,4.41874951171875,-0.00535554951056838,-0.013461627997457981,-0.01751922070980072
1761466598181733600,4.428733642578125,-0.0022833114489912987,-0.010402735322713852,-0.013891704380512238
1761466598191717600,4.438717529296875,-0.0024628089740872383,-0.006596012506633997,-0.009251944720745087
1761466598201702700,4.44870263671875,-0.0048605832271277905,-0.0014329671394079924,-0.004926661960780621
1761466598211686700,4.458686767578125,-0.004610779229551554,0.0023836090695112944,-0.0013865218497812748
1761466598221671700,4.468671630859375,-0.004768911749124527,-0.00010405504144728184,-0.0015305886045098305
1761466598231655700,4.47865576171875,-0.0058600082993507385,-0.001404742943122983,-0.006427343003451824
1761466598241640400,4.488640380859375,-0.008791333064436913,0.0007034018635749817,-0.008169557899236679
1761466598251624700,4.498624755859375,-0.008041653782129288,0.003949795383960009,-0.008154377341270447
1761466598261608700,4.508608642578125,-0.008160538040101528,0.0028938986361026764,-0.005079309456050396
1761466598271593500,4.518593505859375,-0.005398840643465519,0.0020571332424879074,-0.002466215519234538
1761466598281577500,4.528577392578125,-0.006431225687265396,0.004161769524216652,-0.007006795145571232
1761466598291566600,4.538566650390625,-0.005431474186480045,0.00298358709551394,-0.0036701210774481297
1761466598301550600,4.548550537109375,-0.006749726831912994,-0.00043854000978171825,-0.004656355828046799
1761466598311535600,4.55853564453125,-0.004442097619175911,0.007706471718847752,-0.009699051268398762
1761466598321519600,4.56851953125,-0.001179929357022047,0.006119174882769585,-0.020207248628139496
1761466598331503600,4.578503662109375,-0.00045927800238132477,0.0017382747028023005,-0.025875786319375038
1761466598341488600,4.588488525390625,0.0015937336720526218,0.009430610574781895,-0.025294272229075432
1761466598351474400,4.598474365234375,0.0001971721649169922,0.015645628795027733,-0.013355319388210773
1761466598361459500,4.60845947265625,0.0023505447898060083,0.019027849659323692,0.0008116222452372313
1761466598371443500,4.618443359375,0.0031905057840049267,0.02003825269639492,0.012731663882732391
1761466598381428500,4.628428466796875,0.0005561225116252899,0.016052553430199623,0.01837386190891266
1761466598391412500,4.63841259765625,0.0003004590980708599,0.011734502390027046,0.011350840330123901
1761466598401396500,4.648396484375,-0.00303619634360075,0.004131650552153587,0.006367386784404516
1761466598411381500,4.658381591796875,0.001765749417245388,0.008078721351921558,0.0002237407024949789
1761466598421365500,4.668365478515625,0.002795351902022958,0.01292094960808754,-0.0007553722243756056
1761466598431350500,4.6783505859375,0.00755548570305109,0.010074296966195107,0.007707887329161167
1761466598441334500,4.68833447265625,0.007990318350493908,0.011264786124229431,0.007352796383202076
1761466598451318500,4.698318603515625,0.010293420404195786,0.006455650553107262,0.011147534474730492
1761466598461303600,4.708303466796875,0.01195957139134407,0.002706381259486079,0.011230475269258022
1761466598471287600,4.71828759765625,0.015673350542783737,0.004467795602977276,0.012366846203804016
1761466598481272600,4.7282724609375,0.009458847343921661,0.004206819925457239,0.007238105870783329
1761466598491256600,4.738256591796875,0.00941756833344698,-0.007638387847691774,0.00338531075976789
1761466598501241300,4.748241455078125,0.010127289220690727,-0.009401701390743256,0.006394481286406517
1761466598511225300,4.758225341796875,0.005102170165628195,-0.004637040197849274,0.01233626063913107
1761466598521209600,4.768209716796875,0.006945325061678886,0.0023567501921206713,0.025553682819008827
1761466598531194400,4.7781943359375,0.005861152429133654,0.001608668128028512,0.037883855402469635
1761466598541178400,4.788178466796875,0.008938955143094063,0.004039565101265907,0.04810459166765213
1761466598551163400,4.798163330078125,0.00534208957105875,0.01263331901282072,0.050133656710386276
1761466598561147400,4.8081474609375,0.006774845998734236,0.011863332241773605,0.04152379184961319
1761466598571132400,4.81813232421875,0.007424923591315746,0.0018996470607817173,0.0392337404191494
1761466598581116400,4.828116455078125,0.009236623533070087,-0.0011317902244627476,0.03314008191227913
1761466598591100400,4.838100341796875,0.010541040450334549,0.005269117187708616,0.03502586483955383
1761466598601085400,4.84808544921875,0.012350799515843391,0.0034678676165640354,0.03160911053419113
1761466598611069400,4.8580693359375,0.007903587073087692,-0.005448395851999521,0.029592830687761307
1761466598621054700,4.8680546875,0.009304077364504337,-0.006355598568916321,0.026297925040125847
1761466598631038500,4.87803857421875,0.009693164378404617,-0.008108757436275482,0.027901679277420044
1761466598641023700,4.888023681640625,0.0036725099198520184,-0.004376830533146858,0.031924840062856674
1761466598651007700,4.8980078125,0.004649623762816191,-0.004651668947190046,0.03918328508734703
1761466598660991500,4.907991455078125,0.007672240026295185,-0.002075356198474765,0.039939410984516144
1761466598670976500,4.9179765625,0.005289243068546057,-0.003652213839814067,0.0394536517560482
1761466598680960800,4.927960693359375,0.004508802201598883,-0.009620600380003452,0.04023870825767517
1761466598690945500,4.937945556640625,0.0024541732855141163,-0.0050335717387497425,0.04057479649782181
1761466598700929500,4.947929443359375,0.0024248785339295864,-0.006204563658684492,0.040747903287410736
1761466598710913500,4.95791357421875,-0.00457763671875,-0.006710830610245466,0.03799312934279442
1761466598720898600,4.967898681640625,-0.003355114720761776,-0.008369688875973225,0.03735845163464546
1761466598730882600,4.977882568359375,-0.0036472631618380547,-0.007858095690608025,0.03868071362376213
1761466598740867600,4.98786767578125,-0.002632790245115757,-0.0059070829302072525,0.03588123247027397
1761466598750851600,4.9978515625,-0.004267171956598759,-0.014306159690022469,0.03179114684462547
1761466598760836600,5.007836669921875,-0.003569928929209709,-0.018444424495100975,0.024009618908166885
1761466598770820600,5.017820556640625,-0.003052210435271263,-0.026010997593402863,0.0191621333360672
1761466598780804600,5.0278046875,-0.00502247316762805,-0.030352259054780006,0.0170801542699337
1761466598790789600,5.03778955078125,-0.005063485819846392,-0.031119516119360924,0.015648970380425453
1761466598800773600,5.047773681640625,0.00007707672193646431,-0.02700539119541645,0.020215095952153206
1761466598810758700,5.057758544921875,0.00016016745939850807,-0.023001860827207565,0.026642635464668274
1761466598820742700,5.06774267578125,-0.0017328327521681786,-0.02050655148923397,0.028146380558609962
1761466598830727700,5.077727783203125,-0.0022883685305714607,-0.02387571707367897,0.029801269993185997
1761466598840711700,5.087711669921875,-0.0030048624612390995,-0.024431785568594933,0.025953806936740875
1761466598850695700,5.09769580078125,-0.004491172265261412,-0.024250425398349762,0.02460145391523838
1761466598860680700,5.1076806640625,-0.008713793009519577,-0.02570449560880661,0.02428876794874668
1761466598870664700,5.117664794921875,-0.007693269290030003,-0.030610037967562675,0.018485473468899727
1761466598880649500,5.1276494140625,-0.004473491571843624,-0.02820521779358387,0.019871674478054047
1761466598890633500,5.137633544921875,-0.006276451982557774,-0.023962534964084625,0.0226602703332901
1761466598900617500,5.147617431640625,-0.0010406491346657276,-0.02580089308321476,0.0279692430049181
1761466598910602500,5.1576025390625,-0.0006323866546154022,-0.029450222849845886,0.027513042092323303
1761466598920586500,5.16758642578125,-0.00792764313519001,-0.030395904555916786,0.025921793654561043
1761466598930571500,5.177571533203125,-0.011398540809750557,-0.0228935144841671,0.01994326338171959
1761466598940555500,5.187555419921875,-0.00784323364496231,-0.021570490673184395,0.015221545472741127
1761466598950540500,5.19754052734375,-0.010136746801435947,-0.01799360103905201,0.009273907169699669
1761466598960524500,5.207524658203125,-0.007992029190063477,-0.019827736541628838,0.01388760469853878
1761466598970508500,5.217508544921875,-0.00801200233399868,-0.02290954813361168,0.022878436371684074
1761466598980493600,5.22749365234375,-0.0043843952007591724,-0.01763858273625374,0.03550733998417854
1761466598990477600,5.2374775390625,-0.0035910396836698055,-0.010469618253409863,0.04467074200510979
1761466599000462600,5.247462646484375,-0.0040805758908391,-0.005876423791050911,0.04409462958574295
1761466599010446600,5.257446533203125,-0.007064381614327431,-0.010599006898701191,0.04100669175386429
1761466599020430600,5.2674306640625,-0.006671887822449207,-0.014048909768462181,0.03394300490617752
1761466599030415600,5.27741552734375,-0.006694258190691471,-0.016770128160715103,0.026882164180278778
1761466599040399600,5.287399658203125,-0.0008505461737513542,-0.020139504224061966,0.023142457008361816
1761466599050384600,5.297384521484375,0.002241117414087057,-0.025657840073108673,0.018552232533693314
1761466599060368600,5.30736865234375,0.004070345312356949,-0.030966151505708694,0.02026882767677307
1761466599070353400,5.317353515625,0.00895218551158905,-0.036016304045915604,0.020185204222798347
1761466599080337400,5.32733740234375,0.006768243853002787,-0.032986920326948166,0.021503658965229988
1761466599090321700,5.33732177734375,0.004050487652420998,-0.03036956861615181,0.02188236080110073
1761466599100306400,5.347306396484375,-0.003550531342625618,-0.027423813939094543,0.02063647471368313
1761466599110290400,5.35729052734375,-0.00708348024636507,-0.024012036621570587,0.018562670797109604
1761466599120275500,5.367275390625,-0.005552115850150585,-0.021574219688773155,0.018405886366963387
1761466599130259500,5.377259521484375,-0.006015771999955177,-0.016997843980789185,0.02042349800467491
1761466599140243500,5.387243408203125,-0.004062390886247158,-0.019971221685409546,0.023516949266195297
1761466599150228500,5.397228515625,-0.0026554428040981293,-0.020580288022756577,0.02744830772280693
1761466599160212500,5.40721240234375,-0.0016684718430042267,-0.020919090136885643,0.03092994913458824
1761466599170197500,5.417197509765625,0.0017281239852309227,-0.017361106351017952,0.025361811742186546
1761466599180181500,5.427181396484375,0.0038392520509660244,-0.015170333907008171,0.02481016516685486
1761466599190166500,5.43716650390625,0.0034799915738403797,-0.013465112075209618,0.025035468861460686
1761466599200150500,5.447150634765625,0.004229329526424408,-0.005398111417889595,0.0261307954788208
1761466599210134500,5.457134521484375,0.0028655249625444412,-0.0013498400803655386,0.027961716055870056
1761466599220119600,5.46711962890625,-0.0007179141975939274,0.004267205484211445,0.02963116578757763
1761466599230103600,5.477103515625,-0.0049699172377586365,0.004008346237242222,0.027900908142328262
1761466599240088600,5.487088623046875,-0.002913367934525013,0.0036110440269112587,0.02851015515625477
1761466599250072600,5.497072509765625,-0.004179434850811958,0.004639822989702225,0.02159499004483223
1761466599260057300,5.507057373046875,-0.0009871632792055607,-0.0021395147778093815,0.019502801820635796
1761466599270041300,5.517041259765625,-0.003611708991229534,-0.0016747930785641074,0.019504932686686516
1761466599280025600,5.527025634765625,-0.005241221748292446,-0.001133657293394208,0.018323589116334915
1761466599290006500,5.537006591796875,-0.0051591964438557625,0.0011971411295235157,0.01563645899295807
1761466599299990500,5.546990478515625,-0.0038420413620769978,-0.001792797353118658,0.01120630744844675
1761466599309975800,5.556975830078125,-0.0022561284713447094,-0.0002082164864987135,0.009529847651720047
1761466599319959600,5.56695947265625,-0.005375197622925043,-0.005890798754990101,0.0017064157873392105
1761466599329943600,5.576943603515625,-0.0057866559363901615,-0.009398980997502804,-0.0020116232335567474
1761466599339928800,5.5869287109375,-0.00819394364953041,-0.009681586176156998,-0.0048643238842487335
1761466599349912600,5.59691259765625,-0.00816384982317686,-0.01155831664800644,-0.006934665143489838
1761466599359897900,5.60689794921875,-0.010149650275707245,-0.011450469493865967,-0.009222299791872501
1761466599369881600,5.616881591796875,-0.011057522147893906,-0.01219162717461586,-0.01186309102922678
1761466599379867000,5.626866943359375,-0.008205348625779152,-0.007921010255813599,-0.019003232941031456
1761466599389851000,5.636850830078125,-0.009017346426844597,-0.0008303439244627953,-0.019789397716522217
1761466599399834600,5.646834716796875,-0.007990493439137936,-0.006402422674000263,-0.020641181617975235
1761466599409820000,5.65681982421875,-0.008726058527827263,-0.0071355910040438175,-0.02506495825946331
1761466599419804000,5.666803955078125,-0.008849184960126877,-0.0008675914723426104,-0.02359512820839882
1761466599429789000,5.676788818359375,-0.010755741968750954,-0.0020146151073276997,-0.021549556404352188
1761466599439773000,5.68677294921875,-0.007702279835939407,-0.006194701883941889,-0.023990893736481667
1761466599449757700,5.6967578125,-0.012440577149391174,-0.010540714487433434,-0.025684399530291557
1761466599459742000,5.706741943359375,-0.014527460560202599,-0.012964962050318718,-0.023864708840847015
1761466599469726000,5.716725830078125,-0.013086425140500069,0.00017960183322429657,-0.014290379360318184
1761466599479710700,5.726710693359375,-0.005365902092307806,0.01659073680639267,-0.011776506900787354
1761466599489694700,5.73669482421875,-0.005745934788137674,0.016809647902846336,-0.007947146892547607
1761466599499679700,5.7466796875,-0.007922139018774033,0.008146676234900951,-0.008890219032764435
1761466599509663700,5.756663818359375,-0.006462992634624243,0.004292283207178116,-0.020254459232091904
1761466599519647700,5.766647705078125,-0.005092469509691,-0.0010281854774802923,-0.02988763526082039
1761466599529632800,5.7766328125,-0.004377676639705896,-0.008552148006856441,-0.044320106506347656
1761466599539616800,5.78661669921875,-0.005697170272469521,-0.007125756237655878,-0.04421784356236458
1761466599549601800,5.796601806640625,-0.00208485871553421,0.007918440736830235,-0.03567575290799141
1761466599559585800,5.806585693359375,-0.002767439465969801,0.02096336893737316,-0.025250475853681564
1761466599569569800,5.81656982421875,-0.005480934400111437,0.012327801436185837,-0.023209962993860245
1761466599579554800,5.826554931640625,-0.004233970772475004,0.005344489589333534,-0.019764689728617668
1761466599589538800,5.836538818359375,-0.0003822408616542816,0.010894251056015491,-0.014768333174288273
1761466599599523800,5.84652392578125,-0.005112534388899803,0.015783317387104034,-0.012789934873580933
1761466599609507800,5.8565078125,-0.005327185615897179,0.014006723649799824,-0.0186611395329237
1761466599619492900,5.866492919921875,-0.0006263209506869316,0.015928715467453003,-0.020653432235121727
1761466599629476900,5.876476806640625,0.005997227039188147,0.023892899975180626,-0.021680613979697227
1761466599639460900,5.8864609375,0.005516275763511658,0.02717975713312626,-0.025632718577980995
1761466599649446000,5.89644580078125,0.006844927091151476,0.012560335919260979,-0.03256945684552193
1761466599659430000,5.906429931640625,0.009045170620083809,-0.00194323412142694,-0.045694056898355484
1761466599669414700,5.91641455078125,0.009340781718492508,-0.01148640550673008,-0.05364811792969704
1761466599679398700,5.926398681640625,0.00805412046611309,-0.004896695725619793,-0.05606943368911743
1761466599689383700,5.9363837890625,0.0024833204224705696,0.00989023968577385,-0.04065053164958954
1761466599699367700,5.94636767578125,0.0071005309000611305,0.015249067917466164,-0.03303738310933113
1761466599709351700,5.9563515625,0.008367663249373436,0.01746055670082569,-0.021130122244358063
1761466599719336700,5.966336669921875,0.007740281522274017,0.009476928040385246,-0.022259293124079704
1761466599729320700,5.97632080078125,0.008585834875702858,0.008601013571023941,-0.024140283465385437
1761466599739305700,5.9863056640625,0.010404078289866447,0.0051136077381670475,-0.02777816727757454
1761466599749289700,5.996289794921875,0.007049295119941235,0.0034299567341804504,-0.026367755606770515
1761466599759273700,6.006273681640625,0.006977640092372894,0.01537371426820755,-0.017569761723279953
1761466599769258800,6.0162587890625,0.007598156575113535,0.028279125690460205,-0.006980501115322113
1761466599779242800,6.02624267578125,0.008340312168002129,0.02969505451619625,-0.000013785669580101967
1761466599789227800,6.036227783203125,0.010609591379761696,0.0228336863219738,-0.005812020041048527
1761466599799211800,6.046211669921875,0.011010091751813889,0.017703764140605927,-0.015413746237754822
1761466599809196800,6.05619677734375,0.012735022231936455,0.01723797619342804,-0.026153210550546646
1761466599819180800,6.066180908203125,0.010591994971036911,0.010955780744552612,-0.027090532705187798
1761466599829164800,6.076164794921875,0.012714800424873829,0.018737537786364555,-0.021537575870752335
1761466599839149800,6.08614990234375,0.011952055618166924,0.027968334034085274,-0.0173545740544796
1761466599849133800,6.0961337890625,0.010017801076173782,0.022387148812413216,-0.01459234394133091
1761466599859118600,6.10611865234375,0.009819574654102325,0.013511881232261658,-0.01559685729444027
1761466599869102600,6.1161025390625,0.014867596328258514,0.013050621375441551,-0.01361013948917389
1761466599879086800,6.1260869140625,0.011537965387105942,0.013753684237599373,-0.01137040089815855
1761466599889071600,6.136071533203125,0.012418938800692558,0.013791767880320549,-0.0034861122258007526
1761466599899055600,6.1460556640625,0.012327266857028008,0.016418982297182083,0.0003264588303864002
1761466599909040600,6.15604052734375,0.013079077005386353,0.019433680921792984,0.0031110600102692842
1761466599919024600,6.166024658203125,0.008448042906820774,0.012379820458590984,-0.0010755268158391118
1761466599929009700,6.176009765625,0.00933088082820177,0.006538175977766514,-0.007434090133756399
1761466599938993700,6.18599365234375,0.007785407826304436,0.005600686185061932,-0.012872428633272648
1761466599948977700,6.195977783203125,0.004782959818840027,0.002327927388250828,-0.020206507295370102
1761466599958962700,6.205962646484375,0.003584139747545123,-0.0026961492840200663,-0.017712144181132317
1761466599968946700,6.21594677734375,0.003491728100925684,0.001843741163611412,-0.013242826797068119
1761466599978931700,6.225931640625,0.0037161267828196287,0.006319228559732437,-0.010028213262557983
1761466599988915700,6.235915771484375,0.007190752774477005,0.003310122760012746,-0.0043298471719026566
1761466599998899700,6.245899658203125,0.008960677310824394,-0.0011640223674476147,-0.00425973953679204
1761466600008884700,6.255884765625,0.005442641209810972,0.0001965865958482027,-0.006581483408808708
1761466600018868700,6.26586865234375,0.004185860976576805,0.0038574442733079195,-0.00982055813074112
1761466600028853800,6.275853759765625,0.0007378663867712021,0.009312396869063377,-0.014494672417640686
1761466600038837800,6.285837646484375,-0.0006643007509410381,0.00313915335573256,-0.019100280478596687
1761466600048822500,6.295822509765625,-0.007041240110993385,-0.004533946048468351,-0.027031440287828445
1761466600058806800,6.305806884765625,-0.006875277496874332,-0.009306903928518295,-0.028541643172502518
1761466600068790800,6.315790771484375,-0.0042525967583060265,-0.012447835877537727,-0.02982448786497116
1761466600078775600,6.325775634765625,-0.0017284685745835304,-0.011258188635110855,-0.0294032022356987
1761466600088759600,6.335759521484375,0.0009227083064615726,-0.012385505251586437,-0.02795018069446087
1761466600098744600,6.34574462890625,-0.00571915227919817,-0.01282630953937769,-0.02432098239660263
1761466600108728600,6.355728515625,-0.006506915204226971,-0.007790804374963045,-0.026745790615677834
1761466600118713900,6.3657138671875,-0.008760886266827583,-0.010706363245844841,-0.03510480001568794
1761466600128697600,6.375697509765625,-0.007497216574847698,-0.014156488701701164,-0.0466860868036747
1761466600138681600,6.385681640625,-0.00927412137389183,-0.007188601419329643,-0.047234416007995605
1761466600148667000,6.3956669921875,-0.005698561668395996,0.0020885197445750237,-0.04649405926465988
1761466600158650600,6.405650634765625,-0.00724740931764245,0.008698445744812489,-0.03498273342847824
1761466600168636000,6.415635986328125,-0.007993893697857857,0.017659449949860573,-0.025720257312059402
1761466600178620000,6.425619873046875,-0.011505866423249245,0.022638017311692238,-0.014907661825418472
1761466600188603600,6.435603759765625,-0.015307795256376266,0.019494954496622086,-0.0137526486068964
1761466600198589000,6.4455888671875,-0.01323240902274847,0.008940327912569046,-0.023478005081415176
1761466600208573000,6.455572998046875,-0.012995653785765171,0.009954992681741714,-0.030863216146826744
1761466600218558000,6.465557861328125,-0.013002090156078339,0.009919297881424427,-0.03103630803525448
1761466600228542000,6.4755419921875,-0.006047511473298073,0.010997079312801361,-0.030909275636076927
1761466600238526700,6.485526611328125,-0.001298737246543169,0.011858578771352768,-0.02867269329726696
1761466600248510700,6.4955107421875,0.0024379438254982233,0.010018068365752697,-0.02739623934030533
1761466600258495000,6.505494873046875,0.006986058782786131,0.007479304447770119,-0.02734329365193844
1761466600268479700,6.515479736328125,0.005769792944192886,0.0012171471025794744,-0.032856300473213196
1761466600278463700,6.525463623046875,0.0027203236240893602,0.0027429114561527967,-0.036692652851343155
1761466600288451800,6.535451904296875,0.002618324477225542,0.003120813751593232,-0.038569916039705276
1761466600298435800,6.545435791015625,-0.0006821560673415661,0.0015859627164900303,-0.03638865426182747
1761466600308419800,6.555419921875,0.0011152112856507301,-0.005613893270492554,-0.030158990994095802
1761466600318404900,6.56540478515625,-0.0019408254884183407,-0.0011533594224601984,-0.02192477509379387
1761466600328388900,6.575388916015625,0.0018411295022815466,-0.0027392718475311995,-0.018116453662514687
1761466600338374000,6.585373779296875,0.0025712086353451014,0.0009528910741209984,-0.007284221239387989
1761466600348358000,6.59535791015625,0.004216775763779879,0.0062094382010400295,-0.0044253175146877766
1761466600358343000,6.605343017578125,0.004707076121121645,0.015346777625381947,-0.0031923444475978613
1761466600368327000,6.615326904296875,0.00808955729007721,0.013116379268467426,-0.00833251141011715
1761466600378311000,6.625310791015625,0.008480671793222427,0.002030170289799571,-0.01891244575381279
1761466600388296000,6.6352958984375,0.011496967636048794,-0.0031422211322933435,-0.02354687824845314
1761466600398280000,6.645280029296875,0.011017348617315292,-0.0025784429162740707,-0.02180354669690132
1761466600408265200,6.65526513671875,0.007327272091060877,-0.00440856721252203,-0.025129836052656174
1761466600418249000,6.6652490234375,0.009024855680763721,-0.004965370055288076,-0.024610908702015877
1761466600428234000,6.67523388671875,0.0074000610038638115,0.002306391019374132,-0.022207405418157578
1761466600438218200,6.68521826171875,0.008327493444085121,0.004128514789044857,-0.019697090610861778
1761466600448202000,6.695201904296875,0.005325844045728445,0.0028331533540040255,-0.019267790019512177
1761466600458187000,6.70518701171875,0.009233632124960423,0.008365362882614136,-0.014814760535955429
1761466600468171000,6.7151708984375,0.011085594072937965,0.011076993308961391,-0.00786604080349207
1761466600478156000,6.725156005859375,0.010682911612093449,0.009481191635131836,-0.004275237210094929
1761466600488140000,6.73514013671875,0.007108949590474367,0.01070677861571312,-0.0037037229631096125
1761466600498123800,6.745123779296875,0.008832503110170364,0.01832127943634987,-0.0033082286827266216
1761466600508109000,6.755109130859375,0.010806438513100147,0.02109576016664505,-0.0017508119344711304
1761466600518093000,6.765093017578125,0.0080780740827322,0.02213866449892521,-0.0028318038675934076
1761466600528078000,6.775078125,0.007286848966032267,0.021093638613820076,0.000299008097499609
1761466600538062000,6.78506201171875,0.0013905069790780544,0.019530093297362328,0.001688916701823473
1761466600548047000,6.795047119140625,-0.0009581348858773708,0.009844178333878517,-0.005996166728436947
1761466600558031000,6.805031005859375,0.0061285365372896194,0.004128501284867525,-0.009646561928093433
1761466600568015000,6.81501513671875,0.008298642933368683,0.012415990233421326,-0.007925089448690414
1761466600578000100,6.825000244140625,0.010627148672938347,0.016344420611858368,-0.0008943493012338877
1761466600587984100,6.834984130859375,0.010511035099625587,0.013543041422963142,-0.007530946750193834
1761466600597969200,6.84496923828125,0.008822840638458729,0.004973801784217358,-0.003796687349677086
1761466600607953200,6.854953125,0.010145632550120354,0.00914431270211935,-0.004754093941301107
1761466600617938000,6.86493798828125,0.0072727929800748825,0.011218366213142872,-0.0009846254251897335
1761466600627922200,6.874922119140625,0.00555718457326293,0.004475775174796581,-0.003979083616286516
1761466600637906200,6.88490625,0.003191574476659298,0.0020133976358920336,-0.00477107148617506
1761466600647891000,6.894890869140625,-0.0015110350213944912,0.00269916164688766,-0.005743391811847687
1761466600657875000,6.904875,-0.0010820035822689533,0.004230261314660311,-0.007659094408154488
1761466600667860000,6.91485986328125,0.0008815452456474304,0.004241712857037783,-0.014520995318889618
1761466600677844000,6.924843994140625,0.007070067338645458,0.0050337123684585094,-0.020006263628602028
1761466600687828000,6.934827880859375,0.007062610704451799,0.0033905422315001488,-0.018008360639214516
1761466600697813000,6.94481298828125,0.0011439258232712746,0.0012898598797619343,-0.017553260549902916
1761466600707797000,6.954796875,-0.00044571515172719955,-0.004599188454449177,-0.018691230565309525
1761466600717782000,6.964781982421875,-0.004159417934715748,0.0013207332231104374,-0.024028168991208076
1761466600727766000,6.97476611328125,-0.0006102225743234158,0.0062851314432919025,-0.023943213745951653
1761466600737751000,6.9847509765625,-0.0006444579921662807,0.004192675463855267,-0.022242499515414238
1761466600747735000,6.994735107421875,-0.002433036919683218,0.0037513896822929382,-0.01756519079208374
1761466600757719000,7.004718994140625,-0.001173052005469799,0.008711269125342369,-0.007263299077749252
1761466600767704000,7.0147041015625,-0.002026062458753586,0.018495988100767136,0.002787204459309578
1761466600777688000,7.02468798828125,-0.005417304579168558,0.012523073703050613,0.00498773530125618
1761466600787673000,7.034673095703125,-0.007360612507909536,0.002125027123838663,0.00009337719529867172
1761466600797657000,7.044656982421875,-0.006445048842579126,-0.004059071186929941,-0.0046617439948022366
1761466600807641900,7.054641845703125,-0.006742257159203291,-0.000600956380367279,0.00042915460653603077
1761466600817626000,7.064626220703125,-0.009042097255587578,0.005584666505455971,0.0033801302779465914
1761466600827610000,7.074610107421875,-0.0059469714760780334,0.0011805964168161154,0.009267047047615051
1761466600837595000,7.084594970703125,0.0011005043052136898,0.0029524362180382013,0.015614078380167484
1761466600847579000,7.094578857421875,-0.002699027769267559,0.0010658528190106153,0.02043919265270233
1761466600857564000,7.10456396484375,-0.0011760881170630455,-0.011379837989807129,0.02239704132080078
1761466600867548000,7.1145478515625,-0.0033857133239507675,-0.017352508381009102,0.023366965353488922
1761466600877533000,7.124532958984375,-0.0063733626157045364,-0.01307817455381155,0.027405716478824615
1761466600887517000,7.134516845703125,-0.009148909710347652,-0.014808696694672108,0.03282604739069939
1761466600897501000,7.1445009765625,-0.009162801317870617,-0.022200308740139008,0.03795211762189865
1761466600907486000,7.15448583984375,-0.010302900336682796,-0.02930828556418419,0.03985947370529175
1761466600917470000,7.164469970703125,-0.0051647331565618515,-0.027666687965393066,0.04361661523580551
1761466600927455000,7.174455078125,-0.005782053805887699,-0.020001579076051712,0.049181025475263596
1761466600937439000,7.18443896484375,-0.008382642641663551,-0.01953422650694847,0.059380993247032166
1761466600947423000,7.194423095703125,-0.010074816644191742,-0.006902056280523539,0.05666297301650047
1761466600957408000,7.204407958984375,-0.006398468278348446,0.0043351417407393456,0.06040153652429581
1761466600967392000,7.21439208984375,-0.01202333066612482,0.0045631080865859985,0.054512493312358856
1761466600977377000,7.224376953125,-0.010847486555576324,-0.010015839710831642,0.048035427927970886
1761466600987361000,7.234361083984375,-0.010147608816623688,-0.021716171875596046,0.03809598088264465
1761466600997346000,7.244345947265625,-0.008470972068607807,-0.019226884469389915,0.030604444444179535
1761466601007330000,7.254330078125,-0.0028234729543328285,-0.02448609471321106,0.0235433392226696
1761466601017314000,7.26431396484375,-0.00860806554555893,-0.029102155938744545,0.026300786063075066
1761466601027298800,7.274298828125,-0.009917807765305042,-0.018206099048256874,0.03239329904317856
1761466601037282800,7.28428271484375,-0.009830664843320847,0.008102248422801495,0.03973102942109108
1761466601047267800,7.294267822265625,-0.01382540725171566,0.008158440701663494,0.044207002967596054
1761466601057251800,7.304251953125,-0.018014289438724518,0.00026424950920045376,0.03838063031435013
1761466601067235800,7.31423583984375,-0.011773438192903996,-0.013310414738953114,0.03596886992454529
1761466601077220900,7.324220947265625,-0.01490139588713646,-0.014606024138629436,0.03125770390033722
1761466601087204900,7.334204833984375,-0.01479167491197586,-0.02307461015880108,0.02644297294318676
1761466601097190000,7.34418994140625,-0.010826478712260723,-0.02167167142033577,0.028512541204690933
1761466601107174000,7.354173828125,-0.011343398131430149,-0.006178731098771095,0.030973035842180252
1761466601117159000,7.364158935546875,-0.010880229994654655,0.002796396380290389,0.03652384877204895
1761466601127143000,7.374142822265625,-0.014666445553302765,-0.005339827388525009,0.030066214501857758
1761466601137127000,7.384126953125,-0.012339523062109947,-0.014088587835431099,0.02374681830406189
1761466601147112000,7.39411181640625,-0.015350492671132088,-0.017784256488084793,0.019161123782396317
1761466601157096000,7.404095947265625,-0.016381939873099327,-0.02179013378918171,0.01805955171585083
1761466601167081000,7.4140810546875,-0.01296989619731903,-0.017774352803826332,0.019521094858646393
1761466601177065000,7.42406494140625,-0.008775891736149788,-0.010239211842417717,0.03006162866950035
1761466601187050000,7.434050048828125,-0.013501936569809914,-0.00866421777755022,0.03626679256558418
1761466601197034000,7.444033935546875,-0.013361039571464062,-0.00993429310619831,0.03668014332652092
1761466601207018000,7.45401806640625,-0.01076765451580286,-0.007654094602912664,0.031775932759046555
1761466601217003000,7.4640029296875,-0.009483834728598595,-0.0157343577593565,0.023222599178552628
1761466601226987000,7.473987060546875,-0.011420484632253647,-0.022533142939209938,0.017127955332398415
1761466601236972000,7.483971923828125,-0.00969562865793705,-0.021259915083646774,0.016706429421901703
1761466601246956000,7.4939560546875,-0.010674340650439262,-0.01974298059940338,0.021062826737761497
1761466601256941000,7.503941162109375,-0.008693568408489227,-0.015473682433366776,0.032555460929870605
1761466601266925000,7.513925048828125,-0.009221673011779785,-0.013147943653166294,0.03394909203052521
1761466601276909000,7.523908935546875,-0.010285638272762299,-0.007180037908256054,0.030563369393348694
1761466601286891300,7.533891357421875,-0.0035363882780075073,-0.01305150892585516,0.020099543035030365
1761466601296875300,7.543875244140625,-0.00237444369122386,-0.015881480649113655,0.016354523599147797
1761466601306860300,7.5538603515625,-0.005864516366273165,-0.014333651401102543,0.012501196004450321
1761466601316844300,7.56384423828125,-0.004192277789115906,-0.005170990712940693,0.015227362513542175
1761466601326828300,7.573828369140625,-0.0037813521921634674,-0.005595498718321323,0.011132752522826195
1761466601336813300,7.583813232421875,-0.005826080683618784,-0.006976653356105089,0.009092050604522228
1761466601346797300,7.59379736328125,-0.0006201327778398991,-0.008723421022295952,0.0055859992280602455
1761466601356782000,7.603781982421875,0.0013454994186758995,-0.011230481788516045,0.010930351912975311
1761466601366766300,7.613766357421875,0.0023476469796150923,-0.004998418036848307,0.022872500121593475
1761466601376751000,7.623751220703125,0.004184604622423649,0.0072369761765003204,0.037217821925878525
1761466601386735000,7.633735107421875,-0.0017055091448128223,0.008966965600848198,0.04331406578421593
1761466601396719000,7.643718994140625,-0.006030391901731491,0.003306649625301361,0.03596539795398712
1761466601406704000,7.6537041015625,-0.006181659176945686,-0.003202382242307067,0.024844303727149963
1761466601416688000,7.663688232421875,0.0009276769123971462,-0.0034636163618415594,0.015474996529519558
1761466601426673200,7.673673095703125,0.0035293190740048885,-0.003730198834091425,0.009809387847781181
1761466601436657200,7.6836572265625,0.007008472457528114,-0.005209584720432758,0.007358747534453869
1761466601446642200,7.69364208984375,0.01342003233730793,-0.007823477499186993,0.007689511403441429
1761466601456626200,7.703626220703125,0.014093459583818913,-0.007396589033305645,0.017135772854089737
1761466601466610200,7.713610107421875,0.011444944888353348,-0.0003147111274302006,0.018571482971310616
1761466601476595200,7.72359521484375,0.008197903633117676,0.0010985913686454296,0.02425154484808445
1761466601486579200,7.7335791015625,0.006822647526860237,0.0011760890483856201,0.02371997945010662
1761466601496564200,7.743564208984375,0.0032941377721726894,-0.00899640191346407,0.018780913203954697
1761466601506548200,7.75354833984375,0.009465214796364307,-0.011307493783533573,0.017369171604514122
1761466601516532200,7.7635322265625,0.007373298052698374,-0.01613389328122139,0.02098005637526512
1761466601526517200,7.773517333984375,0.009513148106634617,-0.012601476162672043,0.027442749589681625
1761466601536501200,7.783501220703125,0.006045473739504814,-0.006379244849085808,0.030546091496944427
1761466601546486000,7.793486083984375,0.008339786902070045,-0.002513134153559804,0.0339948832988739
1761466601556470300,7.80347021484375,0.005969589576125145,-0.004197597503662109,0.031976766884326935
1761466601566455300,7.813455322265625,0.009690292179584503,-0.0004848844837397337,0.02508237585425377
1761466601576439000,7.82343896484375,0.0065615978091955185,-0.00630126241594553,0.015735812485218048
1761466601586423000,7.833423095703125,0.006628975737839937,-0.0035720553714782,0.01634860411286354
1761466601596408300,7.843408203125,0.006879786495119333,-0.0028031955007463694,0.021754279732704163
1761466601606392000,7.85339208984375,0.0009198980405926704,0.006473925895988941,0.030727002769708633
1761466601616377300,7.86337744140625,0.0020099107641726732,0.0033202734775841236,0.029287714511156082
1761466601626361000,7.873361083984375,-0.0018583307974040508,-0.005525948479771614,0.02458803355693817
1761466601636346400,7.883346435546875,0.0008464669808745384,-0.01305021159350872,0.01817733235657215
1761466601646330400,7.893330322265625,0.0009039910510182381,-0.012660058215260506,0.014051561243832111
1761466601656314000,7.903314208984375,0.0007850071415305138,-0.013696832582354546,0.012926653027534485
1761466601666299400,7.91329931640625,-0.0009923861362040043,-0.010479999706149101,0.0163301732391119
1761466601676283400,7.923283447265625,0.0005796020850539207,-0.013043805956840515,0.016330668702721596
1761466601686268400,7.933268310546875,-0.005358715075999498,-0.015570878982543945,0.01022244431078434
1761466601696252400,7.94325244140625,-0.004200151190161705,-0.01486991811543703,0.005383984185755253
1761466601706236400,7.953236328125,-0.006086468696594238,-0.01863642781972885,-0.0007388892117887735
1761466601716221400,7.963221435546875,-0.009529327973723412,-0.022211208939552307,-0.005320291966199875
1761466601726205400,7.973205322265625,-0.01204441674053669,-0.020699597895145416,-0.006482761353254318
1761466601736190200,7.983190185546875,-0.011688544414937496,-0.016662796959280968,-0.007356509566307068
1761466601746174200,7.99317431640625,-0.008991559967398643,-0.012840362265706062,-0.0053567420691251755
1761466601756159200,8.0031591796875,-0.008742555044591427,-0.013151684775948524,-0.007448122370988131
1761466601766141200,8.01314111328125,-0.006838660687208176,-0.007303916849195957,-0.007446524687111378
1761466601776125200,8.023125244140624,-0.0057858130894601345,-0.012139365077018738,-0.008825334720313549
1761466601786110200,8.033110107421875,-0.006888094823807478,-0.010312703438103199,-0.013045379891991615
1761466601796094200,8.04309423828125,-0.009235523641109467,-0.0006174538284540176,-0.016894463449716568
1761466601806079200,8.053079345703125,-0.01058308407664299,-0.0037605164106935263,-0.013621172867715359
1761466601816063200,8.063063232421875,-0.011764503084123135,-0.004120634403079748,-0.01775270141661167
1761466601826047200,8.073047119140625,-0.014913690276443958,-0.005782446824014187,-0.019447537139058113
1761466601836032300,8.0830322265625,-0.017128583043813705,-0.0009224500972777605,-0.01759716309607029
1761466601846016300,8.093016357421876,-0.01918880268931389,-0.0074434662237763405,-0.014251166954636574
1761466601856001000,8.1030009765625,-0.01600998267531395,-0.008583534508943558,-0.016815045848488808
1761466601865985300,8.1129853515625,-0.01692291535437107,-0.00649162195622921,-0.01748749427497387
1761466601875970300,8.12297021484375,-0.016261283308267593,-0.010809935629367828,-0.01966809667646885
1761466601885954000,8.1329541015625,-0.01446098554879427,-0.013119961135089397,-0.01877167634665966
1761466601895938000,8.14293798828125,-0.017012767493724823,-0.014821993187069893,-0.022757353261113167
1761466601905923300,8.15292333984375,-0.015057207085192204,-0.006638364866375923,-0.024602657184004784
1761466601915907000,8.162906982421875,-0.009104995056986809,0.003857378149405122,-0.02398419752717018
1761466601925892400,8.172892333984375,-0.011875482276082039,0.003798255929723382,-0.027315013110637665
1761466601935876000,8.1828759765625,-0.009040847420692444,0.005664144176989794,-0.029883233830332756
1761466601945861400,8.192861328125,-0.009219013154506683,-0.0024704812094569206,-0.02780729904770851
1761466601955845400,8.202845458984376,-0.009262003004550934,-0.006080750375986099,-0.024537047371268272
1761466601965829000,8.2128291015625,-0.01062500849366188,0.0006027184426784515,-0.01640987955033779
1761466601975814400,8.222814453125,-0.010004688985645771,0.013059733435511589,-0.010149729438126087
1761466601985798400,8.23279833984375,-0.009897097945213318,0.023322224617004395,-0.006300929002463818
1761466601995783400,8.242783447265625,-0.010519416071474552,0.018072279170155525,-0.010213548317551613
1761466602005767400,8.252767333984375,-0.007425887510180473,0.007256916258484125,-0.02162040024995804
1761466602015751400,8.26275146484375,-0.004069020971655846,0.0059506772086024284,-0.03076896443963051
1761466602025736400,8.272736328125,0.004681061487644911,0.004830285906791687,-0.03438181057572365
1761466602035720400,8.282720458984375,0.0043619112111628056,-0.0016025827499106526,-0.035683825612068176
1761466602045705200,8.292705322265626,0.005919860675930977,-0.0059390077367424965,-0.029540177434682846
1761466602055689200,8.302689208984376,0.009909633547067642,0.007844947278499603,-0.018998263403773308
1761466602065674200,8.31267431640625,0.003472772892564535,0.023254530504345894,-0.008881978690624237
1761466602075658200,8.322658203125,0.005226712208241224,0.02087506093084812,-0.004515834152698517
1761466602085642200,8.332642333984374,0.00007083220407366753,0.014214761555194855,-0.012163634411990643
1761466602095627300,8.342627197265625,0.002111499896273017,0.007549846079200506,-0.024500306695699692
1761466602105611300,8.352611328125,0.006205843761563301,0.0019225864671170712,-0.03074249066412449
1761466602115596300,8.36259619140625,0.007113667670637369,0.0008110236376523972,-0.027157152071595192
1761466602125580300,8.372580322265625,0.008745652623474598,0.009095052257180214,-0.01697136089205742
1761466602135565300,8.3825654296875,0.008295769803225994,0.028153184801340103,-0.0030470555648207664
1761466602145549300,8.39254931640625,0.00850962195545435,0.03564172983169556,0.0011788485571742058
1761466602155533300,8.402533203125,0.0034266377333551645,0.020640427246689796,-0.006847684737294912
1761466602165518300,8.412518310546876,0.009251236915588379,0.013606753200292587,-0.019560817629098892
1761466602175502300,8.42250244140625,0.01103595644235611,0.012710840441286564,-0.030949518084526062
1761466602185487400,8.4324873046875,0.011527575552463531,0.01269006822258234,-0.03063419833779335
1761466602195471400,8.442471435546874,0.01018698699772358,0.015887152403593063,-0.03261099010705948
1761466602205455400,8.452455322265624,0.00773874344304204,0.028943296521902084,-0.02521565742790699
1761466602215440400,8.4624404296875,0.008236889727413654,0.03306105360388756,-0.016397884115576744
1761466602225424400,8.47242431640625,0.00482378201559186,0.034363340586423874,-0.01673717238008976
1761466602235409200,8.4824091796875,0.007123136427253485,0.029696477577090263,-0.0230425875633955
1761466602245393200,8.49239306640625,0.011662494391202927,0.02306920289993286,-0.024943551048636436
1761466602255378200,8.502378173828125,0.013254592195153236,0.018561530858278275,-0.02944987826049328
1761466602265362200,8.512362060546875,0.017472241073846817,0.016594786196947098,-0.03113965317606926
1761466602275346200,8.52234619140625,0.0155295105651021,0.02155807800590992,-0.028056703507900238
1761466602285331200,8.532331298828124,0.01754792034626007,0.03785236179828644,-0.01869356259703636
1761466602295315000,8.54231494140625,0.010979973711073399,0.03981059044599533,-0.013898549601435661
1761466602305300200,8.55230029296875,0.009741870686411858,0.03362513333559036,-0.015409893356263638
1761466602315284000,8.562283935546875,0.0056793768890202045,0.025222640484571457,-0.021177584305405617
1761466602325269200,8.572269287109375,0.002885721158236265,0.02300316095352173,-0.021774400025606155
1761466602335253200,8.582253173828125,0.006142635829746723,0.019067252054810524,-0.020862489938735962
1761466602345238300,8.59223828125,0.005648086778819561,0.015448813326656818,-0.017759375274181366
1761466602355223300,8.602223388671876,0.012471036985516548,0.017727870494127274,-0.009666407480835915
1761466602365207300,8.612207275390626,0.011730944737792015,0.03237472474575043,0.0021092919632792473
1761466602375192000,8.622192138671876,0.01224522478878498,0.03152737393975258,0.0006276371423155069
1761466602385176000,8.632176025390624,0.011408993043005466,0.017478134483098984,-0.005452892277389765
1761466602395161000,8.6421611328125,0.010501801036298275,0.01134541817009449,-0.011545958928763866
1761466602405145000,8.65214501953125,0.007600286975502968,0.007346414960920811,-0.015706881880760193
1761466602415129000,8.662129150390625,0.01064334623515606,0.005469177849590778,-0.016730910167098045
1761466602425114000,8.672114013671875,0.0047332593239843845,0.010797897353768349,-0.01395935844630003
1761466602435098000,8.68209814453125,0.0019613816402852535,0.011394184082746506,-0.010882883332669735
1761466602445083100,8.692083251953125,-0.0009811450727283955,0.007956841960549355,-0.013058686628937721
1761466602455067100,8.702067138671875,0.0009618694894015789,0.005599656142294407,-0.018059266731142998
1761466602465052200,8.71205224609375,-0.0010908953845500946,0.0029860297217965126,-0.023531528189778328
1761466602475036200,8.7220361328125,-0.0004972484894096851,0.000633149640634656,-0.029195044189691544
1761466602485020200,8.732020263671876,-0.0006035086698830128,-0.0004843126516789198,-0.032930660992860794
1761466602495005200,8.742005126953124,-0.0038963565602898598,0.004725855775177479,-0.03808354213833809
1761466602504989200,8.7519892578125,-0.0015932549722492695,0.00141767761670053,-0.05372055992484093
1761466602514974200,8.76197412109375,-0.0028058108873665333,-0.0039077806286513805,-0.06385719776153564
1761466602524958200,8.771958251953125,0.0005305972881615162,-0.0034249494783580303,-0.06135009229183197
1761466602534942200,8.781942138671875,0.0006397184915840626,-0.0014002290554344654,-0.05330241471529007
1761466602544927200,8.79192724609375,0.0017704966012388468,0.00041498150676488876,-0.03855302929878235
1761466602554911200,8.8019111328125,0.0014366516843438148,0.010615992359817028,-0.024870842695236206
1761466602564896000,8.81189599609375,-0.007056168746203184,0.01594337821006775,-0.014856558293104172
1761466602574880000,8.8218798828125,-0.009886827319860458,0.01435585506260395,-0.018009716644883156
1761466602584865000,8.831864990234376,-0.013383290730416775,0.004753028973937035,-0.024037513881921768
1761466602594849000,8.84184912109375,-0.007070980034768581,0.0011577783152461052,-0.026608826592564583
1761466602604833000,8.8518330078125,-0.005599849857389927,-0.00009124446660280228,-0.026432525366544724
1761466602614818000,8.861818115234374,-0.00015516066923737526,0.0008189647924154997,-0.02324114739894867
1761466602624802000,8.871802001953125,0.002079497557133436,0.002363864565268159,-0.019131623208522797
1761466602634787000,8.881787109375,0.0074020130559802055,0.002926125656813383,-0.02055947110056877
1761466602644771000,8.89177099609375,0.011300614103674889,0.0008169021457433701,-0.023391742259263992
1761466602654756000,8.901756103515625,0.015559275634586811,0.008051378652453423,0.01011055801063776
1761466602664740000,8.911739990234375,0.002587550552561879,0.021484095603227615,-0.009193630889058113
1761466602674724000,8.92172412109375,-0.005222253501415253,0.004423555918037891,-0.019504206255078316
1761466602684709000,8.931709228515626,-0.005916273221373558,0.000506578478962183,-0.029650317505002022
1761466602694693000,8.941693115234376,-0.001987671945244074,0.0026984424330294132,-0.03422258049249649
1761466602704678100,8.95167822265625,0.00857735425233841,0.0004387502558529377,-0.024197641760110855
1761466602714662100,8.961662109375,0.00620774831622839,0.004418292082846165,-0.012447742745280266
1761466602724647200,8.971647216796875,0.004764048382639885,0.008733944036066532,-0.00008694734424352646
1761466602734631200,8.981631103515625,0.003854149952530861,0.014008603058755398,0.00302388658747077
1761466602744615200,8.991615234375,0.0029699804726988077,0.009675374254584312,-0.0020441091619431973
1761466602754600000,9.001599853515625,0.004138916730880737,0.003445155918598175,-0.016834473237395287
1761466602764584200,9.011584228515625,0.0028459520544856787,-0.0005069749895483255,-0.025329692289233208
