time,seconds_elapsed,z,y,x
1761466552888056000,0.11505615234375,-0.0039590890519320965,0.0005524589214473963,-0.013407886028289795
1761466552898041300,0.125041259765625,-0.007033235393464565,-0.003320567309856415,-0.017381587997078896
1761466552908026000,0.135026123046875,-0.004029190167784691,-0.0068572452291846275,-0.023033615201711655
1761466552918010000,0.145010009765625,-0.005837072152644396,-0.004545129835605621,-0.019733428955078125
1761466552927995100,0.1549951171875,-0.007000340614467859,0.0005369805730879307,-0.010696258395910263
1761466552937979100,0.164979248046875,-0.00858297199010849,0.016068827360868454,-0.008334831334650517
1761466552947964200,0.174964111328125,-0.01339157484471798,0.016870439052581787,-0.00567912682890892
1761466552957948200,0.1849482421875,-0.018247008323669434,0.0016267867758870125,-0.007107112091034651
1761466552967933200,0.19493310546875,-0.018933836370706558,-0.007521437481045723,-0.00850553810596466
1761466552977917200,0.204917236328125,-0.014877240173518658,0.003420336404815316,-0.009833129122853279
1761466552987902200,0.214902099609375,-0.013040724210441113,0.002170515013858676,-0.020455412566661835
1761466552997886200,0.22488623046875,-0.011549647897481918,-0.004651601426303387,-0.029275529086589813
1761466553007871200,0.234871337890625,-0.008164770901203156,-0.013414999470114708,-0.03310888260602951
1761466553017855200,0.244855224609375,-0.011331886053085327,-0.008889783173799515,-0.03202551230788231
1761466553027840300,0.25484033203125,-0.00961175188422203,-0.008307084441184998,-0.023686889559030533
1761466553037824300,0.26482421875,-0.013648750260472298,0.00012850644998252392,-0.016106463968753815
1761466553047809000,0.27480908203125,-0.016277823597192764,0.0038300342857837677,-0.009668538346886635
1761466553057793000,0.28479296875,-0.02042514830827713,0.0029104214627295732,-0.007541741710156202
1761466553067778000,0.294778076171875,-0.0194107498973608,-0.008765941485762596,-0.011353258043527603
1761466553077762000,0.304761962890625,-0.015319626778364182,-0.009750282391905785,-0.012620925903320312
1761466553087747000,0.3147470703125,-0.010270006954669952,-0.0063651385717093945,-0.012535171583294868
1761466553097731000,0.32473095703125,-0.01013317983597517,-0.004409836605191231,-0.008688768371939659
1761466553107716000,0.334716064453125,-0.007415157742798328,-0.0050591155886650085,-0.009212344884872437
1761466553117700000,0.3447001953125,-0.004616520367562771,-0.004661473445594311,-0.011586550623178482
1761466553127685000,0.35468505859375,-0.0076898084953427315,-0.01046103984117508,-0.01771395094692707
1761466553137669000,0.364669189453125,-0.012860567308962345,-0.020347803831100464,-0.020076178014278412
1761466553147654100,0.374654052734375,-0.016742125153541565,-0.02821691334247589,-0.02217261865735054
1761466553157638100,0.38463818359375,-0.015123162418603897,-0.025724422186613083,-0.020802419632673264
1761466553167623200,0.394623046875,-0.015073360875248909,-0.03155701234936714,-0.01741194911301136
1761466553177607200,0.404607177734375,-0.014069873839616776,-0.030090222135186195,-0.013838788494467735
1761466553187592000,0.414592041015625,-0.017742373049259186,-0.027606558054685593,-0.004107865039259195
1761466553197576000,0.424575927734375,-0.018492691218852997,-0.027605092152953148,0.01239788718521595
1761466553207561200,0.434561279296875,-0.01396691333502531,-0.02232750505208969,0.018041390925645828
1761466553217545000,0.444544921875,-0.015087039209902287,-0.02539733052253723,0.02099403738975525
1761466553227530200,0.4545302734375,-0.011484048329293728,-0.03454821929335594,0.018129009753465652
1761466553237514200,0.46451416015625,-0.005258643999695778,-0.03729287162423134,0.015475435182452202
1761466553247499000,0.4744990234375,-0.001491868868470192,-0.0353144109249115,0.012804817408323288
1761466553257483000,0.48448291015625,0.005168028641492128,-0.03368145972490311,0.006794849410653114
1761466553267468300,0.49446826171875,0.008255165070295334,-0.031079817563295364,-0.004790167324244976
1761466553277452000,0.5044521484375,0.01197304017841816,-0.031989019364118576,-0.018772294744849205
1761466553287437300,0.514437255859375,0.015933161601424217,-0.04029861465096474,-0.03602026030421257
1761466553297421300,0.52442138671875,0.02120308205485344,-0.05009251832962036,-0.04907771572470665
1761466553307406000,0.534406005859375,0.025156276300549507,-0.046086061745882034,-0.055781956762075424
1761466553317390000,0.54439013671875,0.024383388459682465,-0.04980878159403801,-0.065123550593853
1761466553327375000,0.554375,0.02140277996659279,-0.04709342494606972,-0.0620872788131237
1761466553337359000,0.564359130859375,0.01900043524801731,-0.04923611879348755,-0.053952381014823914
1761466553347344100,0.57434423828125,0.011127065867185593,-0.05798060819506645,-0.03911218047142029
1761466553357328100,0.584328125,0.007836928591132164,-0.051071085035800934,-0.021181123331189156
1761466553367313200,0.594313232421875,0.009737093932926655,-0.032735489308834076,-0.006061825901269913
1761466553377297200,0.604297119140625,0.015366671606898308,-0.012207545340061188,0.009277718141674995
1761466553387282200,0.6142822265625,0.011863283812999725,0.0008704399224370718,0.02092478796839714
1761466553397266200,0.62426611328125,0.01012600027024746,0.011006159707903862,0.026846857741475105
1761466553407251200,0.634251220703125,0.0013804459013044834,0.009424242191016674,0.03342166915535927
1761466553417235200,0.644235107421875,-0.0028723212890326977,0.009684921242296696,0.04713215306401253
1761466553427220200,0.65422021484375,-0.00939280353486538,0.006206300109624863,0.07414432615041733
1761466553437204200,0.664204345703125,-0.014987857080996037,0.008806366473436356,0.1010957807302475
1761466553447189000,0.67418896484375,-0.016223564743995667,0.005818033590912819,0.12766773998737335
1761466553457173000,0.684173095703125,-0.013755671679973602,0.007319799158722162,0.1369246244430542
1761466553467158000,0.694157958984375,-0.012485343962907791,-0.002467317972332239,0.13711343705654144
1761466553477142000,0.70414208984375,-0.00774045055732131,-0.010870913974940777,0.12831436097621918
1761466553487127000,0.714126953125,0.007536772638559341,-0.022874047979712486,0.1255342811346054
1761466553497111000,0.724111083984375,0.021201666444540024,-0.01977006159722805,0.1280890703201294
1761466553507096000,0.734095947265625,0.029587427154183388,-0.011129169724881649,0.1346484273672104
1761466553517080000,0.744080078125,0.030687328428030014,0.005470288917422295,0.13671638071537018
1761466553527065000,0.754065185546875,0.02837730571627617,0.020630067214369774,0.13228274881839752
1761466553537049000,0.764049072265625,0.030215874314308167,0.03688003495335579,0.12203621864318848
1761466553547034000,0.7740341796875,0.025270916521549225,0.0422324575483799,0.10988821089267731
1761466553557018000,0.78401806640625,0.016677696257829666,0.048825379461050034,0.09690982848405838
1761466553567003100,0.794003173828125,0.010973737575113773,0.057187169790267944,0.09627705812454224
1761466553576987100,0.803987060546875,0.00863388366997242,0.07502768933773041,0.10264068096876144
1761466553586972000,0.813971923828125,0.003285457845777273,0.10023371130228043,0.11256974935531616
1761466553596956000,0.823955810546875,0.0011594644747674465,0.11988842487335205,0.12080717086791992
1761466553606941000,0.83394091796875,-0.004874992184340954,0.1105300784111023,0.1029280424118042
1761466553616925000,0.843925048828125,-0.004870628472417593,0.09134919196367264,0.06355826556682587
1761466553626910200,0.85391015625,0.005554848350584507,0.06516419351100922,0.022518422454595566
1761466553636894000,0.86389404296875,0.012893609702587128,0.03742039203643799,-0.0059592947363853455
1761466553646879200,0.873879150390625,0.012518636882305145,0.026066003367304802,-0.023828305304050446
1761466553656863200,0.88386328125,0.005425204522907734,0.03362378478050232,-0.024842970073223114
1761466553666848300,0.89384814453125,0.005904040765017271,0.03830988332629204,-0.01604042574763298
1761466553676832300,0.903832275390625,0.003397584892809391,0.03508458659052849,-0.019720910117030144
1761466553686817300,0.9138173828125,0.004697740077972412,0.030492233112454414,-0.02787897177040577
1761466553696801300,0.92380126953125,-0.0035870703868567944,0.019655277952551842,-0.03257892280817032
1761466553706786000,0.9337861328125,-0.006069136317819357,0.016973208636045456,-0.03168543055653572
1761466553716771000,0.94377099609375,-0.004331175237894058,-0.0031485501676797867,-0.029436655342578888
1761466553726755000,0.953755126953125,-0.020062733441591263,-0.032259296625852585,-0.04002804681658745
1761466553736740000,0.963739990234375,-0.018411599099636078,-0.00007210206240415573,-0.0385286919772625
1761466553746724000,0.97372412109375,-0.009693741798400879,0.03259263560175896,-0.016345355659723282
1761466553756709000,0.983709228515625,-0.003052900545299053,0.050089623779058456,0.006479798816144466
1761466553766693000,0.993693115234375,-0.000428088940680027,0.04820330813527107,0.0048432862386107445
1761466553776678100,1.00367822265625,0.001727455761283636,0.03319348767399788,-0.005412544589489698
1761466553786662100,1.013662109375,0.004410590510815382,0.02067450061440468,-0.007376892492175102
1761466553796647200,1.023647216796875,0.00833903718739748,0.02129233069717884,-0.007193136494606733
1761466553806631200,1.033631103515625,0.009803242981433868,0.019519196823239326,-0.003561916295439005
1761466553816616000,1.043615966796875,0.009320463985204697,0.018947085365653038,-0.0030037176329642534
1761466553826600200,1.05360009765625,0.0045139905996620655,0.014639422297477722,-0.002591726602986455
1761466553836585000,1.0635849609375,0.004155236762017012,0.012404600158333778,0.00041338824667036533
1761466553846569000,1.07356884765625,0.0025946241803467274,0.006564553827047348,0.0012264512479305267
1761466553856554000,1.083553955078125,-0.0011783870868384838,-0.005475128069519997,0.01116403192281723
1761466553866538000,1.0935380859375,-0.0013232631608843803,-0.0025211493484675884,0.017216330394148827
1761466553876523000,1.10352294921875,-0.00713937496766448,-0.004402095451951027,0.027643142268061638
1761466553886507000,1.113507080078125,-0.0019680489785969257,-0.01260676234960556,0.03329943120479584
1761466553896492000,1.123491943359375,-0.0015858253464102745,-0.016625480726361275,0.04612201824784279
1761466553906476000,1.13347607421875,-0.004205310717225075,-0.017335480079054832,0.06231563910841942
1761466553916461000,1.1434609375,-0.0034630452282726765,-0.02270972728729248,0.07397176325321198
1761466553926445000,1.153445068359375,-0.0007277126424014568,-0.03204517066478729,0.07811138033866882
1761466553936430300,1.163430419921875,0.0012952988035976887,-0.03302163630723953,0.07903871685266495
1761466553946414000,1.1734140625,0.004089753609150648,-0.03739640861749649,0.07651083916425705
1761466553956399000,1.183399169921875,0.004052817355841398,-0.044122401624917984,0.07097862660884857
1761466553966383000,1.193383056640625,0.005004897713661194,-0.049241796135902405,0.06947900354862213
1761466553976368000,1.2033681640625,0.0000931769609451294,-0.05845733359456062,0.06555244326591492
1761466553986352000,1.21335205078125,0.0023054650519043207,-0.05757902190089226,0.06327278167009354
1761466553996337200,1.223337158203125,-0.0030773761682212353,-0.0598718635737896,0.058915846049785614
1761466554006321200,1.233321044921875,-0.00011567492038011551,-0.055111195892095566,0.05086537450551987
1761466554016306200,1.24330615234375,0.0009704222902655602,-0.0519229993224144,0.046760376542806625
1761466554026290200,1.253290283203125,-0.003571066539734602,-0.052807435393333435,0.04528738185763359
1761466554036275200,1.263275146484375,-0.00610201433300972,-0.04445018991827965,0.0547378771007061
1761466554046259200,1.27325927734375,-0.0031520305201411247,-0.032935213297605515,0.060432251542806625
1761466554056244200,1.283244140625,-0.003106163814663887,-0.02587731182575226,0.06562860310077667
1761466554066228200,1.293228271484375,-0.002577792853116989,-0.02263171784579754,0.06932000815868378
1761466554076213200,1.303213134765625,-0.0065924301743507385,-0.0172945074737072,0.06715672463178635
1761466554086197200,1.313197265625,-0.006709343753755093,-0.017689986154437065,0.05737413465976715
1761466554096182000,1.32318212890625,-0.007338382303714752,-0.03361595794558525,0.03626219183206558
1761466554106166000,1.333166015625,-0.009647342376410961,-0.05623738095164299,0.011598926037549973
1761466554116151000,1.343151123046875,-0.011858943849802017,-0.07174808531999588,0.00161074660718441
1761466554126135000,1.353135009765625,-0.013477345928549767,-0.06870036572217941,0.008884372189640999
1761466554136120000,1.3631201171875,-0.012242060154676437,-0.05238032341003418,0.027733154594898224
1761466554146104000,1.37310400390625,-0.01345779374241829,-0.03359678015112877,0.05008000507950783
1761466554156089000,1.383089111328125,-0.012318486347794533,-0.023428773507475853,0.06332071870565414
1761466554166073000,1.393072998046875,-0.016840266063809395,-0.023321716114878654,0.07011684030294418
1761466554176058000,1.40305810546875,-0.01565789058804512,-0.033373598009347916,0.07064440101385117
1761466554186042000,1.4130419921875,-0.016787603497505188,-0.038299646228551865,0.07122284173965454
1761466554196027100,1.423027099609375,-0.017678173258900642,-0.03410229831933975,0.07707194238901138
1761466554206011100,1.43301123046875,-0.016126349568367004,-0.033148352056741714,0.08010261505842209
1761466554215996000,1.442995849609375,-0.01382366195321083,-0.029285583645105362,0.07718726247549057
1761466554225980200,1.452980224609375,-0.011420158669352531,-0.034783944487571716,0.07264817506074905
1761466554235965000,1.46296484375,-0.010006697848439217,-0.03932518512010574,0.06095502898097038
1761466554245949200,1.47294921875,-0.01063520461320877,-0.04244641214609146,0.0451238639652729
1761466554255934200,1.482934326171875,-0.010447889566421509,-0.05463016405701637,0.03618869185447693
1761466554265918200,1.492918212890625,-0.008480345830321312,-0.0642995685338974,0.026300638914108276
1761466554275903200,1.5029033203125,-0.006905748508870602,-0.06991633772850037,0.01859399490058422
1761466554285887200,1.51288720703125,-0.006376844830811024,-0.0723898857831955,0.018186265602707863
1761466554295872300,1.522872314453125,-0.008472530171275139,-0.07040131837129593,0.026270022615790367
1761466554305856300,1.532856201171875,-0.005768888164311647,-0.05613822489976883,0.034188397228717804
1761466554315841300,1.54284130859375,-0.0028538270853459835,-0.02870655059814453,0.036400165408849716
1761466554325825300,1.5528251953125,-0.003960903268307447,-0.0062944525852799416,0.03719138726592064
1761466554335810300,1.562810302734375,-0.0018940391018986702,0.007221234496682882,0.030261827632784843
1761466554345794300,1.572794189453125,-0.0021363869309425354,0.009503297507762909,0.025410346686840057
1761466554355779000,1.582779052734375,-0.004392985720187426,-0.0016364429611712694,0.028165917843580246
1761466554365763000,1.59276318359375,-0.010148342698812485,-0.002830870682373643,0.024550411850214005
1761466554375748000,1.602748046875,-0.008879374712705612,0.0003911275416612625,0.02907619997859001
1761466554385732000,1.612732177734375,-0.005466267466545105,-0.00037426501512527466,0.03492263704538345
1761466554395717000,1.622717041015625,-0.00842986535280943,-0.0006886152550578117,0.03306027501821518
1761466554405701000,1.632701171875,-0.011364935897290707,-0.0010638546664267778,0.032493021339178085
1761466554415686100,1.64268603515625,-0.011228538118302822,-0.004506776109337807,0.03175985813140869
1761466554425670100,1.652670166015625,-0.007928615435957909,-0.001447868999093771,0.03000536374747753
1761466554435655200,1.6626552734375,-0.007386430632323027,0.009007480926811695,0.024128839373588562
1761466554445639200,1.67263916015625,-0.006808258127421141,0.006344053894281387,0.02091839909553528
1761466554455624400,1.68262451171875,-0.0030880370177328587,0.00029754452407360077,0.02451951801776886
1761466554465608200,1.692608154296875,-0.0041700792498886585,0.0041623241268098354,0.02259618416428566
1761466554475593200,1.70259326171875,-0.009589878842234612,0.012309732846915722,0.025087837129831314
1761466554485577500,1.712577392578125,-0.010015716776251793,0.010776017792522907,0.027014635503292084
1761466554495562200,1.722562255859375,-0.011476496234536171,-0.0009431773796677589,0.029492709785699844
1761466554505547300,1.73254736328125,-0.008453276008367538,-0.001913899672217667,0.03089645877480507
1761466554515531300,1.74253125,-0.005677712149918079,-0.006795763038098812,0.02885381318628788
1761466554525516300,1.752516357421875,-0.0023642070591449738,-0.004150178749114275,0.026961904019117355
1761466554535500300,1.762500244140625,-0.002085306216031313,-0.001245684688910842,0.024082234129309654
1761466554545485300,1.7724853515625,-0.0013635894283652306,0.004397287033498287,0.02165156602859497
1761466554555469300,1.78246923828125,-0.004619406070560217,0.0032257582060992718,0.019873106852173805
1761466554565454300,1.792454345703125,-0.004643374588340521,0.00042384653352200985,0.014890599995851517
1761466554575438300,1.802438232421875,-0.0014458033256232738,-0.0012518421281129122,0.006388986483216286
1761466554585423000,1.812423095703125,-0.0006958572193980217,0.006873995065689087,0.008852144703269005
1761466554595407400,1.822407470703125,0.0022678363602608442,0.033091794699430466,0.010007429867982864
1761466554605392100,1.83239208984375,0.0009863232262432575,0.05111713334918022,0.013159014284610748
1761466554615376100,1.842376220703125,0.004798801150172949,0.039987243711948395,0.022534672170877457
1761466554625361200,1.852361083984375,0.01630711928009987,0.04020242393016815,0.007426293101161718
1761466554635345200,1.86234521484375,0.02274707332253456,0.045639265328645706,-0.00703680282458663
1761466554645330200,1.872330078125,0.03247453272342682,0.03770411014556885,-0.027714651077985764
1761466554655314200,1.882314208984375,0.050948843359947205,0.022671883925795555,-0.05553802475333214
1761466554665299200,1.89229931640625,0.06083209812641144,0.013246690854430199,-0.0886555016040802
1761466554675283200,1.902283203125,0.05720726028084755,-0.001183172920718789,-0.11637448519468307
1761466554685268200,1.912268310546875,0.05391905829310417,-0.012128498405218124,-0.12361641973257065
1761466554695252200,1.922252197265625,0.0463867262005806,-0.021489432081580162,-0.13238459825515747
1761466554705237200,1.9322373046875,0.04166067764163017,-0.01563607156276703,-0.13839589059352875
1761466554715221200,1.94222119140625,0.03401269018650055,-0.0021615736186504364,-0.14564208686351776
1761466554725206000,1.9522060546875,0.025367537513375282,0.007500108331441879,-0.15859012305736542
1761466554735190300,1.962190185546875,0.02095368131995201,0.01930621825158596,-0.1672389805316925
1761466554745175000,1.972175048828125,0.019722502678632736,0.03145183250308037,-0.17156848311424255
1761466554755159000,1.982158935546875,0.010998381301760674,0.04389442875981331,-0.16730448603630066
1761466554765144000,1.99214404296875,0.009008200839161873,0.05847230553627014,-0.15129968523979187
1761466554775128000,2.002128173828125,0.0045290677808225155,0.06717532873153687,-0.12090052664279938
1761466554785113300,2.01211328125,0.010932372882962227,0.08045145124197006,-0.09359727054834366
1761466554795097000,2.02209716796875,0.013039989396929741,0.08513417094945908,-0.07425126433372498
1761466554805082400,2.032082275390625,0.01647014170885086,0.08743327856063843,-0.06086701527237892
1761466554815066400,2.04206640625,0.020659662783145905,0.08776431530714035,-0.05020451918244362
1761466554825051400,2.052051513671875,0.02557159587740898,0.08288327604532242,-0.0522889718413353
1761466554835035400,2.062035400390625,0.029041144996881485,0.0666784942150116,-0.05108655244112015
1761466554845020400,2.0720205078125,0.029831038787961006,0.05453580617904663,-0.05507862940430641
1761466554855004400,2.08200439453125,0.029830506071448326,0.046632081270217896,-0.06452886015176773
1761466554864989200,2.0919892578125,0.02865312248468399,0.03876696527004242,-0.06932414323091507
1761466554874973200,2.10197314453125,0.02382691577076912,0.033847272396087646,-0.0758528932929039
1761466554884958200,2.111958251953125,0.02209559455513954,0.026182692497968674,-0.08131450414657593
1761466554894942200,2.121942138671875,0.019539209082722664,0.01020960882306099,-0.08500537276268005
1761466554904927200,2.13192724609375,0.020813532173633575,0.0027386429719626904,-0.09066911786794662
1761466554914911200,2.1419111328125,0.018509769812226295,-0.00002389471046626568,-0.09660397469997406
1761466554924896300,2.151896240234375,0.013620738871395588,-0.012302132323384285,-0.09183132648468018
1761466554934880300,2.16188037109375,0.0069802748039364815,-0.018813787028193474,-0.08011101186275482
1761466554944865300,2.171865234375,0.003995936363935471,-0.014300794340670109,-0.06352804601192474
1761466554954849300,2.181849365234375,-0.002919862512499094,-0.008585655130445957,-0.05430898070335388
1761466554964834300,2.191834228515625,-0.0015904130414128304,-0.003945629578083754,-0.04534025490283966
1761466554974818300,2.201818359375,-0.0016310252249240875,-0.0156522486358881,-0.03939738869667053
1761466554984803000,2.211802978515625,-0.001196929719299078,-0.022858230397105217,-0.04231834411621094
1761466554994787300,2.221787353515625,0.00222698668949306,-0.03230719268321991,-0.04483877867460251
1761466555004772000,2.231772216796875,-0.0030023963190615177,-0.03394903242588043,-0.03959927335381508
1761466555014756000,2.241756103515625,0.0012159300968050957,-0.0404958613216877,-0.03485777974128723
1761466555024741000,2.2517412109375,-0.002272278070449829,-0.040351249277591705,-0.03176584839820862
1761466555034725000,2.26172509765625,-0.0007668356411159039,-0.03219000995159149,-0.020087355747818947
1761466555044710100,2.271710205078125,-0.005204993765801191,-0.02700243704020977,-0.008519915863871574
1761466555054694100,2.281694091796875,-0.008223943412303925,-0.016361594200134277,-0.00023855851031839848
1761466555064679200,2.29167919921875,-0.007694240193814039,-0.014804708771407604,0.0033833403140306473
1761466555074664200,2.301664306640625,-0.0060065449215471745,-0.011512436904013157,0.007591940928250551
1761466555084648200,2.311648193359375,-0.007419351954013109,-0.004760524723678827,0.005700829904526472
1761466555094633200,2.32163330078125,-0.005698012188076973,-0.003136836690828204,0.0015516199637204409
1761466555104617200,2.3316171875,-0.006299354135990143,-0.0010518478229641914,-0.0016455049626529217
1761466555114602200,2.341602294921875,-0.007578976918011904,-0.0006656527984887362,-0.005160340573638678
1761466555124586200,2.351586181640625,-0.007756077218800783,-0.0012901639565825462,-0.0070735556073486805
1761466555134571300,2.3615712890625,-0.00979699194431305,-0.0020463953260332346,-0.011772675439715385
1761466555144555300,2.37155517578125,-0.011709140613675117,0.00289936107583344,-0.016265694051980972
1761466555154540300,2.381540283203125,-0.008946462534368038,0.011788696050643921,-0.013738363981246948
1761466555164524300,2.391524169921875,-0.01112279761582613,0.01606839708983898,-0.010579855181276798
1761466555174509300,2.40150927734375,-0.015542948618531227,0.0217710193246603,-0.007623481564223766
1761466555184493300,2.411493408203125,-0.012480314821004868,0.026070959866046906,-0.010597167536616325
1761466555194478300,2.421478271484375,-0.011505046859383583,0.02036750689148903,-0.02333400771021843
1761466555204462300,2.43146240234375,-0.008736424148082733,0.0128307631239295,-0.03777899593114853
1761466555214447400,2.441447265625,-0.0020190360955893993,0.0049378955736756325,-0.047761064022779465
1761466555224431400,2.451431396484375,-0.0011636284179985523,0.004406328313052654,-0.05038028210401535
1761466555234416000,2.461416015625,-0.003812881652265787,0.0038523816037923098,-0.04649020731449127
1761466555244400400,2.471400390625,-0.0031146002002060413,0.009430372156202793,-0.04273940995335579
1761466555254385700,2.4813857421875,-0.007056216709315777,0.009912179782986641,-0.03894759342074394
1761466555264369400,2.491369384765625,-0.013529563322663307,0.006284954957664013,-0.03569534048438072
1761466555274354700,2.501354736328125,-0.013315015472471714,0.006084946915507317,-0.04021099954843521
1761466555284338700,2.511338623046875,-0.013444711454212666,0.009151310659945011,-0.03924400359392166
1761466555294323700,2.52132373046875,-0.014990905299782753,0.01700572483241558,-0.037060484290122986
1761466555304307700,2.5313076171875,-0.015430593863129616,0.019313354045152664,-0.0414978452026844
1761466555314292700,2.541292724609375,-0.01431621890515089,0.023738261312246323,-0.04011325538158417
1761466555324276700,2.55127685546875,-0.01376654114574194,0.022367265075445175,-0.03868500143289566
1761466555334261800,2.56126171875,-0.01365559734404087,0.01146235503256321,-0.033698514103889465
1761466555344245800,2.571245849609375,-0.00811675563454628,0.010458875447511673,-0.03387987241148949
1761466555354230500,2.58123046875,-0.007185525726526976,0.01391702238470316,-0.035064175724983215
1761466555364214800,2.59121484375,-0.00012841541320085526,0.014216895215213299,-0.036322787404060364
1761466555374199600,2.601199462890625,-0.00005238177254796028,0.011092315427958965,-0.0356239415705204
1761466555384183600,2.61118359375,0.0032512694597244263,0.006497563794255257,-0.03696111589670181
1761466555394168600,2.62116845703125,0.0037656405474990606,0.002155728405341506,-0.0373704694211483
1761466555404152600,2.631152587890625,0.004423441365361214,0.006240750662982464,-0.02942226454615593
1761466555414137600,2.6411376953125,0.005911985412240028,0.016338931396603584,-0.019292932003736496
1761466555424121600,2.65112158203125,0.0030946272891014814,0.018822329118847847,-0.008283423259854317
1761466555434106600,2.661106689453125,0.007355720270425081,0.02214297652244568,-0.0007600013632327318
1761466555444091600,2.671091552734375,0.005132779479026794,0.02684611827135086,0.0012549464590847492
1761466555454075600,2.68107568359375,0.006295008584856987,0.020665226504206657,-0.0008353623561561108
1761466555464060700,2.691060791015625,0.012481531128287315,0.016728274524211884,0.00004001869820058346
1761466555474044700,2.701044677734375,0.009589890018105507,0.02140928991138935,-0.00005079968832433224
1761466555484029400,2.711029541015625,0.010061269626021385,0.020832449197769165,-0.003217564430087805
1761466555494013400,2.721013427734375,0.006481103133410215,0.0207041185349226,-0.0063150804489851
1761466555503998500,2.73099853515625,0.0077852532267570496,0.016447853296995163,-0.011660577729344368
1761466555513982500,2.740982421875,0.006636134348809719,0.010609624907374382,-0.016584238037467003
1761466555523967500,2.750967529296875,0.006759438663721085,0.0025413120165467262,-0.02517399750649929
1761466555533951500,2.760951416015625,0.00874603632837534,-0.004234017804265022,-0.028323449194431305
1761466555543936500,2.7709365234375,0.011792425997555256,0.002717099152505398,-0.02281496673822403
1761466555553920500,2.78092041015625,0.00760847982019186,0.007917472161352634,-0.019405851140618324
1761466555563905800,2.79090576171875,0.005818835459649563,0.01174310315400362,-0.018875349313020706
1761466555573889500,2.8008896484375,0.0021863363217562437,0.01499794889241457,-0.018639136105775833
1761466555583874800,2.810874755859375,0.0030084543395787477,0.006829768419265747,-0.02084583230316639
1761466555593858800,2.82085888671875,0.0020167245529592037,-0.0002621314488351345,-0.026970019564032555
1761466555603843600,2.830843505859375,-0.002012371551245451,-0.004369524773210287,-0.028345009312033653
1761466555613827600,2.84082763671875,0.0014646369963884354,0.002878414001315832,-0.029853440821170807
1761466555623812600,2.8508125,-0.0028741848655045033,0.0116964066401124,-0.02849789336323738
1761466555633796600,2.860796630859375,-0.004215399269014597,0.00016158702783286572,-0.02616654336452484
1761466555643781600,2.87078173828125,-0.005715824197977781,-0.0068451897241175175,-0.027736209332942963
1761466555653765600,2.880765625,-0.005898783449083567,-0.007866512052714825,-0.021863140165805817
1761466555663750700,2.890750732421875,-0.002067826222628355,-0.0016277909744530916,-0.013205470517277718
1761466555673734700,2.900734619140625,-0.004214279353618622,0.008879640139639378,-0.009211808443069458
1761466555683719700,2.9107197265625,-0.005517630837857723,0.016662461683154106,-0.003598663955926895
1761466555693703700,2.92070361328125,-0.003779518883675337,0.020069284364581108,-0.002574387239292264
1761466555703688700,2.930688720703125,-0.0019155722111463547,0.021685555577278137,-0.007947048172354698
1761466555713672700,2.940672607421875,-0.0017799623310565948,0.016869155690073967,-0.012892823666334152
1761466555723657700,2.95065771484375,-0.0045648301020264626,-0.001197462435811758,-0.014556501060724258
1761466555733641700,2.960641845703125,-0.00878947600722313,-0.009819881059229374,-0.013680825009942055
1761466555743626500,2.97062646484375,-0.010528519749641418,-0.011722976341843605,-0.01823429763317108
1761466555753610500,2.980610595703125,-0.01036544144153595,-0.018061954528093338,-0.03142816573381424
1761466555763595500,2.990595458984375,-0.0066210380755364895,-0.036087293177843094,-0.04835041984915733
1761466555773580500,3.00058056640625,-0.006982363294810057,-0.0532744824886322,-0.0597362220287323
1761466555783564500,3.010564453125,-0.005759438965469599,-0.05831504985690117,-0.0562426894903183
1761466555793549600,3.020549560546875,-0.005274295806884766,-0.041394416242837906,-0.045039840042591095
1761466555803533600,3.030533447265625,-0.0018478729762136936,-0.023576270788908005,-0.027189472690224648
1761466555813518600,3.0405185546875,-0.012590787373483181,-0.012465434148907661,-0.011940703727304935
1761466555823502600,3.050502685546875,-0.01707341894507408,-0.011444378644227982,-0.008551564998924732
1761466555833487600,3.060487548828125,-0.02119860053062439,-0.017371319234371185,-0.016790080815553665
1761466555843471600,3.0704716796875,-0.020464099943637848,-0.0304048303514719,-0.027927953749895096
1761466555853456400,3.080456298828125,-0.020773954689502716,-0.025111572816967964,-0.029500294476747513
1761466555863440600,3.090440673828125,-0.01785086840391159,-0.01322988048195839,-0.019948335364460945
1761466555873425700,3.10042578125,-0.009469805285334587,-0.013803316280245781,-0.016190890222787857
1761466555883409400,3.110409423828125,-0.003887286875396967,-0.010493006557226181,-0.010932745411992073
1761466555893394700,3.120394775390625,-0.004658446181565523,-0.005881120450794697,-0.007361694239079952
1761466555903378400,3.13037841796875,-0.013896685093641281,0.0028950602281838655,-0.008500196039676666
1761466555913363700,3.14036376953125,-0.016709838062524796,-0.010170599445700645,-0.011762809008359909
1761466555923347700,3.15034765625,-0.01956368237733841,-0.018720677122473717,-0.013856852427124977
1761466555933332700,3.160332763671875,-0.014208626933395863,-0.010414648801088333,-0.011100247502326965
1761466555943316700,3.170316650390625,-0.01603635400533676,-0.005931483116000891,-0.004114243201911449
1761466555953301800,3.1803017578125,-0.01484293770045042,-0.011335906572639942,0.003457112004980445
1761466555963285800,3.19028564453125,-0.008268658071756363,-0.00825116690248251,0.0073668984696269035
1761466555973270500,3.2002705078125,-0.011512987315654755,0.002156892092898488,0.014278107322752476
1761466555983254800,3.2102548828125,-0.011683428660035133,-0.002600046107545495,0.02149314433336258
1761466555993239600,3.220239501953125,-0.008834675885736942,-0.004492325242608786,0.025738723576068878
1761466556003223600,3.2302236328125,-0.007457288913428783,0.0007937832269817591,0.03210847079753876
1761466556013208600,3.24020849609375,-0.013583166524767876,-0.00016432441771030426,0.039210088551044464
1761466556023192600,3.250192626953125,-0.013454802334308624,-0.005937791429460049,0.0365527868270874
1761466556033177600,3.260177490234375,-0.009172381833195686,-0.009125135838985443,0.03823667764663696
1761466556043162600,3.27016259765625,-0.011832082644104958,0.006611748598515987,0.04171023517847061
1761466556053146600,3.280146728515625,-0.011047419160604477,0.009656750597059727,0.040755219757556915
1761466556063131600,3.290131591796875,-0.007985048927366734,-0.0017839233623817563,0.04084496945142746
1761466556073115600,3.30011572265625,-0.006719302851706743,-0.006279801018536091,0.03157158941030502
1761466556083100700,3.3101005859375,-0.005085986573249102,-0.010937402956187725,0.02698216214776039
1761466556093084700,3.320084716796875,-0.003602993208914995,-0.021587897092103958,0.02398291602730751
1761466556103069400,3.3300693359375,-0.0004948177374899387,-0.024880362674593925,0.018413446843624115
1761466556113053400,3.340053466796875,0.0008182176388800144,-0.015890121459960938,0.022048648446798325
1761466556123038500,3.35003857421875,-0.0031831813976168633,-0.010673255659639835,0.024019652977585793
1761466556133022500,3.3600224609375,-0.0013993727043271065,-0.013055948540568352,0.02192348800599575
1761466556143007500,3.370007568359375,0.0018563417252153158,-0.01579953543841839,0.022475561127066612
1761466556152991500,3.379991455078125,0.00015696045011281967,-0.01827545277774334,0.025044986978173256
1761466556162976500,3.3899765625,0.002274173777550459,-0.016073817387223244,0.034197740256786346
1761466556172960500,3.39996044921875,0.00668918015435338,-0.009021257981657982,0.04490577057003975
1761466556182945500,3.409945556640625,0.006737649906426668,-0.0008157931733876467,0.05572433024644852
1761466556192929500,3.419929443359375,0.0061591085977852345,0.006639721337705851,0.06722812354564667
1761466556202914800,3.429914794921875,0.0036685203667730093,0.008351335301995277,0.07781045883893967
1761466556212898600,3.439898681640625,0.0025720365811139345,0.007234415039420128,0.08038653433322906
1761466556222883600,3.449883544921875,0.001256435178220272,-0.0028283391147851944,0.07779847085475922
1761466556232867800,3.459867919921875,0.005920083727687597,-0.00930031854659319,0.06454872339963913
1761466556242856000,3.46985595703125,0.004169055260717869,-0.020063482224941254,0.049548204988241196
1761466556252840000,3.47983984375,0.004161374177783728,-0.03095286712050438,0.032581742852926254
1761466556262825000,3.489824951171875,0.003944326192140579,-0.03335503861308098,0.028077270835638046
1761466556272809000,3.49980908203125,-0.00028402963653206825,-0.03047150745987892,0.02729480154812336
1761466556282794000,3.5097939453125,0.0020467687863856554,-0.022687088698148727,0.03733891248703003
1761466556292778000,3.519778076171875,-0.003825802356004715,-0.016721295192837715,0.045157428830862045
1761466556302763000,3.529762939453125,-0.008027471601963043,-0.015548705123364925,0.050822239369153976
1761466556312748000,3.539748046875,-0.01386970467865467,-0.01765838824212551,0.051039572805166245
1761466556322732000,3.54973193359375,-0.015513939782977104,-0.0201865267008543,0.039961352944374084
1761466556332717000,3.559717041015625,-0.015783384442329407,-0.02562571130692959,0.020695270970463753
1761466556342701000,3.569701171875,-0.013407313264906406,-0.027188720181584358,0.01237022876739502
1761466556352685800,3.579685791015625,-0.014796998351812363,-0.024281693622469902,0.01634044200181961
1761466556362669800,3.589669921875,-0.011310920119285583,-0.022477667778730392,0.03474501147866249
1761466556372654800,3.59965478515625,-0.005588016472756863,-0.014791302382946014,0.04566130042076111
1761466556382638800,3.609638916015625,-0.00776754692196846,-0.00488167954608798,0.058038339018821716
1761466556392623900,3.619623779296875,-0.004541677888482809,-0.0017814697930589318,0.06538067758083344
1761466556402607900,3.62960791015625,-0.0041954671032726765,-0.007176501676440239,0.06076062470674515
1761466556412593000,3.639593017578125,-0.007221406791359186,-0.00663447380065918,0.05129524692893028
1761466556422577000,3.649576904296875,-0.009868854656815529,-0.005626733880490065,0.043189648538827896
1761466556432562000,3.65956201171875,-0.006692503113299608,-0.005782262422144413,0.04172251373529434
1761466556442546000,3.6695458984375,-0.0009395424276590347,-0.005459221079945564,0.04262905195355415
1761466556452531000,3.679531005859375,0.0024811667390167713,-0.0032304013147950172,0.043317489326000214
1761466556462515000,3.689514892578125,-0.00048373034223914146,-0.0034256111830472946,0.04629223793745041
1761466556472500000,3.6995,0.0004889960400760174,-0.007290968205779791,0.042679376900196075
1761466556482484000,3.70948388671875,0.0052520595490932465,-0.015018928796052933,0.034544751048088074
1761466556492469000,3.719468994140625,0.00001325272023677826,-0.02068481035530567,0.029300186783075333
1761466556502453000,3.729452880859375,0.0008851718157529831,-0.025752538815140724,0.029608048498630524
1761466556512438000,3.73943798828125,-0.0006059887818992138,-0.025256847962737083,0.02700723335146904
1761466556522422000,3.749422119140625,0.0040979525074362755,-0.025993213057518005,0.02754439413547516
1761466556532407000,3.759406982421875,0.002477190922945738,-0.017673281952738762,0.03105335310101509
1761466556542392000,3.76939208984375,0.00030245352536439896,-0.018777694553136826,0.02925092726945877
1761466556552376000,3.7793759765625,0.0010014730505645275,-0.017073260620236397,0.023104622960090637
1761466556562361000,3.789361083984375,-0.0008070799522101879,-0.02384248375892639,0.01181068830192089
1761466556572345000,3.799344970703125,-0.0008129994384944439,-0.02796424925327301,0.007322466932237148
1761466556582330000,3.809330078125,-0.003876699600368738,-0.033714279532432556,0.00567689910531044
1761466556592314000,3.819314208984375,-0.007302081678062677,-0.02835923433303833,0.0067445458844304085
1761466556602299000,3.829298828125,-0.003490299452096224,-0.02216791920363903,0.008418342098593712
1761466556612283000,3.839282958984375,0.00140745984390378,-0.018754268065094948,0.005867836996912956
1761466556622268000,3.849267822265625,0.0017062663100659847,-0.019229643046855927,0.00012952368706464767
1761466556632252000,3.859251953125,0.0005175527185201645,-0.022210538387298584,0.0007044938392937183
1761466556642237000,3.86923681640625,-0.003980260342359543,-0.025289684534072876,-0.007528402376919985
1761466556652221000,3.879220947265625,-0.008360706269741058,-0.03034965693950653,-0.011352689936757088
1761466556662206000,3.8892060546875,-0.013413522392511368,-0.02324301190674305,-0.013360179960727692
1761466556672190000,3.89918994140625,-0.017403680831193924,-0.013884205371141434,-0.014933865517377853
1761466556682175000,3.909175048828125,-0.01865137182176113,-0.005182059947401285,-0.009427247568964958
1761466556692159000,3.919158935546875,-0.021814167499542236,-0.00015005539171397686,-0.00030006980523467064
1761466556702144000,3.92914404296875,-0.02436361089348793,-0.0007170424796640873,0.0018195402808487415
1761466556712128000,3.9391279296875,-0.020747559145092964,0.0012788581661880016,-0.0055113062262535095
1761466556722112800,3.94911279296875,-0.015436949208378792,-0.000288145849481225,-0.010914327576756477
1761466556732097000,3.959096923828125,-0.009034710004925728,-0.0035465233959257603,-0.01634690910577774
1761466556742081800,3.969081787109375,-0.0036982675082981586,-0.010922946967184544,-0.017595134675502777
1761466556752065800,3.979065673828125,-0.0010760887525975704,-0.019360220059752464,-0.021339839324355125
1761466556762050800,3.98905078125,0.0011689560487866402,-0.015022197738289833,-0.023930829018354416
1761466556772036000,3.9990361328125,0.0018848557956516743,-0.0138248261064291,-0.025236306712031364
1761466556782020000,4.00902001953125,0.005125922616571188,-0.018382294103503227,-0.02503390610218048
1761466556792005000,4.019005126953125,0.0030277820769697428,-0.016859503462910652,-0.02760971710085869
1761466556801989000,4.028989013671875,0.006619054824113846,-0.017672833055257797,-0.026512760668992996
1761466556811974100,4.03897412109375,-0.004627432208508253,-0.016536980867385864,-0.026604369282722473
1761466556821958100,4.048958251953125,-0.0046953423880040646,-0.009024202823638916,-0.024049067869782448
1761466556831943000,4.05894287109375,-0.007724447641521692,-0.0031490412075072527,-0.019002649933099747
1761466556841927200,4.06892724609375,-0.009823285043239594,0.004353350028395653,-0.010293847881257534
1761466556851912000,4.078911865234375,-0.005701152142137289,0.011090973392128944,-0.004309434909373522
1761466556861896000,4.08889599609375,-0.0000872085802257061,0.015108884312212467,-0.00018020370043814182
1761466556871881000,4.098880859375,-0.004089467693120241,0.016124891117215157,0.008802109397947788
1761466556881865000,4.108864990234375,0.000637643039226532,0.016060175374150276,0.007799163460731506
1761466556891850000,4.11885009765625,-0.004108171444386244,0.018222404643893242,-0.0013961956137791276
1761466556901834000,4.128833984375,-0.000850326381623745,0.011227080598473549,-0.011943112127482891
1761466556911819000,4.138819091796875,0.0018988733645528555,0.006666925735771656,-0.023342782631516457
1761466556921803000,4.148802978515625,0.005294936243444681,0.00916017685085535,-0.031215885654091835
1761466556931788000,4.1587880859375,0.007885023951530457,0.008910367265343666,-0.03214160352945328
1761466556941772000,4.16877197265625,0.005927068181335926,0.00995485857129097,-0.023110821843147278
1761466556951757000,4.178757080078125,0.007180757820606232,0.014122129417955875,-0.009399550035595894
1761466556961741000,4.188740966796875,0.0009620105847716331,0.02379792556166649,0.0011460348032414913
1761466556971725800,4.198725830078125,0.0008282344788312912,0.028049368411302567,0.006123742088675499
1761466556981710000,4.2087099609375,0.0018689977005124092,0.029551122337579727,0.0016925090458244085
1761466556991694800,4.21869482421875,-0.0021479325369000435,0.017850231379270554,-0.009337242692708969
1761466557001678800,4.228678955078125,-0.003103741444647312,0.011621098034083843,-0.01579168066382408
1761466557011664000,4.238663818359375,-0.0009642909280955791,0.01959097944200039,-0.014385240152478218
1761466557021648000,4.24864794921875,0.004968699067831039,0.029216177761554718,-0.013505065813660622
1761466557031633000,4.2586328125,0.006605532951653004,0.017418300732970238,-0.014151167124509811
1761466557041618000,4.268617919921875,0.004995119757950306,0.0015826111193746328,-0.018855642527341843
1761466557051602000,4.278601806640625,0.002624930115416646,-0.01118028350174427,-0.01946842670440674
1761466557061587200,4.288587158203125,0.0032779371831566095,-0.011570969596505165,-0.02092277817428112
1761466557071571000,4.298571044921875,0.002741509350016713,-0.003010556800290942,-0.019835421815514565
1761466557081556000,4.308555908203125,-0.00193313742056489,0.0033413488417863846,-0.01511763222515583
1761466557091540000,4.3185400390625,-0.000652579590678215,-0.003168947296217084,-0.01680845580995083
1761466557101525000,4.32852490234375,0.00402739318087697,-0.007706174626946449,-0.01360334176570177
1761466557111509000,4.338509033203125,0.006059777457267046,-0.0018698126077651978,-0.011676530353724957
1761466557121494000,4.348493896484375,0.009218553081154823,0.009461937472224236,-0.007630389183759689
1761466557131478000,4.35847802734375,0.007267896085977554,0.01139072049409151,-0.0011858417419716716
1761466557141463000,4.368463134765625,0.011504985392093658,0.01325333584100008,0.0038336841389536858
1761466557151447000,4.378447021484375,0.012400965206325054,0.01723538339138031,0.00034176534973084927
1761466557161432000,4.38843212890625,0.014766117557883263,0.015571175143122673,-0.007241319864988327
1761466557171416000,4.398416015625,0.008009085431694984,0.01076204888522625,-0.011589725501835346
1761466557181401000,4.408401123046875,0.009094323962926865,0.010746868327260017,-0.012003581039607525
1761466557191385000,4.418385009765625,0.006941853556782007,0.018540604040026665,-0.009490624070167542
1761466557201370000,4.4283701171875,0.009263597428798676,0.023255465552210808,-0.001205796143040061
1761466557211354000,4.43835400390625,0.005983344744890928,0.024364188313484192,0.00008105975575745106
1761466557221339000,4.4483388671875,0.003599549410864711,0.017629053443670273,-0.008498046547174454
1761466557231323000,4.458322998046875,0.0035596939269453287,0.004346949048340321,-0.019843146204948425
1761466557241308000,4.468307861328125,0.006989312823861837,0.002370350994169712,-0.03076343797147274
1761466557251289000,4.4782890625,0.005077477544546127,0.008640574291348457,-0.02656548097729683
1761466557261273000,4.488273193359375,0.006498540285974741,0.015285693109035492,-0.02246767468750477
1761466557271258000,4.498258056640625,0.00946786254644394,0.017868956550955772,-0.018546435981988907
1761466557281242000,4.5082421875,0.010245771147310734,0.014800460077822208,-0.018216736614704132
1761466557291227100,4.51822705078125,0.003612956963479519,0.0038108546286821365,-0.022607507184147835
1761466557301211100,4.528211181640625,-0.005786403547972441,-0.010032789781689644,-0.0251148734241724
1761466557311196200,4.538196044921875,-0.0037357700057327747,-0.016359927132725716,-0.025632325559854507
1761466557321180200,4.54818017578125,-0.0029559959657490253,-0.0057866452261805534,-0.018094515427947044
1761466557331165200,4.558165283203125,-0.0018190261907875538,0.00796197634190321,-0.004479358904063702
1761466557341149200,4.568149169921875,-0.0007028956897556782,0.004880432039499283,0.003913060296326876
1761466557351134000,4.578134033203125,-0.001513682771474123,-0.0050581987015903,-0.0021208582911640406
1761466557361118000,4.588117919921875,0.002814752981066704,-0.011920632794499397,-0.007463159039616585
1761466557371103000,4.59810302734375,-0.00014327513054013252,-0.013299275189638138,-0.012052026577293873
1761466557381087000,4.6080869140625,-0.0014314460568130016,-0.006223789416253567,-0.009004836902022362
1761466557391072000,4.618072021484375,-0.00483296811580658,-0.0028552659787237644,-0.006752370856702328
1761466557401056000,4.628055908203125,-0.0043272338807582855,0.0024039444979280233,-0.0037443300243467093
1761466557411041000,4.638041015625,-0.004110283683985472,0.007737782783806324,-0.0024673279840499163
1761466557421025000,4.64802490234375,-0.006409390363842249,0.00464292336255312,-0.005920649040490389
1761466557431010000,4.658010009765625,-0.0036207097582519054,0.0010673932265490294,-0.010068511590361595
1761466557440994000,4.667994140625,0.0014888313598930836,0.003502587554976344,-0.009764112532138824
1761466557450979000,4.67797900390625,-0.0024572224356234074,0.0014878269284963608,-0.01009703241288662
1761466557460963000,4.687963134765625,-0.008729498833417892,-0.001132457284256816,-0.009662937372922897
1761466557470948000,4.697947998046875,-0.012945011258125305,-0.0037689227610826492,-0.008781944401562214
1761466557480933000,4.70793310546875,-0.008109776303172112,-0.0042546833865344524,-0.015264078043401241
1761466557490917000,4.717917236328125,-0.006435525603592396,-0.0031819266732782125,-0.02740408293902874
1761466557500901000,4.727901123046875,-0.004244277253746986,-0.0024495574180036783,-0.03960855305194855
1761466557510886100,4.73788623046875,-0.00819428265094757,-0.008198588155210018,-0.041756413877010345
1761466557520871200,4.74787109375,0.0009771115146577358,-0.007237453944981098,-0.03887727111577988
1761466557530855200,4.757855224609375,0.0015764860436320305,0.005835999269038439,-0.02073901705443859
1761466557540840200,4.767840087890625,-0.005809525027871132,0.018127819523215294,-0.004397327080368996
1761466557550824200,4.77782421875,-0.013589981943368912,0.022401027381420135,0.008574377745389938
1761466557560809200,4.787809326171875,-0.02122553065419197,0.018117863684892654,0.005583647172898054
1761466557570793200,4.797793212890625,-0.01639639586210251,0.01177957933396101,-0.004290016833692789
1761466557580778200,4.8077783203125,-0.01484590396285057,0.01551386434584856,-0.012179099023342133
1761466557590762200,4.81776220703125,-0.010711472481489182,0.012993939220905304,-0.019744079560041428
1761466557600747000,4.8277470703125,-0.007225395645946264,0.0058292364701628685,-0.02354680746793747
1761466557610731000,4.83773095703125,0.000047540757805109024,-0.0010459141340106726,-0.028498411178588867
1761466557620716000,4.847716064453125,-0.0011793775483965874,-0.0007303296588361263,-0.02701529674232006
1761466557630700000,4.857699951171875,-0.0007339697331190109,0.0045172069221735,-0.02631620690226555
1761466557640685000,4.86768505859375,0.0016381079331040382,0.005438926629722118,-0.021900685504078865
1761466557650669000,4.8776689453125,-0.0014926251024007797,0.005339290015399456,-0.02345305122435093
1761466557660654000,4.887654052734375,0.0019766746554523706,-0.0009542920161038637,-0.022300168871879578
1761466557670638000,4.89763818359375,-0.0006336956284940243,-0.00434583704918623,-0.021982455626130104
1761466557680623000,4.907623046875,-0.000017706770449876785,-0.005649720784276724,-0.018758166581392288
1761466557690607000,4.917607177734375,0.0030027907341718674,-0.007575443014502525,-0.01301958505064249
1761466557700592000,4.927592041015625,0.004582577850669622,-0.007873451337218285,-0.007544659078121185
1761466557710576000,4.937576171875,0.007294001989066601,0.003978138789534569,0.0012957022991031408
1761466557720561200,4.94756103515625,0.005160809960216284,0.013759397901594639,0.0026413972955197096
1761466557730545200,4.957545166015625,0.006160028278827667,0.01358336303383112,-0.0025014327839016914
1761466557740530000,4.967530029296875,0.002611898584291339,0.006232771091163158,-0.013271789066493511
1761466557750514000,4.977513916015625,0.006442873738706112,-0.0020225192420184612,-0.01661752350628376
1761466557760499000,4.9874990234375,0.005143251270055771,-0.0010664442088454962,-0.02366691082715988
1761466557770483000,4.99748291015625,0.008955796249210835,-0.0015231287106871605,-0.021497221663594246
1761466557780468000,5.007468017578125,0.008356052450835705,0.006935869809240103,-0.016309916973114014
1761466557790453200,5.017453369140625,0.011091979220509529,0.010050160810351372,-0.006775536574423313
1761466557800437200,5.027437255859375,0.010337505489587784,0.0078144371509552,-0.005753947887569666
1761466557810422300,5.03742236328125,0.013553472235798836,0.006534202955663204,-0.008845622651278973
1761466557820406300,5.04740625,0.01646217703819275,0.010502313263714314,-0.004890562035143375
1761466557830391300,5.057391357421875,0.01741931587457657,0.013865619897842407,-0.0003916842397302389
1761466557840375300,5.067375244140625,0.015374541282653809,0.013674937188625336,0.006968227680772543
1761466557850360000,5.077360107421875,0.020407535135746002,0.015156535431742668,0.01131718885153532
1761466557860344000,5.087343994140625,0.017232246696949005,0.02003411576151848,0.015082897618412971
1761466557870329000,5.0973291015625,0.014302661642432213,0.02222263440489769,0.018058964982628822
1761466557880313000,5.10731298828125,0.011075975373387337,0.01590348593890667,0.013272996991872787
1761466557890298000,5.117298095703125,0.0146865863353014,0.01167384721338749,0.011917181313037872
1761466557900282000,5.1272822265625,0.010105416178703308,0.013496780768036842,0.005318400915712118
1761466557910267100,5.13726708984375,0.013408027589321136,0.002710483968257904,-0.0024753317702561617
1761466557920251100,5.147251220703125,0.006819366943091154,-0.003394013736397028,-0.009059464558959007
1761466557930236200,5.157236083984375,0.00817534513771534,-0.007150407414883375,-0.016734430566430092
1761466557940220200,5.16722021484375,0.009336750023066998,-0.01092543825507164,-0.01530804019421339
1761466557950205200,5.177205078125,0.01106603629887104,-0.011356660164892673,-0.006980080157518387
1761466557960189200,5.187189208984375,0.01362453494220972,-0.0025711585767567158,-0.003696935251355171
1761466557970174000,5.197174072265625,0.009743614122271538,0.00754193402826786,-0.0026564374566078186
1761466557980158200,5.207158203125,0.008093519136309624,0.003905653953552246,0.002985469065606594
1761466557990143000,5.21714306640625,0.007186077069491148,0.006782928481698036,0.005135171581059694
1761466558000127000,5.227126953125,0.0062446496449410915,0.006342708133161068,0.005522928666323423
1761466558010112000,5.237112060546875,0.00210851919837296,0.0017815495375543833,-0.00016584363766014576
1761466558020096000,5.247095947265625,0.0008158208802342415,-0.0027705917600542307,-0.007461040746420622
1761466558030081000,5.2570810546875,0.004023839719593525,-0.0013543602544814348,-0.010514361783862114
1761466558040065000,5.26706494140625,0.004061123821884394,0.0011785724200308323,-0.01019158586859703
1761466558050050000,5.277050048828125,0.004195372574031353,0.00009683379903435707,-0.007219491992145777
1761466558060034000,5.287033935546875,0.000424868892878294,-0.002423581900075078,-0.003817303804680705
1761466558070019000,5.29701904296875,-0.003787755500525236,-0.001488763839006424,-0.001324839424341917
1761466558080003000,5.307003173828125,-0.009409155696630478,-0.002280521672219038,-0.007379536516964436
1761466558089988000,5.316988037109375,-0.005007955711334944,-0.0090428302064538,-0.02163810282945633
1761466558099972000,5.32697216796875,-0.006078546401113272,-0.011951001361012459,-0.02989097312092781
1761466558109957000,5.33695703125,-0.002897570375353098,-0.012596876360476017,-0.03676806762814522
1761466558119942100,5.346942138671875,0.000011133961379528046,-0.013616067357361317,-0.033447105437517166
1761466558129926100,5.356926025390625,-0.0014537926763296127,-0.007258601952344179,-0.02084343321621418
1761466558139911200,5.3669111328125,-0.0031001591123640537,-0.003206069814041257,-0.011058180592954159
1761466558149895200,5.376895263671875,-0.0037785684689879417,-0.015574860386550426,-0.010161761194467545
1761466558159880200,5.386880126953125,-0.00683933962136507,-0.02110810950398445,-0.013012675568461418
1761466558169864200,5.3968642578125,-0.0069410777650773525,-0.012084905058145523,-0.013881362974643707
1761466558179849200,5.40684912109375,-0.012031711637973785,-0.0018056354019790888,-0.013135411776602268
1761466558189833200,5.416833251953125,-0.0077057271264493465,-0.00332590751349926,-0.014047577977180481
1761466558199818200,5.426818359375,-0.0010813800618052483,-0.0074306377209723,-0.01217750646173954
1761466558209802200,5.43680224609375,-0.00018183235079050064,-0.00883177574723959,-0.010635273531079292
1761466558219787000,5.446787109375,0.003048049518838525,-0.004312657751142979,-0.009464015252888203
1761466558229771300,5.456771240234375,0.005302683915942907,-0.007933015935122967,-0.01020592637360096
1761466558239756000,5.466756103515625,0.0033894688822329044,-0.012056654319167137,-0.01098543405532837
1761466558249740300,5.476740234375,0.003092332975938916,-0.021069424226880074,-0.017161335796117783
1761466558259725300,5.486725341796875,-0.004395943135023117,-0.024640189483761787,-0.01486169546842575
1761466558269709300,5.496709228515625,-0.006573688704520464,-0.02475227415561676,-0.005846886895596981
1761466558279694300,5.5066943359375,-0.007877040654420853,-0.018405430018901825,0.0065463995561003685
1761466558289678300,5.51667822265625,-0.006194503512233496,-0.009802429936826229,0.01791568472981453
1761466558299663400,5.526663330078125,-0.003915369976311922,-0.001889646053314209,0.031415779143571854
1761466558309647400,5.5366474609375,0.00047620758414268494,0.0008870032615959644,0.03995973989367485
1761466558319632400,5.54663232421875,0.0011467915028333664,-0.0006831965874880552,0.04286258667707443
1761466558329616400,5.556616455078125,0.002068873029202223,-0.0012550335377454758,0.03631572797894478
1761466558339601200,5.56660107421875,0.00007815985009074211,-0.008094031363725662,0.029851701110601425
1761466558349585400,5.57658544921875,0.002318908926099539,-0.007680661976337433,0.03307333588600159
1761466558359570200,5.586570068359375,0.002510123886168003,-0.008030600845813751,0.03892510011792183
1761466558369554200,5.59655419921875,0.005552433896809816,0.004590357653796673,0.047005392611026764
1761466558379539200,5.606539306640625,0.003063976066187024,0.014713033102452755,0.05386356636881828
1761466558389523200,5.616523193359375,0.0030064161401242018,0.01392744667828083,0.05500580370426178
1761466558399508200,5.62650830078125,0.00042155198752880096,0.003138449275866151,0.045222945511341095
1761466558409492200,5.6364921875,0.00534838205203414,-0.012098535895347595,0.04010435938835144
1761466558419477200,5.646477294921875,0.006237611640244722,-0.011094258166849613,0.03370478376746178
1761466558429461200,5.656461181640625,0.0055602602660655975,-0.00862024910748005,0.03398945927619934
1761466558439446300,5.6664462890625,0.006839643232524395,-0.006381861865520477,0.03809578716754913
1761466558449430300,5.67643017578125,0.0029022975359112024,-0.005932893604040146,0.0410686694085598
1761466558459415300,5.686415283203125,0.006804094649851322,0.007125916890799999,0.04310785233974457
1761466558469399300,5.6963994140625,0.002264821669086814,0.0078913364559412,0.04592600837349892
1761466558479384000,5.706384033203125,0.0040717762894928455,0.003176742233335972,0.04222315177321434
1761466558489368300,5.716368408203125,0.005418138112872839,-0.0009633023291826248,0.03565848618745804
1761466558499353000,5.72635302734375,0.0058583589270710945,-0.004828347824513912,0.03120967373251915
1761466558509338400,5.73633837890625,0.008481602184474468,-0.00020467792637646198,0.031468506902456284
1761466558519322000,5.746322021484375,0.009679225273430347,-0.0058085015043616295,0.030983012169599533
1761466558529307400,5.756307373046875,0.012515499256551266,-0.008590112440288067,0.03328585997223854
1761466558539291400,5.76629150390625,0.009850740432739258,-0.005408167373389006,0.036085907369852066
1761466558549276400,5.7762763671875,0.012095663696527481,-0.002177999820560217,0.03943750262260437
1761466558559260400,5.786260498046875,0.01004582829773426,-0.0013122062664479017,0.03961806371808052
1761466558569245400,5.796245361328125,0.010914545506238937,0.0029605072923004627,0.04085322469472885
1761466558579229400,5.8062294921875,0.00930599682033062,-0.001825459417887032,0.03839326277375221
1761466558589214200,5.816214111328125,0.007287131622433662,-0.008625607006251812,0.03565339744091034
1761466558599198500,5.826198486328125,0.006689784582704306,-0.009223753586411476,0.03521530702710152
1761466558609183200,5.836183349609375,0.002910982584580779,-0.012119954451918602,0.035089604556560516
1761466558619167200,5.846167236328125,0.0014869901351630688,-0.010077043436467648,0.03828992694616318
1761466558629152300,5.85615234375,0.0022918323520570993,-0.009851784445345402,0.03427014872431755
1761466558639136300,5.86613623046875,-0.0013947812840342522,-0.011937039904296398,0.03311140835285187
1761466558649121300,5.876121337890625,0.0015679504722356796,-0.01992381550371647,0.02825859747827053
1761466558659105300,5.886105224609375,0.0058428565971553326,-0.015257423743605614,0.02553658001124859
1761466558669090300,5.89609033203125,0.006170656997710466,-0.016408929601311684,0.025761090219020844
1761466558679074300,5.90607421875,0.0017852294258773327,-0.015048054046928883,0.03001522272825241
1761466558689059300,5.916059326171875,-0.00010853493586182594,-0.012957554310560226,0.03458280488848686
1761466558699043300,5.926043212890625,-0.0021836701780557632,-0.016969872638583183,0.023450791835784912
1761466558709028400,5.9360283203125,-0.0012968648225069046,-0.02006702311336994,0.013181919232010841
1761466558719012400,5.946012451171875,-0.001687017735093832,-0.022733911871910095,0.004880846943706274
1761466558728997000,5.9559970703125,0.005955749191343784,-0.01478181965649128,0.012170973233878613
1761466558738981000,5.965981201171875,0.005761604756116867,-0.009872548282146454,0.020892560482025146
1761466558748966100,5.975966064453125,0.010928943753242493,0.0028984323143959045,0.033768944442272186
1761466558758950100,5.9859501953125,0.005007937550544739,0.007284925319254398,0.04271264001727104
1761466558768935200,5.99593505859375,-0.000832785852253437,0.0035868415143340826,0.049769219011068344
1761466558778919200,6.005919189453125,-0.004074651747941971,-0.00013093114830553532,0.0449286550283432
1761466558788904200,6.015904296875,-0.010117219761013985,-0.00796566717326641,0.03943375498056412
1761466558798888200,6.02588818359375,-0.004332300741225481,-0.010197395458817482,0.03210127353668213
1761466558808873200,6.035873291015625,-0.0037904498167335987,-0.011972663924098015,0.028340093791484833
1761466558818857200,6.045857177734375,-0.0019957460463047028,-0.01880420371890068,0.027819443494081497
1761466558828842200,6.05584228515625,0.007089197635650635,-0.018050258979201317,0.029308684170246124
1761466558838826200,6.065826171875,0.00693926215171814,-0.017991136759519577,0.030993666499853134
1761466558848811300,6.075811279296875,0.006035171449184418,-0.020441044121980667,0.0362483449280262
1761466558858795300,6.085795166015625,0.0015932852402329445,-0.021914837881922722,0.03100697696208954
1761466558868780300,6.0957802734375,0.0014941981062293053,-0.02179843559861183,0.02975662425160408
1761466558878764000,6.105763916015625,-0.0020027989521622658,-0.0225134938955307,0.03138834238052368
1761466558888749300,6.115749267578125,-0.004214983433485031,-0.020909467712044716,0.03439105674624443
1761466558898733300,6.1257333984375,-0.006448843516409397,-0.0282233078032732,0.038445454090833664
1761466558908718300,6.13571826171875,-0.006311655510216951,-0.029611658304929733,0.04036426171660423
1761466558918702300,6.145702392578125,-0.0019991989247500896,-0.02766435593366623,0.04492811858654022
1761466558928687400,6.155687255859375,-0.0029187663458287716,-0.028133423998951912,0.04490417242050171
1761466558938671400,6.16567138671875,-0.004944100510329008,-0.026593849062919617,0.036335185170173645
1761466558948656400,6.175656494140625,-0.0030432362109422684,-0.02536841295659542,0.02796298637986183
1761466558958640400,6.185640380859375,0.001185065135359764,-0.013513618148863316,0.03138115257024765
1761466558968625400,6.19562548828125,-0.0035877488553524017,-0.00802457146346569,0.029076185077428818
1761466558978609400,6.205609375,-0.004150474444031715,-0.008090351708233356,0.02463456615805626
1761466558988594200,6.21559423828125,-0.003818859811872244,-0.0068886615335941315,0.023176493123173714
1761466558998578400,6.225578369140625,-0.0058330087922513485,-0.005911281332373619,0.013116402551531792
1761466559008563200,6.235563232421875,-0.001933152787387371,-0.008868296630680561,0.006824411451816559
1761466559018547200,6.245547119140625,-0.001138731837272644,-0.009423565119504929,-0.005225859582424164
1761466559028532200,6.2555322265625,0.0010101282969117165,-0.010623992420732975,-0.008712194859981537
1761466559038516200,6.26551611328125,0.002642113482579589,-0.01356918178498745,-0.010935668833553791
1761466559048501200,6.275501220703125,0.002601153915748,-0.005540619604289532,-0.010773756541311741
1761466559058485200,6.2854853515625,0.005181490909308195,0.0014150245115160942,-0.004653546493500471
1761466559068470300,6.29547021484375,0.00034912489354610443,0.0026592628564685583,-0.004851152189075947
1761466559078454300,6.305454345703125,-0.0015371921472251415,-0.0009730227757245302,-0.008627515286207199
1761466559088439300,6.315439208984375,-0.0032700509764254093,0.005639064125716686,-0.009349231608211994
1761466559098423300,6.32542333984375,-0.007297815289348364,0.00840369239449501,-0.006637068465352058
1761466559108408300,6.335408203125,-0.003473327960819006,0.009390957653522491,-0.009001419879496098
1761466559118393000,6.34539306640625,-0.0052038501016795635,0.005585566163063049,-0.0160372257232666
1761466559128377000,6.355377197265625,-0.0022561075165867805,0.007279008161276579,-0.018215961754322052
1761466559138361000,6.365361083984375,-0.0008094785735011101,0.004337280057370663,-0.013277927413582802
1761466559148346000,6.37534619140625,0.00007981900125741959,0.007013273425400257,-0.005927867256104946
1761466559158330000,6.385330078125,0.0059126741252839565,0.01850081980228424,-0.0015664086677134037
1761466559168315100,6.395315185546875,0.0020531355403363705,0.0223943330347538,0.006959166377782822
1761466559178299100,6.405299072265625,0.003217203076928854,0.016709815710783005,0.006246505305171013
1761466559188284200,6.4152841796875,0.00438292883336544,0.008591427467763424,0.00022642919793725014
1761466559198269400,6.42526953125,0.003072120947763324,0.007216703146696091,0.00020299339666962624
1761466559208253400,6.43525341796875,0.0016766074113547802,0.0051538413390517235,0.0042589888907969
1761466559218237200,6.4452373046875,0.0015895222313702106,0.006032152101397514,0.0030488483607769012
1761466559228222500,6.455222412109375,0.0023581874556839466,0.006499238312244415,0.00953923724591732
1761466559238207200,6.465207275390625,0.0007914500311017036,0.0034547129180282354,0.004753270652145147
1761466559248191700,6.475191650390625,-0.0016476279124617577,-0.007410790771245956,0.0007265761960297823
1761466559258176800,6.4851767578125,-0.0004678475670516491,-0.006733016110956669,-0.00705518014729023
1761466559268160800,6.495160888671875,0.002156277419999242,0.002601423067972064,-0.007918848656117916
1761466559278145800,6.505145751953125,0.007900183089077473,0.007205761969089508,-0.003739017527550459
1761466559288129800,6.5151298828125,0.0011407611891627312,0.009555269964039326,0.000010982854291796684
1761466559298114800,6.52511474609375,0.0025588946882635355,0.010110538452863693,-0.00426205899566412
1761466559308098800,6.535098876953125,-0.00031262822449207306,0.002469925442710519,-0.010876020416617393
1761466559318083800,6.545083740234375,-0.00025750091299414635,-0.0035557427909225225,-0.02499263733625412
1761466559328067800,6.55506787109375,0.005732867866754532,-0.013345806859433651,-0.03596140444278717
1761466559338052900,6.565052978515625,0.00509264413267374,-0.00012614228762686253,-0.03614196181297302
1761466559348036900,6.575036865234375,0.003100745379924774,0.008495327085256577,-0.026464566588401794
1761466559358021600,6.585021728515625,0.0027590617537498474,0.01333029568195343,-0.011894413270056248
1761466559368005600,6.595005615234375,0.0002526664175093174,0.013319559395313263,0.0023748024832457304
1761466559377990700,6.60499072265625,-0.00562972342595458,0.020373474806547165,0.010362421162426472
1761466559387974700,6.614974609375,-0.008502595126628876,0.023232128471136093,0.008557063527405262
1761466559397959700,6.624959716796875,-0.004446867387741804,0.0168948695063591,0.007208704948425293
1761466559407943700,6.634943603515625,-0.0021560005843639374,0.006605599075555801,-0.006700708530843258
1761466559417928700,6.6449287109375,0.0011548413895070553,0.0022867510560899973,-0.015969308093190193
1761466559427912700,6.65491259765625,0.005639923736453056,0.004661954939365387,-0.014326679520308971
1761466559437897700,6.664897705078125,0.009411758743226528,0.016329528763890266,-0.012162062339484692
1761466559447881700,6.6748818359375,0.010419395752251148,0.02513979561626911,-0.011693079955875874
1761466559457866800,6.68486669921875,0.004642467014491558,0.011905216611921787,-0.017430860549211502
1761466559467850800,6.694850830078125,0.0035246096085757017,-0.00477073946967721,-0.027743954211473465
1761466559477835800,6.704835693359375,0.004070824012160301,-0.005879413336515427,-0.03762854263186455
1761466559487819800,6.71481982421875,0.008363056927919388,-0.0051864804700016975,-0.03605753928422928
1761466559497804800,6.7248046875,0.006577940657734871,-0.006319123320281506,-0.0337296724319458
1761466559507788500,6.73478857421875,0.004766441881656647,0.0014916837681084871,-0.02336890995502472
1761466559517773800,6.74477392578125,0.002008472103625536,0.0061266496777534485,-0.013033449649810791
1761466559527757800,6.7547578125,0.009264683350920677,0.008148783817887306,-0.008499151095747948
1761466559537742800,6.764742919921875,0.013113217428326607,0.005094936583191156,-0.010497321374714375
1761466559547726800,6.774726806640625,0.012882638722658157,0.013265451416373253,-0.01660980097949505
1761466559557712000,6.7847119140625,0.01500011794269085,0.022482119500637054,-0.0158982053399086
1761466559567696000,6.79469580078125,0.019034292548894882,0.022705137729644775,-0.01434292457997799
1761466559577681000,6.804680908203125,0.012883455492556095,0.016736993566155434,-0.015536820515990257
1761466559587665000,6.814664794921875,0.012466825544834137,0.011762946844100952,-0.02041999250650406
1761466559597650000,6.82464990234375,0.012401844374835491,0.021891213953495026,-0.018402915447950363
1761466559607634000,6.834634033203125,0.01700233481824398,0.03230898454785347,-0.00857185572385788
1761466559617618700,6.84461865234375,0.013973522931337357,0.028536353260278702,-0.0075872852467000484
1761466559627602700,6.854602783203125,0.018490329384803772,0.02255944535136223,-0.011241142638027668
1761466559637587700,6.864587646484375,0.01702132821083069,0.022250251844525337,-0.01483454555273056
1761466559647571700,6.87457177734375,0.01611959934234619,0.028248999267816544,-0.018607445061206818
1761466559657556700,6.884556640625,0.012696905061602592,0.02340817265212536,-0.016649756580591202
1761466559667540700,6.894540771484375,0.015581727027893066,0.020865945145487785,-0.010066421702504158
1761466559677525800,6.90452587890625,0.016482409089803696,0.04302983731031418,0.0002796927001327276
1761466559687509800,6.914509765625,0.014803542755544186,0.046294551342725754,0.011720100417733192
1761466559697494800,6.924494873046875,0.011895904317498207,0.032808568328619,0.0030046403408050537
1761466559707478800,6.934478759765625,0.011303892359137535,0.01873381808400154,-0.011925574392080307
1761466559717463800,6.9444638671875,0.01157500222325325,0.01596892438828945,-0.021125730127096176
1761466559727447800,6.95444775390625,0.013083458878099918,0.02039031684398651,-0.020333439111709595
1761466559737432800,6.964432861328125,0.010673297569155693,0.012877275235950947,-0.01867242529988289
1761466559747416800,6.974416748046875,0.0033245286904275417,0.005970618687570095,-0.01371947955340147
1761466559757401600,6.984401611328125,0.0060148537158966064,0.013350769877433777,-0.0019744066521525383
1761466559767385600,6.994385498046875,0.00805675983428955,0.03253457695245743,0.010614355094730854
1761466559777370600,7.00437060546875,0.00572036812081933,0.033374540507793427,0.009973865002393723
1761466559787354600,7.014354736328125,0.009101002477109432,0.019690129905939102,0.003473089076578617
1761466559797339600,7.024339599609375,0.006271660327911377,0.009333361871540546,-0.007469040807336569
1761466559807323600,7.03432373046875,0.0065758186392486095,0.008945906534790993,-0.015294473618268967
1761466559817308700,7.04430859375,0.004079903941601515,0.008388240821659565,-0.016368258744478226
1761466559827292700,7.054292724609375,0.007853079587221146,0.012788237072527409,-0.008770258165895939
1761466559837277700,7.064277587890625,0.007090616039931774,0.022305309772491455,0.004425970837473869
1761466559847261700,7.07426171875,0.0015024538151919842,0.02593180164694786,0.010606898926198483
1761466559857247000,7.0842470703125,0.0007711499929428101,0.01774950698018074,0.005952492356300354
1761466559867230700,7.094230712890625,-0.001124754548072815,0.006555973552167416,-0.00875801034271717
1761466559877215700,7.1042158203125,0.0007035057060420513,0.007218567654490471,-0.022684212774038315
1761466559887200000,7.114199951171875,0.0024285982362926006,0.013198157772421837,-0.025869887322187424
1761466559897184800,7.124184814453125,0.006587657146155834,0.02711530588567257,-0.019853273406624794
1761466559907168800,7.134168701171875,0.00846109539270401,0.03714495524764061,-0.002420746488496661
1761466559917153800,7.14415380859375,0.007478122599422932,0.0430302768945694,0.01508740708231926
1761466559927137800,7.1541376953125,0.0028098339680582285,0.039511483162641525,0.014240782707929611
1761466559937122800,7.164122802734375,0.0028966530226171017,0.02799251303076744,-0.0022612283937633038
1761466559947106800,7.17410693359375,0.00776270404458046,0.013054072856903076,-0.024986516684293747
1761466559957091800,7.184091796875,0.009936641901731491,0.0015508146025240421,-0.03668338432908058
1761466559967075800,7.194075927734375,0.015052187256515026,0.010118221864104271,-0.03162524476647377
1761466559977060900,7.204060791015625,0.01606179215013981,0.02991802617907524,-0.013513350859284401
1761466559987044900,7.214044921875,0.021368922665715218,0.041130755096673965,0.007230810355395079
1761466559997030000,7.22402978515625,0.016723837703466415,0.040281474590301514,0.022551177069544792
1761466560007014000,7.234013916015625,0.012631941586732864,0.04135732352733612,0.02530861459672451
1761466560016998700,7.24399853515625,0.011666545644402504,0.04540000110864639,0.015371827408671379
1761466560026983000,7.25398291015625,0.0126382727175951,0.037125568836927414,0.002481328323483467
1761466560036967700,7.2639677734375,0.00999428704380989,0.030977128073573112,-0.0038436793256551027
1761466560046951700,7.27395166015625,0.017765725031495094,0.0363711416721344,-0.005671406164765358
1761466560056936700,7.283936767578125,0.025125904008746147,0.05306250602006912,0.0019468322861939669
1761466560066920700,7.293920654296875,0.028405070304870605,0.05112263932824135,0.007802323438227177
1761466560076905700,7.30390576171875,0.027260176837444305,0.03669416531920433,0.008408192545175552
1761466560086889700,7.3138896484375,0.02732205018401146,0.025881223380565643,0.0032919947989284992
1761466560096874800,7.323874755859375,0.02895483374595642,0.0300674457103014,-0.00286336918361485
1761466560106858800,7.333858642578125,0.026061050593852997,0.036703433841466904,-0.005373397376388311
1761466560116843800,7.34384375,0.027088765054941177,0.039658479392528534,-0.00712336041033268
1761466560126827800,7.353827880859375,0.024762999266386032,0.04287021607160568,-0.002467617392539978
1761466560136812800,7.363812744140625,0.02107798494398594,0.037821657955646515,-0.0008745144587010145
1761466560146796800,7.373796875,0.021865148097276688,0.03480331972241402,0.004194539040327072
1761466560156781600,7.383781494140625,0.023706190288066864,0.027435151860117912,0.005343693308532238
1761466560166765600,7.393765625,0.024445800110697746,0.02907373011112213,0.011246860027313232
1761466560176750600,7.40375048828125,0.02663385309278965,0.03821050375699997,0.019436880946159363
1761466560186734600,7.413734619140625,0.01903989352285862,0.03510873392224312,0.016091149300336838
1761466560196719900,7.423719970703125,0.01609443686902523,0.025890998542308807,0.01161810290068388
1761466560206703600,7.43370361328125,0.017204057425260544,0.02354823239147663,0.006383924745023251
1761466560216689000,7.44368896484375,0.0162154920399189,0.021770838648080826,0.0059144096449017525
1761466560226673000,7.4536728515625,0.010877399705350399,0.021220963448286057,0.0016869083046913147
1761466560236658000,7.463657958984375,0.017016518861055374,0.014760401099920273,-0.0011802510125562549
1761466560246642000,7.473641845703125,0.017555078491568565,0.015464453026652336,-0.004352873656898737
1761466560256627000,7.483626953125,0.01866641640663147,0.02012258768081665,-0.0021278024651110172
1761466560266610700,7.493610595703125,0.0196420606225729,0.022833192721009254,0.0030224821530282497
1761466560276595700,7.503595703125,0.017495285719633102,0.03277663514018059,0.014784066937863827
1761466560286580000,7.513580078125,0.018980640918016434,0.04542471468448639,0.0199628584086895
1761466560296564700,7.523564697265625,0.013428217731416225,0.044201258569955826,0.020558074116706848
1761466560306548700,7.533548828125,0.013965548947453499,0.03889043256640434,0.01567596010863781
1761466560316533800,7.54353369140625,0.010136189870536327,0.02803538739681244,0.005563405342400074
1761466560326517800,7.553517822265625,0.008865595795214176,0.018466385081410408,0.0007239088881760836
1761466560336502800,7.563502685546875,0.007366769015789032,0.024045974016189575,-0.0037392827216535807
1761466560346486800,7.57348681640625,0.011730873957276344,0.030019201338291168,-0.0024561728350818157
1761466560356471800,7.583471923828125,0.010129248723387718,0.0232345312833786,-0.0012598808389157057
1761466560366455800,7.593455810546875,0.010625223629176617,0.020342284813523293,-0.0031392695382237434
1761466560376440800,7.60344091796875,0.009107221849262714,0.012799680233001709,-0.0035680383443832397
1761466560386424800,7.6134248046875,0.00435614213347435,0.008546878583729267,-0.008927649818360806
1761466560396409900,7.623409912109375,0.005796379875391722,0.010592984966933727,-0.006813899148255587
1761466560406393900,7.633393798828125,0.0023342876229435205,0.012036532163619995,-0.005970211233943701
1761466560416378600,7.643378662109375,0.0029750443063676357,0.009905470535159111,-0.007451195269823074
1761466560426363000,7.65336279296875,0.002911962103098631,0.0016842482145875692,-0.013853437267243862
1761466560436347600,7.66334765625,0.004500537645071745,-0.0033928020857274532,-0.01549421064555645
1761466560446331600,7.67333154296875,0.0034587508998811245,-0.006687250919640064,-0.020187485963106155
1761466560456316700,7.683316650390625,0.00762739684432745,-0.009845227934420109,-0.02388634905219078
1761466560466300700,7.69330078125,0.004279039800167084,-0.020960107445716858,-0.031528837978839874
1761466560476285700,7.70328564453125,0.0030574477277696133,-0.030029769986867905,-0.031835634261369705
1761466560486269700,7.713269775390625,0.0015820902772247791,-0.03143569454550743,-0.029708562418818474
1761466560496254700,7.723254638671875,0.0005602356977760792,-0.03083435259759426,-0.028226779773831367
1761466560506238700,7.73323876953125,0.0025222296826541424,-0.03318697586655617,-0.023820048198103905
1761466560516223700,7.7432236328125,-0.002744171768426895,-0.03699077293276787,-0.029194839298725128
1761466560526207700,7.753207763671875,0.0020604203455150127,-0.03331531956791878,-0.03529907017946243
1761466560536192800,7.76319287109375,-0.001744437962770462,-0.036065831780433655,-0.045368749648332596
1761466560546176800,7.7731767578125,-0.001280111726373434,-0.036821674555540085,-0.04254499450325966
1761466560556161500,7.78316162109375,-0.00376856978982687,-0.028062541037797928,-0.03265215456485748
1761466560566145500,7.7931455078125,-0.0035298378206789494,-0.016447369009256363,-0.0238027386367321
1761466560576130600,7.803130615234375,-0.0013905204832553864,-0.012191105633974075,-0.022389668971300125
1761466560586114600,7.813114501953125,0.007925953716039658,-0.005983930081129074,-0.021438365802168846
1761466560596099600,7.823099609375,0.007471884600818157,0.000989024294540286,-0.02295929752290249
1761466560606083600,7.83308349609375,0.006579358130693436,0.006838250905275345,-0.016065191477537155
1761466560616068900,7.84306884765625,0.013389860279858112,0.02041105180978775,-0.00677155889570713
1761466560626052600,7.853052490234375,0.013244038447737694,0.03053290955722332,0.009584777057170868
1761466560636038000,7.863037841796875,0.010078072547912598,0.044451385736465454,0.018589723855257034
1761466560646022000,7.87302197265625,0.007264021784067154,0.04005230590701103,0.019862458109855652
1761466560656007000,7.8830068359375,0.00513375923037529,0.027627861127257347,0.010545123368501663
1761466560665991000,7.892990966796875,0.0035815055016428232,0.02368771843612194,-0.0014316454762592912
1761466560675975700,7.9029755859375,0.007668925449252129,0.028605777770280838,-0.006048235110938549
1761466560685960000,7.9129599609375,0.01757434755563736,0.03103337250649929,-0.003015435766428709
1761466560695944000,7.92294384765625,0.02330334112048149,0.03241555765271187,-0.004900687374174595
1761466560705928700,7.9329287109375,0.028554275631904602,0.030198359861969948,0.0007601338438689709
1761466560715912700,7.94291259765625,0.025125723332166672,0.02474953420460224,-0.004029029048979282
1761466560725897700,7.952897705078125,0.02482719160616398,0.020988140255212784,-0.008169984444975853
1761466560735881700,7.9628818359375,0.022896932438015938,0.015126789920032024,-0.013672607019543648
1761466560745866800,7.97286669921875,0.0199928916990757,0.014081725850701332,-0.013592176139354706
1761466560755850800,7.982850830078125,0.020464271306991577,0.009702158160507679,-0.013871543109416962
1761466560765835800,7.992835693359375,0.020657317712903023,0.008187660947442055,-0.006348115857690573
1761466560775819800,8.00281982421875,0.020611509680747986,0.014993369579315186,0.007541600149124861
1761466560785804800,8.0128046875,0.021119631826877594,0.015410097315907478,0.021061409264802933
1761466560795788800,8.022788818359375,0.019329987466335297,0.026942916214466095,0.03633943200111389
1761466560805773800,8.03277392578125,0.01965595968067646,0.03870024159550667,0.040330711752176285
1761466560815757800,8.0427578125,0.01487025897949934,0.039896268397569656,0.03823746740818024
1761466560825742800,8.052742919921876,0.01287933997809887,0.029402872547507286,0.025875341147184372
1761466560835726800,8.062726806640624,0.012551505118608475,0.01756884902715683,0.016861073672771454
1761466560845711600,8.072711669921874,0.011130975559353828,0.022792372852563858,0.013697237707674503
1761466560855695600,8.082695556640624,0.009699258953332901,0.031160293146967888,0.016457872465252876
1761466560865680600,8.0926806640625,0.011821292340755463,0.026479020714759827,0.01743471436202526
1761466560875664600,8.10266455078125,0.004666443914175034,0.023533830419182777,0.017349226400256157
1761466560885649700,8.112649658203125,0.0014233659021556377,0.017224784940481186,0.015459980815649033
1761466560895633700,8.122633544921875,-0.0007961122319102287,0.014121402986347675,0.0015428345650434494
1761466560905618700,8.13261865234375,-0.0010887072421610355,0.007030496373772621,-0.004175241570919752
1761466560915602700,8.142602783203126,0.004681563936173916,0.0031982071232050657,-0.008718594908714294
1761466560925587700,8.152587646484376,-0.00011513242498040199,0.0009068537037819624,-0.012540232390165329
1761466560935571700,8.16257177734375,-0.00011140434071421623,0.005254464223980904,-0.007728699129074812
1761466560945556700,8.172556640625,-0.0028301142156124115,0.006703417282551527,-0.004825047217309475
1761466560955540700,8.182540771484375,-0.0064035439863801,-0.0012863317970186472,0.0005947521422058344
1761466560965525500,8.192525390625,-0.006930034141987562,-0.006389767862856388,-0.006294041872024536
1761466560975509800,8.202509765625,-0.01065792702138424,-0.005702139809727669,-0.010062415152788162
1761466560985494500,8.21249462890625,-0.012711454182863235,-0.0030548691283911467,-0.011003321968019009
1761466560995478500,8.222478515625,-0.009118052199482918,-0.009149779565632343,-0.01395996380597353
1761466561005463800,8.2324638671875,-0.010406257584691048,-0.015522811561822891,-0.01613681949675083
1761466561015447600,8.242447509765626,-0.008028056472539902,-0.013597879558801651,-0.017016727477312088
1761466561025432800,8.252432861328124,-0.0051708524115383625,-0.012780160643160343,-0.01584601402282715
1761466561035416800,8.262416748046874,-0.008275298401713371,-0.022079652175307274,-0.019119836390018463
1761466561045401900,8.27240185546875,-0.008540911599993706,-0.030234068632125854,-0.025251496583223343
1761466561055385900,8.2823857421875,-0.007418920751661062,-0.02432131953537464,-0.027590550482273102
1761466561065371000,8.292370849609375,-0.008882507681846619,-0.022034702822566032,-0.027361787855625153
1761466561075355000,8.30235498046875,-0.011872440576553345,-0.023076796904206276,-0.017102757468819618
1761466561085340000,8.31233984375,-0.010976139456033707,-0.022679170593619347,-0.016957350075244904
1761466561095324000,8.322323974609375,-0.00954841822385788,-0.019176848232746124,-0.014222284778952599
1761466561105308700,8.33230859375,-0.011752365157008171,-0.017020191997289658,-0.014763971790671349
1761466561115292700,8.342292724609376,-0.01132306270301342,-0.016454804688692093,-0.00917745940387249
1761466561125277700,8.352277587890624,-0.011402925476431847,-0.01576215960085392,-0.0038583260029554367
1761466561135261700,8.36226171875,-0.01664961874485016,-0.00926697626709938,-0.006080467253923416
1761466561145246700,8.372246826171875,-0.013491418212652206,-0.007942331954836845,-0.012049143202602863
1761466561155230700,8.382230712890625,-0.012228813022375107,-0.0052751763723790646,-0.01643962971866131
1761466561165215700,8.3922158203125,-0.01290676835924387,-0.008193708956241608,-0.017738988623023033
1761466561175199700,8.40219970703125,-0.015858881175518036,-0.01358767505735159,-0.01783992163836956
1761466561185184800,8.412184814453125,-0.01996942050755024,-0.007818533107638359,-0.011556453071534634
1761466561195168800,8.422168701171875,-0.020618433132767677,0.0013174409978091717,-0.005923600867390633
1761466561205153800,8.43215380859375,-0.0199088454246521,0.0036821782123297453,-0.012352212332189083
1761466561215137800,8.4421376953125,-0.018751170486211777,0.00007066549733281136,-0.0174870528280735
1761466561225122800,8.452122802734374,-0.013368353247642517,-0.007540427148342133,-0.0157402865588665
1761466561235106800,8.46210693359375,-0.012935589998960495,-0.009771623648703098,-0.007637352682650089
1761466561245091600,8.472091552734375,-0.007520293351262808,-0.007669022306799889,0.0004349553491920233
1761466561255075300,8.482075439453125,-0.008239878341555595,0.004593502730131149,0.015718303620815277
1761466561265060400,8.492060302734375,-0.007118164096027613,0.0457342229783535,0.06130709871649742
1761466561275044400,8.50204443359375,-0.010978151112794876,0.04267025738954544,0.03716687113046646
1761466561285029400,8.512029296875,-0.0044616274535655975,0.012075554579496384,0.009548830799758434
1761466561295013400,8.522013427734375,-0.008197776041924953,0.0030679451301693916,-0.012997490353882313
1761466561304998400,8.531998291015626,-0.004044669680297375,-0.000761363422498107,-0.03853801265358925
1761466561314982400,8.541982421875,0.003756527556106448,-0.011915480718016624,-0.04205365106463432
1761466561324967400,8.551967529296874,0.007938077673316002,-0.014298228546977043,-0.03798886388540268
1761466561334951400,8.561951416015624,0.014746980741620064,-0.006992378272116184,-0.030367430299520493
1761466561344936400,8.5719365234375,0.017309654504060745,-0.00690984632819891,-0.027321036905050278
1761466561354920400,8.58192041015625,0.014324251562356949,-0.011697943322360516,-0.02709813043475151
1761466561364905500,8.591905517578125,0.010811164043843746,-0.008796089328825474,-0.03518082946538925
1761466561374889500,8.601889404296875,0.007993273437023163,-0.00336457253433764,-0.04082220420241356
1761466561384874500,8.61187451171875,0.009182778187096119,-0.006021381355822086,-0.040845636278390884
1761466561394858200,8.621858154296875,0.012544220313429832,-0.012655049562454224,-0.043733302503824234
