time,seconds_elapsed,z,y,x
1761466510200289800,0.124289794921875,0.011445889249444008,-0.0003944011405110359,0.03644995018839836
1761466510210273800,0.134273681640625,0.017376748844981194,0.007107190787792206,0.0455198772251606
1761466510220258800,0.1442587890625,0.013437495566904545,0.015761882066726685,0.05041078105568886
1761466510230242800,0.154242919921875,0.010474728420376778,0.030061990022659302,0.05211254209280014
1761466510240227600,0.1642275390625,0.00728191714733839,0.03244185820221901,0.04960409924387932
1761466510250211800,0.1742119140625,0.0075426409021019936,0.027060940861701965,0.03817487508058548
1761466510260196600,0.184196533203125,0.0035564613062888384,0.012534881010651588,0.0312805101275444
1761466510270180600,0.1941806640625,0.0030848155729472637,0.009798748418688774,0.035327717661857605
1761466510280165600,0.20416552734375,0.000057173892855644226,0.009024434722959995,0.04678940400481224
1761466510290149600,0.214149658203125,-0.003791892435401678,0.02305023930966854,0.0628887414932251
1761466510300134700,0.224134765625,-0.002057093195617199,0.03467172011733055,0.07938569784164429
1761466510310118700,0.23411865234375,-0.005882723722606897,0.045231420546770096,0.08365500718355179
1761466510320103700,0.244103759765625,-0.008126419968903065,0.0412164144217968,0.08275140821933746
1761466510330087700,0.254087646484375,-0.007989533245563507,0.03688345104455948,0.07453608512878418
1761466510340072700,0.26407275390625,-0.005294663831591606,0.036086082458496094,0.07345137745141983
1761466510350056700,0.274056640625,0.0018471349030733109,0.04374613240361214,0.0783928781747818
1761466510360041700,0.284041748046875,0.006989183370023966,0.04845697805285454,0.08920397609472275
1761466510370025700,0.294025634765625,0.014303289353847504,0.044886741787195206,0.09251721948385239
1761466510380010500,0.304010498046875,0.01910203881561756,0.03659392520785332,0.09259924292564392
1761466510389994500,0.313994384765625,0.021773988381028175,0.033148329704999924,0.08601430803537369
1761466510399979500,0.3239794921875,0.01783148944377899,0.026099486276507378,0.07623198628425598
1761466510409963500,0.333963623046875,0.015678854659199715,0.01401512697339058,0.0695868656039238
1761466510419948800,0.34394873046875,0.013912320137023926,0.011129865422844887,0.0695839375257492
1761466510429932500,0.3539326171875,0.015883859246969223,0.014837518334388733,0.0715181902050972
1761466510439917800,0.363917724609375,0.01313910074532032,0.01432698592543602,0.07454833388328552
1761466510449901800,0.37390185546875,0.015980694442987442,0.009773514233529568,0.07518456876277924
1761466510459886800,0.383886962890625,0.017700623720884323,0.0093434052541852,0.07848794758319855
1761466510469870800,0.393870849609375,0.024469580501317978,0.02375643327832222,0.07815425843000412
1761466510479855900,0.40385595703125,0.023778334259986877,0.027664553374052048,0.07825920730829239
1761466510489839900,0.41383984375,0.02114047110080719,0.022420257329940796,0.07122845947742462
1761466510499824600,0.42382470703125,0.022430147975683212,0.008440306410193443,0.06181497126817703
1761466510509809000,0.433808837890625,0.019873246550559998,0.000738711329177022,0.049859244376420975
1761466510519793700,0.443793701171875,0.017556846141815186,-0.00486433319747448,0.04003164917230606
1761466510529777700,0.453777587890625,0.015859082341194153,-0.007639080751687288,0.03911925107240677
1761466510539762700,0.4637626953125,0.0137151088565588,-0.011173537001013756,0.03835543990135193
1761466510549746700,0.47374658203125,0.010315584018826485,-0.005950545892119408,0.0350981280207634
1761466510559731700,0.483731689453125,0.011071406304836273,0.0012681973166763783,0.03742307052016258
1761466510569715700,0.4937158203125,0.008781620301306248,0.003482882399111986,0.0354699082672596
1761466510579700700,0.50370068359375,0.014168163761496544,-0.002249081153422594,0.037276335060596466
1761466510589684700,0.513684814453125,0.011955609545111656,-0.0008996573742479086,0.04209798946976662
1761466510599669800,0.523669677734375,0.011249588802456856,0.007209422066807747,0.045756638050079346
1761466510609653800,0.53365380859375,0.007354449015110731,0.01192215271294117,0.04567034915089607
1761466510619638800,0.543638671875,0.003901111427694559,0.012732306495308876,0.04588979110121727
1761466510629622800,0.553622802734375,0.004457978531718254,0.011239871382713318,0.04937826469540596
1761466510639607600,0.563607666015625,-0.002957457210868597,0.012873683124780655,0.042870838195085526
1761466510649591800,0.573591796875,-0.004432049114257097,0.013574892655014992,0.043707072734832764
1761466510659576600,0.58357666015625,-0.0028124176897108555,0.01121133379638195,0.043719056993722916
1761466510669560600,0.593560546875,-0.0010062619112432003,0.012863826006650925,0.04537447541952133
1761466510679544600,0.603544677734375,-0.0031222738325595856,0.01210984867066145,0.044035982340574265
1761466510689529600,0.613529541015625,-0.002469799481332302,0.013092554174363613,0.04076242446899414
1761466510699513600,0.623513671875,0.00011393288150429726,0.00954450760036707,0.039974644780159
1761466510709498600,0.63349853515625,-0.0031321942806243896,0.021600637584924698,0.04121620953083038
1761466510719482600,0.643482666015625,0.0019593145698308945,0.02991366572678089,0.04463358223438263
1761466510729467600,0.653467529296875,-0.0002457830123603344,0.03548872470855713,0.044536907225847244
1761466510739451600,0.66345166015625,-0.0026743803173303604,0.026832662522792816,0.039965059608221054
1761466510749436700,0.673436767578125,-0.002653074450790882,0.015617825090885162,0.033230990171432495
1761466510759420700,0.683420654296875,-0.004004193004220724,0.00599654670804739,0.02682584337890148
1761466510769405700,0.69340576171875,-0.0064662848599255085,0.004837272688746452,0.025807982310652733
1761466510779389700,0.7033896484375,-0.008329439908266068,0.003275400958955288,0.027581626549363136
1761466510789374700,0.713374755859375,-0.003770639654248953,0.0030711363069713116,0.02911321073770523
1761466510799358700,0.723358642578125,-0.007543986663222313,0.009234781377017498,0.03560146689414978
1761466510809343700,0.73334375,-0.011696920730173588,0.013247366063296795,0.03758418932557106
1761466510819327500,0.743327392578125,-0.017697598785161972,0.0107194809243083,0.03169913589954376
1761466510829312800,0.753312744140625,-0.020966894924640656,-0.004463199991732836,0.019251523539423943
1761466510839296800,0.763296875,-0.019373713061213493,-0.01705545373260975,0.004404406063258648
1761466510849281800,0.77328173828125,-0.02038278616964817,-0.02890918403863907,-0.010235522873699665
1761466510859265800,0.783265869140625,-0.020154614001512527,-0.045586954802274704,-0.011341535486280918
1761466510869250800,0.793250732421875,-0.019940759986639023,-0.05399402230978012,-0.0025168845895677805
1761466510879234800,0.80323486328125,-0.014665072783827782,-0.05100564658641815,0.010738993063569069
1761466510889219800,0.8132197265625,-0.013965461403131485,-0.038506630808115005,0.020702412351965904
1761466510899203800,0.823203857421875,-0.009886066429316998,-0.03201526403427124,0.026573101058602333
1761466510909188900,0.83318896484375,-0.012585712596774101,-0.03297054022550583,0.02733902633190155
1761466510919172900,0.8431728515625,-0.01533544436097145,-0.03948381170630455,0.023309923708438873
1761466510929157600,0.85315771484375,-0.020415956154465675,-0.041685447096824646,0.023196740075945854
1761466510939141600,0.8631416015625,-0.02443670853972435,-0.03179178014397621,0.023087278008461
1761466510949126700,0.873126708984375,-0.01962890475988388,-0.026646021753549576,0.026675887405872345
1761466510959110700,0.883110595703125,-0.017779454588890076,-0.023640166968107224,0.025073479861021042
1761466510969095700,0.893095703125,-0.015405778773128986,-0.025203710421919823,0.02632410079240799
1761466510979079700,0.90307958984375,-0.010181427001953125,-0.027104109525680542,0.021172471344470978
1761466510989064700,0.913064697265625,-0.010044807568192482,-0.026270806789398193,0.01847335696220398
1761466510999048700,0.923048583984375,-0.014358406886458397,-0.029988549649715424,0.018665898591279984
1761466511009033700,0.93303369140625,-0.013428961858153343,-0.04405590146780014,0.007889948785305023
1761466511019017700,0.943017822265625,-0.01087086834013462,-0.057818811386823654,0.006361288949847221
1761466511029002800,0.953002685546875,-0.010765407234430313,-0.06150302663445473,0.004687492735683918
1761466511038986800,0.96298681640625,-0.011430183425545692,-0.06533032655715942,0.005498437210917473
1761466511048971800,0.9729716796875,-0.009455449879169464,-0.06329726427793503,0.005861425772309303
1761466511058955800,0.982955810546875,-0.012185463681817055,-0.05059018358588219,0.009390100836753845
1761466511068940500,0.9929404296875,-0.01684679463505745,-0.03659314289689064,0.013605618849396706
1761466511078924500,1.002924560546875,-0.012230023741722107,-0.02582307904958725,0.011788547039031982
1761466511088909600,1.01290966796875,-0.013671061024069786,-0.026938144117593765,0.006705372128635645
1761466511098893600,1.0228935546875,-0.012872911989688873,-0.02649632655084133,0.0014110077172517776
1761466511108878600,1.032878662109375,-0.006329475436359644,-0.03313884139060974,-0.004606657661497593
1761466511118862600,1.042862548828125,-0.003856926690787077,-0.028660161420702934,-0.0031477888114750385
1761466511128847600,1.05284765625,-0.0055086188949644566,-0.018744681030511856,-0.0032215584069490433
1761466511138831600,1.06283154296875,-0.005515190772712231,-0.014331264421343803,-0.004751015454530716
1761466511148817000,1.07281689453125,-0.00560307502746582,-0.017094027251005173,-0.0037179754581302404
1761466511158800600,1.082800537109375,-0.006629733834415674,-0.012983758933842182,-0.004340080078691244
1761466511168784600,1.09278466796875,-0.003111164551228285,-0.00510453013703227,-0.002482791431248188
1761466511178770000,1.10277001953125,0.0016853781417012215,0.005791288800537586,-0.006106826942414045
1761466511188753700,1.112753662109375,0.005117394030094147,0.015063084661960602,-0.0044926851987838745
1761466511198738200,1.12273828125,0.00833809096366167,0.016675857827067375,-0.009143887087702751
1761466511208722200,1.13272216796875,0.00936181005090475,0.01146964356303215,-0.010471473447978497
1761466511218707200,1.142707275390625,0.008397669531404972,0.006854947656393051,-0.01477807853370905
1761466511228691200,1.152691162109375,0.006538516841828823,-0.00018884730525314808,-0.0178242027759552
1761466511238676000,1.162676025390625,0.004124833736568689,-0.0054286085069179535,-0.020132897421717644
1761466511248660000,1.172659912109375,0.004920586012303829,-0.0072390250861644745,-0.02311963215470314
1761466511258645000,1.18264501953125,0.006065479014068842,-0.010423366911709309,-0.026438729837536812
1761466511268629000,1.19262890625,0.00787562970072031,-0.008385783061385155,-0.023152656853199005
1761466511278614000,1.202614013671875,0.010914715938270092,-0.008381844498217106,-0.024317774921655655
1761466511288598000,1.212597900390625,0.00798843428492546,-0.01256220880895853,-0.027125278487801552
1761466511298583000,1.2225830078125,0.01223540399223566,-0.011684931814670563,-0.030598849058151245
1761466511308567000,1.232567138671875,0.009798877872526646,-0.005344210658222437,-0.02436492219567299
1761466511318552000,1.242552001953125,0.010341767221689224,-0.002319960854947567,-0.023182732984423637
1761466511328536000,1.2525361328125,0.010205146856606007,-0.009273208677768707,-0.02513163536787033
1761466511338521300,1.262521240234375,0.01361352950334549,-0.015126526355743408,-0.028415590524673462
1761466511348505000,1.272505126953125,0.01214106846600771,-0.013827436603605747,-0.032471321523189545
1761466511358490000,1.282489990234375,0.015356475487351418,-0.005532704293727875,-0.0343877375125885
1761466511368474400,1.292474365234375,0.013526350259780884,0.006341798231005669,-0.02981509082019329
1761466511378459100,1.302459228515625,0.013545223511755466,0.006392577663064003,-0.02508103847503662
1761466511388443100,1.312443115234375,0.00844766665250063,-0.004913605749607086,-0.024329228326678276
1761466511398428200,1.32242822265625,0.007854994386434555,-0.005598554853349924,-0.02393721416592598
1761466511408412200,1.332412109375,0.006793458014726639,0.0006814454682171345,-0.03303191065788269
1761466511418397200,1.342397216796875,0.004133791662752628,-0.006817256566137075,-0.045604679733514786
1761466511428381200,1.352381103515625,0.0024354939814656973,-0.017971107736229897,-0.05758916959166527
1761466511438366200,1.3623662109375,0.007284484338015318,-0.01690925844013691,-0.06226196885108948
1761466511448350200,1.37235009765625,0.003194135148078203,-0.01901501975953579,-0.05824911594390869
1761466511458335200,1.382335205078125,0.004395161289721727,-0.021964728832244873,-0.051112379878759384
1761466511468319200,1.3923193359375,0.009603505954146385,-0.025223905220627785,-0.04994352161884308
1761466511478304300,1.40230419921875,0.009654121473431587,-0.016983838751912117,-0.04643453285098076
1761466511488288300,1.412288330078125,0.007731852121651173,-0.005527452565729618,-0.0482444167137146
1761466511498273000,1.42227294921875,0.0034357935655862093,-0.0022978917695581913,-0.048821236938238144
1761466511508257000,1.432257080078125,0.005140749271959066,-0.009805075824260712,-0.051309697329998016
1761466511518242000,1.442241943359375,0.004611366894096136,-0.0029934467747807503,-0.050032999366521835
1761466511528226000,1.45222607421875,0.0007713548839092255,0.005820285528898239,-0.04164271056652069
1761466511538211000,1.462211181640625,0.0031719880644232035,0.012910144403576851,-0.02676788717508316
1761466511548195000,1.472195068359375,0.005532347597181797,0.004392555914819241,-0.021142758429050446
1761466511558180000,1.48218017578125,0.007735521532595158,-0.007160228677093983,-0.011803055182099342
1761466511568164000,1.4921640625,0.00904819369316101,-0.010809292085468769,-0.008436553180217743
1761466511578149000,1.502149169921875,0.00887610949575901,-0.019275492057204247,-0.005836239084601402
1761466511588133000,1.512133056640625,0.008914458565413952,-0.02146647498011589,-0.0005916759837418795
1761466511598118100,1.5221181640625,0.012099223211407661,-0.01960672065615654,-0.0026798753533512354
1761466511608102100,1.53210205078125,0.007629373576492071,-0.01834091916680336,-0.0036290260031819344
1761466511618086100,1.542086181640625,0.013210746459662914,-0.016043774783611298,-0.0031158109195530415
1761466511628071200,1.5520712890625,0.013416076079010963,-0.01925128512084484,-0.0038955844938755035
1761466511638055200,1.56205517578125,0.012949550524353981,-0.01817804016172886,-0.004644196014851332
1761466511648040000,1.5720400390625,0.010996920987963676,-0.012826417572796345,-0.007513219490647316
1761466511658024200,1.582024169921875,0.006213197950273752,-0.013239152729511261,-0.006952641997486353
1761466511668009000,1.592009033203125,0.0032648122869431973,-0.014765942469239235,-0.006626138463616371
1761466511677993000,1.601992919921875,0.0078061604872345924,-0.014888000674545765,-0.006606400012969971
1761466511687978000,1.61197802734375,0.005780293606221676,-0.023649536073207855,-0.011410476639866829
1761466511697962000,1.6219619140625,0.004825387615710497,-0.030503174290060997,-0.014654474332928658
1761466511707947000,1.631947021484375,0.003421901725232601,-0.03136444091796875,-0.015943976119160652
1761466511717931000,1.641930908203125,0.0025355354882776737,-0.030406957492232323,-0.01719515770673752
1761466511727916300,1.651916259765625,-0.0012980848550796509,-0.020853398367762566,-0.014832401648163795
1761466511737900000,1.661900146484375,-0.002764360513538122,-0.008212447166442871,-0.015566633082926273
1761466511747885300,1.67188525390625,-0.00335318548604846,-0.005503213964402676,-0.019263898953795433
1761466511757869300,1.681869384765625,-0.001298840157687664,-0.007838252931833267,-0.02256648987531662
1761466511767854300,1.691854248046875,0.001376837957650423,-0.0031417685095220804,-0.016958672553300858
1761466511777838300,1.70183837890625,0.0010942593216896057,0.0034354613162577152,-0.014233197085559368
1761466511787823000,1.711822998046875,0.0012279502116143703,-0.0022226907312870026,-0.013565276749432087
1761466511797807000,1.72180712890625,0.0026239624712616205,0.0009933635592460632,-0.014878750778734684
1761466511807792000,1.731792236328125,0.0009269961155951023,0.002097776159644127,-0.008498615585267544
1761466511817776000,1.741776123046875,0.0021953959949314594,0.0011266707442700863,-0.005736087448894978
1761466511827761200,1.75176123046875,0.003395682666450739,0.006610119249671698,-0.0031344452872872353
1761466511837745200,1.7617451171875,0.004085941705852747,0.013040094636380672,0.0009761289693415165
1761466511847730200,1.771730224609375,0.00038468046113848686,0.011537538841366768,0.0030898801051080227
1761466511857714200,1.781714111328125,0.005119181238114834,0.003138544037938118,-0.00014268234372138977
1761466511867699200,1.79169921875,0.004263507667928934,-0.0008737745229154825,-0.0010231232736259699
1761466511877683200,1.80168310546875,0.00478749442845583,-0.0013663028366863728,0.00021474109962582588
1761466511887668200,1.811668212890625,0.007166230119764805,-0.009023423306643963,-0.0011543899308890104
1761466511897652200,1.82165234375,0.005645119119435549,-0.0035053302999585867,0.0017348651308566332
1761466511907637000,1.831636962890625,0.006185740698128939,-0.004217192996293306,0.00017025787383317947
1761466511917621200,1.841621337890625,0.006112763192504644,-0.0075535280629992485,-0.007592607289552689
1761466511927606000,1.85160595703125,0.0093503687530756,-0.006184929516166449,-0.0066059064120054245
1761466511937590000,1.861590087890625,0.008634870871901512,0.0020066380966454744,-0.007295655086636543
1761466511947575000,1.871574951171875,0.007870810106396675,-0.004950869828462601,-0.006752369925379753
1761466511957559000,1.88155908203125,0.007443045731633902,-0.010075582191348076,-0.003944867756217718
1761466511967544000,1.8915439453125,0.007841454818844795,-0.011050566099584103,0.0010363087058067322
1761466511977528000,1.901528076171875,0.0031836084090173244,0.0012528817169368267,0.004651050083339214
1761466511987513000,1.91151318359375,-0.003260708414018154,0.005814078263938427,0.00026748725213110447
1761466511997497000,1.9214970703125,0.007431474514305592,-0.0011875326745212078,-0.014492054469883442
1761466512007482000,1.931482177734375,0.006828801240772009,-0.0068661910481750965,-0.025192102417349815
1761466512017466000,1.941466064453125,0.009993288666009903,0.0003781234845519066,-0.026667224243283272
1761466512027451100,1.951451171875,0.009293409995734692,-0.0014884863048791885,-0.019332878291606903
1761466512037435100,1.96143505859375,0.012146111577749252,-0.003783569671213627,-0.01602976582944393
1761466512047420000,1.971419921875,0.011254485696554184,-0.0020413296297192574,-0.013360478915274143
1761466512057404200,1.981404052734375,0.008564159274101257,0.00933995470404625,-0.00978811550885439
1761466512067389000,1.991388916015625,0.008482666686177254,0.021366257220506668,-0.008415788412094116
1761466512077373000,2.001373046875,0.003778013400733471,0.02529258280992508,-0.004453541245311499
1761466512087357000,2.01135693359375,-0.00452998373657465,0.013606632128357887,-0.008082364685833454
1761466512097342000,2.021342041015625,-0.001556264702230692,0.015102754347026348,-0.00641228910535574
1761466512107326000,2.031325927734375,0.006227888632565737,0.029789552092552185,0.004804146010428667
1761466512117311200,2.041311279296875,0.004574641585350037,0.03918519616127014,0.011740347370505333
1761466512127295000,2.051294921875,0.011119626462459564,0.03135363757610321,0.015433618798851967
1761466512137280300,2.0612802734375,0.012873796746134758,0.011383863165974617,0.003198807593435049
1761466512147264300,2.07126416015625,0.015605401247739792,-0.005688064731657505,-0.008469300344586372
1761466512157249300,2.081249267578125,0.009482933208346367,-0.004072235431522131,-0.017911558970808983
1761466512167233300,2.0912333984375,0.006080745253711939,-0.003936147782951593,-0.016775187104940414
1761466512177218300,2.10121826171875,0.005027232691645622,-0.002820058725774288,-0.014889130368828773
1761466512187202300,2.111202392578125,0.01106035802513361,0.0013280811253935099,-0.008638424798846245
1761466512197191000,2.12119091796875,0.009954467415809631,0.011907205916941166,0.0012363141868263483
1761466512207175000,2.1311748046875,0.002484566532075405,0.008372126147150993,0.003942085430026054
1761466512217160000,2.141159912109375,0.0003389599733054638,0.001521414378657937,0.006626551039516926
1761466512227144000,2.15114404296875,-0.002144704107195139,0.004884188063442707,0.004220118746161461
1761466512237129000,2.16112890625,-0.0006972318515181541,0.007517533376812935,-0.0010404264321550727
1761466512247113000,2.171113037109375,0.002720402553677559,0.00838971883058548,-0.010182259604334831
1761466512257098200,2.18109814453125,0.00917111150920391,0.006495146080851555,-0.01505318097770214
1761466512267082000,2.19108203125,0.010676862671971321,0.007004874758422375,-0.019339805468916893
1761466512277067300,2.2010673828125,0.006432815454900265,0.010172480717301369,-0.02258221060037613
1761466512287051300,2.21105126953125,0.0003727921284735203,0.014552048407495022,-0.018217023462057114
1761466512297036300,2.221036376953125,-0.004279724322259426,0.010265992023050785,-0.017584258690476418
1761466512307020300,2.231020263671875,-0.00857247319072485,0.01068677194416523,-0.021422939375042915
1761466512317005000,2.241005126953125,-0.0075266421772539616,0.009638208895921707,-0.027305586263537407
1761466512326989000,2.250989013671875,-0.00882892869412899,0.005136934109032154,-0.03026808612048626
1761466512336974000,2.26097412109375,-0.007449822966009378,0.0031288943719118834,-0.035711582750082016
1761466512346958000,2.2709580078125,-0.003066792618483305,0.0033632523845881224,-0.0352679006755352
1761466512356943000,2.280943115234375,-0.005093295592814684,0.00393369747325778,-0.037043165415525436
1761466512366927000,2.290927001953125,-0.004364388529211283,0.002699588891118765,-0.038833875209093094
1761466512376912100,2.300912109375,-0.006289603654295206,0.004730535671114922,-0.035716649144887924
1761466512386896100,2.310896240234375,-0.007688296493142843,0.010669384151697159,-0.030235596001148224
1761466512396881200,2.320881103515625,-0.008309818804264069,0.009441392496228218,-0.02605203352868557
1761466512406865200,2.330865234375,-0.009865637868642807,0.009674686938524246,-0.024047473445534706
1761466512416850200,2.34085009765625,-0.008444109000265598,0.006480308249592781,-0.02254040166735649
1761466512426834200,2.350834228515625,-0.005244852975010872,0.0029902358073741198,-0.02180696651339531
1761466512436819200,2.360819091796875,-0.003979801200330257,0.006679716054350138,-0.018587997183203697
1761466512446803200,2.37080322265625,0.001330276019871235,0.008839007467031479,-0.018495852127671242
1761466512456788000,2.3807880859375,0.00018639443442225456,0.006862076930701733,-0.016779426485300064
1761466512466772000,2.39077197265625,0.00003965431824326515,0.0010691697243601084,-0.016170362010598183
1761466512476757000,2.400757080078125,0.0005693770945072174,0.0008828549180179834,-0.019308652728796005
1761466512486741000,2.410740966796875,-0.0017848573625087738,0.005017945542931557,-0.020450349897146225
1761466512496726000,2.42072607421875,0.0000033425167202949524,0.010707464069128036,-0.01721726357936859
1761466512506710000,2.4307099609375,0.0010089520364999771,0.01729745604097843,-0.012381763197481632
1761466512516695000,2.440695068359375,-0.00021539675071835518,0.013852974399924278,-0.013913621194660664
1761466512526679000,2.450678955078125,-0.005193110555410385,0.005232055205851793,-0.007828298956155777
1761466512536664000,2.4606640625,-0.012680202722549438,0.008215577341616154,-0.009985989890992641
1761466512546648000,2.47064794921875,-0.012774745002388954,0.005893033929169178,-0.007432551123201847
1761466512556633000,2.480633056640625,-0.010647645220160484,0.01103875320404768,-0.015514969825744629
1761466512566617000,2.4906171875,-0.00917251966893673,0.008518070913851261,-0.019961651414632797
1761466512576601900,2.500601806640625,-0.00796797126531601,0.006959589198231697,-0.02340618148446083
1761466512586586000,2.510586181640625,-0.005449420306831598,-0.0033164839260280132,-0.02695484459400177
1761466512596571000,2.52057080078125,-0.005457416642457247,-0.004813371691852808,-0.02565736509859562
1761466512606555000,2.530554931640625,-0.004962069448083639,-0.0014633815735578537,-0.021237315610051155
1761466512616539000,2.540538818359375,-0.005618753377348185,0.004734530113637447,-0.014622814022004604
1761466512626524000,2.55052392578125,-0.011585032567381859,0.01313813403248787,-0.009429650381207466
1761466512636508000,2.5605078125,-0.00657673692330718,0.01459034439176321,-0.012799877673387527
1761466512646493200,2.5704931640625,-0.006847314070910215,0.01043448131531477,-0.018605034798383713
1761466512656477000,2.580476806640625,-0.005945694167166948,0.006595095153898001,-0.02259286493062973
1761466512666462200,2.590462158203125,-0.0027411128394305706,0.0060936217196285725,-0.018758714199066162
1761466512676446200,2.6004462890625,-0.0003417772240936756,0.01282763946801424,-0.013029450550675392
1761466512686431200,2.61043115234375,0.0006534461863338947,0.01252004411071539,-0.007306583225727081
1761466512696415200,2.620415283203125,-0.0009839590638875961,0.008917104452848434,-0.006841599941253662
1761466512706400300,2.630400146484375,-0.002683056052774191,0.001942552626132965,-0.009881332516670227
1761466512716384300,2.64038427734375,-0.003348193597048521,0.003330042352899909,-0.012995099648833275
1761466512726369000,2.650369140625,-0.0064446511678397655,0.0010767413768917322,-0.01464918814599514
1761466512736353300,2.660353271484375,-0.008653880096971989,-0.00017676874995231628,-0.016018588095903397
1761466512746338000,2.670338134765625,-0.0028141001239418983,-0.000024968525394797325,-0.008942567743360996
1761466512756322000,2.680322021484375,-0.002206728793680668,-0.0025649070739746094,-0.007656254805624485
1761466512766307000,2.69030712890625,-0.0010341391898691654,-0.003333761589601636,-0.005240501370280981
1761466512776291000,2.700291015625,0.0026107586454600096,0.002204363467171788,0.0005758358165621758
1761466512786276000,2.710276123046875,0.0025899859610944986,0.01038878969848156,0.0026096918154507875
1761466512796260000,2.720260009765625,0.0024757275823503733,0.008600421249866486,0.0009633286390453577
1761466512806245000,2.7302451171875,0.0013790377415716648,0.009734660387039185,0.0007793041877448559
1761466512816229000,2.74022900390625,0.002155005931854248,0.0019478744361549616,-0.005213609430938959
1761466512826214100,2.750214111328125,0.00014698226004838943,-0.0017994593363255262,-0.0066924626007676125
1761466512836198100,2.7601982421875,0.0013350523076951504,0.0024551639799028635,-0.00664106011390686
1761466512846183200,2.77018310546875,0.001462884247303009,0.006527403369545937,-0.0039640506729483604
1761466512856167200,2.780167236328125,0.0006890986114740372,0.0014724961947649717,-0.004939037375152111
1761466512866152000,2.79015185546875,0.0015146788209676743,0.0053710974752902985,-0.006356371566653252
1761466512876136200,2.80013623046875,0.0028536731842905283,0.005597452633082867,-0.007534286938607693
1761466512886121000,2.810120849609375,0.0036520888097584248,0.0024077852722257376,-0.007944148033857346
1761466512896105000,2.82010498046875,0.0017395527102053165,0.0033223319333046675,-0.009677067399024963
1761466512906090000,2.830090087890625,0.005784361623227596,0.011517677456140518,-0.005822408013045788
1761466512916074000,2.840073974609375,0.0038230037316679955,0.01698886603116989,-0.002084927400574088
1761466512926059000,2.85005908203125,0.0024184526409953833,0.01751537434756756,0.0006839609704911709
1761466512936043000,2.86004296875,0.002125478582456708,0.022296778857707977,0.00888490304350853
1761466512946028000,2.870028076171875,-0.0011384915560483932,0.01811295375227928,0.004055526573210955
1761466512956012000,2.880011962890625,0.0010809702798724174,0.009219082072377205,0.00346563383936882
1761466512965997000,2.8899970703125,0.00005298992618918419,0.012697170488536358,0.0008253760170191526
1761466512975981000,2.89998095703125,-0.0021564713679254055,0.017463158816099167,-0.003296398092061281
1761466512985966000,2.909966064453125,-0.00263450900092721,0.01736222580075264,0.0019889113027602434
1761466512995950000,2.9199501953125,-0.0028279745019972324,0.013401588425040245,0.0022344535682350397
1761466513005935000,2.92993505859375,-0.00004816707223653793,0.011906756088137627,-0.0012526896316558123
1761466513015918800,2.9399189453125,0.001461209263652563,0.00394443329423666,-0.00005692988634109497
1761466513025904000,2.949904052734375,-0.0013814489357173443,0.0026810297276824713,-0.0011770554119721055
1761466513035888000,2.95988818359375,-0.000428586732596159,0.0009752970654517412,-0.0033009275794029236
1761466513045873200,2.969873046875,0.0021725227124989033,-0.001884671626612544,-0.006124144420027733
1761466513055857200,2.979857177734375,0.0013198559172451496,0.011519520543515682,-0.0031195643823593855
1761466513065842200,2.98984228515625,-0.002287928480654955,0.023644892498850822,0.0008855634368956089
1761466513075826200,2.999826171875,-0.004972120746970177,0.017965225502848625,0.003998264670372009
1761466513085811200,3.009811279296875,-0.006932207383215427,0.008865470066666603,0.0025260692927986383
1761466513095795200,3.019795166015625,-0.01229962706565857,0.007799380458891392,0.000809661578387022
1761466513105780200,3.0297802734375,-0.014184612780809402,0.0096201840788126,-0.007127357181161642
1761466513115764200,3.03976416015625,-0.013297179713845253,0.0017637743148952723,-0.018875615671277046
1761466513125749000,3.0497490234375,-0.01069447211921215,-0.009156251326203346,-0.027843544259667397
1761466513135733200,3.059733154296875,-0.009865876287221909,-0.0011869834270328283,-0.024674920365214348
1761466513145718000,3.069718017578125,-0.009966811165213585,0.012975973077118397,-0.01526570599526167
1761466513155702000,3.079701904296875,-0.008318200707435608,0.01907813549041748,-0.0043528759852051735
1761466513165687000,3.08968701171875,-0.007167449686676264,0.01248601172119379,-0.0016630834434181452
1761466513175671000,3.099671142578125,-0.006789280567318201,0.01405301596969366,-0.00032191560603678226
1761466513185656000,3.109656005859375,-0.007934439927339554,0.013120642863214016,-0.0035802931524813175
1761466513195640000,3.11964013671875,-0.011851167306303978,0.0025407252833247185,-0.013804434798657894
1761466513205622300,3.129622314453125,-0.013283682987093925,-0.0034252882469445467,-0.01657625287771225
1761466513215606000,3.13960595703125,-0.0155038395896554,-0.00799049623310566,-0.014445990324020386
1761466513225591300,3.14959130859375,-0.01412591990083456,0.006966615095734596,-0.0020202132873237133
1761466513235575300,3.1595751953125,-0.009608709253370762,0.027701707556843758,0.0071130977012217045
1761466513245560000,3.16956005859375,-0.008049961179494858,0.02500445768237114,0.0109789427369833
1761466513255544000,3.1795439453125,-0.012535282410681248,0.012885975651443005,0.005592169240117073
1761466513265529000,3.189529052734375,-0.011012488044798374,-0.002357425866648555,-0.0007221857085824013
1761466513275513000,3.19951318359375,-0.011581853963434696,-0.006943676620721817,-0.008127368055284023
1761466513285498000,3.209498046875,-0.012121411971747875,-0.013348579406738281,-0.011921040713787079
1761466513295482000,3.219482177734375,-0.012902197428047657,-0.008552423678338528,-0.010588135570287704
1761466513305467100,3.229467041015625,-0.010313604958355427,0.002437376882880926,-0.0019293995574116707
1761466513315451100,3.239451171875,-0.01114170253276825,0.001578525174409151,0.004589485935866833
1761466513325436200,3.249436279296875,-0.011340374127030373,-0.008195541799068451,0.007516566663980484
1761466513335420200,3.259420166015625,-0.010102296248078346,-0.011872071772813797,0.008726706728339195
1761466513345405200,3.2694052734375,-0.008377899415791035,-0.004080993589013815,0.010974148288369179
1761466513355389200,3.27938916015625,-0.012486247345805168,-0.000304969260469079,0.010776552371680737
1761466513365374200,3.289374267578125,-0.013782672584056854,-0.004823821131139994,0.006973558105528355
1761466513375358200,3.299358154296875,-0.011428102850914001,-0.01531902700662613,0.006909634917974472
1761466513385343000,3.309343017578125,-0.010043792426586151,-0.01725487783551216,0.0033615052234381437
1761466513395327000,3.319326904296875,-0.007667111698538065,-0.010030149482190609,0.004628904163837433
1761466513405312000,3.32931201171875,-0.0059195454232394695,-0.0034566689282655716,0.005118925590068102
1761466513415296000,3.3392958984375,-0.008808386512100697,-0.007252268493175507,0.005685909651219845
1761466513425281000,3.349281005859375,-0.01056713704019785,-0.009963632561266422,0.005046750418841839
1761466513435265000,3.35926513671875,-0.0123182013630867,-0.009351060725748539,0.00343314278870821
1761466513445250000,3.36925,-0.012404752895236015,-0.010825387202203274,0.0011241822503507137
1761466513455234000,3.379234130859375,-0.01233886182308197,-0.010669400915503502,0.0014179288409650326
1761466513465219000,3.389218994140625,-0.01660790853202343,-0.012865710072219372,0.000545477494597435
1761466513475203000,3.399203125,-0.014412056654691696,-0.02355113998055458,0.001657350454479456
1761466513485188000,3.40918798828125,-0.011254612356424332,-0.027085954323410988,-0.003069760510697961
1761466513495172000,3.419172119140625,-0.011920195072889328,-0.014782004058361053,-0.002742456505075097
1761466513505157000,3.4291572265625,-0.011200875043869019,-0.013022453524172306,-0.001761348103173077
1761466513515141000,3.43914111328125,-0.012162629514932632,-0.011034698225557804,-0.0011296496959403157
1761466513525126000,3.4491259765625,-0.009728766977787018,-0.004274796228855848,0.001705019036307931
1761466513535110000,3.45910986328125,-0.010815560817718506,-0.003122036112472415,0.0033282183576375246
1761466513545095000,3.469094970703125,-0.00866958498954773,-0.008874463848769665,0.007885419763624668
1761466513555079000,3.479078857421875,-0.008906476199626923,-0.0032357152085751295,0.013965677469968796
1761466513565064200,3.489064208984375,-0.012359265238046646,-0.0026703260373324156,0.015930823981761932
1761466513575048000,3.4990478515625,-0.008433233946561813,-0.006368391215801239,0.017589706927537918
1761466513585033200,3.509033203125,-0.004373510833829641,-0.009966588579118252,0.01952635869383812
1761466513595017200,3.519017333984375,-0.005507269874215126,-0.0023301742039620876,0.020472047850489616
1761466513605002200,3.529002197265625,-0.0023908382281661034,-0.004393058829009533,0.021890180185437202
1761466513614986200,3.538986328125,-0.0016142260283231735,-0.005940665956586599,0.02018895372748375
1761466513624971300,3.54897119140625,-0.00386379798874259,-0.000982658937573433,0.020350873470306396
1761466513634955300,3.558955322265625,-0.002080623060464859,-0.0021126074716448784,0.018276536837220192
1761466513644940000,3.56893994140625,-0.005659379065036774,-0.00679977098479867,0.014834401197731495
1761466513654924000,3.578924072265625,-0.004807700403034687,-0.005124642513692379,0.01293716486543417
1761466513664909000,3.588908935546875,-0.00418043090030551,-0.007634458132088184,0.012189616449177265
1761466513674893000,3.59889306640625,-0.005526795983314514,-0.018454309552907944,0.011813842691481113
1761466513684878000,3.608878173828125,-0.010485068894922733,-0.022984612733125687,0.01669168844819069
1761466513694862000,3.618862060546875,-0.009839003905653954,-0.014023586176335812,0.014913497492671013
1761466513704847000,3.62884716796875,-0.011451281607151031,-0.012204647064208984,0.014407763257622719
1761466513714831000,3.6388310546875,-0.012099786661565304,-0.026906397193670273,-0.0033848171588033438
1761466513724816100,3.648816162109375,-0.00922250747680664,-0.042202796787023544,-0.010579346679151058
1761466513734800100,3.658800048828125,-0.00783692579716444,-0.03626766800880432,-0.011985495686531067
1761466513744785200,3.66878515625,-0.006017720326781273,-0.028743969276547432,-0.005998176988214254
1761466513754769200,3.67876904296875,-0.007251957431435585,-0.02305309846997261,0.003424887079745531
1761466513764754200,3.688754150390625,-0.00812600739300251,-0.017122240737080574,0.011685213074088097
1761466513774738200,3.69873828125,-0.009153367951512337,-0.014472901821136475,0.01443732250481844
1761466513784723000,3.708722900390625,-0.009847920387983322,-0.02130657248198986,0.013592834584414959
1761466513794707000,3.71870703125,-0.010031621903181076,-0.022996747866272926,0.00333781517110765
1761466513804692000,3.72869189453125,-0.012267079204320908,-0.016607291996479034,-0.0017341752536594868
1761466513814676000,3.738676025390625,-0.006855060812085867,-0.011623052880167961,-0.0034969360567629337
1761466513824661000,3.748660888671875,-0.007871055975556374,-0.009429940022528172,-0.0041089304722845554
1761466513834645000,3.75864501953125,-0.0014865575358271599,-0.013475010171532631,-0.0014636126579716802
1761466513844630000,3.768630126953125,0.00002238946035504341,-0.015255866572260857,-0.0005698557943105698
1761466513854614000,3.778614013671875,-0.0008542295545339584,-0.01752719096839428,-0.0035113112535327673
1761466513864599000,3.78859912109375,-0.0010888539254665375,-0.01469838060438633,-0.003186405636370182
1761466513874583000,3.7985830078125,-0.0012091165408492088,-0.017737390473484993,-0.005919081158936024
1761466513884568000,3.808568115234375,-0.00046716025099158287,-0.018460173159837723,-0.009277060627937317
1761466513894552000,3.818552001953125,-0.0030621783807873726,-0.018976248800754547,-0.0028716239612549543
1761466513904537000,3.828537109375,-0.003444874659180641,-0.012935400940477848,0.003916773945093155
1761466513914521000,3.83852099609375,0.0029791942797601223,-0.013386597856879234,0.010244974866509438
1761466513924506000,3.848506103515625,-0.000909819733351469,-0.007985174655914307,0.017104212194681168
1761466513934490000,3.858489990234375,0.001202770508825779,0.00048559485003352165,0.024487826973199844
1761466513944475100,3.86847509765625,0.002512246835976839,0.005214570555835962,0.023671302944421768
1761466513954459100,3.878459228515625,0.00023367209360003471,0.005242037586867809,0.021792447194457054
1761466513964444200,3.888444091796875,0.0024853746872395277,0.0000882882159203291,0.023168236017227173
1761466513974428200,3.89842822265625,0.0005360008217394352,-0.0011037520598620176,0.02730865217745304
1761466513984413200,3.9084130859375,0.0015008640475571156,0.005785313434898853,0.03054785542190075
1761466513994397200,3.918397216796875,-0.0005851807072758675,0.006911482661962509,0.03130951151251793
1761466514004382200,3.92838232421875,0.0007210997864603996,0.006404949352145195,0.03402087837457657
1761466514014366200,3.9383662109375,0.004725145176053047,0.00343661243095994,0.03233855962753296
1761466514024351200,3.948351318359375,0.0029195218812674284,0.003131414297968149,0.03498387709259987
1761466514034335200,3.958335205078125,0.004082584287971258,0.0015683958772569895,0.035144463181495667
1761466514044320000,3.968320068359375,0.007408073637634516,0.0011942216660827398,0.03263869509100914
1761466514054304000,3.978303955078125,0.008290017023682594,-0.006327822804450989,0.026657773181796074
1761466514064289000,3.9882890625,0.0022819258738309145,-0.01235615462064743,0.02296876162290573
1761466514074273000,3.99827294921875,0.002708255546167493,-0.013078683987259865,0.021366337314248085
1761466514084256300,4.00825634765625,0.002939950441941619,-0.012934872880578041,0.02651609107851982
1761466514094240300,4.018240234375,0.000253868754953146,-0.014558312483131886,0.02982533909380436
1761466514104225300,4.028225341796875,-0.0006777052767574787,-0.008564602583646774,0.03426802158355713
1761466514114209300,4.038209228515625,-0.0005852500908076763,-0.005739240907132626,0.03646593168377876
1761466514124194000,4.048194091796875,-0.002424428705126047,-0.007005307823419571,0.03590240702033043
1761466514134178000,4.058177978515625,-0.0032095289789140224,-0.0038878112100064754,0.034681349992752075
1761466514144163000,4.0681630859375,-0.0068924142979085445,-0.007161634974181652,0.032325249165296555
1761466514154147000,4.07814697265625,-0.004968391731381416,-0.014242244884371758,0.03469359129667282
1761466514164132000,4.088132080078125,-0.0028213514015078545,-0.01605505868792534,0.032977983355522156
1761466514174116000,4.0981162109375,0.0009293844923377037,-0.0108720064163208,0.03167383372783661
1761466514184101000,4.10810107421875,0.003017568960785866,-0.006857823580503464,0.02904396317899227
1761466514194085000,4.118085205078125,0.001931787934154272,-0.007090500555932522,0.03151565417647362
1761466514204069400,4.1280693359375,0.007522029336541891,-0.008964034728705883,0.03147676959633827
1761466514214053400,4.138053466796875,0.0006487728096544743,-0.004663085099309683,0.032206736505031586
1761466514224038400,4.148038330078125,-0.0022615292109549046,-0.0011144231539219618,0.03648456931114197
1761466514234022400,4.1580224609375,-0.0060657174326479435,0.0008698580786585808,0.04243247210979462
1761466514244007400,4.16800732421875,-0.009482286870479584,0.005637182854115963,0.04749780520796776
1761466514253991400,4.177991455078125,-0.006654690485447645,0.01071249321103096,0.047404613345861435
1761466514263976400,4.1879765625,-0.004148123320192099,0.009135901927947998,0.047407541424036026
1761466514273960400,4.19796044921875,-0.0031259418465197086,0.008213640190660954,0.0445459708571434
1761466514283945200,4.2079453125,-0.000941351056098938,0.012359117157757282,0.04056215286254883
1761466514293929200,4.21792919921875,-0.0005135689862072468,0.0076910946518182755,0.032637909054756165
1761466514303914200,4.227914306640625,0.0024555891286581755,0.004815412685275078,0.01792021282017231
1761466514313898200,4.237898193359375,0.009759016335010529,0.000922100618481636,0.010755771771073341
1761466514323883300,4.24788330078125,0.011656785383820534,-0.0029741041362285614,0.007730953861027956
1761466514333867300,4.2578671875,0.009535809978842735,-0.004193658474832773,0.012626906856894493
1761466514343852300,4.267852294921875,0.005884083919227123,-0.003907368518412113,0.029774202033877373
1761466514353836300,4.277836181640625,0.008933703415095806,0.008850597776472569,0.043933168053627014
1761466514363821300,4.2878212890625,0.008853275328874588,0.021378107368946075,0.0518302395939827
1761466514373805300,4.297805419921875,0.006218581460416317,0.02979140728712082,0.051346100866794586
1761466514383790300,4.307790283203125,0.002643287880346179,0.02654874324798584,0.05093623697757721
1761466514393775000,4.317775146484375,-0.001974040176719427,0.026681359857320786,0.0445995107293129
1761466514403759400,4.32775927734375,-0.011023460887372494,0.020792843773961067,0.035849429666996
1761466514413744400,4.337744384765625,-0.011230026371777058,0.015457674860954285,0.03481823951005936
1761466514423728000,4.34772802734375,-0.007614252157509327,0.007679647766053677,0.030779555439949036
1761466514433713400,4.35771337890625,-0.00561858993023634,-0.003093436360359192,0.0241104569286108
1761466514443697400,4.367697509765625,-0.005728311836719513,-0.014349020086228848,0.01892368495464325
1761466514453682400,4.377682373046875,-0.010940087959170341,-0.02648255042731762,0.012008802965283394
1761466514463666400,4.38766650390625,-0.011039422824978828,-0.03775704279541969,0.006503250915557146
1761466514473651500,4.3976513671875,-0.017019690945744514,-0.05019688978791237,-0.005128092132508755
1761466514483635500,4.407635498046875,-0.022311124950647354,-0.07693156599998474,-0.01409096084535122
1761466514493620500,4.417620361328125,-0.014021843671798706,-0.08697711676359177,-0.023889821022748947
1761466514503604500,4.4276044921875,-0.017689015716314316,-0.07758468389511108,-0.029894985258579254
1761466514513589500,4.437589599609375,-0.021835587918758392,-0.06864141672849655,-0.02932051569223404
1761466514523573500,4.447573486328125,-0.018125005066394806,-0.05208081379532814,-0.031579408794641495
1761466514533558300,4.457558349609375,-0.024893222376704216,-0.04418666288256645,-0.02822142466902733
1761466514543542300,4.467542236328125,-0.02625463157892227,-0.04543222486972809,-0.029112517833709717
1761466514553527300,4.47752734375,-0.026263626292347908,-0.04129421338438988,-0.026483716443181038
1761466514563511300,4.48751123046875,-0.021389508619904518,-0.039827875792980194,-0.024476757273077965
1761466514573496300,4.497496337890625,-0.018161248415708542,-0.03675862401723862,-0.02291961759328842
1761466514583480300,4.507480224609375,-0.021595660597085953,-0.03430958092212677,-0.02189802937209606
1761466514593465300,4.51746533203125,-0.023109842091798782,-0.02973524108529091,-0.02006121538579464
1761466514603449300,4.527449462890625,-0.021809689700603485,-0.03171370178461075,-0.01820552535355091
1761466514613434400,4.537434326171875,-0.018883448094129562,-0.02370212972164154,-0.017146660014986992
1761466514623418400,4.54741845703125,-0.01881607063114643,-0.01691000536084175,-0.017214570194482803
1761466514633403400,4.5574033203125,-0.01898001879453659,-0.015193325467407703,-0.017329083755612373
1761466514643387400,4.567387451171875,-0.01723884418606758,-0.012342944741249084,-0.018383696675300598
1761466514653372200,4.5773720703125,-0.013622278347611427,-0.009335235692560673,-0.021125441417098045
1761466514663360300,4.5873603515625,-0.012235036119818687,-0.00992166344076395,-0.021166985854506493
1761466514673344300,4.59734423828125,-0.011907298117876053,-0.0008562032599002123,-0.020713964477181435
1761466514683329300,4.607329345703125,-0.006814802065491676,0.0011134706437587738,-0.019586382433772087
1761466514693313300,4.617313232421875,-0.006583343259990215,0.005930483341217041,-0.021030379459261894
1761466514703298300,4.62729833984375,-0.006924494169652462,0.0017083080019801855,-0.024034159258008003
1761466514713282300,4.6372822265625,-0.0004018736071884632,0.0014417881611734629,-0.023047443479299545
1761466514723267300,4.647267333984375,0.0007672542706131935,0.0035299730952829123,-0.01753496564924717
1761466514733251300,4.657251220703125,0.0014605168253183365,0.010799352079629898,-0.010142025537788868
1761466514743236400,4.667236328125,0.0036746691912412643,0.020096180960536003,0.0026864211540669203
1761466514753220400,4.677220458984375,0.0020645405165851116,0.021963832899928093,0.006505120545625687
1761466514763205400,4.687205322265625,0.003362831426784396,0.015192211605608463,0.0007236639503389597
1761466514773189400,4.697189453125,0.0006014471873641014,0.010979171842336655,0.0007021208293735981
1761466514783174400,4.70717431640625,0.0015215692110359669,0.006920247804373503,-0.005725418217480183
1761466514793158400,4.717158447265625,-0.0007052863948047161,0.005501545965671539,-0.012677081860601902
1761466514803143200,4.72714306640625,0.0029168787878006697,-0.0015723424730822444,-0.012162292376160622
1761466514813128200,4.737128173828125,0.005144448950886726,0.00003914115950465202,-0.012235261499881744
1761466514823112200,4.7471123046875,0.008018266409635544,0.0006186449900269508,-0.013564178720116615
1761466514833097200,4.75709716796875,0.005694980267435312,-0.002053644973784685,-0.01894938014447689
1761466514843081200,4.767081298828125,0.0038605949375778437,-0.005591387860476971,-0.015108834952116013
1761466514853066500,4.77706640625,0.00391728337854147,0.002924651140347123,-0.013735429383814335
1761466514863050200,4.78705029296875,0.0032903749961405993,0.0006500452291220427,-0.020062033087015152
1761466514873035500,4.797035400390625,0.00680212676525116,0.000895660137757659,-0.0275617353618145
1761466514883019500,4.80701953125,0.007022103760391474,-0.001130472868680954,-0.035355474799871445
1761466514893004500,4.817004638671875,0.01118859089910984,-0.00967266783118248,-0.041534312069416046
1761466514902988500,4.826988525390625,0.006480121985077858,-0.018147911876440048,-0.03967595845460892
1761466514912973300,4.836973388671875,0.006459606345742941,-0.018748294562101364,-0.03286326676607132
1761466514922957300,4.846957275390625,0.0068457648158073425,-0.016597792506217957,-0.024234622716903687
1761466514932942300,4.8569423828125,0.00513611501082778,-0.0025086691603064537,-0.019344555214047432
1761466514942926300,4.86692626953125,0.005941721145063639,0.007352483458817005,-0.012337778694927692
1761466514952911400,4.876911376953125,0.0049569024704396725,0.014963239431381226,-0.016797784715890884
1761466514962895400,4.886895263671875,0.006438685581088066,0.020743364468216896,-0.020217550918459892
1761466514972880400,4.89688037109375,0.00817912071943283,0.02285444177687168,-0.02412920445203781
1761466514982864400,4.906864501953125,0.010409519076347351,0.021617669612169266,-0.029203593730926514
1761466514992849400,4.916849365234375,0.015005504712462425,0.022899510338902473,-0.03152104839682579
1761466515002834400,4.92683447265625,0.015477150678634644,0.027062563225626945,-0.029344715178012848
1761466515012818400,4.936818359375,0.015677621588110924,0.034204307943582535,-0.023234114050865173
1761466515022803200,4.94680322265625,0.017251549288630486,0.02820660173892975,-0.020156297832727432
1761466515032787200,4.956787109375,0.01468383613973856,0.023145070299506187,-0.02025427296757698
1761466515042772200,4.966772216796875,0.016471348702907562,0.02237648330628872,-0.020233234390616417
1761466515052756200,4.976756103515625,0.015223106369376183,0.02335521951317787,-0.021770663559436798
1761466515062741200,4.9867412109375,0.01821250468492508,0.028380604460835457,-0.022854836657643318
1761466515072725200,4.996725341796875,0.01746966689825058,0.027320900931954384,-0.017093902453780174
1761466515082710300,5.006710205078125,0.013562808744609356,0.0310802198946476,-0.01032334752380848
1761466515092694300,5.0166943359375,0.01414653193205595,0.03479984030127525,-0.004486504942178726
1761466515102679300,5.02667919921875,0.012888721190392971,0.033791035413742065,0.0007082573138177395
1761466515112663300,5.036663330078125,0.012167222797870636,0.03458457812666893,0.0057160332798957825
1761466515122648300,5.0466484375,0.017926309257745743,0.035092707723379135,0.0033948218915611506
1761466515132632300,5.05663232421875,0.021578779444098473,0.033714596182107925,0.00015165447257459164
1761466515142617300,5.066617431640625,0.02583504281938076,0.03432232886552811,-0.006007438059896231
1761466515152602400,5.076602294921875,0.02711826004087925,0.029634708538651466,-0.011634927242994308
1761466515162586400,5.08658642578125,0.023429514840245247,0.027174215763807297,-0.013850410468876362
1761466515172571400,5.0965712890625,0.022660106420516968,0.0264228954911232,-0.012256531044840813
1761466515182555400,5.106555419921875,0.019652865827083588,0.02413523942232132,-0.010784335434436798
1761466515192540400,5.11654052734375,0.010826046578586102,0.022075943648815155,-0.0005446744617074728
1761466515202524700,5.126524658203125,0.010949883610010147,0.02511141449213028,0.006653849501162767
1761466515212509700,5.136509765625,0.010483664460480213,0.024503082036972046,0.01398442592471838
1761466515222493700,5.14649365234375,0.014462160877883434,0.024937177076935768,0.017770376056432724
1761466515232478700,5.156478759765625,0.019843202084302902,0.03113999404013157,0.018711034208536148
1761466515242462700,5.166462646484375,0.031769104301929474,0.03594513610005379,0.004437556490302086
1761466515252447500,5.176447509765625,0.04077761247754097,0.0426790714263916,-0.007511323317885399
1761466515262431700,5.186431640625,0.04335448518395424,0.046663157641887665,-0.015541552565991879
1761466515272416500,5.19641650390625,0.04681297391653061,0.05380537360906601,-0.019731421023607254
1761466515282400500,5.206400390625,0.045412153005599976,0.063641756772995,-0.011079078540205956
1761466515292385500,5.216385498046875,0.04907821863889694,0.08146680891513824,0.0017355091404169798
1761466515302370600,5.22637060546875,0.04489678889513016,0.0956481397151947,0.015059303492307663
1761466515312354600,5.2363544921875,0.04142492637038231,0.10220165550708771,0.030604444444179535
1761466515322339600,5.246339599609375,0.03864751383662224,0.10245758295059204,0.03965440019965172
1761466515332323600,5.256323486328125,0.03768789395689964,0.10324904322624207,0.04375404864549637
1761466515342308600,5.26630859375,0.035779476165771484,0.09904418140649796,0.045826252549886703
1761466515352292600,5.276292724609375,0.038731649518013,0.08776001632213593,0.033756498247385025
1761466515362277600,5.286277587890625,0.039536722004413605,0.06661584973335266,0.02457018941640854
1761466515372261600,5.29626171875,0.03298497945070267,0.04787871241569519,0.011592374183237553
1761466515382246400,5.306246337890625,0.02312728762626648,0.03096390888094902,-0.000153230968862772
1761466515392230400,5.31623046875,0.01862466335296631,0.024510832503437996,-0.011699615977704525
1761466515402215400,5.32621533203125,0.01170337200164795,0.024338260293006897,-0.016660818830132484
1761466515412200700,5.33620068359375,0.007879892364144325,0.01761374995112419,-0.015755625441670418
1761466515422184400,5.346184326171875,0.00016924133524298668,0.010016816668212414,-0.0150171322748065
1761466515432169700,5.356169677734375,-0.011219564825296402,0.001337248831987381,-0.014781740494072437
1761466515442153700,5.36615380859375,-0.019120896235108376,-0.013515999540686607,-0.02409188449382782
1761466515452138800,5.376138671875,-0.029308877885341644,-0.034714680165052414,-0.033634211868047714
1761466515462122800,5.386122802734375,-0.032741159200668335,-0.05447506904602051,-0.05086193606257439
1761466515472107800,5.396107666015625,-0.03533698618412018,-0.07001889497041702,-0.06268638372421265
1761466515482091800,5.406091796875,-0.03661130741238594,-0.08016607165336609,-0.06612904369831085
1761466515492076500,5.41607666015625,-0.04017754644155502,-0.08499183505773544,-0.06459762901067734
1761466515502060500,5.426060546875,-0.04911990836262703,-0.08434255421161652,-0.059175703674554825
1761466515512045600,5.436045654296875,-0.060984887182712555,-0.09637884795665741,-0.05840214714407921
1761466515522029600,5.446029541015625,-0.06827475875616074,-0.11442895233631134,-0.05977607145905495
1761466515532014600,5.4560146484375,-0.07516175508499146,-0.13230399787425995,-0.04985547438263893
1761466515541999600,5.46599951171875,-0.07331405580043793,-0.1132861077785492,-0.05305579677224159
1761466515551983600,5.475983642578125,-0.07430392503738403,-0.09360172599554062,-0.05519570782780647
1761466515561968600,5.48596875,-0.07371749728918076,-0.10203009843826294,-0.04073287919163704
1761466515571952600,5.49595263671875,-0.06914108246564865,-0.11311700195074081,-0.015016542747616768
1761466515581937700,5.505937744140625,-0.06283977627754211,-0.09543681144714355,-0.0025164636317640543
1761466515591921700,5.515921630859375,-0.06527923047542572,-0.07614361494779587,-0.0047088246792554855
1761466515601906400,5.525906494140625,-0.06069513410329819,-0.07531031221151352,-0.016077592968940735
1761466515611890400,5.535890380859375,-0.06460700929164886,-0.07627794146537781,-0.027470747008919716
1761466515621875500,5.54587548828125,-0.06307356059551239,-0.09808150678873062,-0.02967051789164543
1761466515631860500,5.555860595703125,-0.05184589698910713,-0.0719519630074501,-0.0501854233443737
1761466515641844500,5.565844482421875,-0.05152338743209839,-0.08232417702674866,-0.05189890041947365
1761466515651829500,5.57582958984375,-0.053906962275505066,-0.09587621688842773,-0.038798026740550995
1761466515661813500,5.5858134765625,-0.0546121671795845,-0.08501611649990082,-0.026660937815904617
1761466515671798500,5.595798583984375,-0.05464477837085724,-0.07418748736381531,-0.01652125082910061
1761466515681782500,5.605782470703125,-0.05211210995912552,-0.057981617748737335,-0.011156046763062477
1761466515691767800,5.615767822265625,-0.04989277571439743,-0.05245577171444893,-0.012488924898207188
1761466515701751600,5.62575146484375,-0.044806674122810364,-0.05814588442444801,-0.011452955193817616
1761466515711736600,5.635736572265625,-0.03986716270446777,-0.06403091549873352,-0.011112852022051811
1761466515721720600,5.645720458984375,-0.03748070448637009,-0.06211290508508682,-0.010709383524954319
1761466515731705600,5.65570556640625,-0.03374412655830383,-0.05074493959546089,-0.0003797849640250206
1761466515741690600,5.665690673828125,-0.029007960110902786,-0.039343416690826416,0.005539090372622013
1761466515751674600,5.675674560546875,-0.02758900821208954,-0.03153498098254204,0.007334895897656679
1761466515761659600,5.68565966796875,-0.024067774415016174,-0.029349856078624725,0.005121542606502771
1761466515771643600,5.6956435546875,-0.02187970280647278,-0.02583150565624237,0.0037961259949952364
1761466515781628700,5.705628662109375,-0.01822691224515438,-0.014289898797869682,0.006327194161713123
1761466515791612700,5.71561279296875,-0.017151648178696632,0.0031987589318305254,0.011419115588068962
1761466515801597700,5.72559765625,-0.014682631939649582,0.017023228108882904,0.01675715483725071
1761466515811581700,5.735581787109375,-0.012703575193881989,0.02299215830862522,0.017925474792718887
1761466515821566500,5.74556640625,-0.009375955909490585,0.023539438843727112,0.020363865420222282
1761466515831551500,5.755551513671875,-0.009641882963478565,0.025433721020817757,0.018832262605428696
1761466515841535500,5.765535400390625,-0.009975310415029526,0.027654264122247696,0.01837979257106781
1761466515851520500,5.7755205078125,-0.006093589588999748,0.029802097007632256,0.020067432895302773
1761466515861504500,5.78550439453125,-0.004526052623987198,0.029210077598690987,0.01488199271261692
1761466515871489500,5.795489501953125,-0.004968957509845495,0.029802395030856133,0.01608416438102722
1761466515881473500,5.8054736328125,-0.0015981942415237427,0.029926763847470284,0.01420530490577221
1761466515891458600,5.81545849609375,-0.00146161625161767,0.029429346323013306,0.006449428386986256
1761466515901442600,5.825442626953125,0.004156322218477726,0.02284095250070095,0.004260043613612652
1761466515911427600,5.835427490234375,0.004240744281560183,0.021496055647730827,0.004724498838186264
1761466515921411600,5.84541162109375,0.005156339146196842,0.0246439129114151,0.0040038470178842545
1761466515931396600,5.855396728515625,0.010022038593888283,0.02837652526795864,0.007880554534494877
1761466515941381600,5.865381591796875,0.008030259981751442,0.026400994509458542,0.008242211304605007
1761466515951365400,5.875365478515625,0.007919389754533768,0.026141643524169922,0.01002762746065855
1761466515961350700,5.8853505859375,0.006580619141459465,0.022739188745617867,0.011387970298528671
1761466515971334700,5.895334716796875,0.006746369414031506,0.021059539169073105,0.011800232343375683
1761466515981319700,5.905319580078125,0.005830774549394846,0.029192833229899406,0.018233098089694977
1761466515991303700,5.9153037109375,0.009167736396193504,0.045349668711423874,0.02301424741744995
1761466516001288700,5.925288818359375,0.01040291041135788,0.05242648720741272,0.025263018906116486
1761466516011273700,5.935273681640625,0.009704690426588058,0.041780564934015274,0.024171976372599602
1761466516021257700,5.9452578125,0.0030142967589199543,0.03357430174946785,0.02662235125899315
1761466516031242500,5.955242431640625,0.0056300959549844265,0.029178161174058914,0.0247074905782938
1761466516041226800,5.965226806640625,0.006447686813771725,0.027933135628700256,0.022154850885272026
1761466516051211500,5.97521142578125,0.010627394542098045,0.020370960235595703,0.017706749960780144
1761466516061195500,5.985195556640625,0.014964884147047997,0.00499040586873889,0.009288497269153595
1761466516071180500,5.9951806640625,0.016181129962205887,-0.009870004840195179,0.011264048516750336
1761466516081164500,6.00516455078125,0.015161406248807907,-0.0038861483335494995,0.020210139453411102
1761466516091149600,6.015149658203125,0.016163533553481102,0.019261011853814125,0.04088187962770462
1761466516101134600,6.025134521484375,0.00839322805404663,0.03958892077207565,0.05493990704417229
1761466516111118600,6.03511865234375,0.007792173884809017,0.04137434810400009,0.06545250117778778
1761466516121103600,6.045103515625,-0.0004857298918068409,0.03963850066065788,0.0640849694609642
1761466516131087600,6.055087646484375,-0.0005153529345989227,0.03104582242667675,0.05677007511258125
1761466516141072400,6.065072265625,0.0011421986855566502,0.02315993793308735,0.0490461066365242
1761466516151056600,6.075056640625,0.004970022011548281,0.017944391816854477,0.03843073919415474
1761466516161041400,6.08504150390625,0.013861783780157566,0.013139516115188599,0.035991016775369644
1761466516171026400,6.0950263671875,0.022176144644618034,0.014689936302602291,0.03843649476766586
1761466516181010400,6.105010498046875,0.030375219881534576,0.020992306992411613,0.03834914043545723
1761466516190995700,6.11499560546875,0.03107241913676262,0.022240130230784416,0.03550264239311218
1761466516200980000,6.12497998046875,0.02944762445986271,0.023316048085689545,0.0325811542570591
1761466516210965000,6.134965087890625,0.026470210403203964,0.021767418831586838,0.02428940124809742
1761466516220949000,6.144948974609375,0.01917908526957035,0.014715754427015781,0.017235323786735535
1761466516230934000,6.15493408203125,0.016298633068799973,0.013391599990427494,0.011503105983138084
1761466516240918000,6.16491796875,0.016795312985777855,0.012781203724443913,0.013796888291835785
1761466516250902800,6.17490283203125,0.01732845976948738,0.023067345842719078,0.016806215047836304
1761466516260887800,6.1848876953125,0.016942035406827927,0.0287966039031744,0.02551421895623207
1761466516270871800,6.194871826171875,0.01733136922121048,0.03154014050960541,0.026655344292521477
1761466516280856800,6.20485693359375,0.01781499944627285,0.038658507168293,0.026270251721143723
1761466516290840800,6.2148408203125,0.017670776695013046,0.03444570675492287,0.017771616578102112
1761466516300825900,6.224825927734375,0.018028439953923225,0.026003219187259674,0.01397181861102581
1761466516310809900,6.234809814453125,0.012072157114744186,0.03171439468860626,0.009408247657120228
1761466516320795000,6.244794921875,0.016081279143691063,0.040272727608680725,0.011323859915137291
1761466516330780000,6.25477978515625,0.018215518444776535,0.04953329265117645,0.01494411751627922
1761466516340764000,6.264763916015625,0.019718073308467865,0.05401299521327019,0.013048479333519936
1761466516350748700,6.274748779296875,0.01822791062295437,0.049715474247932434,0.011464452371001244
1761466516360732700,6.284732666015625,0.018017254769802094,0.03363743796944618,0.011954475194215775
1761466516370717700,6.2947177734375,0.014518020674586296,0.03285614401102066,0.005034051835536957
1761466516380701700,6.30470166015625,0.012115583755075932,0.02948085218667984,0.009598709642887115
1761466516390686700,6.314686767578125,0.0058841160498559475,0.033762671053409576,0.016346082091331482
1761466516400670700,6.324670654296875,0.005963478237390518,0.03701918199658394,0.020717661827802658
1761466516410655700,6.33465576171875,0.003562700469046831,0.037449538707733154,0.023626355454325676
1761466516420641000,6.34464111328125,0.0002467986196279526,0.03542713448405266,0.02003668062388897
1761466516430624800,6.354624755859375,-0.0003004409372806549,0.025811543688178062,0.015795079991221428
1761466516440610000,6.364610107421875,-0.0008591720834374428,0.011634738184511662,0.005864153150469065
1761466516450594000,6.374593994140625,0.003514843760058284,-0.0015878371195867658,0.005787205416709185
1761466516460578800,6.384578857421875,0.0003403555601835251,0.01335436012595892,0.005861507263034582
1761466516470562800,6.394562744140625,0.000517149455845356,0.011244851164519787,0.01202191412448883
1761466516480547800,6.4045478515625,-0.00302352337166667,0.0037512488197535276,0.018489399924874306
1761466516490532900,6.414532958984375,-0.0016217534430325031,-0.0033251747954636812,0.025247056037187576
1761466516500516900,6.424516845703125,-0.006748338229954243,-0.008916481398046017,0.02798371948301792
1761466516510502000,6.434501953125,-0.006393101532012224,-0.011078504845499992,0.03219940885901451
1761466516520486000,6.44448583984375,-0.0022779847495257854,-0.012043634429574013,0.03541463986039162
1761466516530471000,6.454470947265625,-0.0027652988210320473,-0.011725185438990593,0.04077312722802162
1761466516540455000,6.464454833984375,-0.004070513881742954,-0.009717429056763649,0.043316446244716644
1761466516550440000,6.47443994140625,-0.00526535464450717,-0.01120208203792572,0.042313821613788605
1761466516560424700,6.4844248046875,-0.013694260269403458,-0.00936183799058199,0.0446358323097229
1761466516570408700,6.49440869140625,-0.015701603144407272,-0.01580754481256008,0.04340619593858719
1761466516580393700,6.504393798828125,-0.014700254425406456,-0.014641080051660538,0.03780663385987282
1761466516590377700,6.514377685546875,-0.014316493645310402,-0.012316141277551651,0.03873394429683685
1761466516600362800,6.52436279296875,-0.016087494790554047,-0.015510868281126022,0.03794005885720253
1761466516610346800,6.5343466796875,-0.016779404133558273,-0.02501600980758667,0.03931180760264397
1761466516620331800,6.544331787109375,-0.019508345052599907,-0.031258724629879,0.039664942771196365
1761466516630316800,6.55431689453125,-0.019597945734858513,-0.03750651329755783,0.03386721760034561
1761466516640300800,6.56430078125,-0.022499725222587585,-0.0480094850063324,0.02508491277694702
1761466516650285800,6.574285888671875,-0.019942615181207657,-0.05376891791820526,0.020813122391700745
1761466516660269800,6.584269775390625,-0.015623233281075954,-0.04965353384613991,0.019724156707525253
1761466516670254800,6.5942548828125,-0.014156646095216274,-0.03860972449183464,0.023347333073616028
1761466516680238800,6.60423876953125,-0.017387326806783676,-0.025562897324562073,0.03261113911867142
1761466516690223900,6.614223876953125,-0.01481090672314167,-0.02044506184756756,0.035463690757751465
1761466516700209000,6.624208984375,-0.01763199269771576,-0.029041212052106857,0.033109989017248154
1761466516710193000,6.63419287109375,-0.018955498933792114,-0.037992674857378006,0.026744723320007324
1761466516720178000,6.644177978515625,-0.017712334170937538,-0.04687618464231491,0.02033902145922184
1761466516730162000,6.654161865234375,-0.016049887984991074,-0.04564579576253891,0.015082746744155884
1761466516740147000,6.66414697265625,-0.016741245985031128,-0.042001258581876755,0.015494471415877342
1761466516750131000,6.674130859375,-0.016536187380552292,-0.039749469608068466,0.020463483408093452
1761466516760116000,6.684115966796875,-0.014009647071361542,-0.03982164338231087,0.02183501236140728
1761466516770100700,6.694100830078125,-0.010535484179854393,-0.04430624097585678,0.026191310957074165
1761466516780084700,6.704084716796875,-0.0066057234071195126,-0.03260830417275429,0.030278464779257774
1761466516790069800,6.71406982421875,-0.005886279046535492,-0.030295908451080322,0.03180070221424103
1761466516800053800,6.7240537109375,-0.010736428201198578,-0.02690170891582966,0.026441888883709908
1761466516810038800,6.734038818359375,-0.01274025347083807,-0.03163706138730049,0.021660730242729187
1761466516820022800,6.744022705078125,-0.014632695354521275,-0.03867233544588089,0.019539255648851395
1761466516830007800,6.7540078125,-0.01677117310464382,-0.04421595111489296,0.01894618757069111
1761466516839992800,6.763992919921875,-0.01615598239004612,-0.044968027621507645,0.02666456066071987
1761466516849976800,6.773976806640625,-0.017434505745768547,-0.03890242800116539,0.03570651262998581
1761466516859961900,6.7839619140625,-0.013318857178092003,-0.019230186939239502,0.04780392348766327
1761466516869945900,6.79394580078125,-0.009325984865427017,-0.00008649937808513641,0.051418982446193695
1761466516879930600,6.8039306640625,-0.012876244261860847,0.006635318975895643,0.04908791929483414
1761466516889916000,6.813916015625,-0.010487169958651066,-0.0045349737629294395,0.04057572782039642
1761466516899899600,6.823899658203125,-0.007470075041055679,-0.02033178135752678,0.0315670520067215
1761466516909885000,6.833885009765625,-0.008089144714176655,-0.023491790518164635,0.02509300410747528
1761466516919869000,6.843868896484375,-0.006925343535840511,-0.019212624058127403,0.023050624877214432
1761466516929854000,6.85385400390625,-0.004061157815158367,-0.009989231824874878,0.028464630246162415
1761466516939838000,6.863837890625,-0.006362661719322205,-0.0010649787727743387,0.030448686331510544
1761466516949823000,6.873822998046875,-0.005684145726263523,0.0016734765376895666,0.037317972630262375
1761466516959808000,6.88380810546875,-0.00644527655094862,0.00425940565764904,0.03986475244164467
1761466516969792000,6.8937919921875,-0.0031284638680517673,0.00697571225464344,0.0418686643242836
1761466516979776800,6.90377685546875,0.00015707733109593391,0.006567716598510742,0.04372728615999222
1761466516989760800,6.9137607421875,0.004548087250441313,0.0004790553357452154,0.0394064299762249
1761466516999745800,6.923745849609375,0.007695944048464298,0.0017816072795540094,0.03714780509471893
1761466517009729800,6.933729736328125,0.004193292465060949,-0.0010501185897737741,0.032983165234327316
1761466517019714800,6.94371484375,0.0052178106270730495,-0.004866694565862417,0.032486218959093094
1761466517029699800,6.953699951171875,0.006690045353025198,-0.0058232820592820644,0.03268703818321228
1761466517039683800,6.963683837890625,0.006402157712727785,-0.005984935909509659,0.034817833453416824
1761466517049668900,6.9736689453125,0.003966526128351688,-0.006647701375186443,0.03749920055270195
1761466517059652900,6.98365283203125,0.002122021047398448,-0.003164553316310048,0.03858497366309166
1761466517069638000,6.993637939453125,0.0063443840481340885,0.006688568741083145,0.038324736058712006
1761466517079622700,7.00362255859375,0.0016196700744330883,0.007171399891376495,0.037898097187280655
1761466517089606700,7.013606689453125,0.007501187268644571,0.0034005041234195232,0.03873075172305107
1761466517099591700,7.023591796875,0.0042380159720778465,0.0010148445144295692,0.04045487940311432
1761466517109575700,7.03357568359375,0.009371809661388397,-0.0006554380524903536,0.042051494121551514
1761466517119560700,7.043560791015625,0.007768319919705391,0.0033973604440689087,0.042486656457185745
1761466517129544700,7.053544677734375,0.009797705337405205,0.013079623691737652,0.04212639853358269
1761466517139530000,7.063530029296875,0.003788015805184841,0.01880595088005066,0.03504052758216858
1761466517149515000,7.073514892578125,0.006986637134104967,0.006991363596171141,0.02449040859937668
1761466517159499000,7.0834990234375,0.007226321380585432,-0.008259228430688381,0.021895958110690117
1761466517169483800,7.09348388671875,0.011633234098553658,-0.00744212232530117,0.022796686738729477
1761466517179468000,7.103468017578125,0.008832121267914772,-0.004483883269131184,0.028565892949700356
1761466517189452800,7.113452880859375,0.005694666411727667,-0.009254880249500275,0.029969437047839165
1761466517199440000,7.12343994140625,0.007168992422521114,-0.0014776508323848248,0.037245191633701324
1761466517209425000,7.1334248046875,0.0018546783830970526,0.012671155855059624,0.03929871693253517
1761466517219410000,7.143409912109375,0.002117265947163105,0.019255023449659348,0.03241737559437752
1761466517229394000,7.153393798828125,-0.000016474630683660507,0.010247889906167984,0.023529287427663803
1761466517239379000,7.16337890625,-0.0006745415739715099,-0.006107114255428314,0.017280180007219315
1761466517249363000,7.173363037109375,0.00175173906609416,-0.010529532097280025,0.006347931921482086
1761466517259348000,7.183347900390625,0.00016289716586470604,-0.012684029527008533,0.01181779894977808
1761466517269333000,7.1933330078125,0.0002882308326661587,-0.008967595174908638,0.024183645844459534
1761466517279317000,7.20331689453125,-0.003537932876497507,0.0038315567653626204,0.03192119672894478
1761466517289301800,7.2133017578125,0.0011649103835225105,0.010444579645991325,0.03776057809591293
1761466517299286000,7.2232861328125,-0.00207242788746953,0.005090294871479273,0.03329898416996002
1761466517309270800,7.233270751953125,-0.001110063400119543,-0.0071096536703407764,0.025955576449632645
1761466517319254800,7.2432548828125,0.0006827767938375473,-0.012620266526937485,0.019893955439329147
1761466517329239800,7.25323974609375,0.001811840571463108,-0.013740722090005875,0.018633944913744926
1761466517339224800,7.263224853515625,0.001858978532254696,-0.0069624450989067554,0.02046753093600273
1761466517349208800,7.273208740234375,0.00048570288345217705,-0.0067932698875665665,0.018718702718615532
1761466517359193900,7.28319384765625,0.003585089696571231,-0.009201833046972752,0.0220071729272604
1761466517369177900,7.293177734375,0.0009841062128543854,-0.010113994590938091,0.019305098801851273
1761466517379163000,7.303162841796875,0.0021289989817887545,-0.009544078260660172,0.01887047104537487
1761466517389147600,7.313147705078125,-0.0016150055453181267,-0.00703017320483923,0.014936058782041073
1761466517399131600,7.323131591796875,-0.005636644549667835,-0.006385421380400658,0.012251059524714947
1761466517409117000,7.333116943359375,-0.006685421336442232,-0.008848811499774456,0.006507721729576588
1761466517419100700,7.3431005859375,-0.004006547387689352,-0.013319193385541439,0.0050642890855669975
1761466517429086000,7.3530859375,-0.0011447384022176266,-0.013794799335300922,0.00343713304027915
1761466517439070000,7.363070068359375,0.0009309290908277035,-0.011621393263339996,-0.0005094052758067846
1761466517449055000,7.373054931640625,0.0017316401936113834,-0.007966478355228901,0.0006346812006086111
1761466517459040000,7.3830400390625,-0.002745400182902813,-0.010869855992496014,-0.00036720000207424164
1761466517469024000,7.39302392578125,-0.001677428837865591,-0.011519227176904678,-0.002797673689201474
1761466517479009000,7.403009033203125,0.0010935901664197445,-0.0031627605203539133,-0.0030477445106953382
1761466517488993000,7.412992919921875,0.002582205692306161,0.00047874334268271923,-0.0058686817064881325
1761466517498977800,7.422977783203125,0.0000980091281235218,0.0012840831186622381,-0.007404526695609093
1761466517508962800,7.432962890625,-0.004187359940260649,0.0009277090430259705,-0.006854896433651447
1761466517518946800,7.44294677734375,-0.002528210636228323,-0.004208196885883808,-0.007430938072502613
1761466517528931800,7.452931884765625,-0.007409669458866119,-0.01074246410280466,-0.011439191177487373
1761466517538915800,7.462915771484375,-0.006115373224020004,-0.014226146042346954,-0.014080514200031757
1761466517548900900,7.47290087890625,-0.008709447458386421,-0.011241893284022808,-0.01563376374542713
1761466517558884900,7.482884765625,-0.007172004319727421,-0.002210580976679921,-0.01490645483136177
1761466517568870000,7.492869873046875,-0.0036416640505194664,0.007767030503600836,-0.014406227506697178
1761466517578855000,7.50285498046875,-0.005079238675534725,0.013738904148340225,-0.012112712487578392
1761466517588839000,7.5128388671875,-0.0031469413079321384,0.004648102913051844,-0.014782372862100601
1761466517598823700,7.52282373046875,-0.0012630214914679527,-0.003056954825296998,-0.016349375247955322
1761466517608807700,7.5328076171875,-0.000043927691876888275,-0.012527694925665855,-0.022396091371774673
1761466517618792700,7.542792724609375,-0.0047782291658222675,-0.013727715238928795,-0.02165227010846138
1761466517628778000,7.552778076171875,-0.004802017938345671,-0.01453806646168232,-0.020215442404150963
1761466517638761700,7.56276171875,-0.0027140998281538486,-0.015759125351905823,-0.01448352076113224
1761466517648747000,7.5727470703125,-0.003442795481532812,-0.013111487030982971,-0.015422898344695568
1761466517658731000,7.58273095703125,-0.0017290515825152397,-0.0056740776635706425,-0.014402907341718674
1761466517668716000,7.592716064453125,-0.00435267947614193,-0.0065832179971039295,-0.014440659433603287
1761466517678700800,7.60270068359375,0.0005137142725288868,-0.013194515369832516,-0.013464344665408134
1761466517688685000,7.61268505859375,0.002063093241304159,-0.015550542622804642,-0.01829151250422001
1761466517698669800,7.622669921875,-0.0011846316047012806,-0.012195492163300514,-0.02095281146466732
1761466517708653800,7.63265380859375,0.0008607241325080395,-0.013530073687434196,-0.02096247486770153
1761466517718638800,7.642638916015625,-0.0015640840865671635,-0.009836269542574883,-0.018525149673223495
1761466517728622800,7.652622802734375,-0.0007273186929523945,-0.008576594293117523,-0.015422034077346325
1761466517738607900,7.66260791015625,-0.004885844886302948,-0.009955579414963722,-0.010975354351103306
1761466517748593000,7.672593017578125,-0.003685181960463524,-0.001243663253262639,-0.01055306289345026
1761466517758577000,7.682576904296875,-0.002753341570496559,-0.0020910813473165035,-0.008204154670238495
1761466517768562000,7.69256201171875,-0.0030155791901052,-0.004032600671052933,-0.010712914168834686
1761466517778546000,7.7025458984375,0.0018585377838462591,-0.0031734649091959,-0.0143124433234334
1761466517788531000,7.712531005859375,0.002060564234852791,-0.005807488225400448,-0.024839289486408234
1761466517798515700,7.722515625,0.0023971879854798317,-0.013243034482002258,-0.03238775208592415
1761466517808499700,7.732499755859375,0.00497633358463645,-0.020136864855885506,-0.0401495099067688
1761466517818484700,7.742484619140625,0.0004960978403687477,-0.020115559920668602,-0.03190409392118454
1761466517828468700,7.75246875,-0.002273875754326582,-0.020097794011235237,-0.006139665842056274
1761466517838453800,7.762453857421875,0.0017680036835372448,0.01225694827735424,0.05031455680727959
1761466517848439000,7.77243896484375,0.002664448693394661,0.013953612186014652,0.031302470713853836
1761466517858423000,7.782423095703125,0.008305822499096394,-0.0024575849529355764,0.019095873460173607
1761466517868408000,7.792407958984375,0.003800781210884452,0.026225170120596886,0.008589942939579487
1761466517878392000,7.80239208984375,0.002385311061516404,0.03644212335348129,-0.0018461861182004213
1761466517888376800,7.812376953125,0.00012399163097143173,0.023756571114063263,-0.016360539942979813
1761466517898361000,7.822361083984375,0.00853611808270216,0.009432226419448853,-0.021848514676094055
1761466517908345900,7.832345947265625,0.013110630214214325,-0.0007929804269224405,-0.037020012736320496
1761466517918331000,7.842330810546875,0.01989077217876911,0.0006011843215674162,-0.043587636202573776
1761466517928315000,7.85231494140625,0.02068900689482689,-0.0017632187809795141,-0.04732995852828026
1761466517938300000,7.8622998046875,0.023318082094192505,-0.005273797549307346,-0.05227198451757431
1761466517948284000,7.872283935546875,0.02251831442117691,-0.018787289038300514,-0.05903967469930649
1761466517958269000,7.88226904296875,0.02233615331351757,-0.016980335116386414,-0.062097784131765366
1761466517968254000,7.89225390625,0.021687760949134827,-0.009142969734966755,-0.06504196673631668
1761466517978238000,7.902238037109375,0.016553454101085663,-0.005436115898191929,-0.05865171179175377
1761466517988222700,7.91222265625,0.01725700870156288,-0.002445464488118887,-0.053184594959020615
