time,seconds_elapsed,z,y,x
1761478012280395800,0.122395751953125,-0.008547987788915634,0.06202464923262596,0.03964217007160187
1761478012290380800,0.132380859375,-0.0007651648484170437,0.08166306465864182,0.04682711139321327
1761478012300365600,0.142365478515625,0.013415288180112839,0.10515739768743515,0.04819749295711517
1761478012310350600,0.1523505859375,0.024714281782507896,0.13279062509536743,0.04943905770778656
1761478012320335600,0.162335693359375,0.023601025342941284,0.10218750685453415,0.04438228905200958
1761478012330321000,0.17232080078125,0.01298513263463974,0.048768218606710434,0.03757951408624649
1761478012340306700,0.182306640625,0.007183470297604799,-0.005838712211698294,0.03453508019447327
1761478012350291700,0.192291748046875,-0.002818030770868063,-0.057131730020046234,0.03990880399942398
1761478012360276700,0.20227685546875,0.0043843528255820274,-0.08925662189722061,0.048771508038043976
1761478012370261800,0.21226171875,0.001581109594553709,-0.08639825135469437,0.052557989954948425
1761478012380246500,0.22224658203125,-0.002295452170073986,-0.061380527913570404,0.059876229614019394
1761478012390231800,0.232231689453125,-0.014608045108616352,-0.025762081146240234,0.06999598443508148
1761478012400216800,0.242216796875,-0.020978959277272224,0.01921139284968376,0.08429987728595734
1761478012410202600,0.25220263671875,-0.025731634348630905,0.0745694562792778,0.09060038626194
1761478012420187600,0.262187744140625,-0.02351520024240017,0.10637778788805008,0.08364278078079224
1761478012430172700,0.272172607421875,-0.024147700518369675,0.1217583417892456,0.0730212926864624
1761478012440157700,0.28215771484375,-0.02420635335147381,0.1165551021695137,0.06013325974345207
1761478012450143000,0.29214306640625,-0.02276291884481907,0.09900353848934174,0.05722694844007492
1761478012460127700,0.302127685546875,-0.022457215934991837,0.0765700414776802,0.059272147715091705
1761478012470113800,0.31211376953125,-0.016493333503603935,0.06894993782043457,0.06530740112066269
1761478012480098800,0.322098876953125,-0.016061680391430855,0.05173027515411377,0.06120801717042923
1761478012490083600,0.33208349609375,-0.01573970355093479,0.029492346569895744,0.048125237226486206
1761478012500072200,0.342072265625,-0.015661107376217842,0.03216900676488876,0.04323437064886093
1761478012510057200,0.35205712890625,-0.01443978026509285,0.0822146013379097,0.03751496598124504
1761478012520042200,0.362042236328125,-0.03375999629497528,0.15150399506092072,0.028795257210731506
1761478012530027300,0.37202734375,-0.04653225094079971,0.22305966913700104,-0.0026130005717277527
1761478012540012300,0.38201220703125,-0.04768620431423187,0.27161967754364014,0.004046052228659391
1761478012549998300,0.391998291015625,-0.04492317512631416,0.2555757164955139,-0.006080884486436844
1761478012559983400,0.4019833984375,-0.034208644181489944,0.19243817031383514,-0.010578490793704987
1761478012569968000,0.411968017578125,-0.03134681284427643,0.09265004843473434,-0.002657982986420393
1761478012579953200,0.421953125,-0.030912525951862335,0.007240391802042723,0.008962048217654228
1761478012589938200,0.431938232421875,-0.032415080815553665,-0.03144308924674988,0.02377215400338173
1761478012599923200,0.441923095703125,-0.03712226450443268,-0.026554781943559647,0.013252411037683487
1761478012609908200,0.451908203125,-0.028860073536634445,0.00976860336959362,0.013307273387908936
1761478012619894300,0.461894287109375,-0.027850940823554993,0.0391097366809845,0.017531992867588997
1761478012629879300,0.47187939453125,-0.019883830100297928,0.0696071907877922,0.0002824324183166027
1761478012639864300,0.4818642578125,-0.01798323541879654,0.08810076862573624,-0.016030631959438324
1761478012649849000,0.49184912109375,-0.01317143626511097,0.08318324387073517,-0.02069489099085331
1761478012659834000,0.501834228515625,-0.009777754545211792,0.08384060859680176,-0.023776814341545105
1761478012669819400,0.5118193359375,-0.016288915649056435,0.09767386317253113,-0.0186944380402565
1761478012679804400,0.521804443359375,-0.029424473643302917,0.11309230327606201,-0.004859572742134333
1761478012689790200,0.531790283203125,-0.0440090075135231,0.1309962123632431,0.003123784903436899
1761478012699775200,0.541775146484375,-0.05273999273777008,0.12193867564201355,0.005174667574465275
1761478012709760300,0.55176025390625,-0.04149932414293289,0.07833287864923477,0.002454515080899
1761478012719745300,0.561745361328125,-0.031230464577674866,0.054361492395401,-0.00021414784714579582
1761478012729730000,0.57172998046875,-0.03534984216094017,0.06284286081790924,-0.003603552933782339
1761478012739715300,0.58171533203125,-0.03770940378308296,0.09185747057199478,-0.03314812853932381
1761478012749700400,0.591700439453125,-0.04652606323361397,0.21453838050365448,-0.07804742455482483
1761478012759686100,0.60168603515625,-0.01843363419175148,0.2794494926929474,-0.08597343415021896
1761478012769671200,0.611671142578125,0.029663320630788803,0.2999265491962433,-0.06749588996171951
1761478012779656200,0.62165625,0.029754769057035446,0.28664547204971313,-0.07260630279779434
1761478012789641200,0.63164111328125,0.01852235570549965,0.21787306666374207,-0.06188814342021942
1761478012799626200,0.641626220703125,-0.017153408378362656,0.08636358380317688,-0.034924108535051346
1761478012809611300,0.651611328125,-0.04539063572883606,-0.011745404452085495,-0.008883719332516193
1761478012819596300,0.66159619140625,-0.06274597346782684,0.0031968660186976194,0.011017026379704475
1761478012829581300,0.671581298828125,-0.05657622590661049,0.06558726727962494,0.03247704356908798
1761478012839567000,0.681567138671875,-0.03902947157621384,0.13328801095485687,0.03317219391465187
1761478012849552100,0.69155224609375,-0.02466597966849804,0.1578705906867981,0.028389686718583107
1761478012859537400,0.701537353515625,-0.013037361204624176,0.13798438012599945,0.026949940249323845
1761478012869522400,0.7115224609375,-0.01949739083647728,0.10333160310983658,0.022207383066415787
1761478012879507200,0.721507080078125,-0.024644896388053894,0.055657874792814255,0.0014163877349346876
1761478012889492200,0.7314921875,-0.04141775146126747,0.0075992681086063385,-0.02262077108025551
1761478012899477200,0.741477294921875,-0.049581244587898254,-0.020475095137953758,-0.03125439211726189
1761478012909463000,0.751463134765625,-0.04809306934475899,-0.03527241572737694,-0.026835674419999123
1761478012919448000,0.761447998046875,-0.03840959072113037,-0.025834204629063606,-0.021802254021167755
1761478012929433300,0.771433349609375,-0.019526712596416473,-0.0041848355904221535,-0.016214409843087196
1761478012939418400,0.78141845703125,0.0006175395101308823,0.01820537820458412,-0.013134852983057499
1761478012949403400,0.7914033203125,0.01733606681227684,0.02565637044608593,-0.014394261874258518
1761478012959388200,0.80138818359375,0.024959364905953407,0.011379163712263107,-0.009293776005506516
1761478012969373200,0.811373291015625,0.02064690738916397,-0.00288019934669137,-0.011132421903312206
1761478012979358200,0.821358154296875,0.021640025079250336,-0.01460030023008585,-0.014934012666344643
1761478012989344300,0.83134423828125,0.014349356293678284,-0.03540731221437454,-0.02172507345676422
1761478012999329300,0.841329345703125,0.007751820608973503,-0.04310717061161995,-0.022749586030840874
1761478013009314300,0.851314208984375,0.0029030032455921173,-0.030556224286556244,-0.026015153154730797
1761478013019299300,0.86129931640625,-0.003948585595935583,-0.01933528482913971,-0.025815507397055626
1761478013029284400,0.871284423828125,-0.005124637391418219,-0.01921650767326355,-0.02518726885318756
1761478013039269000,0.88126904296875,-0.005527556873857975,-0.00707889162003994,-0.02096596173942089
1761478013049254100,0.891254150390625,-0.002861998975276947,0.004553796257823706,-0.02133267931640148
1761478013059239200,0.9012392578125,0.0003764745779335499,0.005372318439185619,-0.025093529373407364
1761478013069225200,0.91122509765625,0.0005224156193435192,-0.003679232904687524,-0.027224857360124588
1761478013079210200,0.921210205078125,-0.0039075808599591255,-0.0028949398547410965,-0.0271068774163723
1761478013089195300,0.9311953125,-0.011338865384459496,-0.0029476704075932503,-0.029594535008072853
1761478013099180300,0.94118017578125,-0.018443947657942772,-0.004394614603370428,-0.03288246691226959
1761478013109165300,0.951165283203125,-0.021409910172224045,-0.014077335596084595,-0.03677947074174881
1761478013119150000,0.961150146484375,-0.023960866034030914,-0.01710602268576622,-0.03333281725645065
1761478013129135000,0.971135009765625,-0.02471693605184555,-0.014769099652767181,-0.030740227550268173
1761478013139120400,0.981120361328125,-0.016811121255159378,-0.008752947673201561,-0.02350601553916931
1761478013149106200,0.991106201171875,-0.004544601310044527,-0.004888701252639294,-0.015314396470785141
1761478013159091200,1.00109130859375,0.008074246346950531,-0.02265506237745285,-0.015998566523194313
1761478013169076200,1.011076171875,0.01584002375602722,-0.04084471985697746,-0.022686295211315155
1761478013179061200,1.021061279296875,0.013101918622851372,-0.047537583857774734,-0.02780204638838768
1761478013189046300,1.03104638671875,0.01255490630865097,-0.03374480456113815,-0.036680757999420166
1761478013199031300,1.04103125,0.0034071633126586676,-0.027050495147705078,-0.03863419592380524
1761478013209016300,1.051016357421875,-0.00836773682385683,-0.023135649040341377,-0.03131742775440216
1761478013219001300,1.06100146484375,-0.020420214161276817,-0.011407909914851189,-0.01948562264442444
1761478013228987100,1.070987060546875,-0.0322134867310524,-0.006792385131120682,-0.008100875653326511
1761478013238972200,1.08097216796875,-0.039174482226371765,-0.014478744007647038,0.002262732246890664
1761478013248957200,1.090957275390625,-0.03608521819114685,-0.02919963374733925,0.0016834947746247053
1761478013258942200,1.100942138671875,-0.03316573053598404,-0.039013322442770004,-0.001600454794242978
1761478013268927200,1.11092724609375,-0.028321174904704094,-0.034261446446180344,-0.0010185540886595845
1761478013278912300,1.120912353515625,-0.025849120691418648,-0.025325626134872437,-0.0029616830870509148
1761478013288897300,1.130897216796875,-0.021029332652688026,-0.007818005047738552,0.0034956836607307196
1761478013298882300,1.14088232421875,-0.019094601273536682,0.017076659947633743,0.010344634763896465
1761478013308868000,1.1508681640625,-0.016170982271432877,0.039705805480480194,0.015509569086134434
1761478013318853000,1.16085302734375,-0.016743218526244164,0.05701074004173279,0.019864359870553017
1761478013328838400,1.17083837890625,-0.01925005204975605,0.06954224407672882,0.013617383316159248
1761478013338823400,1.180823486328125,-0.018597204238176346,0.06858601421117783,0.007605471182614565
1761478013348808200,1.19080810546875,-0.020717347040772438,0.05216868966817856,0.007753276731818914
1761478013358793200,1.200793212890625,-0.024668488651514053,0.0494178906083107,0.0066325305961072445
1761478013368778200,1.2107783203125,-0.02367832511663437,0.05392156168818474,0.01618289202451706
1761478013378763300,1.22076318359375,-0.022862089797854424,0.06634792685508728,0.018066195771098137
1761478013388748300,1.230748291015625,-0.018109679222106934,0.07810871303081512,0.014573461376130581
1761478013398734300,1.240734375,-0.012165267020463943,0.07080649584531784,0.007810804061591625
1761478013408719400,1.25071923828125,-0.008456548675894737,0.05780867487192154,0.005963102914392948
1761478013418704400,1.260704345703125,-0.009803267195820808,0.04146638140082359,0.004399558994919062
1761478013428689200,1.270689208984375,-0.01270238310098648,0.03409528732299805,0.004944441840052605
1761478013438674200,1.280674072265625,-0.018858715891838074,0.05206786468625069,0.006644252222031355
1761478013448659200,1.2906591796875,-0.01305515505373478,0.07308979332447052,0.004250869154930115
1761478013458644200,1.300644287109375,-0.00762469507753849,0.07698184996843338,0.00004618987441062927
1761478013468629200,1.310629150390625,-0.000979042612016201,0.07137776166200638,-0.007247408851981163
1761478013478614300,1.3206142578125,0.004465609788894653,0.04488133266568184,-0.011816784739494324
1761478013488600300,1.330600341796875,0.004486382473260164,0.0044992887414991856,-0.02696484513580799
1761478013498581500,1.34058154296875,0.012570066377520561,-0.028970010578632355,-0.043520208448171616
1761478013508566300,1.350566162109375,0.009389986284077168,-0.061284273862838745,-0.06392162293195724
1761478013518551300,1.36055126953125,0.01435505598783493,-0.06654065102338791,-0.06557738780975342
1761478013528536300,1.370536376953125,0.006632154807448387,-0.056885361671447754,-0.0593184232711792
1761478013538521300,1.380521240234375,0.004430902656167746,-0.02272077649831772,-0.057563312351703644
1761478013548506400,1.39050634765625,0.0066184233874082565,0.010885918512940407,-0.06875044852495193
1761478013558491400,1.400491455078125,0.02477668598294258,-0.02166074886918068,-0.05370883271098137
1761478013568476400,1.410476318359375,0.03140928968787193,-0.021168863400816917,-0.04366498813033104
1761478013578462500,1.42046240234375,0.03603702038526535,-0.005912878550589085,-0.04856467247009277
1761478013588447200,1.430447265625,0.034076668322086334,-0.007774428464472294,-0.04830341786146164
1761478013598432300,1.440432373046875,0.029908448457717896,-0.02285602129995823,-0.04850412532687187
1761478013608417300,1.450417236328125,0.02511502429842949,-0.029324306175112724,-0.05191776528954506
1761478013618402600,1.460402587890625,0.02679266780614853,-0.019085828214883804,-0.05658220127224922
1761478013628387300,1.47038720703125,0.02546854317188263,-0.005722619127482176,-0.05078316852450371
1761478013638372400,1.480372314453125,0.022410819306969643,0.008756710216403008,-0.037589702755212784
1761478013648357400,1.490357421875,0.013087091967463493,0.019143039360642433,-0.028458254411816597
1761478013658342400,1.50034228515625,0.01059192419052124,0.04187384247779846,-0.018618406727910042
1761478013668328200,1.510328125,0.006045641377568245,0.05582774057984352,-0.015991996973752975
1761478013678313200,1.520313232421875,0.006616292521357536,0.05704595521092415,-0.01192258857190609
1761478013688298500,1.530298583984375,0.00029128510504961014,0.06833749264478683,-0.008154215291142464
1761478013698283500,1.540283447265625,-0.007746126502752304,0.07464396953582764,0.0009840796701610088
1761478013708268300,1.550268310546875,-0.0123893478885293,0.08032102882862091,-0.003636504989117384
1761478013718253300,1.56025341796875,-0.01424538716673851,0.0853542685508728,-0.0036564902402460575
1761478013728238300,1.57023828125,-0.014721827581524849,0.07909344881772995,-0.004884207621216774
1761478013738223400,1.580223388671875,-0.012957933358848095,0.06795251369476318,-0.0020045198034495115
1761478013748208400,1.59020849609375,-0.016439218074083328,0.047992922365665436,0.008944801054894924
1761478013758194400,1.6001943359375,-0.018451884388923645,0.04064689949154854,0.01793340966105461
1761478013768179500,1.610179443359375,-0.01878824084997177,0.03916618227958679,0.016139503568410873
1761478013778164500,1.62016455078125,-0.016834238544106483,0.026200249791145325,0.010655528865754604
1761478013788149200,1.630149169921875,-0.022605309262871742,0.0042914897203445435,0.010494140908122063
1761478013798134300,1.64013427734375,-0.0262314360588789,-0.000029135262593626976,0.01386498473584652
1761478013808119300,1.650119384765625,-0.029771575704216957,0.012894387356936932,0.01239758264273405
1761478013818104300,1.660104248046875,-0.03666907176375389,0.04382618889212608,0.01666790433228016
1761478013828089600,1.670089599609375,-0.034155845642089844,0.06719515472650528,0.019660765305161476
1761478013838074400,1.680074462890625,-0.03138836473226547,0.08807191997766495,0.012389452196657658
1761478013848059400,1.690059326171875,-0.029016021639108658,0.09277346730232239,0.0020705016795545816
1761478013858045400,1.70004541015625,-0.024043265730142593,0.0809844434261322,-0.0002358278725296259
1761478013868030200,1.7100302734375,-0.024945544078946114,0.06251408904790878,0.0003996023442596197
1761478013878015200,1.72001513671875,-0.02615289017558098,0.04180660471320152,0.00785694271326065
1761478013888000300,1.730000244140625,-0.02893003448843956,0.023790322244167328,0.013313759118318558
1761478013897985500,1.739985595703125,-0.02764475718140602,0.0009801657870411873,0.01773707941174507
1761478013907970300,1.74997021484375,-0.02631557360291481,-0.014101581647992134,0.025459179654717445
1761478013917955300,1.759955322265625,-0.026073336601257324,-0.004401123616844416,0.029388513416051865
1761478013927940400,1.7699404296875,-0.026017945259809494,0.01066544372588396,0.027407124638557434
1761478013937925400,1.77992529296875,-0.01863127388060093,0.03477926552295685,0.023956315591931343
1761478013947910400,1.789910400390625,-0.01670021563768387,0.0515795536339283,0.013381702825427055
1761478013957896400,1.799896484375,-0.01214713603258133,0.05252420902252197,0.0071958620101213455
1761478013967881500,1.809881591796875,-0.010722078382968903,0.04401034861803055,-0.0038764970377087593
1761478013977866500,1.819866455078125,-0.011390846222639084,0.027443571016192436,-0.01180946547538042
1761478013987851300,1.829851318359375,-0.01160762831568718,0.01417410559952259,-0.006416830234229565
1761478013997836300,1.839836181640625,-0.009354077279567719,0.00135661824606359,0.002572018885985017
1761478014007821300,1.8498212890625,-0.013077177107334137,0.009355422109365463,0.012974591925740242
1761478014017806300,1.859806396484375,-0.003403384704142809,0.030239466577768326,0.02015981823205948
1761478014027791400,1.869791259765625,0.0015484970062971115,0.035044342279434204,0.020728934556245804
1761478014037776400,1.8797763671875,0.0032301750034093857,0.03680405020713806,0.012701735831797123
1761478014047761400,1.889761474609375,0.002285285387188196,0.01789400912821293,0.0018861070275306702
1761478014057747500,1.89974755859375,0.0002886964939534664,0.0019707430619746447,0.005528660491108894
1761478014067732200,1.909732177734375,-0.002634655684232712,0.013957630842924118,0.01891397498548031
1761478014077717200,1.91971728515625,-0.003572434652596712,0.0407366044819355,0.026846300810575485
1761478014087702300,1.929702392578125,-0.0033769584260880947,0.0547964982688427,0.02674456685781479
1761478014097687600,1.9396875,0.0029622609727084637,0.0649840235710144,0.022368211299180984
1761478014107672600,1.949672607421875,0.005544195417314768,0.05498145893216133,0.013148083351552486
1761478014117657300,1.9596572265625,0.007943560369312763,0.029544878751039505,0.007707274053245783
1761478014127642400,1.969642333984375,0.007998421788215637,0.011370936408638954,0.007285695057362318
1761478014137627400,1.97962744140625,0.010058879852294922,0.0026547126471996307,0.01537624653428793
1761478014147612400,1.9896123046875,0.004592475015670061,-0.008773177862167358,0.020995251834392548
1761478014157598200,1.99959814453125,-0.00022772373631596565,-0.0014227456413209438,0.029209405183792114
1761478014167583500,2.00958349609375,-0.0021683690138161182,0.009965464472770691,0.024932103231549263
1761478014177568500,2.019568603515625,-0.002073668409138918,0.01260481309145689,0.022711392492055893
1761478014187553300,2.02955322265625,0.0014776568859815598,0.010793597437441349,0.011181236244738102
1761478014197538300,2.039538330078125,0.0040702517144382,0.01845722459256649,0.005907042883336544
1761478014207523300,2.0495234375,0.013970819301903248,0.02314332313835621,0.0003415683750063181
1761478014217508400,2.05950830078125,0.017082607373595238,0.014850281178951263,-0.004221320152282715
1761478014227493400,2.069493408203125,0.016823748126626015,0.007772132288664579,-0.006434939801692963
1761478014237478100,2.07947802734375,0.011386396363377571,-0.0032693592365831137,-0.0056747207418084145
1761478014247463400,2.08946337890625,0.0035585674922913313,-0.010312887839972973,0.004234635271131992
1761478014257449500,2.099449462890625,-0.0033172480762004852,-0.012425215914845467,0.009389023296535015
1761478014267434200,2.109434326171875,-0.0027278903871774673,-0.007925271987915039,0.006278451532125473
1761478014277419300,2.119419189453125,0.00029218243435025215,-0.005324377678334713,0.0040360102429986
1761478014287404300,2.129404296875,0.004939665086567402,-0.0013136572670191526,0.0008785661775618792
1761478014297389300,2.139389404296875,0.006065012887120247,-0.005680960603058338,-0.00009423820301890373
1761478014307374600,2.14937451171875,0.003018090268597007,-0.00022094789892435074,0.008662767708301544
1761478014317359400,2.159359375,0.0041137090884149075,-0.008526402525603771,0.010568052530288696
1761478014327344400,2.169344482421875,-0.0023258146829903126,-0.027353087440133095,0.015901565551757812
1761478014337329400,2.179329345703125,-0.00524106714874506,-0.04215855896472931,0.017226647585630417
1761478014347314400,2.189314453125,-0.008330067619681358,-0.0538967102766037,0.015270820818841457
1761478014357299200,2.19929931640625,-0.009192713536322117,-0.06501998007297516,0.010067597031593323
1761478014367285200,2.20928515625,-0.008827860467135906,-0.06688898801803589,0.007803909480571747
1761478014377270500,2.2192705078125,-0.008556362241506577,-0.05938972160220146,0.005325597710907459
1761478014387255600,2.229255615234375,-0.004436984192579985,-0.04465525224804878,0.0066947294399142265
1761478014397240300,2.239240234375,-0.0038627590984106064,-0.01988114044070244,0.01410785410553217
1761478014407225300,2.249225341796875,-0.0035216081887483597,-0.01699746772646904,0.015391497872769833
1761478014417210400,2.25921044921875,-0.005659519229084253,-0.03636794909834862,0.014118058606982231
1761478014427195400,2.2691953125,-0.012444188818335533,-0.06260301172733307,0.013119107112288475
1761478014437180200,2.27918017578125,-0.016593584790825844,-0.06225891411304474,0.012926377356052399
1761478014447165200,2.289165283203125,-0.02079099230468273,-0.04732364043593407,0.016569582745432854
1761478014457150500,2.299150390625,-0.019789956510066986,-0.030431265011429787,0.015497446991503239
1761478014467136300,2.30913623046875,-0.016411470249295235,-0.013803286477923393,0.017003996297717094
1761478014477121300,2.319121337890625,-0.013214148581027985,0.0004034433513879776,0.01654844731092453
1761478014487106300,2.329106201171875,-0.011496409773826599,0.001249529654160142,0.017542337998747826
1761478014497091300,2.33909130859375,-0.008955029770731926,-0.0006418684497475624,0.016735849902033806
1761478014507080200,2.349080078125,-0.0074937534518539906,-0.009558131918311119,0.01729058474302292
1761478014517065000,2.35906494140625,-0.0069404239766299725,-0.011290805414319038,0.013229180127382278
1761478014527050000,2.369050048828125,-0.006972115952521563,-0.01930718496441841,0.010550038889050484
1761478014537035000,2.379034912109375,-0.0078096454963088036,-0.02468801848590374,0.011569304391741753
1761478014547020000,2.38902001953125,-0.009876791387796402,-0.019499648362398148,0.01595526561141014
1761478014557005000,2.399005126953125,-0.003953785635530949,-0.011688519269227982,0.011805301532149315
1761478014566990000,2.408989990234375,-0.0032539069652557373,-0.011352961882948875,0.011009017005562782
1761478014576976100,2.41897607421875,-0.001094660721719265,-0.005912081804126501,0.009000602178275585
1761478014586961200,2.428961181640625,0.0009423913434147835,-0.0011189247015863657,0.005621050484478474
1761478014596946000,2.43894580078125,-0.0018505905754864216,-0.004732771310955286,0.0016391030512750149
1761478014606931000,2.448930908203125,-0.0016979915089905262,-0.01223649363964796,0.00005026091821491718
1761478014616916200,2.458916259765625,-0.00652876915410161,-0.007605955004692078,0.0015156567096710205
1761478014626901200,2.4689013671875,-0.0034498893655836582,-0.01243400014936924,0.0012575965374708176
1761478014636886000,2.478885986328125,-0.0023443056270480156,-0.014638314954936504,0.0033643716014921665
1761478014646871000,2.48887109375,-0.0045166462659835815,-0.01413124892860651,0.00661848857998848
1761478014656856000,2.49885595703125,0.0011685127392411232,-0.018568234518170357,-0.0004525771364569664
1761478014666841000,2.508841064453125,0.008196595124900341,-0.027209393680095673,-0.010377112776041031
1761478014676826000,2.518826171875,0.018750187009572983,-0.027165891602635384,-0.01189981959760189
1761478014686811000,2.528810791015625,0.017498232424259186,-0.017124975100159645,-0.013308098539710045
1761478014696797200,2.538797119140625,0.015943743288517,-0.013198265805840492,-0.005515901371836662
1761478014706782200,2.5487822265625,0.01131756603717804,-0.004492658190429211,-0.004514819011092186
1761478014716767000,2.55876708984375,0.008220810443162918,0.01501983217895031,-0.004251553677022457
1761478014726752000,2.568751953125,0.00874465424567461,0.02747463807463646,-0.005547181703150272
1761478014736737000,2.578737060546875,0.023923618718981743,0.030544333159923553,-0.007240107282996178
1761478014746722000,2.58872216796875,0.021002130582928658,0.027020171284675598,-0.018067987635731697
1761478014756707000,2.59870703125,0.022786667570471764,0.012704665772616863,-0.0229981429874897
1761478014766692000,2.608692138671875,0.02169157564640045,-0.019193079322576523,-0.020550698041915894
1761478014776677000,2.618677001953125,0.019889939576387405,-0.04857492074370384,-0.011234325356781483
1761478014786662100,2.628662109375,0.02124522253870964,-0.05900918319821358,-0.009671581909060478
1761478014796647200,2.638647216796875,0.018381640315055847,-0.053034957498311996,-0.0059305415488779545
1761478014806633000,2.648633056640625,0.016699321568012238,-0.039253897964954376,-0.0026732292026281357
1761478014816618000,2.658617919921875,0.01864970475435257,-0.02467198297381401,-0.0014288323000073433
1761478014826603300,2.668603271484375,0.020437750965356827,-0.017285440117120743,-0.0014450775925070047
1761478014836588000,2.678588134765625,0.02627290040254593,-0.0026189973577857018,-0.005044588819146156
1761478014846573000,2.688572998046875,0.02614746429026127,0.011548753827810287,-0.01096026785671711
1761478014856558000,2.69855810546875,0.02818046510219574,0.002934862393885851,-0.010695083998143673
1761478014866543000,2.708543212890625,0.02690187841653824,-0.0076256366446614265,-0.015836050733923912
1761478014876528000,2.718528076171875,0.024192282930016518,-0.010256044566631317,-0.014193199574947357
1761478014886513000,2.728512939453125,0.025818409398198128,-0.017042044550180435,-0.00952068343758583
1761478014896498000,2.738497802734375,0.02294686995446682,-0.01325351744890213,-0.0036018583923578262
1761478014906483200,2.748483154296875,0.01910206489264965,-0.007473657839000225,-0.0067385295405983925
1761478014916468200,2.75846826171875,0.0193773303180933,-0.0010520920623093843,-0.005223164334893227
1761478014926454000,2.7684541015625,0.016644127666950226,0.0016358362045139074,-0.0024231169372797012
1761478014936439000,2.77843896484375,0.020397236570715904,0.0008005374111235142,-0.004100052174180746
1761478014946424000,2.788424072265625,0.014688750728964806,-0.004571058321744204,-0.0072044990956783295
1761478014956409000,2.7984091796875,0.013846583664417267,-0.007696032058447599,-0.006896188482642174
1761478014966394000,2.80839404296875,0.011330162174999714,-0.003937246277928352,-0.005284709855914116
1761478014976379100,2.818379150390625,0.004777103662490845,-0.002901642583310604,-0.004031295422464609
1761478014986364200,2.8283642578125,0.003000509226694703,-0.006646047346293926,0.00009207683615386486
1761478014996349200,2.83834912109375,-0.00015833787620067596,-0.007485805545002222,0.003493221942335367
1761478015006334000,2.848333984375,-0.005393046885728836,-0.0057736593298614025,0.007673053070902824
1761478015016319000,2.858319091796875,-0.00041385041549801826,-0.0011192113161087036,0.009427978657186031
1761478015026304000,2.868303955078125,0.004352675285190344,0.011762231588363647,0.008724105544388294
1761478015036290000,2.8782900390625,0.006173483561724424,0.016790401190519333,0.004960470832884312
1761478015046275000,2.888275146484375,0.0005960250273346901,0.007111143786460161,0.002420880598947406
1761478015056260000,2.898260009765625,-0.004505299497395754,-0.011327456682920456,0.005632903892546892
1761478015066245000,2.9082451171875,-0.010275304317474365,-0.021180087700486183,0.00975627638399601
1761478015076230100,2.918230224609375,-0.019408777356147766,-0.01698162965476513,0.017292436212301254
1761478015086215000,2.92821484375,-0.022891392931342125,-0.005509531125426292,0.022534605115652084
1761478015096200000,2.938199951171875,-0.023370986804366112,0.010199061594903469,0.028534717857837677
1761478015106185000,2.94818505859375,-0.02094271592795849,0.0288222823292017,0.02976296842098236
1761478015116170200,2.958170166015625,-0.019810864701867104,0.037475667893886566,0.030514400452375412
1761478015126155300,2.9681552734375,-0.017934400588274002,0.025429122149944305,0.024408837780356407
1761478015136140000,2.97814013671875,-0.013879050500690937,-0.0028859726153314114,0.020355621352791786
1761478015146126000,2.9881259765625,-0.012897142209112644,-0.02606266364455223,0.018652264028787613
1761478015156111000,2.998111083984375,-0.014397461898624897,-0.027213171124458313,0.01637014001607895
1761478015166096000,3.008095947265625,-0.019092347472906113,-0.012153261341154575,0.016984261572360992
1761478015176081200,3.0180810546875,-0.018375691026449203,-0.0012020771391689777,0.015310733579099178
1761478015186066200,3.028066162109375,-0.016886450350284576,0.002896527759730816,0.0160103440284729
1761478015196051200,3.03805126953125,-0.016221459954977036,-0.00017915689386427402,0.019531045109033585
1761478015206036000,3.048035888671875,-0.012225120328366756,-0.008132155053317547,0.019418392330408096
1761478015216021000,3.05802099609375,-0.009841754101216793,-0.011220904067158699,0.019718481227755547
1761478015226006000,3.068006103515625,-0.00858420878648758,-0.00013230019249022007,0.021029023453593254
1761478015235991000,3.077990966796875,-0.013459650799632072,0.005000262055546045,0.02277972362935543
1761478015245976000,3.08797607421875,-0.014818662777543068,0.0018992777913808823,0.02591559663414955
1761478015255961000,3.097961181640625,-0.014878358691930771,-0.00873253121972084,0.024630874395370483
1761478015265947100,3.107947021484375,-0.0169066209346056,-0.024327736347913742,0.027657290920615196
1761478015275932200,3.11793212890625,-0.011589661240577698,-0.029528293758630753,0.02368144504725933
1761478015285917000,3.1279169921875,-0.005924851167947054,-0.023881860077381134,0.01621340960264206
1761478015295902000,3.13790185546875,-0.0030509079806506634,-0.019251754507422447,0.013559550978243351
1761478015305887000,3.147886962890625,-0.0048075285740196705,-0.018710866570472717,0.012169381603598595
1761478015315872300,3.157872314453125,-0.006211503874510527,-0.02542915754020214,0.011593041010200977
1761478015325857300,3.167857177734375,-0.009501572698354721,-0.028470754623413086,0.017609920352697372
1761478015335842000,3.177842041015625,-0.013120063580572605,-0.024790572002530098,0.016244931146502495
1761478015345827000,3.1878271484375,-0.012689164839684963,-0.029465485364198685,0.019259363412857056
1761478015355812000,3.19781201171875,-0.012422309257090092,-0.02775747887790203,0.016576169058680534
1761478015365797000,3.207797119140625,-0.006629135459661484,-0.01860952191054821,0.018126394599676132
1761478015375783000,3.217782958984375,-0.00808706134557724,-0.018869549036026,0.01415893156081438
1761478015385768200,3.227768310546875,-0.009421037510037422,-0.01742531731724739,0.012811637483537197
1761478015395753200,3.237753173828125,-0.004541434813290834,-0.01675524190068245,0.010109926573932171
1761478015405738200,3.24773828125,-0.0020042420364916325,-0.0041036298498511314,0.00601531658321619
1761478015415723000,3.257722900390625,-0.00012048054486513138,0.0010407755617052317,-0.00009537278674542904
1761478015425708000,3.2677080078125,0.0050023761577904224,-0.007734606973826885,0.0006617638282477856
1761478015435693000,3.277693115234375,0.010637326166033745,-0.002016756683588028,-0.0005021549295634031
1761478015445678000,3.287677978515625,0.01951896958053112,-0.002986413659527898,-0.003131493693217635
1761478015455662800,3.297662841796875,0.02282767929136753,-0.006143325008451939,-0.0053384555503726006
1761478015465648000,3.307648193359375,0.01957249827682972,-0.0125034861266613,-0.00846607144922018
1761478015475633200,3.317633056640625,0.01700737327337265,-0.005115121603012085,-0.005230213515460491
1761478015485619000,3.327618896484375,0.011678121984004974,-0.0019265186274424195,-0.0046427203342318535
1761478015495604000,3.33760400390625,0.006337955594062805,-0.007167762145400047,0.0006446677725762129
1761478015505589200,3.34758935546875,0.00521063944324851,-0.022553643211722374,-0.0029034616891294718
1761478015515574300,3.35757421875,0.0039810133166611195,-0.028358329087495804,-0.006255545653402805
1761478015525559300,3.367559326171875,0.009486033581197262,-0.04229678213596344,-0.004340466111898422
1761478015535544000,3.3775439453125,0.010470310226082802,-0.043605294078588486,-0.004013597033917904
1761478015545529000,3.387529052734375,0.009191726334393024,-0.03195742517709732,-0.0008084827568382025
1761478015555514000,3.39751416015625,0.007717552129179239,-0.022778799757361412,0.0039150649681687355
1761478015565499400,3.40749951171875,0.004828288685530424,-0.005768391769379377,0.003563794307410717
1761478015575484200,3.417484130859375,-0.002662042621523142,0.0011537161190062761,0.0027457536198198795
1761478015585469200,3.42746923828125,-0.0028519253246486187,0.0021558639127761126,0.0032837120816111565
1761478015595455200,3.437455322265625,-0.00022095302119851112,-0.002467303304001689,0.0005628254730254412
1761478015605440300,3.447440185546875,-0.001345606055110693,-0.012145230546593666,0.00021847872994840145
1761478015615425000,3.457425048828125,-0.006019533146172762,-0.01783069223165512,0.0048584723845124245
1761478015625410300,3.467410400390625,-0.012527501210570335,-0.021763382479548454,0.006796986795961857
1761478015635395300,3.477395263671875,-0.016099758446216583,-0.02377381920814514,0.008169790729880333
1761478015645380400,3.48738037109375,-0.0202241949737072,-0.013207460753619671,0.01513022929430008
1761478015655365000,3.497365234375,-0.022690802812576294,0.0031998432241380215,0.020128022879362106
1761478015665350100,3.50735009765625,-0.020171452313661575,0.010444972664117813,0.01563527062535286
1761478015675335200,3.517335205078125,-0.013435514643788338,0.011042446829378605,0.012189893051981926
1761478015685320200,3.5273203125,-0.012289024889469147,0.0037736149970442057,0.011873509734869003
1761478015695305200,3.53730517578125,-0.014987500384449959,-0.008210493251681328,0.005629175808280706
1761478015705290200,3.547290283203125,-0.028560569509863853,-0.03547114133834839,0.009085426107048988
1761478015715276300,3.5572763671875,-0.030335254967212677,-0.047024138271808624,0.011978914961218834
1761478015725261300,3.56726123046875,-0.03256937861442566,-0.04419320076704025,0.014850069768726826
1761478015735246000,3.57724609375,-0.027348561212420464,-0.03572455048561096,0.012946955859661102
1761478015745231000,3.587231201171875,-0.01702641323208809,-0.03711418807506561,0.011573830619454384
1761478015755216100,3.597216064453125,-0.003906767815351486,-0.0381680428981781,0.00866815634071827
1761478015765201200,3.607201171875,-0.0009075161069631577,-0.05241036042571068,0.0033879068214446306
1761478015775186200,3.617186279296875,-0.008004463277757168,-0.06024288386106491,-0.0000399639829993248
1761478015785171200,3.627171142578125,-0.015608054585754871,-0.04566873610019684,0.005095675587654114
1761478015795156200,3.63715625,-0.023108500987291336,-0.032583415508270264,0.010340805165469646
1761478015805141200,3.647141357421875,-0.031027674674987793,-0.004315823782235384,0.022044863551855087
1761478015815126300,3.657126220703125,-0.035722412168979645,0.014921560883522034,0.02446717768907547
1761478015825111000,3.667111083984375,-0.03731551766395569,0.0077073234133422375,0.0164012610912323
1761478015835097300,3.677097412109375,-0.03367124870419502,-0.00020079035311937332,0.014918730594217777
1761478015845082400,3.687082275390625,-0.027314286679029465,0.0006402360741049051,0.011604426428675652
1761478015855067100,3.697067138671875,-0.01938498392701149,0.005767210852354765,0.014752230606973171
1761478015865052200,3.70705224609375,-0.01177580002695322,0.0031807487830519676,0.015032927505671978
1761478015875037200,3.717037109375,-0.0028632301837205887,0.008925268426537514,0.013075306080281734
1761478015885022200,3.727022216796875,0.006429603789001703,0.009277604520320892,0.01247343048453331
1761478015895007200,3.73700732421875,0.0052132271230220795,0.021240688860416412,0.015689579769968987
1761478015904992000,3.746991943359375,0.002115704584866762,0.03333303704857826,0.01686403527855873
1761478015914977300,3.756977294921875,-0.0008031823672354221,0.024902382865548134,0.006192971020936966
1761478015924962300,3.76696240234375,0.004639786202460527,0.03782031312584877,0.003802517894655466
1761478015934947300,3.776947265625,0.004812194500118494,0.05892569199204445,0.0040017832070589066
1761478015944933000,3.78693310546875,0.0003191754221916199,0.044161390513181686,0.00328592536970973
1761478015954918100,3.796918212890625,-0.0009864703752100468,0.012781219556927681,0.0006035813130438328
1761478015964903200,3.806903076171875,0.0011547110043466091,0.00856064260005951,0.002520791022107005
1761478015974888200,3.81688818359375,0.006015518214553595,0.011439641006290913,0.003012885805219412
1761478015984873200,3.826873291015625,0.010139422491192818,0.0056384773924946785,0.0029050279408693314
1761478015994858200,3.836858154296875,0.016376852989196777,0.005340674426406622,0.005299758166074753
1761478016004843300,3.84684326171875,0.010182073339819908,0.00740329222753644,0.013723070733249187
1761478016014828300,3.856828369140625,0.006524101365357637,0.003953087143599987,0.012813291512429714
1761478016024813000,3.86681298828125,-0.003288581967353821,0.0033634628634899855,0.014918520115315914
1761478016034798000,3.876798095703125,-0.009697282686829567,0.004105254076421261,0.007643688935786486
1761478016044783000,3.886783203125,-0.01452799141407013,-0.0008343770168721676,0.005703842733055353
1761478016054768000,3.89676806640625,-0.011607454158365726,0.013584202155470848,0.00919720996171236
1761478016064754200,3.906754150390625,-0.009411677718162537,0.0355752557516098,0.01153786201030016
1761478016074739200,3.9167392578125,-0.007924722507596016,0.02222066931426525,0.010331070981919765
1761478016084724200,3.92672412109375,-0.008712751790881157,0.0023846474941819906,0.012464795261621475
1761478016094709200,3.936709228515625,-0.0048985728062689304,-0.01481857430189848,0.0076170433312654495
1761478016104694000,3.946694091796875,-0.00447832653298974,-0.014293132349848747,0.006300110369920731
1761478016114679000,3.956678955078125,-0.010263320058584213,0.003988116048276424,0.015490593388676643
1761478016124664300,3.966664306640625,-0.022799352183938026,-0.0003030351363122463,0.013573650270700455
1761478016134649300,3.9766494140625,-0.025975670665502548,-0.021936075761914253,0.012592346407473087
1761478016144634400,3.98663427734375,-0.023430485278367996,-0.04057208076119423,0.008998410776257515
1761478016154619100,3.996619140625,-0.03060034289956093,-0.03790716081857681,0.016164017841219902
1761478016164603100,4.00660302734375,-0.02386893704533577,-0.007332740817219019,0.010483762249350548
1761478016174588200,4.016588134765625,-0.016545340418815613,0.018044650554656982,0.004728915169835091
1761478016184573200,4.0265732421875,-0.01087893359363079,0.0294584259390831,0.0018998393788933754
1761478016194559000,4.03655908203125,-0.011947162449359894,0.031074879691004753,0.005709953606128693
1761478016204544300,4.046544189453125,-0.005424281116575003,0.023194054141640663,0.01252045575529337
1761478016214529300,4.056529296875,-0.0075698853470385075,-0.0005509704351425171,0.0050875223241746426
1761478016224514300,4.066514404296875,-0.0036699525080621243,-0.02595646120607853,0.00684361020103097
1761478016234499300,4.076499267578125,-0.0018280292861163616,-0.023076379671692848,0.008785078302025795
1761478016244484000,4.086484130859375,-0.003606488462537527,0.0065840440802276134,0.01675192452967167
1761478016254469000,4.09646923828125,0.0016934741288423538,0.02685641311109066,0.016636818647384644
1761478016264454100,4.1064541015625,-0.0022573252208530903,0.012888933531939983,0.012965384870767593
1761478016274439200,4.116439208984375,-0.00899086706340313,-0.007940037176012993,0.01239579264074564
1761478016284424200,4.126424072265625,-0.0021172487176954746,-0.018290944397449493,0.005664653144776821
1761478016294409200,4.1364091796875,-0.0013973508030176163,-0.010912065394222736,-0.00031232181936502457
1761478016304395300,4.146395263671875,0.0013398462906479836,0.0019818954169750214,-0.0019160774536430836
1761478016314380300,4.15638037109375,0.00166277214884758,0.01688391901552677,0.001985088689252734
1761478016324365000,4.166364990234375,0.0017509227618575096,0.0204208642244339,0.005076220259070396
1761478016334350000,4.17635009765625,0.0006680856458842754,0.010196046903729439,0.002185306278988719
1761478016344335400,4.18633544921875,-0.006379703991115093,0.009631456807255745,0.0046455347910523415
1761478016354320400,4.1963203125,-0.005914183333516121,0.004313391167670488,0.0008345511741936207
1761478016364305200,4.20630517578125,-0.001146059948951006,-0.009381115436553955,0.0017653258983045816
1761478016374290200,4.216290283203125,-0.0013298536650836468,-0.008694899268448353,0.005487826652824879
1761478016384275200,4.226275146484375,-0.002144781406968832,0.004825969226658344,0.009902548976242542
1761478016394260200,4.23626025390625,-0.0005344566889107227,0.004106260370463133,0.012597212567925453
1761478016404245200,4.246245361328125,0.0015025953762233257,0.00858276803046465,0.013641703873872757
1761478016414230000,4.25622998046875,-0.003177609294652939,0.011517388746142387,0.015148594044148922
1761478016424216300,4.26621630859375,-0.008966522291302681,0.009750114753842354,0.010269149206578732
1761478016434201300,4.276201416015625,-0.01001489907503128,0.004767180886119604,0.012233923189342022
1761478016444186000,4.28618603515625,-0.01379765197634697,0.009252477437257767,0.015340766869485378
1761478016454171100,4.296171142578125,-0.013097027316689491,0.016547467559576035,0.01636786200106144
1761478016464156200,4.30615625,-0.0035866140387952328,0.021467391401529312,0.018988944590091705
1761478016474141200,4.31614111328125,0.0013849996030330658,0.0235464945435524,0.015517464838922024
1761478016484126200,4.326126220703125,0.003402077592909336,0.025145458057522774,0.014611457474529743
1761478016494111200,4.336111328125,-0.005789098795503378,0.014125276356935501,0.02266264148056507
1761478016504091600,4.346091552734375,-0.01255565881729126,0.0021013699006289244,0.029627874493598938
1761478016514076700,4.35607666015625,-0.020568953827023506,-0.000930476002395153,0.0320245623588562
1761478016524061700,4.366061767578125,-0.017261041328310966,0.0036171379033476114,0.02636055275797844
1761478016534046700,4.376046630859375,-0.019039582461118698,0.009497521445155144,0.019428052008152008
1761478016544032800,4.38603271484375,-0.011900712735950947,0.01885214075446129,0.010672376491129398
1761478016554017800,4.396017822265625,0.0007156012579798698,0.03096614219248295,0.0029308756347745657
1761478016564002800,4.4060029296875,0.0013542273081839085,0.04191306605935097,0.0011942281853407621
1761478016573987800,4.41598779296875,0.005792420357465744,0.04275470972061157,-0.002325868932530284
1761478016583972600,4.42597265625,0.008065162226557732,0.03793252259492874,0.002473680069670081
1761478016593957600,4.43595751953125,0.005997847765684128,0.03489105775952339,0.0009322573896497488
1761478016603942700,4.445942626953125,0.010808847844600677,0.023258371278643608,-0.0031703421846032143
1761478016613927700,4.455927734375,0.009019402787089348,0.007928779348731041,0.0006586001254618168
1761478016623912700,4.46591259765625,0.005064608063548803,0.006973769515752792,0.0039268312975764275
1761478016633897700,4.475897705078125,0.0005810940638184547,0.0023458562791347504,0.005842689424753189
1761478016643882800,4.4858828125,-0.0014490336179733276,-0.0010912192519754171,0.011706969700753689
1761478016653868800,4.495868896484375,-0.004162932746112347,-0.003564300946891308,0.009114622138440609
1761478016663853600,4.505853515625,-0.0002821749076247215,-0.008515117689967155,0.008747106418013573
1761478016673838600,4.515838623046875,0.0018519670702517033,-0.001903246040455997,0.006695043295621872
1761478016683823600,4.52582373046875,-0.0032338714227080345,0.009087886661291122,0.004472368396818638
1761478016693809000,4.535808837890625,-0.005794164724647999,0.02309415116906166,0.006889065727591515
1761478016703793700,4.545793701171875,-0.01310693845152855,0.03525467589497566,0.008237689733505249
1761478016713778700,4.55577880859375,-0.00837963167577982,0.025817330926656723,0.010185647755861282
1761478016723763700,4.565763671875,-0.013109938241541386,0.018494704738259315,0.010631195269525051
1761478016733748700,4.575748779296875,-0.014860862866044044,0.01499076746404171,0.018559113144874573
1761478016743733800,4.585733642578125,-0.008539583534002304,0.020917367190122604,0.017527401447296143
1761478016753718500,4.595718505859375,-0.007643047720193863,0.01879265531897545,0.021474037319421768
1761478016763704800,4.605704833984375,-0.008039326407015324,0.017821401357650757,0.021648474037647247
1761478016773689900,4.61568994140625,-0.009262921288609505,0.01520317792892456,0.02823125571012497
1761478016783674600,4.625674560546875,-0.01627635583281517,0.016033552587032318,0.026980368420481682
1761478016793659600,4.63565966796875,-0.02858283370733261,0.0075652580708265305,0.03187697380781174
1761478016803644700,4.645644775390625,-0.03135758265852928,-0.004071956966072321,0.03636173531413078
1761478016813629700,4.655629638671875,-0.027393925935029984,-0.002800808986648917,0.030513785779476166
1761478016823614700,4.66561474609375,-0.022470006719231606,0.0012040524743497372,0.027320921421051025
1761478016833599700,4.675599853515625,-0.012801283039152622,-0.00708401296287775,0.021738767623901367
1761478016843584800,4.685584716796875,-0.012286760844290257,-0.002201640047132969,0.028152192011475563
1761478016853569800,4.69556982421875,-0.018172329291701317,-0.0005063116550445557,0.03733589127659798
1761478016863554800,4.705554931640625,-0.012305120006203651,0.0019118387717753649,0.04173809662461281
1761478016873539600,4.71553955078125,-0.00828508473932743,0.001798403449356556,0.04040741175413132
1761478016883525600,4.725525634765625,-0.011433472856879234,0.004099640995264053,0.03374844416975975
1761478016893511000,4.735510986328125,-0.010687226429581642,0.0010233852081000805,0.022576607763767242
1761478016903495700,4.74549560546875,-0.008109552785754204,-0.002894124947488308,0.014447575435042381
1761478016913480700,4.755480712890625,-0.004524711519479752,-0.01021482516080141,0.005651675630360842
1761478016923465700,4.7654658203125,-0.0016729985363781452,-0.010559172369539738,0.0046963999047875404
1761478016933450800,4.77545068359375,-0.0036136661656200886,-0.01831863820552826,0.006556557957082987
1761478016943435800,4.785435791015625,-0.00699534872546792,-0.018240874633193016,0.014941787347197533
1761478016953420500,4.795420654296875,-0.011443790048360825,-0.009845570661127567,0.024199018254876137
1761478016963405600,4.805405517578125,-0.014851570129394531,0.0036963371094316244,0.02343202941119671
1761478016973390800,4.815390869140625,-0.012812277302145958,0.006550018675625324,0.024383733049035072
1761478016983376000,4.8253759765625,-0.008261734619736671,0.012893136590719223,0.01859881356358528
1761478016993361700,4.835361572265625,-0.008153124712407589,0.008818179368972778,0.010677030310034752
1761478017003346700,4.8453466796875,-0.0013301060535013676,0.010807560756802559,0.0068846894428133965
1761478017013331700,4.855331787109375,0.001947771292179823,0.015882275998592377,0.005910470150411129
1761478017023316700,4.865316650390625,0.0015557538717985153,0.01499464362859726,0.0065392423421144485
1761478017033301500,4.875301513671875,0.0063447956927120686,0.02705252543091774,0.008543893694877625
1761478017043286800,4.885286865234375,0.0036898902617394924,0.027258122339844704,0.004128106404095888
1761478017053271800,4.895271728515625,-0.0002591158263385296,0.025819582864642143,-0.0011501522967591882
1761478017063256800,4.9052568359375,-0.009383903816342354,0.013353858143091202,-0.0027403258718550205
1761478017073241600,4.91524169921875,-0.011407366022467613,0.011041581630706787,-0.004509935155510902
1761478017083226600,4.9252265625,-0.011073937639594078,0.0013250380288809538,-0.005631658248603344
1761478017093211600,4.935211669921875,-0.007846246473491192,-0.007281023543328047,0.0007101693190634251
1761478017103197700,4.94519775390625,-0.007723474875092506,0.0007129870355129242,0.002730177016928792
1761478017113182700,4.9551826171875,-0.0014487328007817268,0.013663310557603836,-0.0004239189438521862
1761478017123167700,4.965167724609375,-0.0029664686881005764,0.024004897102713585,0.00214123772457242
1761478017133152800,4.97515283203125,-0.006577541120350361,0.027594825252890587,0.00667066965252161
1761478017143137800,4.9851376953125,-0.0025250092148780823,0.03320317715406418,0.007231530733406544
1761478017153122600,4.99512255859375,-0.0059865559451282024,0.02353772707283497,0.005904071033000946
1761478017163107600,5.005107666015625,-0.0028331060893833637,0.014225983992218971,0.00065444759093225
1761478017173092600,5.015092529296875,0.0014875102788209915,0.006627081893384457,-0.00155613012611866
1761478017183078000,5.025077880859375,0.010735603049397469,0.004583105444908142,-0.010962680913507938
1761478017193062700,5.035062744140625,0.012614719569683075,0.0036615103017538786,-0.014003001153469086
1761478017203047700,5.045047607421875,0.018627338111400604,0.002977610332891345,-0.0179362241178751
1761478017213033700,5.05503369140625,0.014823888428509235,-0.0001185291912406683,-0.017176738008856773
1761478017223018800,5.065018798828125,0.016195150092244148,0.0012655158061534166,-0.010669038631021976
1761478017233003500,5.07500341796875,0.013715063221752644,0.0016358892899006605,-0.003818623721599579
1761478017242988500,5.084988525390625,0.014245830476284027,0.010208871215581894,-0.003202634397894144
1761478017252973800,5.094973876953125,0.016912901774048805,0.01880049705505371,-0.0071041397750377655
1761478017262958800,5.104958740234375,0.014367984607815742,0.01709926873445511,-0.012554031796753407
1761478017272943600,5.114943603515625,0.011149033904075623,0.013048604130744934,-0.013784132897853851
1761478017282928600,5.1249287109375,0.010843036696314812,0.007558498997241259,-0.017106426879763603
1761478017292913700,5.13491357421875,0.025552531704306602,0.004391899332404137,-0.02054975926876068
1761478017302898700,5.144898681640625,0.021337546408176422,0.00020381202921271324,-0.017012283205986023
1761478017312883700,5.1548837890625,0.016871042549610138,-0.006622892804443836,-0.025747813284397125
1761478017322869800,5.164869873046875,0.007509232964366674,-0.005387452431023121,-0.023652439936995506
1761478017332854800,5.174854736328125,0.0009652315638959408,-0.013880410231649876,-0.012672776356339455
1761478017342839800,5.18483984375,-0.0019272277131676674,-0.015614394098520279,-0.004002322442829609
1761478017352824600,5.194824462890625,-0.0030219992622733116,-0.012759048491716385,-0.000748323742300272
1761478017362809600,5.2048095703125,0.003458536695688963,-0.012674359604716301,-0.0019715134985744953
1761478017372794600,5.214794677734375,0.004709990695118904,-0.017917240038514137,-0.005283614620566368
1761478017382779600,5.224779541015625,0.01112448051571846,-0.011126979254186153,-0.009874105453491211
1761478017392765000,5.234764892578125,0.012807992286980152,-0.004535425920039415,-0.011525153182446957
1761478017402749700,5.244749755859375,0.010129118338227272,-0.0028640262316912413,-0.008837224915623665
1761478017412734700,5.254734619140625,0.002563687739893794,-0.013287254609167576,-0.005580536555498838
1761478017422720800,5.264720703125,-0.0017381166107952595,-0.015906473621726036,-0.0034824982285499573
1761478017432705500,5.27470556640625,0.0023582058493047953,-0.01435905136168003,-0.007242077961564064
1761478017442690600,5.284690673828125,0.0005911984480917454,-0.008525662124156952,-0.008068457245826721
1761478017452675800,5.29467578125,0.004696107469499111,-0.010067124851047993,-0.0031417065765708685
1761478017462660900,5.304660888671875,0.0038934308104217052,-0.008039393462240696,-0.0034152131993323565
1761478017472645600,5.314645751953125,0.001056161243468523,-0.009499819949269295,0.0001957130152732134
1761478017482630700,5.324630615234375,-0.003143643494695425,-0.01193954236805439,0.004484734032303095
1761478017492615700,5.33461572265625,-0.0029170499183237553,-0.014464153908193111,-0.00026209279894828796
1761478017502605300,5.344605224609375,0.003289446933194995,-0.021119657903909683,-0.010944298468530178
1761478017512590000,5.354590087890625,0.003138029482215643,-0.03468530997633934,-0.0134598258882761
1761478017522576100,5.364576171875,0.005916505586355925,-0.04459972679615021,-0.01291787251830101
1761478017532561200,5.37456103515625,-0.0021187257952988148,-0.046231918036937714,-0.014420991763472557
1761478017542546000,5.3845458984375,-0.0021059433929622173,-0.022886380553245544,-0.008761508390307426
1761478017552531000,5.394531005859375,-0.0028051896952092648,0.00028641242533922195,-0.003924273885786533
1761478017562516200,5.40451611328125,0.0003234921023249626,0.011718563735485077,0.002486221259459853
1761478017572501200,5.414501220703125,0.0043768566101789474,0.00444688880816102,-0.0023827594704926014
1761478017582486300,5.424486328125,0.007214987650513649,-0.017140695825219154,-0.007853691466152668
1761478017592471000,5.434470947265625,0.010534549131989479,-0.036075409501791,-0.013489358127117157
1761478017602456000,5.4444560546875,0.00810548011213541,-0.034644223749637604,-0.005945954471826553
1761478017612441000,5.454441162109375,5.168840289115906e-8,-0.03830723837018013,-0.001645358046516776
1761478017622426000,5.464426025390625,-0.007566788233816624,-0.04045134782791138,-0.0016379011794924736
1761478017632412200,5.474412109375,-0.006371278781443834,-0.035297904163599014,-0.013609486632049084
1761478017642397200,5.484397216796875,-0.0025432505644857883,-0.03285844996571541,-0.02474576234817505
1761478017652382200,5.49438232421875,0.0015013623051345348,-0.030399087816476822,-0.020690880715847015
1761478017662367200,5.5043671875,0.007726767566055059,-0.0115463025867939,-0.01746499352157116
1761478017672352000,5.51435205078125,0.00819430686533451,-0.003193166572600603,-0.028370864689350128
1761478017682337000,5.5243369140625,0.0023779633920639753,-0.00815436989068985,-0.038702063262462616
1761478017692322000,5.534322021484375,-0.00205660006031394,-0.012048359028995037,-0.018341876566410065
1761478017702307300,5.544307373046875,0.0028811669908463955,-0.001268415478989482,-0.012031249701976776
1761478017712292000,5.5542919921875,0.0026686224155128,0.0003180534113198519,-0.008603120222687721
1761478017722277000,5.564277099609375,0.0025226811412721872,-0.0005003360565751791,-0.009545613080263138
1761478017732263200,5.57426318359375,0.006318200845271349,0.01051880232989788,-0.01242007501423359
1761478017742248000,5.584248046875,0.0077448561787605286,0.011732138693332672,-0.010149464011192322
1761478017752233000,5.59423291015625,0.0078062014654278755,0.00042726495303213596,-0.01274824421852827
1761478017762218200,5.60421826171875,0.0059491791762411594,-0.003911024425178766,-0.013353580608963966
1761478017772203300,5.614203369140625,0.006127659697085619,0.005544579122215509,-0.006961523555219173
1761478017782188300,5.624188232421875,0.006843517534434795,0.01949474960565567,-0.006430222652852535
1761478017792173000,5.634173095703125,0.007835637778043747,0.015422658063471317,-0.006346553564071655
1761478017802158000,5.644157958984375,0.007680907845497131,0.006031552329659462,-0.0072799911722540855
1761478017812143000,5.65414306640625,0.004335836041718721,0.00554479518905282,-0.007386768236756325
1761478017822128000,5.664128173828125,-0.0010093944147229195,0.00503559922799468,-0.007136431057006121
1761478017832114200,5.6741142578125,-0.002930823713541031,-0.01124090701341629,-0.002649263944476843
1761478017842099200,5.68409912109375,-0.0018210839480161667,-0.017706263810396194,-0.005035988986492157
1761478017852084200,5.694084228515625,-0.00034446408972144127,-0.010638058185577393,-0.0027993195690214634
1761478017862069200,5.7040693359375,0.00047525716945528984,-0.0020640110597014427,0.0012960894964635372
1761478017872054000,5.714053955078125,0.0007062139920890331,0.007307807449251413,0.003612087108194828
1761478017882039000,5.7240390625,0.00035227974876761436,0.007220988627523184,-0.0013890633126720786
1761478017892024000,5.734024169921875,0.0004631234332919121,0.003287299768999219,-0.007546047680079937
1761478017902009000,5.744009033203125,0.0006559360772371292,-0.004838536959141493,-0.011945589445531368
1761478017911994000,5.753994140625,-0.0026695760898292065,-0.003877913812175393,-0.00938032940030098
1761478017921979100,5.763979248046875,-0.0004418417811393738,0.003165881149470806,-0.004174915608018637
1761478017931964200,5.773964111328125,0.004265220835804939,0.0005466402508318424,-0.0031502179335802794
1761478017941950200,5.7839501953125,0.005647401325404644,-0.011298834346234798,-0.0055683683604002
1761478017951935000,5.79393505859375,0.006595265120267868,-0.014840077608823776,-0.005685743875801563
1761478017961920000,5.803919921875,0.004995770752429962,-0.0024824775755405426,-0.00762319378554821
1761478017971905300,5.8139052734375,0.00037537794560194016,-0.0005293383728712797,-0.0018588703824207187
1761478017981890300,5.823890380859375,-0.00045872433111071587,-0.006499346345663071,-0.004120160359889269
1761478017991875000,5.833875,-0.005010247230529785,-0.0064475517719984055,-0.0021331743337213993
1761478018001860000,5.843860107421875,-0.007887260057032108,0.009153245948255062,0.004561479669064283
1761478018011845000,5.85384521484375,-0.0029527866281569004,0.014596479013562202,0.004956705030053854
1761478018021830100,5.863830078125,-0.005391975399106741,0.0012340680696070194,0.0027476134710013866
1761478018031815200,5.873815185546875,0.0011572781950235367,-0.005892437882721424,-0.004543930292129517
1761478018041801200,5.88380126953125,0.005487844813615084,-0.008333491161465645,-0.0028275232762098312
1761478018051786200,5.8937861328125,0.010845317505300045,-0.0051979986019432545,0.0019593173637986183
1761478018061771300,5.903771240234375,0.00840932410210371,0.00017865747213363647,0.0005004380363970995
1761478018071756000,5.913756103515625,0.012979882769286633,0.000122931320220232,-0.0007480466738343239
1761478018081741000,5.923740966796875,0.008559035137295723,-0.0027426299639046192,-0.003069790545850992
1761478018091726000,5.93372607421875,0.0050653088837862015,-0.002975368406623602,-0.006127012427896261
1761478018101711000,5.943711181640625,0.004657845478504896,-0.004606022033840418,-0.006712907925248146
1761478018111696100,5.953696044921875,0.0022597189527004957,-0.009085144847631454,-0.0036676491145044565
1761478018121681200,5.96368115234375,0.0028631913010030985,-0.010867863893508911,-0.008906885981559753
1761478018131666200,5.973666259765625,0.0022975513711571693,-0.0032343161292374134,-0.010917074047029018
1761478018141652200,5.98365234375,0.00043040933087468147,0.01063942164182663,-0.010470994748175144
1761478018151637000,5.993636962890625,-0.000021166633814573288,0.011238105595111847,-0.01082653272897005
1761478018161622000,6.0036220703125,0.0042460160329937935,0.01944463700056076,-0.006801164709031582
1761478018171607000,6.01360693359375,0.0029620942659676075,0.025937816128134727,-0.010730378329753876
1761478018181592300,6.02359228515625,0.0025580928195267916,0.027964483946561813,-0.012840667739510536
1761478018191577000,6.0335771484375,-0.00020552100613713264,0.018479324877262115,-0.013537539169192314
1761478018201562000,6.04356201171875,-0.004760324954986572,0.01453811302781105,-0.012775076553225517
1761478018211547100,6.053547119140625,-0.0003735991194844246,0.02725275419652462,-0.01417918037623167
1761478018221532200,6.0635322265625,-0.005436268635094166,0.017520230263471603,-0.013414853252470493
1761478018231517200,6.07351708984375,-0.007355865091085434,-0.01651672087609768,-0.01166257169097662
1761478018241503000,6.0835029296875,-0.004160870797932148,-0.03252072259783745,-0.01482454314827919
1761478018251488300,6.09348828125,-0.002334101591259241,-0.023252276703715324,-0.01734505593776703
1761478018261473300,6.103473388671875,0.0000017569400370121002,-0.0007000970654189587,-0.022554198279976845
1761478018271458000,6.1134580078125,-0.0034264232963323593,0.013604385778307915,-0.015340320765972137
1761478018281443000,6.123443115234375,-0.002685531973838806,0.030082695186138153,-0.013341352343559265
1761478018291428000,6.133427978515625,0.0003337366506457329,0.03770406171679497,-0.016238335520029068
1761478018301413000,6.1434130859375,0.0059601967222988605,0.04985899478197098,-0.03514598309993744
1761478018311398100,6.153398193359375,0.01669837161898613,0.055266477167606354,-0.018156874924898148
1761478018321383200,6.163383056640625,0.020321069285273552,0.05156015604734421,-0.008061097003519535
1761478018331368200,6.1733681640625,0.021542299538850784,0.026711558923125267,-0.008907902985811234
1761478018341354200,6.183354248046875,0.01802373118698597,0.0037849368527531624,-0.00232589989900589
1761478018351339000,6.193339111328125,0.015651216730475426,-0.008690668269991875,-0.001243404345586896
1761478018361324000,6.203323974609375,0.018794279545545578,-0.015793051570653915,-0.0017278332961723208
1761478018371309000,6.21330908203125,0.019317718222737312,-0.009103628806769848,-0.0000049551017582416534
1761478018381294000,6.223294189453125,0.01762581244111061,0.0013415555004030466,-0.0015541157918050885
1761478018391279000,6.233279052734375,0.012478826567530632,0.010770060122013092,-0.006698897108435631
1761478018401264000,6.24326416015625,0.01661231927573681,0.021244272589683533,0.0006016264669597149
1761478018411249200,6.253249267578125,0.009604849852621555,0.023359166458249092,0.0023825771640986204
1761478018421234200,6.263234130859375,0.012724742293357849,0.0193090308457613,0.0028733976650983095
1761478018431219200,6.27321923828125,0.009933431632816792,0.009053689427673817,0.0025690793991088867
1761478018441205000,6.283205078125,0.013276231475174427,0.004264260176569223,-0.00484063383191824
1761478018451190300,6.293190185546875,0.00858661625534296,0.0063430871814489365,-0.003780072322115302
1761478018461175300,6.30317529296875,0.005542889703065157,0.0024908247869461775,-0.004552389029413462
1761478018471160000,6.31316015625,0.00209885835647583,0.001928272657096386,0.001205806853249669
1761478018481145000,6.32314501953125,0.0038648005574941635,0.009890059009194374,-0.0006485520862042904
1761478018491130000,6.333130126953125,0.009360553696751595,0.006928929127752781,-0.008854104205965996
1761478018501115100,6.343115234375,0.008466264232993126,0.005074836313724518,-0.01851125806570053
1761478018511095800,6.353095703125,0.009697922505438328,0.01203310489654541,-0.018972964957356453
1761478018521081000,6.3630810546875,0.004533520434051752,0.01725609600543976,-0.014445857144892216
1761478018531065900,6.37306591796875,0.007534040603786707,0.009429415687918663,-0.012704858556389809
1761478018541052000,6.383052001953125,0.009868301451206207,0.012493915855884552,-0.010519735515117645
1761478018551037000,6.393036865234375,0.01089179515838623,0.02146151103079319,-0.012463840655982494
1761478018561021700,6.403021728515625,0.008606537245213985,0.02411375194787979,-0.011270478367805481
1761478018571006700,6.4130068359375,0.009250021539628506,0.022350654006004333,-0.015028024092316628
1761478018580992000,6.422991943359375,0.0028283409774303436,0.01841636560857296,-0.014973695389926434
1761478018590977000,6.43297705078125,-0.003072715364396572,0.022582940757274628,-0.010481555014848709
1761478018600962000,6.442962158203125,-0.010578036308288574,0.027494609355926514,-0.0021149683743715286
1761478018610946800,6.45294677734375,-0.010685443878173828,0.03558485209941864,0.001515622716397047
1761478018620931800,6.462931884765625,-0.00645261537283659,0.03227507695555687,-0.0012364881113171577
1761478018630918000,6.47291796875,-0.0023168432526290417,0.02070501819252968,-0.005742913112044334
1761478018640902700,6.482902587890625,0.0014560571871697903,0.005174262449145317,-0.009179189801216125
1761478018650888000,6.492887939453125,0.004883363842964172,-0.003216960933059454,-0.008909408003091812
1761478018660873000,6.502873046875,0.0020862459205091,-0.013520464301109314,-0.0049687279388308525
1761478018670858000,6.51285791015625,0.006185553502291441,-0.007964548654854298,0.00025940872728824615
1761478018680842800,6.5228427734375,0.006498208735138178,0.0018768967129290104,0.0027997978031635284
1761478018690827800,6.532827880859375,0.001325987745076418,0.00686871912330389,0.004747103899717331
1761478018700812800,6.542812744140625,0.005592105444520712,0.015246225520968437,0.0018024465534836054
1761478018710797800,6.5527978515625,0.010657478123903275,0.017835058271884918,-0.002830027136951685
1761478018720782800,6.562782958984375,0.010719263926148415,0.010567823424935341,0.00001662573777139187
1761478018730769000,6.572768798828125,0.009895497001707554,0.002097558230161667,0.00036256108433008194
1761478018740754000,6.58275390625,0.0068304650485515594,0.005862202495336533,0.0024608655367046595
1761478018750739000,6.592739013671875,0.004064419772475958,0.0034617669880390167,0.004054236225783825
1761478018760723700,6.6027236328125,-0.004846517462283373,-0.0032496650237590075,0.0030254570301622152
1761478018770708700,6.612708740234375,-0.01116887480020523,-0.00296560931019485,0.006880477070808411
1761478018780693800,6.62269384765625,-0.015080258250236511,-0.002578918356448412,0.007178218103945255
1761478018790679000,6.632678955078125,-0.014685736037790775,-0.006471853703260422,0.009732541628181934
1761478018800664000,6.6426640625,-0.009975402615964413,-0.0017346228705719113,0.007465125992894173
1761478018810648800,6.65264892578125,-0.006659237667918205,-0.0003875517286360264,0.01226930133998394
1761478018820633900,6.6626337890625,0.003330012783408165,0.010473618283867836,0.01611677184700966
1761478018830620000,6.672619873046875,0.0062936656177043915,0.012191482819616795,0.012448525056242943
1761478018840604700,6.682604736328125,0.010150721296668053,0.010041778907179832,0.01306984107941389
1761478018850589700,6.692589599609375,0.004341983236372471,0.004661440849304199,0.009200713597238064
1761478018860575000,6.702574951171875,0.0005531040951609612,0.003532793140038848,0.0005244005005806684
1761478018870560000,6.71256005859375,-0.007035753224045038,0.0025768449995666742,-0.0023861739318817854
1761478018880545000,6.722544921875,-0.012440638616681099,-0.009088599123060703,0.002110573695972562
1761478018890529800,6.73252978515625,-0.018660936504602432,-0.008167325519025326,0.004678414203226566
1761478018900514800,6.742514892578125,-0.016495253890752792,-0.005821347236633301,0.0062081338837742805
1761478018910499800,6.752499755859375,-0.016972700133919716,-0.008539872244000435,0.0076794251799583435
1761478018920484900,6.76248486328125,-0.009609859436750412,0.0056228190660476685,0.013973540626466274
1761478018930471000,6.772470947265625,-0.009980782866477966,0.011860775761306286,0.015188910998404026
1761478018940456000,6.7824560546875,-0.010716347023844719,0.02064121700823307,0.01976235769689083
1761478018950441000,6.79244091796875,-0.007948754355311394,0.02402874268591404,0.01484255027025938
1761478018960425700,6.80242578125,-0.005423544906079769,0.018988177180290222,0.010328758507966995
1761478018970410800,6.81241064453125,-0.005180007312446833,0.008312265388667583,0.007922299206256866
1761478018980395800,6.822395751953125,-0.004511554259806871,0.004102872684597969,0.009281577542424202
1761478018990380800,6.832380859375,-0.007946920581161976,0.00008389889262616634,0.006852437742054462
1761478019000366000,6.842365966796875,-0.0016458812169730663,-0.0012775091454386711,0.005719262175261974
1761478019010350800,6.852350830078125,0.002139060292392969,-0.0008886568248271942,0.005551380105316639
1761478019020337000,6.8623369140625,0.002548920689150691,0.00009804428555071354,0.003285562852397561
1761478019030322000,6.872322021484375,0.0058949594385921955,0.00021968106739223003,0.00480143167078495
1761478019040306700,6.882306640625,0.0081930011510849,-0.002320441883057356,0.0005736632738262415
1761478019050291700,6.892291748046875,0.011018026620149612,-0.0027622925117611885,0.006783721968531609
1761478019060277000,6.902277099609375,0.010353567078709602,-0.0029564369469881058,0.010413876734673977
1761478019070262000,6.912261962890625,0.0033861473202705383,-0.0014903945848345757,0.009415834210813046
1761478019080247000,6.9222470703125,-0.00019686948508024216,-0.003799887839704752,0.010425705462694168
1761478019090231800,6.932231689453125,0.0010072598233819008,0.0010031831916421652,0.004335111938416958
1761478019100216800,6.942216796875,-0.0021366016007959843,0.0038240032736212015,0.0009353205095976591
1761478019110201900,6.952201904296875,-0.0027238246984779835,0.01205199770629406,0.002698626834899187
1761478019120187600,6.962187744140625,0.002002221066504717,0.0065749408677220345,0.006005740724503994
1761478019130173000,6.9721728515625,0.0008764555677771568,0.0056478059850633144,0.006616111844778061
1761478019140158000,6.982157958984375,0.008129308000206947,0.005664583761245012,-0.00015817093662917614
1761478019150143000,6.99214306640625,0.009374218061566353,0.00794536154717207,-0.0029071723110973835
1761478019160128000,7.0021279296875,0.009667698293924332,0.004851034842431545,-0.0029279449954628944
1761478019170112800,7.01211279296875,0.005682443268597126,0.003044920740649104,0.0015348256565630436
1761478019180097800,7.022097900390625,0.0032762771006673574,0.00202785967849195,0.0034166150726377964
1761478019190082800,7.032082763671875,-0.003131912089884281,-0.00032692612148821354,0.005887208506464958
1761478019200067800,7.04206787109375,-0.004019277170300484,-0.0028998060151934624,0.0023931406904011965
1761478019210054000,7.052053955078125,-0.002193811349570751,-0.002471356652677059,0.0003220152575522661
1761478019220039000,7.062038818359375,0.00005176570266485214,0.0005361512303352356,-0.004647443071007729
1761478019230024000,7.07202392578125,0.003943369723856449,0.0002362553495913744,-0.009228703565895557
1761478019240008700,7.0820087890625,0.00048259180039167404,0.004783337004482746,-0.003450443036854267
1761478019249993700,7.09199365234375,0.0032801933120936155,0.012183909304440022,-0.00017717108130455017
1761478019259978800,7.101978759765625,0.0016261041164398193,0.02092653512954712,0.0011099346447736025
1761478019269964000,7.111964111328125,-0.0025154477916657925,0.015628308057785034,0.0033650340046733618
1761478019279949000,7.121948974609375,-0.004402829799801111,0.010915844701230526,-0.0017919110832735896
1761478019289934800,7.131934814453125,-0.00998762622475624,0.010225506499409676,-0.000026683323085308075
1761478019299920000,7.141919921875,-0.012311499565839767,0.009897405281662941,0.007252268493175507
1761478019309905000,7.15190478515625,-0.012239786796271801,0.009384237229824066,0.0052464669570326805
1761478019319889700,7.1618896484375,-0.015391106717288494,0.0066025652922689915,0.006179638206958771
1761478019329874700,7.171874755859375,-0.013738304376602173,0.01609613187611103,0.005860585253685713
1761478019339860000,7.18185986328125,-0.010148363187909126,0.027562104165554047,0.005624895449727774
1761478019349845000,7.191844970703125,-0.006319492589682341,0.02843262068927288,0.0019356140401214361
1761478019359830000,7.201830078125,-0.0036169164814054966,0.027599584311246872,-0.0036168107762932777
1761478019369814800,7.211814697265625,-0.002535272855311632,0.022798918187618256,-0.004915616475045681
1761478019379799800,7.2217998046875,-0.00303381634876132,0.014992659911513329,-0.004340640269219875
1761478019389785900,7.231785888671875,-0.003281025215983391,0.00654024351388216,0.0014946709852665663
1761478019399771000,7.24177099609375,-0.004560140892863274,0.010897175408899784,0.005718444474041462
1761478019409756000,7.251755859375,-0.010514622554183006,0.019320396706461906,0.005198699422180653
1761478019419741000,7.261740966796875,-0.012240083888173103,0.030373580753803253,0.01225154846906662
1761478019429726000,7.271725830078125,-0.013534349389374256,0.040916599333286285,0.005056050606071949
1761478019439711000,7.2817109375,-0.011448563076555729,0.021719200536608696,0.0032421716023236513
1761478019449695700,7.29169580078125,-0.00642933277413249,-0.007711220998317003,0.012024913914501667
1761478019459680800,7.3016806640625,-0.00652254419401288,-0.013184282928705215,0.01689077541232109
1761478019469665800,7.311665771484375,-0.0032027829438447952,-0.01771426573395729,0.01570805348455906
1761478019479651800,7.32165185546875,-0.0035950662568211555,-0.012496866285800934,0.013779126107692719
1761478019489636900,7.331636962890625,-0.005547678098082542,-0.011577816680073738,0.013915673829615116
1761478019499622000,7.341621826171875,-0.014007475227117538,-0.0032170892227441072,0.010157686658203602
1761478019509607700,7.351607666015625,-0.01780412346124649,-0.008494338020682335,0.0010392952244728804
1761478019519592700,7.3615927734375,-0.02127928100526333,-0.01095856074243784,-0.0019951104186475277
1761478019529578000,7.371577880859375,-0.018528711050748825,0.0018198478501290083,0.001726285321637988
1761478019539563000,7.38156298828125,-0.00917702168226242,0.007717684842646122,0.0005750006530433893
1761478019549548000,7.391548095703125,-0.01016812864691019,0.009118089452385902,-0.001169248833321035
1761478019559533800,7.401533935546875,-0.008261572569608688,0.019431447610259056,0.006851393263787031
1761478019569518800,7.411518798828125,-0.01359287928789854,0.029690232127904892,0.013687819242477417
1761478019579503900,7.42150390625,-0.018835045397281647,0.03192063048481941,0.019761690869927406
1761478019589489000,7.431489013671875,-0.02471480704843998,0.03030303865671158,0.020686477422714233
1761478019599474000,7.441473876953125,-0.01772693730890751,0.0382605642080307,0.014578783884644508
1761478019609459000,7.451458984375,-0.00991748459637165,0.044545091688632965,0.0137417521327734
1761478019619444000,7.46144384765625,-0.0030601113103330135,0.03357180207967758,0.0005053095519542694
1761478019629428700,7.4714287109375,-0.0016564899124205112,0.0025074707809835672,-0.00018652412109076977
1761478019639413800,7.481413818359375,0.002224534749984741,-0.00015302724204957485,0.008142245933413506
1761478019649399800,7.49139990234375,-0.0011794725432991982,0.012640193104743958,0.01735437661409378
1761478019659385000,7.501385009765625,-0.0015882677398622036,0.01969277672469616,0.018327228724956512
1761478019669369900,7.511369873046875,-0.01356018241494894,0.02643539197742939,0.009749338962137699
1761478019679355000,7.52135498046875,-0.02111370489001274,0.04372037574648857,0.010891036130487919
1761478019689340000,7.53133984375,-0.0239364355802536,0.05256267264485359,0.009471045807003975
1761478019699325000,7.541324951171875,-0.022881023585796356,0.04515402391552925,0.010124851949512959
1761478019709309700,7.551309814453125,-0.018811004236340523,0.03967418521642685,0.014964897185564041
1761478019719294700,7.561294677734375,-0.005413173697888851,0.034162506461143494,0.015060504898428917
1761478019729279700,7.57127978515625,0.007950139231979847,0.040316127240657806,0.013375982642173767
1761478019739265800,7.581265869140625,0.005402292590588331,0.03782553970813751,0.011551184579730034
1761478019749250800,7.591250732421875,0.000010172370821237564,0.02682759054005146,0.007524779997766018
1761478019759235800,7.60123583984375,-0.008573461323976517,0.01629691757261753,0.00747950654476881
1761478019769220900,7.611220947265625,-0.012349392287433147,0.02355210855603218,0.009676769375801086
1761478019779206000,7.621205810546875,-0.012098521925508976,0.023027200251817703,0.004890004638582468
1761478019789190700,7.631190673828125,-0.008748680353164673,0.025385478511452675,0.003152859164401889
1761478019799176000,7.641176025390625,-0.009364670142531395,0.02884439378976822,0.006888475269079208
1761478019809161000,7.651160888671875,-0.0034083756618201733,0.023393385112285614,0.006574241444468498
1761478019819146000,7.66114599609375,-0.0036802846007049084,0.016852660104632378,0.007226982153952122
1761478019829131800,7.6711318359375,0.0007793563418090343,0.021471526473760605,0.010908287018537521
1761478019839116800,7.68111669921875,0.0016297036781907082,0.02271229214966297,0.01469423808157444
1761478019849101800,7.691101806640625,-0.007518683560192585,0.022031009197235107,0.012035215273499489
1761478019859086800,7.7010869140625,-0.008944007568061352,0.02077346481382847,0.011189661920070648
1761478019869072000,7.71107177734375,-0.011656984686851501,0.01532906573265791,0.0062019312754273415
1761478019879057000,7.721056884765625,-0.013441301882266998,0.01147946622222662,0.0096885422244668
1761478019889042000,7.7310419921875,-0.012165752239525318,0.00767795043066144,0.01261756382882595
1761478019899027000,7.74102685546875,-0.012592391110956669,0.0026989043690264225,0.008386599831283092
1761478019909012700,7.7510126953125,-0.010772015899419785,0.0006744891870766878,0.011503485962748528
1761478019918997800,7.760997802734375,-0.013432247564196587,0.005022631958127022,0.019145160913467407
1761478019928983000,7.770983154296875,-0.013129999861121178,0.014164282940328121,0.028867479413747787
1761478019938968000,7.780968017578125,-0.018884558230638504,0.017528122290968895,0.031625185161828995
1761478019948952800,7.790952880859375,-0.022747866809368134,0.019367169588804245,0.02743539959192276
1761478019958937900,7.800937744140625,-0.02428797259926796,0.02818063274025917,0.02424919232726097
1761478019968923000,7.8109228515625,-0.021922169253230095,0.030877836048603058,0.017925068736076355
1761478019978908000,7.820907958984375,-0.022955475375056267,0.028635721653699875,0.017856359481811523
1761478019988892700,7.830892578125,-0.020951401442289352,0.02131425403058529,0.016945866867899895
1761478019998879000,7.84087890625,-0.020314905792474747,0.016831355169415474,0.017549339681863785
1761478020008864000,7.850864013671875,-0.019063550978899002,0.01194736734032631,0.018342826515436172
1761478020018849000,7.86084912109375,-0.019872352480888367,-0.016410771757364273,0.017134016379714012
1761478020028833800,7.870833740234375,-0.02368873357772827,-0.017862927168607712,0.013207826763391495
1761478020038818800,7.88081884765625,-0.0307178795337677,-0.015058087185025215,0.014815842732787132
1761478020048803800,7.890803955078125,-0.032927341759204865,-0.007892266847193241,0.02308429218828678
1761478020058788900,7.900788818359375,-0.03406211733818054,0.0028993943706154823,0.028031114488840103
1761478020068774000,7.91077392578125,-0.028377346694469452,0.022539937868714333,0.024247344583272934
1761478020078760000,7.920760009765625,-0.022729046642780304,0.03468501940369606,0.020052066072821617
1761478020088745000,7.930744873046875,-0.022268295288085938,0.03517505154013634,0.012579414993524551
1761478020098729700,7.940729736328125,-0.02444995939731598,0.0416254922747612,0.008227810263633728
1761478020108714800,7.95071484375,-0.029060062021017075,0.04275780916213989,0.0008936356753110886
1761478020118699800,7.96069970703125,-0.036043137311935425,0.01699944958090782,0.0013402476906776428
1761478020128684800,7.970684814453125,-0.0357661247253418,0.010437521152198315,0.004310257267206907
1761478020138670000,7.980670166015625,-0.0305029209703207,0.008313383907079697,0.0037443358451128006
1761478020148654800,7.99065478515625,-0.022937899455428123,0.01970444805920124,0.010764949023723602
1761478020158641000,8.000640869140625,-0.017282677814364433,0.03185245767235756,0.0029453751631081104
1761478020168626000,8.0106259765625,-0.02079470455646515,0.0306042842566967,-0.0031251145992428064
1761478020178610700,8.020610595703126,-0.022578492760658264,0.02939973771572113,-0.004560558591037989
1761478020188595700,8.030595703125,-0.024828875437378883,0.02204914204776287,-0.004051312804222107
1761478020198581000,8.0405810546875,-0.02552502602338791,0.02138441614806652,0.0024880790151655674
1761478020208566000,8.05056591796875,-0.028526652604341507,-0.011778583750128746,0.02086087502539158
1761478020218551000,8.060551025390625,-0.021699903532862663,-0.07719513773918152,0.028644228354096413
1761478020228535800,8.070535888671875,-0.019621804356575012,-0.05996697023510933,0.010498805902898312
1761478020238520800,8.080520751953125,-0.025776902213692665,-0.03234599530696869,-0.002316324505954981
1761478020248507000,8.0905068359375,-0.02092869207262993,-0.03524167463183403,0.008408665657043457
1761478020258491600,8.10049169921875,-0.01588972471654415,-0.030805379152297974,0.014650048688054085
1761478020268477000,8.110476806640625,-0.011746587231755257,-0.035789817571640015,0.0015009019989520311
1761478020278462000,8.1204619140625,-0.01002432219684124,-0.06630725413560867,-0.014654898084700108
1761478020288447000,8.130447021484375,-0.008367344737052917,-0.08673699200153351,-0.02584502473473549
1761478020298432000,8.140431884765626,-0.008905569091439247,-0.08071505278348923,-0.01671757362782955
1761478020308416800,8.150416748046876,-0.00622007017955184,-0.062340762466192245,-0.013449378311634064
1761478020318401800,8.16040185546875,-0.0016836412250995636,-0.046632107347249985,-0.01140886452049017
1761478020328388000,8.17038818359375,0.006636716425418854,-0.04030163213610649,-0.016708116978406906
1761478020338372900,8.180372802734375,0.013512732461094856,-0.04811987280845642,-0.025494949892163277
1761478020348358000,8.19035791015625,0.021456509828567505,-0.03901370242238045,-0.025667956098914146
1761478020358343000,8.200343017578126,0.021858645603060722,-0.018848778679966927,-0.02654253877699375
1761478020368328000,8.210327880859374,0.026088444516062737,-0.0008237326983362436,-0.02366003207862377
1761478020378312700,8.220312744140625,0.026369407773017883,0.01595364883542061,-0.02251327596604824
1761478020388297700,8.230297607421875,0.022445406764745712,0.02269344963133335,-0.026526067405939102
1761478020398282800,8.24028271484375,0.023911744356155396,-0.0013205402065068483,-0.036643680185079575
1761478020408269000,8.25026904296875,0.017565788701176643,-0.04552517086267471,-0.046106189489364624
1761478020418253800,8.26025390625,0.02248171716928482,-0.09862354397773743,-0.058447279036045074
1761478020428238800,8.27023876953125,0.03275597095489502,-0.11860691010951996,-0.06552810966968536
1761478020438224000,8.280223876953125,0.03944503515958786,-0.08186966925859451,-0.04508541524410248
1761478020448209000,8.290208984375,0.029545430094003677,-0.03203486278653145,-0.019931524991989136
1761478020458193700,8.300193603515625,0.025030039250850677,-0.04137643054127693,-0.01827503927052021
1761478020468179000,8.310178955078126,0.02116544544696808,-0.06569306552410126,-0.024688469246029854
1761478020478164000,8.3201640625,0.02242618426680565,-0.07929915189743042,-0.02334863319993019
1761478020488149800,8.330149658203124,0.01093506719917059,-0.09684260189533234,-0.028173116967082024
1761478020498134800,8.340134765625,-0.00017910310998558998,-0.13279233872890472,-0.04146229103207588
1761478020508119000,8.350119140625,-0.019029846414923668,-0.16238363087177277,-0.05528220534324646
1761478020518104000,8.36010400390625,-0.013597531244158745,-0.177718386054039,-0.05203208327293396
1761478020528089000,8.370089111328125,0.004516344517469406,-0.1429079920053482,-0.03666210174560547
1761478020538074000,8.38007421875,0.020594114437699318,-0.055177874863147736,-0.008719684556126595
1761478020548059000,8.390058837890624,0.021028650924563408,0.005999081768095493,0.006729608867317438
1761478020558044200,8.400044189453125,0.018499713391065598,-0.0041691334918141365,0.002238187938928604
1761478020568030200,8.4100302734375,0.007942217402160168,-0.05303385108709335,-0.011969415470957756
1761478020578015000,8.420014892578125,0.00009627826511859894,-0.08475875854492188,-0.027928143739700317
1761478020588000000,8.43,0.0021588439121842384,-0.08686888962984085,-0.033496562391519547
1761478020597985000,8.439985107421874,0.006517906207591295,-0.08463875949382782,-0.032469116151332855
1761478020607970000,8.449969970703124,0.01246590819209814,-0.07735151797533035,-0.02231820859014988
1761478020617955000,8.459955078125,0.016293669119477272,-0.0601179376244545,-0.005798354744911194
1761478020627940000,8.469940185546875,0.020548969507217407,-0.037707045674324036,-0.0008286922238767147
1761478020637925000,8.479925048828125,0.016565680503845215,-0.021391186863183975,0.0015958494041115046
1761478020647911200,8.4899111328125,0.00627055112272501,-0.00632307305932045,-0.0002824000548571348
1761478020657896000,8.49989599609375,-0.004147469066083431,-0.017346162348985672,-0.0066422950476408005
1761478020667881000,8.509880859375,-0.011355379596352577,-0.034302253276109695,-0.00936815980821848
1761478020677866000,8.519865966796875,-0.015502188354730606,-0.03662266582250595,-0.015242028050124645
1761478020687851300,8.529851318359375,-0.013765815645456314,-0.02233615331351757,-0.013566607609391212
1761478020697836300,8.539836181640625,-0.00781285110861063,-0.011149545200169086,-0.00681256502866745
1761478020707821000,8.549821044921876,-0.006094671785831451,-0.002609433839097619,-0.0037943716160953045
1761478020717809000,8.559808837890625,-0.007074181921780109,-0.015195799060165882,-0.008440522477030754
1761478020727794200,8.569794189453125,-0.0016197897493839264,-0.04375990107655525,-0.015639424324035645
1761478020737779200,8.579779296875,0.0013839895837008953,-0.05356885492801666,-0.019176101312041283
1761478020747764200,8.58976416015625,0.002027427777647972,-0.05068030208349228,-0.011318836361169815
1761478020757749000,8.5997490234375,-0.0002240086905658245,-0.03131938725709915,-0.0014480957761406898
1761478020767734000,8.609734130859374,-0.000546793919056654,-0.010419772006571293,0.0025715138763189316
1761478020777719000,8.619718994140625,-0.00026449887081980705,0.00018786475993692875,-0.00234175194054842
1761478020787705000,8.629705078125,0.0004860181361436844,-0.005328965373337269,-0.010004457086324692
1761478020797690000,8.639690185546876,-0.00027857581153512,0.0020509199239313602,-0.006908798590302467
1761478020807675100,8.649675048828126,-0.009028226137161255,-0.0027591409161686897,-0.004184054210782051
1761478020817660200,8.65966015625,-0.008645528927445412,-0.018839307129383087,0.0027960906736552715
1761478020827645200,8.669645263671875,-0.00919484905898571,-0.04111839830875397,0.004166260827332735
1761478020837630000,8.6796298828125,-0.005276008043438196,-0.04804714396595955,0.008503750897943974
1761478020847615000,8.689614990234375,-0.0009632743895053864,-0.043374087661504745,0.007491712458431721
1761478020857601300,8.699601318359376,-0.0011267922818660736,-0.0374823734164238,0.01320578996092081
1761478020867586000,8.7095859375,0.0011632596142590046,-0.02865186519920826,0.012431875802576542
1761478020877571000,8.719571044921874,-0.0017702123150229454,-0.03341758996248245,0.011331990361213684
1761478020887556000,8.72955615234375,-0.0015003141015768051,-0.039940521121025085,0.008332816883921623
1761478020897541000,8.739541015625,-0.00377279007807374,-0.029058314859867096,0.001575311878696084
1761478020907526100,8.749526123046875,-0.0087239108979702,-0.02896900661289692,-0.002308386377990246
1761478020917511000,8.759510986328126,-0.00860193744301796,-0.03787461668252945,-0.006826705299317837
1761478020927496200,8.76949609375,-0.0013783141039311886,-0.03476856276392937,-0.004759706556797028
1761478020937482200,8.779482177734375,-0.00020013144239783287,-0.032835375517606735,0.003873196430504322
1761478020947467000,8.789467041015625,0.004189197905361652,-0.02304064668715,0.014089647680521011
1761478020957452000,8.7994521484375,0.004241928458213806,-0.015902843326330185,0.017112867906689644
1761478020967437000,8.80943701171875,0.0018421625718474388,-0.002516385167837143,0.016009164974093437
1761478020977422000,8.819422119140626,-0.0012769312597811222,0.009921908378601074,0.011586187407374382
1761478020987406800,8.82940673828125,-0.006625834386795759,0.004461030941456556,0.0026951709296554327
1761478020997392100,8.83939208984375,-0.005680944304913282,-0.02366754412651062,-0.008481583558022976
1761478021007377200,8.849377197265625,-0.004744761623442173,-0.03281572833657265,-0.011495682410895824
1761478021017363000,8.859363037109375,-0.0014629485085606575,-0.016362452879548073,-0.005071073304861784
1761478021027348000,8.869347900390625,0.01068581361323595,0.003998555708676577,-0.0029961855616420507
1761478021037333000,8.8793330078125,0.01624223217368126,0.005446516443043947,-0.0034928652457892895
1761478021047318000,8.889318115234374,0.0139656076207757,-0.012509647756814957,-0.005681614391505718
1761478021057303300,8.89930322265625,0.010127726942300797,-0.020665844902396202,-0.0020695689599961042
1761478021067288000,8.9092880859375,0.002421383047476411,-0.01939905248582363,-0.0006730223540216684
1761478021077273000,8.919273193359375,-0.0001538936048746109,-0.01649700663983822,-0.007853170856833458
1761478021087259100,8.929259033203126,-0.00047760549932718277,-0.019889380782842636,-0.018077531829476357
1761478021097244000,8.939243896484374,0.004932073876261711,-0.01088390126824379,-0.014231927692890167
1761478021107229000,8.94922900390625,0.005066756159067154,-0.01010788045823574,-0.019854754209518433
1761478021117214000,8.9592138671875,-0.002654280047863722,-0.017580177634954453,-0.013966770842671394
1761478021127199200,8.96919921875,-0.0019858269952237606,-0.01763024553656578,-0.009165357798337936
1761478021137184300,8.979184326171875,0.004055554047226906,-0.006520070135593414,-0.004860357381403446
1761478021147169000,8.9891689453125,0.012542549520730972,0.00831359252333641,-0.006042173597961664
1761478021157154000,8.999154052734376,0.018164481967687607,0.014674020931124687,-0.010856902226805687
1761478021167140000,9.00914013671875,0.021599192172288895,0.020034588873386383,-0.0101386159658432
1761478021177124900,9.019124755859375,0.023870600387454033,0.025166500359773636,-0.015684649348258972
1761478021187110100,9.029110107421875,0.014801840297877789,0.02026987075805664,-0.020083457231521606
1761478021197095200,9.03909521484375,0.005046947859227657,0.011952552944421768,-0.022735700011253357
1761478021207080200,9.049080078125,-0.004330520983785391,-0.007195104844868183,-0.023195939138531685
1761478021217065200,9.059065185546874,-0.006429091561585665,-0.012426885776221752,-0.01570446603000164
1761478021227050000,9.069050048828124,-0.0024974201805889606,-0.0028230701573193073,-0.017649123445153236
1761478021237035000,9.079034912109375,0.008244173601269722,-0.0032489097211509943,-0.015577983111143112
1761478021247021000,9.08902099609375,0.01620583049952984,0.0012366909068077803,-0.017256086692214012
1761478021257006000,9.099006103515626,0.020997922867536545,0.013707209378480911,-0.017512015998363495
1761478021266991000,9.1089912109375,0.023006195202469826,0.028732141479849815,-0.012921135872602463
1761478021276976000,9.11897607421875,0.030399130657315254,0.03388163074851036,-0.015101732686161995
1761478021286961200,9.128961181640625,0.03324113413691521,0.03271175175905228,-0.021607114002108574
1761478021296946200,9.1389462890625,0.024208759889006615,0.03104780986905098,-0.019367128610610962
1761478021306931000,9.148930908203125,0.015819434076547623,0.02465050481259823,-0.012139779515564442
1761478021316917200,9.158917236328126,0.004947345238178968,0.016455424949526787,-0.006169239059090614
1761478021326902300,9.16890234375,-0.0029753842391073704,0.01758342608809471,0.001025855541229248
1761478021336887000,9.178886962890624,-0.003803627099841833,0.024031205102801323,0.01024119183421135
1761478021346872000,9.1888720703125,0.005802741274237633,0.03911539167165756,0.005912298336625099
1761478021356857000,9.198857177734375,0.008257376961410046,0.04102221503853798,-0.0013834311394020915
1761478021366842000,9.208842041015625,0.013999897055327892,0.04007978364825249,-0.006652192212641239
1761478021376827000,9.218826904296876,0.010244041681289673,0.038315173238515854,-0.0041594733484089375
1761478021386813200,9.228813232421874,0.001240599900484085,0.03002011589705944,0.0020907374564558268
1761478021396798200,9.238798095703125,-0.0032976926304399967,0.023588847368955612,0.008883662521839142
1761478021406783000,9.248782958984375,-0.006228810641914606,0.010979147627949715,0.005437812302261591
1761478021416768000,9.25876806640625,-0.00670658191666007,-0.0012506204657256603,-0.002263516653329134
1761478021426753000,9.2687529296875,0.00313003221526742,-0.0026561154518276453,-0.005857273004949093
1761478021436738000,9.278738037109376,0.004400359932333231,0.005854548886418343,-0.006089234258979559
1761478021446723000,9.28872314453125,0.009499307721853256,0.01313265971839428,-0.005155852064490318
1761478021456708000,9.2987080078125,0.011191480793058872,0.018162306398153305,-0.004934011027216911
1761478021466694100,9.308694091796875,0.014675788581371307,0.01967615634202957,-0.009524277411401272
1761478021476679200,9.31867919921875,0.024633081629872322,0.02954503335058689,-0.009868358261883259
1761478021486664000,9.328663818359376,0.0333799384534359,0.06524965912103653,0.000017181038856506348
1761478021496649000,9.33864892578125,0.027122044935822487,0.04847440868616104,0.020544027909636497
1761478021506634500,9.348634521484374,0.00954442098736763,0.024265918880701065,-0.022402631118893623
1761478021516619800,9.358619873046875,-0.0024049170315265656,-0.08540119230747223,-0.037939511239528656
1761478021526604500,9.3686044921875,0.0019645667634904385,-0.09524224698543549,-0.03029322437942028
1761478021536589600,9.378589599609375,-0.0054813651368021965,-0.056615497916936874,-0.02499433420598507
1761478021546575600,9.38857568359375,-0.008602617308497429,-0.02447044663131237,-0.013462427072227001
1761478021556560600,9.398560546875,-0.01496011484414339,-0.004530028440058231,0.00922690611332655
1761478021566545400,9.40854541015625,-0.022778544574975967,0.009232968091964722,0.029114674776792526
1761478021576530700,9.41853076171875,-0.026030264794826508,0.021660342812538147,0.04479803144931793
1761478021586515700,9.428515625,-0.023151665925979614,0.012103820219635963,0.04002302139997482
